Ayaan's Suite
Timestamp,Sample Rate (Hz),Time,Ax,Ay,Az,Gx,Gy,Gz
2024-09-23 14:53:17.007424,0,29.443255,-0.0035816467500972456,-0.02313149783467906,0.0970030596496862,40.106058693909645,-100.26678939585686,84.22370748782159
2024-09-23 14:53:17.019165,0,29.443255,-0.0035816467500972456,-0.02313149783467906,0.0970030596496862,44.11764879391193,-100.26678939585686,84.22370748782159
2024-09-23 14:53:17.052290,0,29.443255,-0.0035816467500972456,-0.02313149783467906,0.0970030596496862,44.11764879391193,-100.26678939585686,76.200527287817
2024-09-23 14:53:17.063648,0,29.443306,-0.002785727465249955,-0.02303200030545576,0.09725178296655933,32.08287849390507,-100.26678939585686,76.200527287817
2024-09-23 14:53:17.106639,0,29.4434,-0.0036811340262279837,-0.023778180888911878,0.09725178296655933,32.08287849390507,-108.28669110388756,80.21211738781929
2024-09-23 14:53:17.118225,0,29.4434,-0.0036811340262279837,-0.023778180888911878,0.09705279702197278,32.08287849390507,-108.28669110388756,80.21211738781929
2024-09-23 14:53:17.151309,0,29.4434,-0.0036811340262279837,-0.023778180888911878,0.09705279702197278,20.05138839341998,-100.26678939585686,80.21211738781929
2024-09-23 14:53:17.162254,0,29.443451,-0.0031836870127375577,-0.023479709566915436,0.09705279702197278,20.05138839341998,-100.26678939585686,80.21211738781929
2024-09-23 14:53:17.204728,0,29.443502,-0.0031836870127375577,-0.023479709566915436,0.09740101331113918,24.06297849342227,-104.27510100388527,80.21211738781929
2024-09-23 14:53:17.216619,0,29.443502,-0.0035816467500972456,-0.023479709566915436,0.09740101331113918,24.06297849342227,-104.27510100388527,80.21211738781929
2024-09-23 14:53:17.248682,0,29.443502,-0.0035816467500972456,-0.02313149783467906,0.09725178296655933,24.06297849342227,-104.27510100388527,80.21211738781929
2024-09-23 14:53:17.260719,0,29.443593,-0.0035816467500972456,-0.02313149783467906,0.09725178296655933,52.137550501942634,-96.25519929585457,80.21211738781929
2024-09-23 14:53:17.304165,0,29.443593,-0.0034324103296106863,-0.023479709566915436,0.09705279702197278,48.12595698684454,-88.23529758782387,84.22370748782159
2024-09-23 14:53:17.346205,0,29.443645,-0.0031836870127375577,-0.023479709566915436,0.09705279702197278,48.12595698684454,-88.23529758782387,84.22370748782159
2024-09-23 14:53:17.358109,0,29.443645,-0.0031836870127375577,-0.023330473146428877,0.09705279702197278,44.11764879391193,-96.25519929585457,84.22370748782159
2024-09-23 14:53:17.401168,0,29.443696,-0.003979606107712764,-0.023429960042815445,0.09750050628343246,36.09446859390736,-96.25519929585457,76.200527287817
2024-09-23 14:53:17.444067,0,29.443747,-0.003979606107712764,-0.023429960042815445,0.09750050628343246,36.09446859390736,-100.26678939585686,84.22370748782159
2024-09-23 14:53:17.497013,0,29.443747,-0.0030841997366068195,-0.023479709566915436,0.0973015264147526,36.09446859390736,-100.26678939585686,84.22370748782159
2024-09-23 14:53:17.509126,0,29.443747,-0.0030841997366068195,-0.023479709566915436,0.0973015264147526,36.09446859390736,-100.26678939585686,80.21211738781929
2024-09-23 14:53:17.542300,0,29.443797,-0.003482159473966507,-0.02367869399252531,0.0973015264147526,36.09446859390736,-100.26678939585686,80.21211738781929
2024-09-23 14:53:17.594778,0,29.443848,-0.003482159473966507,-0.02367869399252531,0.09740101331113918,20.05138839341998,-104.27510100388527,80.21211738781929
2024-09-23 14:53:17.606765,0,29.443848,-0.0038801188315820256,-0.02367869399252531,0.09740101331113918,20.05138839341998,-104.27510100388527,80.21211738781929
2024-09-23 14:53:17.639392,0,29.443848,-0.0038801188315820256,-0.023827930413011865,0.09764974270391902,20.05138839341998,-104.27510100388527,80.21211738781929
2024-09-23 14:53:17.650761,0,29.443935,-0.0038801188315820256,-0.023827930413011865,0.09764974270391902,40.106058693909645,-88.23529758782387,84.22370748782159
2024-09-23 14:53:17.693952,0,29.443935,-0.003233425524256645,-0.022833026512682618,0.09759999317981902,56.14914060194492,-96.25519929585457,84.22370748782159
2024-09-23 14:53:17.705896,0,29.443935,-0.003233425524256645,-0.022833026512682618,0.09759999317981902,56.14914060194492,-96.25519929585457,84.22370748782159
2024-09-23 14:53:17.738134,0,29.443986,-0.0038801188315820256,-0.02313149783467906,0.09759999317981902,56.14914060194492,-96.25519929585457,84.22370748782159
2024-09-23 14:53:17.750180,0,29.443986,-0.0038801188315820256,-0.02313149783467906,0.09685382322919964,44.11764879391193,-92.24360919585227,84.22370748782159
2024-09-23 14:53:17.782535,0,29.443986,-0.0038801188315820256,-0.02313149783467906,0.09685382322919964,44.11764879391193,-92.24360919585227,80.21211738781929
2024-09-23 14:53:17.794148,0,29.444036,-0.0031339382481259063,-0.0228827638849692,0.09685382322919964,44.11764879391193,-92.24360919585227,80.21211738781929
2024-09-23 14:53:17.835868,0,29.444132,-0.0031339382481259063,-0.0228827638849692,0.09685382322919964,44.11764879391193,-100.26678939585686,80.21211738781929
2024-09-23 14:53:17.846770,0,29.444132,-0.003780631555451287,-0.02303200030545576,0.09710254654607277,44.11764879391193,-100.26678939585686,80.21211738781929
2024-09-23 14:53:17.889292,0,29.444183,-0.0031836870127375577,-0.022982261414192504,0.09710254654607277,36.09446859390736,-92.24360919585227,80.21211738781929
2024-09-23 14:53:17.932687,0,29.444183,-0.0031836870127375577,-0.022982261414192504,0.09710254654607277,20.05138839341998,-100.26678939585686,80.21211738781929
2024-09-23 14:53:17.944092,0,29.444233,-0.0031836870127375577,-0.022982261414192504,0.09710254654607277,20.05138839341998,-100.26678939585686,84.22370748782159
2024-09-23 14:53:17.986515,43.07,29.444325,-0.0031836870127375577,-0.023579196463302005,0.09705279702197278,40.106058693909645,-100.26678939585686,84.22370748782159
2024-09-23 14:53:18.029255,43.07,29.444325,-0.0030344509719951677,-0.02278327698858263,0.0970030596496862,40.106058693909645,-100.26678939585686,84.22370748782159
2024-09-23 14:53:18.041020,43.07,29.444325,-0.0030344509719951677,-0.02278327698858263,0.0970030596496862,44.11764879391193,-92.24360919585227,80.21211738781929
2024-09-23 14:53:18.083838,43.07,29.444376,-0.0031339382481259063,-0.02352945757203875,0.09680407370509965,44.11764879391193,-92.24360919585227,80.21211738781929
2024-09-23 14:53:18.126268,43.07,29.444376,-0.0031339382481259063,-0.02352945757203875,0.09680407370509965,48.12595698684454,-100.26678939585686,80.21211738781929
2024-09-23 14:53:18.138154,43.07,29.444427,-0.003233425524256645,-0.023429960042815445,0.09680407370509965,48.12595698684454,-100.26678939585686,84.22370748782159
2024-09-23 14:53:18.181670,43.07,29.444478,-0.0031836870127375577,-0.023429960042815445,0.09665483728461309,48.12595698684454,-96.25519929585457,72.1922225099802
2024-09-23 14:53:18.225415,43.07,29.444478,-0.0031836870127375577,-0.02303200030545576,0.09705279702197278,36.09446859390736,-96.25519929585457,72.1922225099802
2024-09-23 14:53:18.236615,43.07,29.444529,-0.0031836870127375577,-0.02303200030545576,0.09705279702197278,36.09446859390736,-100.26678939585686,72.1922225099802
2024-09-23 14:53:18.280284,43.07,29.444529,-0.0032831742888682963,-0.023181236725942318,0.09715228999426605,24.06297849342227,-96.25519929585457,80.21211738781929
2024-09-23 14:53:18.322521,43.07,29.444579,-0.0030344509719951677,-0.02313149783467906,0.09715228999426605,24.06297849342227,-96.25519929585457,80.21211738781929
2024-09-23 14:53:18.334254,43.07,29.444579,-0.0030344509719951677,-0.02313149783467906,0.09720203344245934,40.106058693909645,-96.25519929585457,80.21211738781929
2024-09-23 14:53:18.376908,43.07,29.444667,-0.003482159473966507,-0.023330473146428877,0.09710254654607277,36.09446859390736,-96.25519929585457,88.23529758782387
2024-09-23 14:53:18.419656,43.07,29.444718,-0.003482159473966507,-0.023330473146428877,0.09710254654607277,36.09446859390736,-96.25519929585457,84.22370748782159
2024-09-23 14:53:18.431263,43.07,29.444718,-0.003631395514708897,-0.02278327698858263,0.09750050628343246,36.09446859390736,-96.25519929585457,84.22370748782159
2024-09-23 14:53:18.473772,43.07,29.444718,-0.003631395514708897,-0.02278327698858263,0.09750050628343246,32.08287849390507,-100.26678939585686,84.22370748782159
2024-09-23 14:53:18.516383,43.07,29.444769,-0.0034324103296106863,-0.02278327698858263,0.09750050628343246,32.08287849390507,-100.26678939585686,84.22370748782159
2024-09-23 14:53:18.529996,43.07,29.444769,-0.0034324103296106863,-0.022833026512682618,0.09695331012558621,48.12595698684454,-84.22370748782159,84.22370748782159
2024-09-23 14:53:18.563933,43.07,29.444769,-0.0034324103296106863,-0.022833026512682618,0.09695331012558621,48.12595698684454,-84.22370748782159,88.23529758782387
2024-09-23 14:53:18.575842,43.07,29.44482,-0.0028354659767690416,-0.022982261414192504,0.09720203344245934,44.11764879391193,-84.22370748782159,88.23529758782387
2024-09-23 14:53:18.618536,43.07,29.44491,-0.0031339382481259063,-0.022982261414192504,0.09720203344245934,44.11764879391193,-96.25519929585457,76.200527287817
2024-09-23 14:53:18.630329,43.07,29.44491,-0.0031339382481259063,-0.023579196463302005,0.09690356060148622,44.11764879391193,-96.25519929585457,76.200527287817
2024-09-23 14:53:18.662462,43.07,29.44491,-0.0031339382481259063,-0.023579196463302005,0.09690356060148622,32.08287849390507,-92.24360919585227,76.200527287817
2024-09-23 14:53:18.674002,43.07,29.444961,-0.003382661564999035,-0.023429960042815445,0.09690356060148622,32.08287849390507,-92.24360919585227,80.21211738781929
2024-09-23 14:53:18.716447,43.07,29.444961,-0.003382661564999035,-0.023429960042815445,0.0970030596496862,28.07457030097246,-96.25519929585457,80.21211738781929
2024-09-23 14:53:18.758535,43.07,29.445012,-0.003382661564999035,-0.023429960042815445,0.0970030596496862,28.07457030097246,-96.25519929585457,80.21211738781929
2024-09-23 14:53:18.770642,43.07,29.445012,-0.0035318979854855937,-0.023181236725942318,0.09764974270391902,44.11764879391193,-100.26678939585686,80.21211738781929
2024-09-23 14:53:18.812992,43.07,29.445105,-0.003482159473966507,-0.023181236725942318,0.09750050628343246,44.11764879391193,-100.26678939585686,76.200527287817
2024-09-23 14:53:18.824674,43.07,29.445105,-0.003482159473966507,-0.023181236725942318,0.09750050628343246,44.11764879391193,-100.26678939585686,76.200527287817
2024-09-23 14:53:18.858191,43.07,29.445105,-0.003482159473966507,-0.023181236725942318,0.09750050628343246,44.11764879391193,-100.26678939585686,76.200527287817
2024-09-23 14:53:18.870466,43.07,29.445156,-0.0029349636958644295,-0.023330473146428877,0.09690356060148622,44.11764879391193,-100.26678939585686,76.200527287817
2024-09-23 14:53:18.904783,43.07,29.445156,-0.0029349636958644295,-0.023330473146428877,0.09690356060148622,48.12595698684454,-100.26678939585686,76.200527287817
2024-09-23 14:53:18.915847,43.07,29.445207,-0.003233425524256645,-0.023330473146428877,0.09690356060148622,48.12595698684454,-96.25519929585457,76.200527287817
2024-09-23 14:53:18.959647,43.07,29.445258,-0.003233425524256645,-0.023330473146428877,0.09675432418099966,48.12595698684454,-100.26678939585686,76.200527287817
2024-09-23 14:53:18.970957,43.07,29.445258,-0.0032831742888682963,-0.023330473146428877,0.09675432418099966,48.12595698684454,-100.26678939585686,76.200527287817
2024-09-23 14:53:19.003032,43.18,29.445258,-0.0032831742888682963,-0.02308174982955575,0.09665483728461309,48.12595698684454,-100.26678939585686,76.200527287817
2024-09-23 14:53:19.014580,43.18,29.445348,-0.0032831742888682963,-0.02308174982955575,0.09665483728461309,24.06297849342227,-104.27510100388527,76.200527287817
2024-09-23 14:53:19.056656,43.18,29.445348,-0.0029349636958644295,-0.02308174982955575,0.09814718933766527,24.06297849342227,-92.24360919585227,76.200527287817
2024-09-23 14:53:19.068327,43.18,29.445348,-0.0029349636958644295,-0.02308174982955575,0.09814718933766527,24.06297849342227,-92.24360919585227,76.200527287817
2024-09-23 14:53:19.101005,43.18,29.4454,-0.0033329230534799477,-0.02308174982955575,0.09814718933766527,24.06297849342227,-92.24360919585227,76.200527287817
2024-09-23 14:53:19.112283,43.18,29.4454,-0.0033329230534799477,-0.023479709566915436,0.09720203344245934,36.09446859390736,-96.25519929585457,76.200527287817
2024-09-23 14:53:19.154627,43.18,29.445451,-0.003482159473966507,-0.023927417309398437,0.09720203344245934,36.09446859390736,-96.25519929585457,80.21211738781929
2024-09-23 14:53:19.166507,43.18,29.445451,-0.003482159473966507,-0.023927417309398437,0.09774922960030558,32.08287849390507,-96.25519929585457,80.21211738781929
2024-09-23 14:53:19.198520,43.18,29.445451,-0.003482159473966507,-0.023927417309398437,0.09774922960030558,32.08287849390507,-100.26678939585686,80.21211738781929
2024-09-23 14:53:19.209606,43.18,29.445501,-0.0035816467500972456,-0.023479709566915436,0.09725178296655933,32.08287849390507,-100.26678939585686,80.21211738781929
2024-09-23 14:53:19.253369,43.18,29.445552,-0.003482159473966507,-0.023330473146428877,0.09725178296655933,52.137550501942634,-88.23529758782387,84.22370748782159
2024-09-23 14:53:19.295954,43.18,29.445552,-0.003482159473966507,-0.023330473146428877,0.0976994861521123,52.137550501942634,-88.23529758782387,84.22370748782159
2024-09-23 14:53:19.306944,43.18,29.445603,-0.0029349636958644295,-0.023330473146428877,0.0976994861521123,52.137550501942634,-96.25519929585457,80.21211738781929
2024-09-23 14:53:19.349049,43.18,29.445603,-0.0029349636958644295,-0.02303200030545576,0.0973512698629459,36.09446859390736,-100.26678939585686,80.21211738781929
2024-09-23 14:53:19.361853,43.18,29.44569,-0.0029349636958644295,-0.02303200030545576,0.0973512698629459,36.09446859390736,-100.26678939585686,80.21211738781929
2024-09-23 14:53:19.393954,43.18,29.44569,-0.003482159473966507,-0.02308174982955575,0.0973512698629459,36.09446859390736,-100.26678939585686,80.21211738781929
2024-09-23 14:53:19.447641,43.18,29.445741,-0.003482159473966507,-0.02308174982955575,0.09690356060148622,36.09446859390736,-96.25519929585457,72.1922225099802
2024-09-23 14:53:19.459408,43.18,29.445741,-0.0032831742888682963,-0.02308174982955575,0.09690356060148622,36.09446859390736,-96.25519929585457,72.1922225099802
2024-09-23 14:53:19.493065,43.18,29.445741,-0.0032831742888682963,-0.02308174982955575,0.09685382322919964,28.07457030097246,-96.25519929585457,72.1922225099802
2024-09-23 14:53:19.504855,43.18,29.445741,-0.0032831742888682963,-0.02308174982955575,0.09685382322919964,28.07457030097246,-96.25519929585457,72.1922225099802
2024-09-23 14:53:19.547883,43.18,29.445792,-0.003382661564999035,-0.023181236725942318,0.09675432418099966,36.09446859390736,-96.25519929585457,84.22370748782159
2024-09-23 14:53:19.589701,43.18,29.445843,-0.003382661564999035,-0.023181236725942318,0.09675432418099966,36.09446859390736,-96.25519929585457,80.21211738781929
2024-09-23 14:53:19.601771,43.18,29.445843,-0.0023380189632786156,-0.023479709566915436,0.09695331012558621,36.09446859390736,-96.25519929585457,80.21211738781929
2024-09-23 14:53:19.644273,43.18,29.445893,-0.0034324103296106863,-0.02293251340906919,0.09695331012558621,48.12595698684454,-92.24360919585227,80.21211738781929
2024-09-23 14:53:19.686218,43.18,29.445893,-0.0034324103296106863,-0.02293251340906919,0.09715228999426605,40.106058693909645,-92.24360919585227,80.21211738781929
2024-09-23 14:53:19.697407,43.18,29.445984,-0.0030344509719951677,-0.02293251340906919,0.09715228999426605,40.106058693909645,-96.25519929585457,80.21211738781929
2024-09-23 14:53:19.740417,43.18,29.446035,-0.0030344509719951677,-0.023181236725942318,0.09705279702197278,36.09446859390736,-96.25519929585457,76.200527287817
2024-09-23 14:53:19.783116,43.18,29.446035,-0.0031836870127375577,-0.023230986250042305,0.09705279702197278,36.09446859390736,-96.25519929585457,76.200527287817
2024-09-23 14:53:19.795064,43.18,29.446035,-0.0031836870127375577,-0.023230986250042305,0.09720203344245934,24.06297849342227,-92.24360919585227,80.21211738781929
2024-09-23 14:53:19.838140,43.18,29.446129,-0.0034324103296106863,-0.023280723622328886,0.0970030596496862,20.05138839341998,-100.26678939585686,80.21211738781929
2024-09-23 14:53:19.881072,43.18,29.44618,-0.0034324103296106863,-0.023280723622328886,0.0970030596496862,20.05138839341998,-100.26678939585686,80.21211738781929
2024-09-23 14:53:19.893315,43.18,29.44618,-0.0034324103296106863,-0.02278327698858263,0.09740101331113918,32.08287849390507,-100.26678939585686,80.21211738781929
2024-09-23 14:53:19.936584,43.18,29.446231,-0.003482159473966507,-0.023230986250042305,0.09695331012558621,32.08287849390507,-96.25519929585457,80.21211738781929
2024-09-23 14:53:19.979514,43.18,29.446231,-0.003482159473966507,-0.023230986250042305,0.09695331012558621,44.11764879391193,-92.24360919585227,88.23529758782387
2024-09-23 14:53:19.990944,43.18,29.446282,-0.003482159473966507,-0.02367869399252531,0.09695331012558621,44.11764879391193,-92.24360919585227,88.23529758782387
2024-09-23 14:53:20.034303,42.68,29.446282,-0.003482159473966507,-0.02367869399252531,0.0970030596496862,48.12595698684454,-100.26678939585686,88.23529758782387
2024-09-23 14:53:20.076294,42.68,29.446332,-0.003482159473966507,-0.02367869399252531,0.0970030596496862,48.12595698684454,-100.26678939585686,80.21211738781929
2024-09-23 14:53:20.088205,42.68,29.446332,-0.0034324103296106863,-0.023230986250042305,0.09705279702197278,36.09446859390736,-100.26678939585686,80.21211738781929
2024-09-23 14:53:20.130938,42.68,29.446421,-0.0030344509719951677,-0.02303200030545576,0.09705279702197278,36.09446859390736,-88.23529758782387,84.22370748782159
2024-09-23 14:53:20.142597,42.68,29.446421,-0.0030344509719951677,-0.02303200030545576,0.09680407370509965,36.09446859390736,-88.23529758782387,84.22370748782159
2024-09-23 14:53:20.174932,42.68,29.446421,-0.0030344509719951677,-0.02303200030545576,0.09680407370509965,28.07457030097246,-100.26678939585686,76.200527287817
2024-09-23 14:53:20.187205,42.68,29.446473,-0.003482159473966507,-0.02352945757203875,0.09680407370509965,28.07457030097246,-100.26678939585686,76.200527287817
2024-09-23 14:53:20.229470,42.68,29.446523,-0.0032831742888682963,-0.02352945757203875,0.09685382322919964,20.05138839341998,-104.27510100388527,80.21211738781929
2024-09-23 14:53:20.274114,42.68,29.446523,-0.0032831742888682963,-0.023429960042815445,0.09720203344245934,40.106058693909645,-104.27510100388527,80.21211738781929
2024-09-23 14:53:20.285453,42.68,29.446616,-0.0032831742888682963,-0.023429960042815445,0.09720203344245934,40.106058693909645,-92.24360919585227,68.18063240997792
2024-09-23 14:53:20.318739,42.68,29.446616,-0.003382661564999035,-0.023429960042815445,0.09720203344245934,40.106058693909645,-92.24360919585227,68.18063240997792
2024-09-23 14:53:20.330047,42.68,29.446616,-0.003382661564999035,-0.023181236725942318,0.09764974270391902,52.137550501942634,-100.26678939585686,76.200527287817
2024-09-23 14:53:20.373339,42.68,29.446668,-0.0034324103296106863,-0.0228827638849692,0.09705279702197278,48.12595698684454,-100.26678939585686,76.200527287817
2024-09-23 14:53:20.385912,42.68,29.446668,-0.0034324103296106863,-0.0228827638849692,0.09705279702197278,48.12595698684454,-96.25519929585457,76.200527287817
2024-09-23 14:53:20.418288,42.68,29.446718,-0.0037308827908396356,-0.0228827638849692,0.09705279702197278,48.12595698684454,-96.25519929585457,80.21211738781929
2024-09-23 14:53:20.429166,42.68,29.446718,-0.0037308827908396356,-0.022833026512682618,0.09740101331113918,48.12595698684454,-96.25519929585457,80.21211738781929
2024-09-23 14:53:20.471939,42.68,29.446769,-0.0031836870127375577,-0.0228827638849692,0.09670458680871308,48.12595698684454,-100.26678939585686,72.1922225099802
2024-09-23 14:53:20.514550,42.68,29.446769,-0.0031836870127375577,-0.0228827638849692,0.09670458680871308,32.08287849390507,-96.25519929585457,72.1922225099802
2024-09-23 14:53:20.526072,42.68,29.44682,-0.0031836870127375577,-0.0228827638849692,0.09670458680871308,32.08287849390507,-96.25519929585457,88.23529758782387
2024-09-23 14:53:20.568112,42.68,29.44682,-0.0037308827908396356,-0.023181236725942318,0.09680407370509965,24.06297849342227,-100.26678939585686,88.23529758782387
2024-09-23 14:53:20.579632,42.68,29.44682,-0.0037308827908396356,-0.023181236725942318,0.09680407370509965,24.06297849342227,-100.26678939585686,84.22370748782159
2024-09-23 14:53:20.612229,42.68,29.44687,-0.0034324103296106863,-0.023181236725942318,0.09680407370509965,24.06297849342227,-100.26678939585686,84.22370748782159
2024-09-23 14:53:20.623396,42.68,29.44687,-0.0034324103296106863,-0.022833026512682618,0.09784872257259886,36.09446859390736,-100.26678939585686,84.22370748782159
2024-09-23 14:53:20.665937,42.68,29.446957,-0.0033329230534799477,-0.022982261414192504,0.09750050628343246,36.09446859390736,-100.26678939585686,80.21211738781929
2024-09-23 14:53:20.678618,42.68,29.446957,-0.0033329230534799477,-0.022982261414192504,0.09750050628343246,36.09446859390736,-100.26678939585686,80.21211738781929
2024-09-23 14:53:20.711857,42.68,29.447009,-0.0033329230534799477,-0.022982261414192504,0.09750050628343246,36.09446859390736,-104.27510100388527,80.21211738781929
2024-09-23 14:53:20.723143,42.68,29.447009,-0.0030344509719951677,-0.023579196463302005,0.09715228999426605,36.09446859390736,-104.27510100388527,80.21211738781929
2024-09-23 14:53:20.765647,42.68,29.447059,-0.0031339382481259063,-0.02293251340906919,0.09715228999426605,48.12595698684454,-100.26678939585686,76.200527287817
2024-09-23 14:53:20.807497,42.68,29.447059,-0.0031339382481259063,-0.02293251340906919,0.09750050628343246,56.14914060194492,-100.26678939585686,76.200527287817
2024-09-23 14:53:20.818583,42.68,29.44711,-0.0034324103296106863,-0.02293251340906919,0.09750050628343246,56.14914060194492,-100.26678939585686,76.200527287817
2024-09-23 14:53:20.862263,42.68,29.447201,-0.0034324103296106863,-0.02303200030545576,0.0970030596496862,44.11764879391193,-96.25519929585457,84.22370748782159
2024-09-23 14:53:20.904831,42.68,29.447201,-0.0034324103296106863,-0.02338022115155219,0.0970030596496862,44.11764879391193,-96.25519929585457,84.22370748782159
2024-09-23 14:53:20.916746,42.68,29.447201,-0.0034324103296106863,-0.02338022115155219,0.09695331012558621,24.06297849342227,-100.26678939585686,76.200527287817
2024-09-23 14:53:20.958554,42.68,29.447253,-0.0035318979854855937,-0.02412639262114825,0.09705279702197278,28.07457030097246,-100.26678939585686,76.200527287817
2024-09-23 14:53:20.970561,42.68,29.447253,-0.0035318979854855937,-0.02412639262114825,0.09705279702197278,28.07457030097246,-100.26678939585686,76.200527287817
2024-09-23 14:53:21.003783,42.68,29.447303,-0.0031836870127375577,-0.02412639262114825,0.09705279702197278,28.07457030097246,-100.26678939585686,80.21211738781929
2024-09-23 14:53:21.015157,42.68,29.447303,-0.0031836870127375577,-0.02308174982955575,0.09695331012558621,28.07457030097246,-100.26678939585686,80.21211738781929
2024-09-23 14:53:21.057629,43.01,29.447354,-0.003382661564999035,-0.023429960042815445,0.09720203344245934,28.07457030097246,-96.25519929585457,84.22370748782159
2024-09-23 14:53:21.100189,43.01,29.447354,-0.003382661564999035,-0.023429960042815445,0.09720203344245934,36.09446859390736,-96.25519929585457,84.22370748782159
2024-09-23 14:53:21.117148,43.01,29.447405,-0.0032831742888682963,-0.023579196463302005,0.09720203344245934,36.09446859390736,-96.25519929585457,80.21211738781929
2024-09-23 14:53:21.148992,43.01,29.447405,-0.0032831742888682963,-0.023579196463302005,0.09725178296655933,44.11764879391193,-96.25519929585457,80.21211738781929
2024-09-23 14:53:21.160833,43.01,29.447455,-0.003482159473966507,-0.023579196463302005,0.09725178296655933,44.11764879391193,-92.24360919585227,84.22370748782159
2024-09-23 14:53:21.203766,43.01,29.447542,-0.003482159473966507,-0.023230986250042305,0.09745075675933246,56.14914060194492,-96.25519929585457,80.21211738781929
2024-09-23 14:53:21.245962,43.01,29.447542,-0.0034324103296106863,-0.023230986250042305,0.09745075675933246,56.14914060194492,-96.25519929585457,80.21211738781929
2024-09-23 14:53:21.257431,43.01,29.447542,-0.0034324103296106863,-0.023230986250042305,0.09695331012558621,28.07457030097246,-104.27510100388527,80.21211738781929
2024-09-23 14:53:21.300265,43.01,29.447594,-0.0037308827908396356,-0.023181236725942318,0.09685382322919964,32.08287849390507,-104.27510100388527,72.1922225099802
2024-09-23 14:53:21.342918,43.01,29.447594,-0.0037308827908396356,-0.023181236725942318,0.09685382322919964,32.08287849390507,-104.27510100388527,80.21211738781929
2024-09-23 14:53:21.354707,43.01,29.447645,-0.002785727465249955,-0.02338022115155219,0.09695331012558621,32.08287849390507,-104.27510100388527,80.21211738781929
2024-09-23 14:53:21.397478,43.01,29.447695,-0.0035816467500972456,-0.023778180888911878,0.09695331012558621,28.07457030097246,-96.25519929585457,84.22370748782159
2024-09-23 14:53:21.440927,43.01,29.447695,-0.0035816467500972456,-0.023778180888911878,0.09665483728461309,28.07457030097246,-96.25519929585457,84.22370748782159
2024-09-23 14:53:21.452325,43.01,29.447746,-0.0031339382481259063,-0.023778180888911878,0.09665483728461309,32.08287849390507,-100.26678939585686,80.21211738781929
2024-09-23 14:53:21.495790,43.01,29.447746,-0.0031339382481259063,-0.02308174982955575,0.09715228999426605,44.11764879391193,-100.26678939585686,80.21211738781929
2024-09-23 14:53:21.507542,43.01,29.447796,-0.0031339382481259063,-0.02308174982955575,0.09715228999426605,44.11764879391193,-100.26678939585686,80.21211738781929
2024-09-23 14:53:21.540369,43.01,29.447796,-0.0031339382481259063,-0.023230986250042305,0.09695331012558621,44.11764879391193,-100.26678939585686,80.21211738781929
2024-09-23 14:53:21.551530,43.01,29.447796,-0.0031339382481259063,-0.023230986250042305,0.09695331012558621,48.12595698684454,-104.27510100388527,80.21211738781929
2024-09-23 14:53:21.594012,43.01,29.447884,-0.0033329230534799477,-0.02303200030545576,0.09670458680871308,32.08287849390507,-104.27510100388527,76.200527287817
2024-09-23 14:53:21.636981,43.01,29.447935,-0.0033329230534799477,-0.02303200030545576,0.09670458680871308,32.08287849390507,-104.27510100388527,84.22370748782159
2024-09-23 14:53:21.648365,43.01,29.447935,-0.0037308827908396356,-0.023827930413011865,0.09715228999426605,32.08287849390507,-104.27510100388527,84.22370748782159
2024-09-23 14:53:21.690599,43.01,29.447986,-0.0028354659767690416,-0.02362894446842532,0.09715228999426605,28.07457030097246,-104.27510100388527,80.21211738781929
2024-09-23 14:53:21.733878,43.01,29.447986,-0.0028354659767690416,-0.02362894446842532,0.09745075675933246,28.07457030097246,-104.27510100388527,80.21211738781929
2024-09-23 14:53:21.745834,43.01,29.448037,-0.0035816467500972456,-0.02362894446842532,0.09745075675933246,28.07457030097246,-100.26678939585686,76.200527287817
2024-09-23 14:53:21.788135,43.01,29.448037,-0.0035816467500972456,-0.02308174982955575,0.09685382322919964,28.07457030097246,-96.25519929585457,84.22370748782159
2024-09-23 14:53:21.799970,43.01,29.448087,-0.0035816467500972456,-0.02308174982955575,0.09685382322919964,28.07457030097246,-96.25519929585457,84.22370748782159
2024-09-23 14:53:21.832145,43.01,29.448087,-0.0034324103296106863,-0.023280723622328886,0.09680407370509965,28.07457030097246,-96.25519929585457,84.22370748782159
2024-09-23 14:53:21.843994,43.01,29.448087,-0.0034324103296106863,-0.023280723622328886,0.09680407370509965,52.137550501942634,-96.25519929585457,72.1922225099802
2024-09-23 14:53:21.928487,43.01,29.448177,-0.0034324103296106863,-0.023280723622328886,0.09680407370509965,52.137550501942634,-96.25519929585457,72.1922225099802
2024-09-23 14:53:21.940414,43.01,29.448177,-0.0034324103296106863,-0.02367869399252531,0.09715228999426605,52.137550501942634,-96.25519929585457,72.1922225099802
2024-09-23 14:53:21.984272,43.01,29.448228,-0.0033329230534799477,-0.02313149783467906,0.09774922960030558,52.137550501942634,-96.25519929585457,72.1922225099802
2024-09-23 14:53:22.028106,43.01,29.448279,-0.0033329230534799477,-0.02313149783467906,0.09774922960030558,52.137550501942634,-92.24360919585227,76.200527287817
2024-09-23 14:53:22.039475,43.01,29.448279,-0.0029847020175114316,-0.023230986250042305,0.09680407370509965,52.137550501942634,-92.24360919585227,76.200527287817
2024-09-23 14:53:22.082447,42.41,29.448329,-0.0031339382481259063,-0.023330473146428877,0.09680407370509965,40.106058693909645,-96.25519929585457,84.22370748782159
2024-09-23 14:53:22.125005,42.41,29.448329,-0.0031339382481259063,-0.023330473146428877,0.09705279702197278,24.06297849342227,-92.24360919585227,84.22370748782159
2024-09-23 14:53:22.137218,42.41,29.44838,-0.0031339382481259063,-0.023330473146428877,0.09705279702197278,24.06297849342227,-92.24360919585227,80.21211738781929
2024-09-23 14:53:22.169734,42.41,29.44838,-0.0031339382481259063,-0.022982261414192504,0.09705279702197278,24.06297849342227,-92.24360919585227,80.21211738781929
2024-09-23 14:53:22.181406,42.41,29.448517,-0.0031339382481259063,-0.022982261414192504,0.09715228999426605,44.11764879391193,-96.25519929585457,76.200527287817
2024-09-23 14:53:22.223622,42.41,29.448517,-0.0033329230534799477,-0.023280723622328886,0.09710254654607277,52.137550501942634,-96.25519929585457,76.200527287817
2024-09-23 14:53:22.235261,42.41,29.448517,-0.0033329230534799477,-0.023280723622328886,0.09710254654607277,52.137550501942634,-100.26678939585686,80.21211738781929
2024-09-23 14:53:22.267581,42.41,29.448569,-0.0033329230534799477,-0.023280723622328886,0.09710254654607277,52.137550501942634,-100.26678939585686,80.21211738781929
2024-09-23 14:53:22.278741,42.41,29.448569,-0.0029847020175114316,-0.02367869399252531,0.09690356060148622,44.11764879391193,-96.25519929585457,80.21211738781929
2024-09-23 14:53:22.321388,42.41,29.44862,-0.003233425524256645,-0.023330473146428877,0.09690356060148622,44.11764879391193,-96.25519929585457,76.200527287817
2024-09-23 14:53:22.332855,42.41,29.44862,-0.003233425524256645,-0.023330473146428877,0.09685382322919964,36.09446859390736,-96.25519929585457,76.200527287817
2024-09-23 14:53:22.364834,42.41,29.44862,-0.003233425524256645,-0.023330473146428877,0.09685382322919964,36.09446859390736,-104.27510100388527,76.200527287817
2024-09-23 14:53:22.376226,42.41,29.44867,-0.0030344509719951677,-0.022833026512682618,0.09685382322919964,36.09446859390736,-104.27510100388527,76.200527287817
2024-09-23 14:53:22.418402,42.41,29.448721,-0.0030344509719951677,-0.022833026512682618,0.09685382322919964,36.09446859390736,-100.26678939585686,76.200527287817
2024-09-23 14:53:22.430138,42.41,29.448721,-0.0037308827908396356,-0.023827930413011865,0.09685382322919964,36.09446859390736,-100.26678939585686,76.200527287817
2024-09-23 14:53:22.513576,42.41,29.448721,-0.0037308827908396356,-0.023827930413011865,0.09725178296655933,36.09446859390736,-100.26678939585686,76.200527287817
2024-09-23 14:53:22.566522,42.41,29.448772,-0.0037308827908396356,-0.023827930413011865,0.09725178296655933,32.08287849390507,-92.24360919585227,76.200527287817
2024-09-23 14:53:22.578538,42.41,29.448772,-0.0034324103296106863,-0.023827930413011865,0.09725178296655933,32.08287849390507,-92.24360919585227,76.200527287817
2024-09-23 14:53:22.610974,42.41,29.448772,-0.0034324103296106863,-0.02308174982955575,0.09725178296655933,32.08287849390507,-92.24360919585227,76.200527287817
2024-09-23 14:53:22.622737,42.41,29.448859,-0.0034324103296106863,-0.02308174982955575,0.09695331012558621,32.08287849390507,-92.24360919585227,68.18063240997792
2024-09-23 14:53:22.665907,42.41,29.448859,-0.0031339382481259063,-0.0228827638849692,0.0973015264147526,40.106058693909645,-108.28669110388756,72.1922225099802
2024-09-23 14:53:22.708337,42.41,29.448911,-0.0030344509719951677,-0.0228827638849692,0.0973015264147526,40.106058693909645,-108.28669110388756,72.1922225099802
2024-09-23 14:53:22.719541,42.41,29.448911,-0.0030344509719951677,-0.023280723622328886,0.0973015264147526,44.11764879391193,-104.27510100388527,72.1922225099802
2024-09-23 14:53:22.762410,42.41,29.448961,-0.003382661564999035,-0.023330473146428877,0.0973512698629459,44.11764879391193,-104.27510100388527,84.22370748782159
2024-09-23 14:53:22.774994,42.41,29.448961,-0.003382661564999035,-0.023330473146428877,0.0973512698629459,40.106058693909645,-104.27510100388527,84.22370748782159
2024-09-23 14:53:22.807372,42.41,29.449104,-0.003382661564999035,-0.023330473146428877,0.0973512698629459,40.106058693909645,-96.25519929585457,76.200527287817
2024-09-23 14:53:22.819178,42.41,29.449104,-0.0031836870127375577,-0.023479709566915436,0.09680407370509965,40.106058693909645,-96.25519929585457,76.200527287817
2024-09-23 14:53:22.862180,42.41,29.449155,-0.0031836870127375577,-0.023479709566915436,0.09680407370509965,36.09446859390736,-96.25519929585457,76.200527287817
2024-09-23 14:53:22.904775,42.41,29.449155,-0.0029847020175114316,-0.022833026512682618,0.09680407370509965,36.09446859390736,-96.25519929585457,76.200527287817
2024-09-23 14:53:22.916422,42.41,29.449155,-0.0029847020175114316,-0.022833026512682618,0.09750050628343246,28.07457030097246,-96.25519929585457,80.21211738781929
2024-09-23 14:53:22.960222,42.41,29.449205,-0.003482159473966507,-0.023429960042815445,0.09720203344245934,32.08287849390507,-92.24360919585227,80.21211738781929
2024-09-23 14:53:23.003379,42.41,29.449297,-0.003482159473966507,-0.023429960042815445,0.09720203344245934,32.08287849390507,-92.24360919585227,76.200527287817
2024-09-23 14:53:23.014843,42.41,29.449297,-0.003482159473966507,-0.022982261414192504,0.09725178296655933,44.11764879391193,-92.24360919585227,76.200527287817
2024-09-23 14:53:23.047405,42.41,29.449297,-0.003482159473966507,-0.022982261414192504,0.09725178296655933,44.11764879391193,-100.26678939585686,76.200527287817
2024-09-23 14:53:23.059185,42.41,29.449349,-0.0031836870127375577,-0.023479709566915436,0.0966050877605131,44.11764879391193,-100.26678939585686,80.21211738781929
2024-09-23 14:53:23.101069,42.37,29.4494,-0.0031836870127375577,-0.023479709566915436,0.0966050877605131,40.106058693909645,-100.26678939585686,80.21211738781929
2024-09-23 14:53:23.112202,42.37,29.4494,-0.003233425524256645,-0.022833026512682618,0.0966050877605131,40.106058693909645,-100.26678939585686,80.21211738781929
2024-09-23 14:53:23.155051,42.37,29.4494,-0.003233425524256645,-0.022833026512682618,0.09740101331113918,40.106058693909645,-96.25519929585457,80.21211738781929
2024-09-23 14:53:23.197671,42.37,29.44945,-0.0029349636958644295,-0.022833026512682618,0.09740101331113918,40.106058693909645,-96.25519929585457,76.200527287817
2024-09-23 14:53:23.209032,42.37,29.44945,-0.0029349636958644295,-0.023728432883788564,0.0970030596496862,28.07457030097246,-96.25519929585457,76.200527287817
2024-09-23 14:53:23.251313,42.37,29.449541,-0.0028354659767690416,-0.02338022115155219,0.09715228999426605,28.07457030097246,-96.25519929585457,84.22370748782159
2024-09-23 14:53:23.293942,42.37,29.449541,-0.0028354659767690416,-0.02338022115155219,0.09715228999426605,28.07457030097246,-100.26678939585686,84.22370748782159
2024-09-23 14:53:23.305753,42.37,29.449593,-0.0034324103296106863,-0.023330473146428877,0.09715228999426605,28.07457030097246,-100.26678939585686,76.200527287817
2024-09-23 14:53:23.348130,42.37,29.449643,-0.0030344509719951677,-0.023330473146428877,0.09705279702197278,28.07457030097246,-100.26678939585686,76.200527287817
2024-09-23 14:53:23.391122,42.37,29.449643,-0.0030344509719951677,-0.02313149783467906,0.09720203344245934,28.07457030097246,-100.26678939585686,76.200527287817
2024-09-23 14:53:23.402129,42.37,29.449694,-0.0030344509719951677,-0.02313149783467906,0.09720203344245934,36.09446859390736,-100.26678939585686,84.22370748782159
2024-09-23 14:53:23.445620,42.37,29.449694,-0.003382661564999035,-0.02303200030545576,0.09725178296655933,48.12595698684454,-96.25519929585457,76.200527287817
2024-09-23 14:53:23.539143,42.37,29.449785,-0.0031339382481259063,-0.02303200030545576,0.09725178296655933,48.12595698684454,-96.25519929585457,76.200527287817
2024-09-23 14:53:23.550383,42.37,29.449785,-0.0031339382481259063,-0.02352945757203875,0.09705279702197278,40.106058693909645,-96.25519929585457,76.200527287817
2024-09-23 14:53:23.592946,42.37,29.449837,-0.003780631555451287,-0.023927417309398437,0.09715228999426605,28.07457030097246,-96.25519929585457,76.200527287817
2024-09-23 14:53:23.635072,42.37,29.449837,-0.003780631555451287,-0.023927417309398437,0.09715228999426605,28.07457030097246,-96.25519929585457,80.21211738781929
2024-09-23 14:53:23.646927,42.37,29.449888,-0.0035318979854855937,-0.02352945757203875,0.09680407370509965,28.07457030097246,-96.25519929585457,80.21211738781929
2024-09-23 14:53:23.689442,42.37,29.449938,-0.0036811340262279837,-0.02352945757203875,0.09680407370509965,24.06297849342227,-96.25519929585457,84.22370748782159
2024-09-23 14:53:23.701317,42.37,29.449938,-0.0036811340262279837,-0.023778180888911878,0.09680407370509965,24.06297849342227,-96.25519929585457,84.22370748782159
2024-09-23 14:53:23.734141,42.37,29.449938,-0.0036811340262279837,-0.023778180888911878,0.09715228999426605,36.09446859390736,-92.24360919585227,84.22370748782159
2024-09-23 14:53:23.745697,42.37,29.44999,-0.0028354659767690416,-0.023778180888911878,0.09715228999426605,36.09446859390736,-92.24360919585227,80.21211738781929
2024-09-23 14:53:23.789301,42.37,29.44999,-0.0028354659767690416,-0.023877669304275123,0.09710254654607277,48.12595698684454,-88.23529758782387,84.22370748782159
2024-09-23 14:53:23.832160,42.37,29.450126,-0.0030841997366068195,-0.023330473146428877,0.09690356060148622,48.12595698684454,-88.23529758782387,84.22370748782159
2024-09-23 14:53:23.843693,42.37,29.450126,-0.0030841997366068195,-0.023330473146428877,0.09690356060148622,44.11764879391193,-100.26678939585686,84.22370748782159
2024-09-23 14:53:23.886612,42.37,29.450178,-0.0030841997366068195,-0.02238531725122294,0.09740101331113918,40.106058693909645,-100.26678939585686,84.22370748782159
2024-09-23 14:53:23.930401,42.37,29.450228,-0.0030841997366068195,-0.02238531725122294,0.09740101331113918,40.106058693909645,-96.25519929585457,76.200527287817
2024-09-23 14:53:23.942061,42.37,29.450228,-0.003382661564999035,-0.023230986250042305,0.0976994861521123,40.106058693909645,-96.25519929585457,76.200527287817
2024-09-23 14:53:23.975286,42.37,29.450228,-0.003382661564999035,-0.023230986250042305,0.0976994861521123,36.09446859390736,-96.25519929585457,76.200527287817
2024-09-23 14:53:23.986435,42.37,29.450279,-0.0037308827908396356,-0.023181236725942318,0.0976994861521123,36.09446859390736,-104.27510100388527,84.22370748782159
2024-09-23 14:53:24.029283,42.37,29.45033,-0.0037308827908396356,-0.023181236725942318,0.09690356060148622,16.039798293417693,-96.25519929585457,88.23529758782387
2024-09-23 14:53:24.041094,42.37,29.45033,-0.0028354659767690416,-0.023181236725942318,0.09690356060148622,16.039798293417693,-96.25519929585457,88.23529758782387
2024-09-23 14:53:24.074152,42.37,29.45033,-0.0028354659767690416,-0.02338022115155219,0.09745075675933246,16.039798293417693,-96.25519929585457,88.23529758782387
2024-09-23 14:53:24.085458,42.37,29.450419,-0.0028354659767690416,-0.02338022115155219,0.09745075675933246,36.09446859390736,-104.27510100388527,72.1922225099802
2024-09-23 14:53:24.128960,42.02,29.450419,-0.0032831742888682963,-0.023280723622328886,0.09774922960030558,40.106058693909645,-96.25519929585457,80.21211738781929
2024-09-23 14:53:24.171005,42.02,29.45047,-0.0033329230534799477,-0.023280723622328886,0.09774922960030558,40.106058693909645,-96.25519929585457,80.21211738781929
2024-09-23 14:53:24.182429,42.02,29.45047,-0.0033329230534799477,-0.022982261414192504,0.09695331012558621,36.09446859390736,-84.22370748782159,80.21211738781929
2024-09-23 14:53:24.224782,42.02,29.450521,-0.0026862297461545674,-0.02308174982955575,0.09774922960030558,36.09446859390736,-84.22370748782159,96.25519929585457
2024-09-23 14:53:24.236881,42.02,29.450521,-0.0026862297461545674,-0.02308174982955575,0.09774922960030558,40.106058693909645,-84.22370748782159,96.25519929585457
2024-09-23 14:53:24.268734,42.02,29.450521,-0.0026862297461545674,-0.02308174982955575,0.09774922960030558,40.106058693909645,-100.26678939585686,84.22370748782159
2024-09-23 14:53:24.280240,42.02,29.450572,-0.0031836870127375577,-0.023230986250042305,0.0973512698629459,40.106058693909645,-100.26678939585686,84.22370748782159
2024-09-23 14:53:24.324171,42.02,29.450622,-0.0027359787006383035,-0.02308174982955575,0.0973512698629459,40.106058693909645,-96.25519929585457,84.22370748782159
2024-09-23 14:53:24.366459,42.02,29.450622,-0.0027359787006383035,-0.02308174982955575,0.09784872257259886,20.05138839341998,-96.25519929585457,84.22370748782159
2024-09-23 14:53:24.378268,42.02,29.450673,-0.003482159473966507,-0.02308174982955575,0.09784872257259886,20.05138839341998,-100.26678939585686,80.21211738781929
2024-09-23 14:53:24.420829,42.02,29.450673,-0.003482159473966507,-0.023280723622328886,0.09685382322919964,32.08287849390507,-104.27510100388527,84.22370748782159
2024-09-23 14:53:24.432742,42.02,29.45076,-0.003482159473966507,-0.023280723622328886,0.09685382322919964,32.08287849390507,-104.27510100388527,84.22370748782159
2024-09-23 14:53:24.465345,42.02,29.45076,-0.0029847020175114316,-0.02313149783467906,0.09685382322919964,32.08287849390507,-104.27510100388527,84.22370748782159
2024-09-23 14:53:24.560044,42.02,29.45076,-0.0029847020175114316,-0.02313149783467906,0.0973512698629459,32.08287849390507,-104.27510100388527,84.22370748782159
2024-09-23 14:53:24.571538,42.02,29.450811,-0.0035318979854855937,-0.02313149783467906,0.0973512698629459,40.106058693909645,-96.25519929585457,80.21211738781929
2024-09-23 14:53:24.615613,42.02,29.450811,-0.0035318979854855937,-0.02278327698858263,0.0970030596496862,44.11764879391193,-96.25519929585457,80.21211738781929
2024-09-23 14:53:24.627364,42.02,29.450862,-0.0035318979854855937,-0.02278327698858263,0.0970030596496862,44.11764879391193,-96.25519929585457,80.21211738781929
2024-09-23 14:53:24.659137,42.02,29.450862,-0.0030841997366068195,-0.023280723622328886,0.0970030596496862,44.11764879391193,-96.25519929585457,80.21211738781929
2024-09-23 14:53:24.670411,42.02,29.450862,-0.0030841997366068195,-0.023280723622328886,0.09620712802315341,44.11764879391193,-96.25519929585457,80.21211738781929
2024-09-23 14:53:24.713103,42.02,29.450913,-0.0035816467500972456,-0.023927417309398437,0.09675432418099966,40.106058693909645,-100.26678939585686,80.21211738781929
2024-09-23 14:53:24.756014,42.02,29.450963,-0.0035816467500972456,-0.023927417309398437,0.09675432418099966,40.106058693909645,-100.26678939585686,84.22370748782159
2024-09-23 14:53:24.767387,42.02,29.450963,-0.0031836870127375577,-0.023230986250042305,0.0970030596496862,24.06297849342227,-100.26678939585686,84.22370748782159
2024-09-23 14:53:24.809940,42.02,29.451103,-0.003382661564999035,-0.02278327698858263,0.0970030596496862,24.06297849342227,-104.27510100388527,80.21211738781929
2024-09-23 14:53:24.822075,42.02,29.451103,-0.003382661564999035,-0.02278327698858263,0.09745075675933246,24.06297849342227,-104.27510100388527,80.21211738781929
2024-09-23 14:53:24.854862,42.02,29.451103,-0.003382661564999035,-0.02278327698858263,0.09745075675933246,28.07457030097246,-100.26678939585686,76.200527287817
2024-09-23 14:53:24.866490,42.02,29.451154,-0.0035816467500972456,-0.022484804147609512,0.09745075675933246,28.07457030097246,-100.26678939585686,76.200527287817
2024-09-23 14:53:24.908941,42.02,29.451204,-0.0033329230534799477,-0.022484804147609512,0.09774922960030558,40.106058693909645,-100.26678939585686,80.21211738781929
2024-09-23 14:53:24.951912,42.02,29.451204,-0.0033329230534799477,-0.02338022115155219,0.0976994861521123,40.106058693909645,-100.26678939585686,80.21211738781929
2024-09-23 14:53:24.964016,42.02,29.451296,-0.0033329230534799477,-0.02338022115155219,0.0976994861521123,40.106058693909645,-100.26678939585686,80.21211738781929
2024-09-23 14:53:25.006457,42.02,29.451296,-0.003233425524256645,-0.023429960042815445,0.09720203344245934,40.106058693909645,-96.25519929585457,80.21211738781929
2024-09-23 14:53:25.048770,42.02,29.451348,-0.003482159473966507,-0.023429960042815445,0.09720203344245934,40.106058693909645,-96.25519929585457,80.21211738781929
2024-09-23 14:53:25.060709,42.02,29.451348,-0.003482159473966507,-0.0224350561424862,0.09680407370509965,32.08287849390507,-92.24360919585227,80.21211738781929
2024-09-23 14:53:25.103940,42.02,29.451398,-0.0035816467500972456,-0.022733528983459317,0.09680407370509965,32.08287849390507,-92.24360919585227,80.21211738781929
2024-09-23 14:53:25.146178,41.8,29.451398,-0.0035816467500972456,-0.022733528983459317,0.09665483728461309,24.06297849342227,-92.24360919585227,80.21211738781929
2024-09-23 14:53:25.157155,41.8,29.451449,-0.003929857343101113,-0.022733528983459317,0.09665483728461309,24.06297849342227,-100.26678939585686,84.22370748782159
2024-09-23 14:53:25.199774,41.8,29.451449,-0.003929857343101113,-0.023280723622328886,0.09665483728461309,32.08287849390507,-100.26678939585686,84.22370748782159
2024-09-23 14:53:25.211314,41.8,29.4515,-0.003929857343101113,-0.023280723622328886,0.09665483728461309,32.08287849390507,-100.26678939585686,80.21211738781929
2024-09-23 14:53:25.243744,41.8,29.4515,-0.0038303700669703737,-0.023280723622328886,0.09665483728461309,32.08287849390507,-100.26678939585686,80.21211738781929
2024-09-23 14:53:25.254992,41.8,29.4515,-0.0038303700669703737,-0.023280723622328886,0.09675432418099966,36.09446859390736,-100.26678939585686,80.21211738781929
2024-09-23 14:53:25.297630,41.8,29.45155,-0.0029847020175114316,-0.022982261414192504,0.09745075675933246,44.11764879391193,-100.26678939585686,80.21211738781929
2024-09-23 14:53:25.309218,41.8,29.45155,-0.0029847020175114316,-0.022982261414192504,0.09745075675933246,44.11764879391193,-96.25519929585457,80.21211738781929
2024-09-23 14:53:25.342452,41.8,29.451637,-0.003482159473966507,-0.022982261414192504,0.09745075675933246,44.11764879391193,-96.25519929585457,80.21211738781929
2024-09-23 14:53:25.354148,41.8,29.451637,-0.003482159473966507,-0.023330473146428877,0.09715228999426605,48.12595698684454,-96.25519929585457,80.21211738781929
2024-09-23 14:53:25.396727,41.8,29.451689,-0.003382661564999035,-0.023429960042815445,0.09705279702197278,48.12595698684454,-96.25519929585457,84.22370748782159
2024-09-23 14:53:25.439915,41.8,29.451689,-0.003382661564999035,-0.023429960042815445,0.09705279702197278,48.12595698684454,-96.25519929585457,76.200527287817
2024-09-23 14:53:25.452963,41.8,29.45174,-0.0033329230534799477,-0.02263404056809607,0.09705279702197278,48.12595698684454,-96.25519929585457,76.200527287817
2024-09-23 14:53:25.484829,41.8,29.45174,-0.0033329230534799477,-0.02263404056809607,0.09665483728461309,48.12595698684454,-96.25519929585457,76.200527287817
2024-09-23 14:53:25.496305,41.8,29.45179,-0.0033329230534799477,-0.02263404056809607,0.09665483728461309,20.05138839341998,-92.24360919585227,80.21211738781929
2024-09-23 14:53:25.590395,41.8,29.451881,-0.0033329230534799477,-0.02313149783467906,0.09759999317981902,24.06297849342227,-88.23529758782387,80.21211738781929
2024-09-23 14:53:25.633870,41.8,29.451881,-0.0034324103296106863,-0.02313149783467906,0.09759999317981902,24.06297849342227,-88.23529758782387,80.21211738781929
2024-09-23 14:53:25.645568,41.8,29.451881,-0.0034324103296106863,-0.02313149783467906,0.09774922960030558,28.07457030097246,-96.25519929585457,84.22370748782159
2024-09-23 14:53:25.688943,41.8,29.451933,-0.0030841997366068195,-0.023280723622328886,0.09695331012558621,48.12595698684454,-100.26678939585686,84.22370748782159
2024-09-23 14:53:25.730610,41.8,29.451983,-0.0030841997366068195,-0.023280723622328886,0.09695331012558621,48.12595698684454,-100.26678939585686,72.1922225099802
2024-09-23 14:53:25.741876,41.8,29.451983,-0.0028852147413806935,-0.02338022115155219,0.0970030596496862,44.11764879391193,-100.26678939585686,72.1922225099802
2024-09-23 14:53:25.784043,41.8,29.452034,-0.003382661564999035,-0.022982261414192504,0.0970030596496862,44.11764879391193,-92.24360919585227,80.21211738781929
2024-09-23 14:53:25.795601,41.8,29.452034,-0.003382661564999035,-0.022982261414192504,0.09725178296655933,44.11764879391193,-92.24360919585227,80.21211738781929
2024-09-23 14:53:25.827927,41.8,29.452034,-0.003382661564999035,-0.022982261414192504,0.09725178296655933,44.11764879391193,-92.24360919585227,80.21211738781929
2024-09-23 14:53:25.839500,41.8,29.452127,-0.003382661564999035,-0.023181236725942318,0.09725178296655933,44.11764879391193,-92.24360919585227,84.22370748782159
2024-09-23 14:53:25.882669,41.8,29.452178,-0.003382661564999035,-0.023181236725942318,0.09650560086412653,36.09446859390736,-104.27510100388527,68.18063240997792
2024-09-23 14:53:25.894914,41.8,29.452178,-0.0035816467500972456,-0.023181236725942318,0.09650560086412653,36.09446859390736,-104.27510100388527,68.18063240997792
2024-09-23 14:53:25.927465,41.8,29.452178,-0.0035816467500972456,-0.023330473146428877,0.09759999317981902,36.09446859390736,-104.27510100388527,68.18063240997792
2024-09-23 14:53:25.939372,41.8,29.452271,-0.0035816467500972456,-0.023330473146428877,0.09759999317981902,24.06297849342227,-100.26678939585686,84.22370748782159
2024-09-23 14:53:25.981972,41.8,29.452271,-0.0033329230534799477,-0.02308174982955575,0.09750050628343246,28.07457030097246,-100.26678939585686,84.22370748782159
2024-09-23 14:53:26.025595,41.8,29.452323,-0.0033329230534799477,-0.02338022115155219,0.09750050628343246,28.07457030097246,-100.26678939585686,84.22370748782159
2024-09-23 14:53:26.036573,41.8,29.452323,-0.0033329230534799477,-0.02338022115155219,0.09675432418099966,40.106058693909645,-100.26678939585686,84.22370748782159
2024-09-23 14:53:26.079035,41.8,29.452373,-0.0024872551938930902,-0.023230986250042305,0.09685382322919964,48.12595698684454,-100.26678939585686,84.22370748782159
2024-09-23 14:53:26.122868,41.8,29.452424,-0.0024872551938930902,-0.023230986250042305,0.09685382322919964,48.12595698684454,-100.26678939585686,80.21211738781929
2024-09-23 14:53:26.135055,41.8,29.452424,-0.0032831742888682963,-0.023280723622328886,0.0973512698629459,48.12595698684454,-100.26678939585686,80.21211738781929
2024-09-23 14:53:26.169848,41.83,29.452424,-0.0032831742888682963,-0.023280723622328886,0.0973512698629459,52.137550501942634,-96.25519929585457,80.21211738781929
2024-09-23 14:53:26.180937,41.83,29.452475,-0.0033329230534799477,-0.023230986250042305,0.0973512698629459,52.137550501942634,-96.25519929585457,80.21211738781929
2024-09-23 14:53:26.223679,41.83,29.452525,-0.0033329230534799477,-0.023230986250042305,0.09680407370509965,36.09446859390736,-100.26678939585686,80.21211738781929
2024-09-23 14:53:26.235337,41.83,29.452525,-0.0034324103296106863,-0.023230986250042305,0.09680407370509965,36.09446859390736,-100.26678939585686,80.21211738781929
2024-09-23 14:53:26.267242,41.83,29.452525,-0.0034324103296106863,-0.0228827638849692,0.09710254654607277,36.09446859390736,-100.26678939585686,80.21211738781929
2024-09-23 14:53:26.279125,41.83,29.452612,-0.0034324103296106863,-0.0228827638849692,0.09710254654607277,24.06297849342227,-100.26678939585686,76.200527287817
2024-09-23 14:53:26.321214,41.83,29.452612,-0.0031836870127375577,-0.0228827638849692,0.09705279702197278,32.08287849390507,-104.27510100388527,76.200527287817
2024-09-23 14:53:26.333423,41.83,29.452612,-0.0031836870127375577,-0.0228827638849692,0.09705279702197278,32.08287849390507,-104.27510100388527,76.200527287817
2024-09-23 14:53:26.366669,41.83,29.452664,-0.0035816467500972456,-0.023280723622328886,0.09705279702197278,32.08287849390507,-104.27510100388527,76.200527287817
2024-09-23 14:53:26.377949,41.83,29.452664,-0.0035816467500972456,-0.023280723622328886,0.09764974270391902,40.106058693909645,-96.25519929585457,76.200527287817
2024-09-23 14:53:26.420519,41.83,29.452715,-0.003233425524256645,-0.023230986250042305,0.09690356060148622,48.12595698684454,-96.25519929585457,76.200527287817
2024-09-23 14:53:26.462445,41.83,29.452715,-0.003233425524256645,-0.023230986250042305,0.09690356060148622,48.12595698684454,-96.25519929585457,84.22370748782159
2024-09-23 14:53:26.474408,41.83,29.452765,-0.0031836870127375577,-0.02303200030545576,0.09670458680871308,48.12595698684454,-96.25519929585457,84.22370748782159
2024-09-23 14:53:26.517104,41.83,29.452816,-0.003233425524256645,-0.02303200030545576,0.09670458680871308,48.12595698684454,-92.24360919585227,84.22370748782159
2024-09-23 14:53:26.528663,41.83,29.452816,-0.003233425524256645,-0.023181236725942318,0.09670458680871308,48.12595698684454,-92.24360919585227,84.22370748782159
2024-09-23 14:53:26.612453,41.83,29.452816,-0.003233425524256645,-0.023181236725942318,0.0976994861521123,52.137550501942634,-100.26678939585686,84.22370748782159
2024-09-23 14:53:26.623821,41.83,29.452867,-0.003233425524256645,-0.023181236725942318,0.0976994861521123,52.137550501942634,-100.26678939585686,84.22370748782159
2024-09-23 14:53:26.657223,41.83,29.452867,-0.003233425524256645,-0.023479709566915436,0.09695331012558621,52.137550501942634,-100.26678939585686,84.22370748782159
2024-09-23 14:53:26.669231,41.83,29.452954,-0.003233425524256645,-0.023479709566915436,0.09695331012558621,24.06297849342227,-96.25519929585457,80.21211738781929
2024-09-23 14:53:26.711700,41.83,29.452954,-0.0031836870127375577,-0.02303200030545576,0.09680407370509965,24.06297849342227,-96.25519929585457,80.21211738781929
2024-09-23 14:53:26.723240,41.83,29.452954,-0.0031836870127375577,-0.02303200030545576,0.09680407370509965,24.06297849342227,-96.25519929585457,80.21211738781929
2024-09-23 14:53:26.755969,41.83,29.453005,-0.003233425524256645,-0.02313149783467906,0.09680407370509965,24.06297849342227,-96.25519929585457,80.21211738781929
2024-09-23 14:53:26.767031,41.83,29.453005,-0.003233425524256645,-0.02313149783467906,0.09680407370509965,20.05138839341998,-96.25519929585457,80.21211738781929
2024-09-23 14:53:26.808983,41.83,29.453056,-0.0032831742888682963,-0.02268379009219606,0.09710254654607277,44.11764879391193,-96.25519929585457,80.21211738781929
2024-09-23 14:53:26.851603,41.83,29.453056,-0.0032831742888682963,-0.02268379009219606,0.09710254654607277,44.11764879391193,-92.24360919585227,80.21211738781929
2024-09-23 14:53:26.863239,41.83,29.453151,-0.0033329230534799477,-0.02278327698858263,0.09755024973162574,44.11764879391193,-92.24360919585227,80.21211738781929
2024-09-23 14:53:26.906427,41.83,29.453201,-0.003233425524256645,-0.02278327698858263,0.09755024973162574,40.106058693909645,-104.27510100388527,80.21211738781929
2024-09-23 14:53:26.918192,41.83,29.453201,-0.003233425524256645,-0.023330473146428877,0.09755024973162574,40.106058693909645,-104.27510100388527,80.21211738781929
2024-09-23 14:53:26.950666,41.83,29.453201,-0.003233425524256645,-0.023330473146428877,0.09705279702197278,36.09446859390736,-104.27510100388527,80.21211738781929
2024-09-23 14:53:26.962447,41.83,29.453252,-0.0028852147413806935,-0.023330473146428877,0.09705279702197278,36.09446859390736,-108.28669110388756,76.200527287817
2024-09-23 14:53:27.005316,41.83,29.453252,-0.0028852147413806935,-0.023330473146428877,0.09705279702197278,36.09446859390736,-108.28669110388756,76.200527287817
2024-09-23 14:53:27.047696,41.83,29.453252,-0.0028852147413806935,-0.023330473146428877,0.0970030596496862,20.05138839341998,-108.28669110388756,76.200527287817
2024-09-23 14:53:27.059594,41.83,29.453344,-0.0028852147413806935,-0.023330473146428877,0.0970030596496862,20.05138839341998,-108.28669110388756,76.200527287817
2024-09-23 14:53:27.102250,41.83,29.453344,-0.0029847020175114316,-0.02308174982955575,0.0973015264147526,24.06297849342227,-100.26678939585686,76.200527287817
2024-09-23 14:53:27.114536,41.83,29.453344,-0.0029847020175114316,-0.02308174982955575,0.0973015264147526,24.06297849342227,-100.26678939585686,80.21211738781929
2024-09-23 14:53:27.146382,41.83,29.453395,-0.0031339382481259063,-0.02313149783467906,0.0973015264147526,24.06297849342227,-100.26678939585686,80.21211738781929
2024-09-23 14:53:27.157837,41.83,29.453395,-0.0031339382481259063,-0.02313149783467906,0.09715228999426605,28.07457030097246,-92.24360919585227,80.21211738781929
2024-09-23 14:53:27.200691,42.01,29.453446,-0.0030841997366068195,-0.022982261414192504,0.09740101331113918,44.11764879391193,-92.24360919585227,80.21211738781929
2024-09-23 14:53:27.243089,42.01,29.453446,-0.0030841997366068195,-0.022982261414192504,0.09740101331113918,44.11764879391193,-88.23529758782387,80.21211738781929
2024-09-23 14:53:27.254717,42.01,29.453497,-0.003780631555451287,-0.02313149783467906,0.09750050628343246,44.11764879391193,-88.23529758782387,80.21211738781929
2024-09-23 14:53:27.298471,42.01,29.453589,-0.0030841997366068195,-0.02303200030545576,0.09750050628343246,52.137550501942634,-96.25519929585457,80.21211738781929
2024-09-23 14:53:27.340952,42.01,29.453589,-0.0030841997366068195,-0.02303200030545576,0.09670458680871308,48.12595698684454,-104.27510100388527,80.21211738781929
2024-09-23 14:53:27.352715,42.01,29.45364,-0.0031836870127375577,-0.02303200030545576,0.09670458680871308,48.12595698684454,-104.27510100388527,72.1922225099802
2024-09-23 14:53:27.395613,42.01,29.453734,-0.0031836870127375577,-0.02293251340906919,0.0973015264147526,24.06297849342227,-96.25519929585457,80.21211738781929
2024-09-23 14:53:27.438328,42.01,29.453734,-0.003233425524256645,-0.0225345536717095,0.09759999317981902,24.06297849342227,-96.25519929585457,80.21211738781929
2024-09-23 14:53:27.450217,42.01,29.453734,-0.003233425524256645,-0.0225345536717095,0.09759999317981902,24.06297849342227,-96.25519929585457,76.200527287817
2024-09-23 14:53:27.492782,42.01,29.453785,-0.0035318979854855937,-0.023479709566915436,0.0970030596496862,28.07457030097246,-108.28669110388756,76.200527287817
2024-09-23 14:53:27.535686,42.01,29.453836,-0.003382661564999035,-0.023479709566915436,0.0970030596496862,28.07457030097246,-108.28669110388756,72.1922225099802
2024-09-23 14:53:27.547010,42.01,29.453836,-0.003382661564999035,-0.0228827638849692,0.09695331012558621,36.09446859390736,-108.28669110388756,72.1922225099802
2024-09-23 14:53:27.631523,42.01,29.453836,-0.003382661564999035,-0.0228827638849692,0.09695331012558621,36.09446859390736,-104.27510100388527,72.1922225099802
2024-09-23 14:53:27.643080,42.01,29.453886,-0.0029349636958644295,-0.02367869399252531,0.09710254654607277,36.09446859390736,-104.27510100388527,76.200527287817
2024-09-23 14:53:27.687122,42.01,29.453937,-0.003233425524256645,-0.023330473146428877,0.09710254654607277,44.11764879391193,-96.25519929585457,72.1922225099802
2024-09-23 14:53:27.730269,42.01,29.453937,-0.003233425524256645,-0.023330473146428877,0.09705279702197278,52.137550501942634,-96.25519929585457,72.1922225099802
2024-09-23 14:53:27.742205,42.01,29.453988,-0.0031339382481259063,-0.023330473146428877,0.09705279702197278,52.137550501942634,-92.24360919585227,84.22370748782159
2024-09-23 14:53:27.785548,42.01,29.454075,-0.0031339382481259063,-0.023181236725942318,0.09710254654607277,36.09446859390736,-108.28669110388756,84.22370748782159
2024-09-23 14:53:27.828693,42.01,29.454075,-0.0033329230534799477,-0.02293251340906919,0.09715228999426605,36.09446859390736,-108.28669110388756,84.22370748782159
2024-09-23 14:53:27.841025,42.01,29.454075,-0.0033329230534799477,-0.02293251340906919,0.09715228999426605,16.039798293417693,-104.27510100388527,80.21211738781929
2024-09-23 14:53:27.883587,42.01,29.454173,-0.0030841997366068195,-0.023579196463302005,0.09725178296655933,40.106058693909645,-104.27510100388527,80.21211738781929
2024-09-23 14:53:27.926440,42.01,29.454224,-0.002636491424507565,-0.023579196463302005,0.09725178296655933,40.106058693909645,-104.27510100388527,72.1922225099802
2024-09-23 14:53:27.937685,42.01,29.454224,-0.002636491424507565,-0.0228827638849692,0.0973015264147526,44.11764879391193,-104.27510100388527,72.1922225099802
2024-09-23 14:53:27.980333,42.01,29.454275,-0.0030841997366068195,-0.023280723622328886,0.0976994861521123,44.11764879391193,-96.25519929585457,76.200527287817
2024-09-23 14:53:28.023646,42.01,29.454275,-0.0030841997366068195,-0.023280723622328886,0.0976994861521123,44.11764879391193,-104.27510100388527,76.200527287817
2024-09-23 14:53:28.035417,42.01,29.454326,-0.0038303700669703737,-0.023181236725942318,0.0976994861521123,44.11764879391193,-104.27510100388527,76.200527287817
2024-09-23 14:53:28.078120,42.01,29.454376,-0.0031339382481259063,-0.023181236725942318,0.09695331012558621,40.106058693909645,-92.24360919585227,84.22370748782159
2024-09-23 14:53:28.122867,42.01,29.454376,-0.0031339382481259063,-0.023429960042815445,0.09715228999426605,40.106058693909645,-92.24360919585227,84.22370748782159
2024-09-23 14:53:28.134575,42.01,29.454465,-0.0031339382481259063,-0.023429960042815445,0.09715228999426605,36.09446859390736,-92.24360919585227,80.21211738781929
2024-09-23 14:53:28.167601,42.01,29.454465,-0.0031836870127375577,-0.023429960042815445,0.09715228999426605,36.09446859390736,-92.24360919585227,80.21211738781929
2024-09-23 14:53:28.179138,42.01,29.454465,-0.0031836870127375577,-0.023778180888911878,0.09685382322919964,36.09446859390736,-96.25519929585457,84.22370748782159
2024-09-23 14:53:28.221238,41.52,29.454516,-0.0030344509719951677,-0.02352945757203875,0.09725178296655933,28.07457030097246,-96.25519929585457,84.22370748782159
2024-09-23 14:53:28.233005,41.52,29.454516,-0.0030344509719951677,-0.02352945757203875,0.09725178296655933,28.07457030097246,-92.24360919585227,84.22370748782159
2024-09-23 14:53:28.265087,41.52,29.454516,-0.0030344509719951677,-0.02352945757203875,0.09725178296655933,28.07457030097246,-92.24360919585227,88.23529758782387
2024-09-23 14:53:28.276842,41.52,29.454567,-0.0036811340262279837,-0.02352945757203875,0.0973512698629459,36.09446859390736,-92.24360919585227,88.23529758782387
2024-09-23 14:53:28.319727,41.52,29.454618,-0.0030344509719951677,-0.022833026512682618,0.0973512698629459,36.09446859390736,-92.24360919585227,80.21211738781929
2024-09-23 14:53:28.331714,41.52,29.454618,-0.0030344509719951677,-0.022833026512682618,0.09725178296655933,36.09446859390736,-92.24360919585227,80.21211738781929
2024-09-23 14:53:28.363570,41.52,29.454618,-0.0030344509719951677,-0.022833026512682618,0.09725178296655933,36.09446859390736,-96.25519929585457,80.21211738781929
2024-09-23 14:53:28.374650,41.52,29.454668,-0.0035318979854855937,-0.023230986250042305,0.09725178296655933,36.09446859390736,-96.25519929585457,76.200527287817
2024-09-23 14:53:28.417437,41.52,29.454719,-0.0035318979854855937,-0.023230986250042305,0.09705279702197278,48.12595698684454,-100.26678939585686,80.21211738781929
2024-09-23 14:53:28.429153,41.52,29.454719,-0.002586742470023829,-0.023230986250042305,0.09705279702197278,48.12595698684454,-100.26678939585686,80.21211738781929
2024-09-23 14:53:28.461007,41.52,29.454719,-0.002586742470023829,-0.023330473146428877,0.09740101331113918,48.12595698684454,-100.26678939585686,80.21211738781929
2024-09-23 14:53:28.472179,41.52,29.454806,-0.002586742470023829,-0.023330473146428877,0.09740101331113918,44.11764879391193,-96.25519929585457,80.21211738781929
2024-09-23 14:53:28.514837,41.52,29.454806,-0.003482159473966507,-0.022982261414192504,0.09685382322919964,32.08287849390507,-96.25519929585457,80.21211738781929
2024-09-23 14:53:28.526992,41.52,29.454806,-0.003482159473966507,-0.022982261414192504,0.09685382322919964,32.08287849390507,-96.25519929585457,80.21211738781929
2024-09-23 14:53:28.560649,41.52,29.454858,-0.0035318979854855937,-0.023429960042815445,0.09685382322919964,32.08287849390507,-96.25519929585457,80.21211738781929
2024-09-23 14:53:28.571938,41.52,29.454858,-0.0035318979854855937,-0.023429960042815445,0.09650560086412653,28.07457030097246,-96.25519929585457,80.21211738781929
2024-09-23 14:53:28.655150,41.52,29.454908,-0.0035318979854855937,-0.023429960042815445,0.09650560086412653,28.07457030097246,-96.25519929585457,80.21211738781929
2024-09-23 14:53:28.666683,41.52,29.454908,-0.0029349636958644295,-0.023330473146428877,0.0970030596496862,28.07457030097246,-96.25519929585457,80.21211738781929
2024-09-23 14:53:28.709839,41.52,29.454959,-0.0030344509719951677,-0.02263404056809607,0.0970030596496862,28.07457030097246,-96.25519929585457,84.22370748782159
2024-09-23 14:53:28.721923,41.52,29.454959,-0.0030344509719951677,-0.02263404056809607,0.09715228999426605,28.07457030097246,-96.25519929585457,84.22370748782159
2024-09-23 14:53:28.753653,41.52,29.454959,-0.0030344509719951677,-0.02263404056809607,0.09715228999426605,36.09446859390736,-92.24360919585227,84.22370748782159
2024-09-23 14:53:28.765609,41.52,29.45501,-0.0029349636958644295,-0.023280723622328886,0.09715228999426605,36.09446859390736,-92.24360919585227,84.22370748782159
2024-09-23 14:53:28.809242,41.52,29.45506,-0.0035816467500972456,-0.023280723622328886,0.09759999317981902,40.106058693909645,-96.25519929585457,80.21211738781929
2024-09-23 14:53:28.851780,41.52,29.45506,-0.0035816467500972456,-0.02352945757203875,0.0973015264147526,44.11764879391193,-96.25519929585457,80.21211738781929
2024-09-23 14:53:28.862813,41.52,29.455147,-0.0035816467500972456,-0.02352945757203875,0.0973015264147526,44.11764879391193,-100.26678939585686,80.21211738781929
2024-09-23 14:53:28.904998,41.52,29.455147,-0.003382661564999035,-0.023230986250042305,0.09665483728461309,36.09446859390736,-108.28669110388756,80.21211738781929
2024-09-23 14:53:28.916916,41.52,29.455147,-0.003382661564999035,-0.023230986250042305,0.09665483728461309,36.09446859390736,-108.28669110388756,80.21211738781929
2024-09-23 14:53:29.000340,41.52,29.455245,-0.0028354659767690416,-0.02313149783467906,0.09650560086412653,36.09446859390736,-108.28669110388756,80.21211738781929
2024-09-23 14:53:29.011885,41.52,29.455245,-0.0028354659767690416,-0.02313149783467906,0.09650560086412653,28.07457030097246,-104.27510100388527,80.21211738781929
2024-09-23 14:53:29.045148,41.52,29.455245,-0.0028354659767690416,-0.02313149783467906,0.09650560086412653,28.07457030097246,-104.27510100388527,76.200527287817
2024-09-23 14:53:29.057081,41.52,29.455297,-0.0031836870127375577,-0.022982261414192504,0.09715228999426605,32.08287849390507,-104.27510100388527,76.200527287817
2024-09-23 14:53:29.099941,41.52,29.455347,-0.003233425524256645,-0.023280723622328886,0.09715228999426605,32.08287849390507,-100.26678939585686,84.22370748782159
2024-09-23 14:53:29.111779,41.52,29.455347,-0.003233425524256645,-0.023280723622328886,0.09665483728461309,32.08287849390507,-100.26678939585686,84.22370748782159
2024-09-23 14:53:29.143678,41.52,29.455347,-0.003233425524256645,-0.023280723622328886,0.09665483728461309,36.09446859390736,-96.25519929585457,84.22370748782159
2024-09-23 14:53:29.155739,41.52,29.455398,-0.0029847020175114316,-0.02352945757203875,0.09665483728461309,36.09446859390736,-96.25519929585457,80.21211738781929
2024-09-23 14:53:29.199213,41.52,29.455449,-0.003382661564999035,-0.02352945757203875,0.09725178296655933,32.08287849390507,-100.26678939585686,80.21211738781929
2024-09-23 14:53:29.241092,41.51,29.455449,-0.003382661564999035,-0.023280723622328886,0.09635636444363997,32.08287849390507,-100.26678939585686,80.21211738781929
2024-09-23 14:53:29.253149,41.51,29.455586,-0.003382661564999035,-0.023280723622328886,0.09635636444363997,44.11764879391193,-92.24360919585227,80.21211738781929
2024-09-23 14:53:29.296814,41.51,29.455586,-0.003631395514708897,-0.023479709566915436,0.09680407370509965,36.09446859390736,-100.26678939585686,80.21211738781929
2024-09-23 14:53:29.340400,41.51,29.455638,-0.0035816467500972456,-0.02352945757203875,0.09680407370509965,36.09446859390736,-100.26678939585686,80.21211738781929
2024-09-23 14:53:29.351407,41.51,29.455638,-0.0035816467500972456,-0.02352945757203875,0.09720203344245934,24.06297849342227,-96.25519929585457,80.21211738781929
2024-09-23 14:53:29.393556,41.51,29.455688,-0.0031836870127375577,-0.02303200030545576,0.09705279702197278,28.07457030097246,-96.25519929585457,84.22370748782159
2024-09-23 14:53:29.437424,41.51,29.455739,-0.0031836870127375577,-0.02303200030545576,0.09705279702197278,28.07457030097246,-100.26678939585686,84.22370748782159
2024-09-23 14:53:29.448473,41.51,29.455739,-0.0032831742888682963,-0.023579196463302005,0.09695331012558621,28.07457030097246,-100.26678939585686,84.22370748782159
2024-09-23 14:53:29.490691,41.51,29.45579,-0.003482159473966507,-0.022982261414192504,0.09695331012558621,36.09446859390736,-104.27510100388527,80.21211738781929
2024-09-23 14:53:29.533319,41.51,29.45579,-0.003482159473966507,-0.022982261414192504,0.09720203344245934,44.11764879391193,-104.27510100388527,80.21211738781929
2024-09-23 14:53:29.545665,41.51,29.45584,-0.0033329230534799477,-0.022982261414192504,0.09720203344245934,44.11764879391193,-104.27510100388527,80.21211738781929
2024-09-23 14:53:29.588615,41.51,29.45584,-0.0033329230534799477,-0.02278327698858263,0.09685382322919964,44.11764879391193,-104.27510100388527,80.21211738781929
2024-09-23 14:53:29.683699,41.51,29.455927,-0.0033329230534799477,-0.02278327698858263,0.09685382322919964,56.14914060194492,-92.24360919585227,84.22370748782159
2024-09-23 14:53:29.697011,41.51,29.455927,-0.0034324103296106863,-0.023280723622328886,0.09685382322919964,56.14914060194492,-92.24360919585227,84.22370748782159
2024-09-23 14:53:29.730177,41.51,29.455927,-0.0034324103296106863,-0.023280723622328886,0.09650560086412653,44.11764879391193,-96.25519929585457,84.22370748782159
2024-09-23 14:53:29.741668,41.51,29.455979,-0.0030841997366068195,-0.023280723622328886,0.09650560086412653,44.11764879391193,-96.25519929585457,84.22370748782159
2024-09-23 14:53:29.784149,41.51,29.45603,-0.0030841997366068195,-0.02352945757203875,0.09720203344245934,20.05138839341998,-104.27510100388527,76.200527287817
2024-09-23 14:53:29.826930,41.51,29.45603,-0.0035318979854855937,-0.022982261414192504,0.09710254654607277,20.05138839341998,-104.27510100388527,76.200527287817
2024-09-23 14:53:29.837971,41.51,29.45603,-0.0035318979854855937,-0.022982261414192504,0.09710254654607277,28.07457030097246,-104.27510100388527,84.22370748782159
2024-09-23 14:53:29.881296,41.51,29.45608,-0.0029349636958644295,-0.023479709566915436,0.09695331012558621,48.12595698684454,-104.27510100388527,84.22370748782159
2024-09-23 14:53:29.923926,41.51,29.456221,-0.0029349636958644295,-0.023479709566915436,0.09695331012558621,48.12595698684454,-104.27510100388527,72.1922225099802
2024-09-23 14:53:29.936578,41.51,29.456221,-0.0029847020175114316,-0.02303200030545576,0.09710254654607277,44.11764879391193,-104.27510100388527,72.1922225099802
2024-09-23 14:53:29.979681,41.51,29.456272,-0.0032831742888682963,-0.023280723622328886,0.09655535038822652,44.11764879391193,-96.25519929585457,72.1922225099802
2024-09-23 14:53:30.022396,41.51,29.456272,-0.0032831742888682963,-0.023280723622328886,0.09655535038822652,36.09446859390736,-100.26678939585686,80.21211738781929
2024-09-23 14:53:30.034042,41.51,29.456323,-0.0033329230534799477,-0.023479709566915436,0.09655535038822652,36.09446859390736,-100.26678939585686,80.21211738781929
2024-09-23 14:53:30.077600,41.51,29.456374,-0.0029847020175114316,-0.023479709566915436,0.09710254654607277,40.106058693909645,-96.25519929585457,76.200527287817
2024-09-23 14:53:30.119520,41.51,29.456374,-0.0029847020175114316,-0.023181236725942318,0.09725178296655933,24.06297849342227,-96.25519929585457,76.200527287817
2024-09-23 14:53:30.130545,41.51,29.456464,-0.0029847020175114316,-0.023181236725942318,0.09725178296655933,24.06297849342227,-100.26678939585686,76.200527287817
2024-09-23 14:53:30.173020,41.51,29.456464,-0.003233425524256645,-0.023230986250042305,0.09720203344245934,28.07457030097246,-92.24360919585227,84.22370748782159
2024-09-23 14:53:30.216742,41.51,29.456515,-0.0030344509719951677,-0.023181236725942318,0.09720203344245934,28.07457030097246,-92.24360919585227,84.22370748782159
2024-09-23 14:53:30.228498,41.51,29.456515,-0.0030344509719951677,-0.023181236725942318,0.09685382322919964,28.07457030097246,-92.24360919585227,84.22370748782159
2024-09-23 14:53:30.270549,41.13,29.456566,-0.003482159473966507,-0.023479709566915436,0.09685382322919964,36.09446859390736,-100.26678939585686,84.22370748782159
2024-09-23 14:53:30.313057,41.13,29.456566,-0.003482159473966507,-0.023479709566915436,0.09675432418099966,52.137550501942634,-100.26678939585686,84.22370748782159
2024-09-23 14:53:30.325128,41.13,29.456617,-0.0032831742888682963,-0.023479709566915436,0.09675432418099966,52.137550501942634,-88.23529758782387,84.22370748782159
2024-09-23 14:53:30.368866,41.13,29.456667,-0.0032831742888682963,-0.02352945757203875,0.09745075675933246,44.11764879391193,-100.26678939585686,84.22370748782159
2024-09-23 14:53:30.410986,41.13,29.456667,-0.003780631555451287,-0.023479709566915436,0.09745075675933246,44.11764879391193,-100.26678939585686,84.22370748782159
2024-09-23 14:53:30.422359,41.13,29.456667,-0.003780631555451287,-0.023479709566915436,0.0973512698629459,40.106058693909645,-96.25519929585457,80.21211738781929
2024-09-23 14:53:30.465653,41.13,29.456718,-0.003631395514708897,-0.0228827638849692,0.09680407370509965,28.07457030097246,-108.28669110388756,80.21211738781929
2024-09-23 14:53:30.507936,41.13,29.456806,-0.003631395514708897,-0.0228827638849692,0.09680407370509965,28.07457030097246,-108.28669110388756,80.21211738781929
2024-09-23 14:53:30.519467,41.13,29.456806,-0.003233425524256645,-0.02313149783467906,0.09745075675933246,28.07457030097246,-108.28669110388756,80.21211738781929
2024-09-23 14:53:30.561202,41.13,29.456857,-0.003482159473966507,-0.02303200030545576,0.09745075675933246,28.07457030097246,-104.27510100388527,80.21211738781929
2024-09-23 14:53:30.573319,41.13,29.456857,-0.003482159473966507,-0.02303200030545576,0.09759999317981902,28.07457030097246,-104.27510100388527,80.21211738781929
2024-09-23 14:53:30.605608,41.13,29.456857,-0.003482159473966507,-0.02303200030545576,0.09759999317981902,32.08287849390507,-100.26678939585686,80.21211738781929
2024-09-23 14:53:30.617152,41.13,29.456908,-0.003382661564999035,-0.022833026512682618,0.09759999317981902,32.08287849390507,-100.26678939585686,80.21211738781929
2024-09-23 14:53:30.711540,41.13,29.456958,-0.0027359787006383035,-0.022833026512682618,0.09685382322919964,48.12595698684454,-92.24360919585227,88.23529758782387
2024-09-23 14:53:30.755790,41.13,29.456958,-0.0027359787006383035,-0.02313149783467906,0.09650560086412653,40.106058693909645,-100.26678939585686,88.23529758782387
2024-09-23 14:53:30.767305,41.13,29.457049,-0.0027359787006383035,-0.02313149783467906,0.09650560086412653,40.106058693909645,-100.26678939585686,76.200527287817
2024-09-23 14:53:30.799729,41.13,29.457049,-0.0029349636958644295,-0.02313149783467906,0.09650560086412653,40.106058693909645,-100.26678939585686,76.200527287817
2024-09-23 14:53:30.811117,41.13,29.457049,-0.0029349636958644295,-0.02303200030545576,0.09710254654607277,40.106058693909645,-100.26678939585686,80.21211738781929
2024-09-23 14:53:30.853414,41.13,29.4571,-0.0032831742888682963,-0.023429960042815445,0.09685382322919964,28.07457030097246,-100.26678939585686,80.21211738781929
2024-09-23 14:53:30.865668,41.13,29.4571,-0.0032831742888682963,-0.023429960042815445,0.09685382322919964,28.07457030097246,-92.24360919585227,80.21211738781929
2024-09-23 14:53:30.949049,41.13,29.457151,-0.0029349636958644295,-0.023429960042815445,0.09685382322919964,28.07457030097246,-92.24360919585227,84.22370748782159
2024-09-23 14:53:30.960391,41.13,29.457151,-0.0029349636958644295,-0.023330473146428877,0.09750050628343246,28.07457030097246,-92.24360919585227,84.22370748782159
2024-09-23 14:53:31.004161,41.13,29.457245,-0.0027359787006383035,-0.02303200030545576,0.09675432418099966,28.07457030097246,-96.25519929585457,84.22370748782159
2024-09-23 14:53:31.047364,41.13,29.457296,-0.0027359787006383035,-0.02303200030545576,0.09675432418099966,36.09446859390736,-96.25519929585457,80.21211738781929
2024-09-23 14:53:31.058882,41.13,29.457296,-0.003382661564999035,-0.023230986250042305,0.09675432418099966,36.09446859390736,-96.25519929585457,80.21211738781929
2024-09-23 14:53:31.090943,41.13,29.457296,-0.003382661564999035,-0.023230986250042305,0.0973512698629459,36.09446859390736,-96.25519929585457,80.21211738781929
2024-09-23 14:53:31.104263,41.13,29.457347,-0.003233425524256645,-0.023230986250042305,0.0973512698629459,40.106058693909645,-100.26678939585686,80.21211738781929
2024-09-23 14:53:31.147674,41.13,29.457347,-0.003233425524256645,-0.02293251340906919,0.09710254654607277,40.106058693909645,-96.25519929585457,80.21211738781929
2024-09-23 14:53:31.159518,41.13,29.457439,-0.003233425524256645,-0.02293251340906919,0.09710254654607277,40.106058693909645,-96.25519929585457,80.21211738781929
2024-09-23 14:53:31.190800,41.13,29.457439,-0.0031339382481259063,-0.023579196463302005,0.09710254654607277,40.106058693909645,-96.25519929585457,80.21211738781929
2024-09-23 14:53:31.202426,41.13,29.457439,-0.0031339382481259063,-0.023579196463302005,0.09710254654607277,24.06297849342227,-96.25519929585457,80.21211738781929
2024-09-23 14:53:31.245567,41.13,29.457537,-0.0031836870127375577,-0.023479709566915436,0.09745075675933246,24.06297849342227,-92.24360919585227,80.21211738781929
2024-09-23 14:53:31.287577,40.66,29.457588,-0.0031836870127375577,-0.023479709566915436,0.09745075675933246,24.06297849342227,-92.24360919585227,76.200527287817
2024-09-23 14:53:31.299488,40.66,29.457588,-0.0032831742888682963,-0.02313149783467906,0.09755024973162574,28.07457030097246,-92.24360919585227,76.200527287817
2024-09-23 14:53:31.341224,40.66,29.457639,-0.0035318979854855937,-0.02293251340906919,0.09755024973162574,28.07457030097246,-100.26678939585686,80.21211738781929
2024-09-23 14:53:31.353308,40.66,29.457639,-0.0035318979854855937,-0.02293251340906919,0.09764974270391902,28.07457030097246,-100.26678939585686,80.21211738781929
2024-09-23 14:53:31.385368,40.66,29.457639,-0.0035318979854855937,-0.02293251340906919,0.09764974270391902,36.09446859390736,-92.24360919585227,80.21211738781929
2024-09-23 14:53:31.396942,40.66,29.457689,-0.0031836870127375577,-0.023230986250042305,0.09764974270391902,36.09446859390736,-92.24360919585227,84.22370748782159
2024-09-23 14:53:31.438683,40.66,29.45774,-0.0031836870127375577,-0.023230986250042305,0.09720203344245934,40.106058693909645,-96.25519929585457,80.21211738781929
2024-09-23 14:53:31.450428,40.66,29.45774,-0.003631395514708897,-0.023230986250042305,0.09720203344245934,40.106058693909645,-96.25519929585457,80.21211738781929
2024-09-23 14:53:31.483585,40.66,29.45774,-0.003631395514708897,-0.02367869399252531,0.09685382322919964,40.106058693909645,-96.25519929585457,80.21211738781929
2024-09-23 14:53:31.495182,40.66,29.457829,-0.003631395514708897,-0.02367869399252531,0.09685382322919964,44.11764879391193,-96.25519929585457,80.21211738781929
2024-09-23 14:53:31.537255,40.66,29.457829,-0.0038801188315820256,-0.02367869399252531,0.09725178296655933,44.11764879391193,-96.25519929585457,80.21211738781929
2024-09-23 14:53:31.581179,40.66,29.457829,-0.0038801188315820256,-0.02367869399252531,0.09725178296655933,36.09446859390736,-96.25519929585457,80.21211738781929
2024-09-23 14:53:31.593042,40.66,29.45788,-0.003382661564999035,-0.02308174982955575,0.09725178296655933,36.09446859390736,-96.25519929585457,92.24360919585227
2024-09-23 14:53:31.637237,40.66,29.457931,-0.0037308827908396356,-0.02308174982955575,0.0966050877605131,24.06297849342227,-92.24360919585227,84.22370748782159
2024-09-23 14:53:31.680172,40.66,29.457931,-0.0037308827908396356,-0.02338022115155219,0.09705279702197278,24.06297849342227,-92.24360919585227,84.22370748782159
2024-09-23 14:53:31.732116,40.66,29.457981,-0.0037308827908396356,-0.02338022115155219,0.09705279702197278,24.06297849342227,-96.25519929585457,80.21211738781929
2024-09-23 14:53:31.744563,40.66,29.457981,-0.0037308827908396356,-0.023479709566915436,0.09705279702197278,24.06297849342227,-96.25519929585457,80.21211738781929
2024-09-23 14:53:31.777629,40.66,29.457981,-0.0037308827908396356,-0.023479709566915436,0.0973015264147526,24.06297849342227,-100.26678939585686,80.21211738781929
2024-09-23 14:53:31.789062,40.66,29.458032,-0.003482159473966507,-0.023479709566915436,0.0973015264147526,24.06297849342227,-100.26678939585686,84.22370748782159
2024-09-23 14:53:31.831730,40.66,29.458122,-0.003482159473966507,-0.023181236725942318,0.09720203344245934,52.137550501942634,-100.26678939585686,76.200527287817
2024-09-23 14:53:31.874871,40.66,29.458122,-0.0035318979854855937,-0.02352945757203875,0.09745075675933246,52.137550501942634,-100.26678939585686,76.200527287817
2024-09-23 14:53:31.886629,40.66,29.458122,-0.0035318979854855937,-0.02352945757203875,0.09745075675933246,52.137550501942634,-96.25519929585457,84.22370748782159
2024-09-23 14:53:31.929186,40.66,29.458173,-0.0031836870127375577,-0.023479709566915436,0.09710254654607277,32.08287849390507,-96.25519929585457,84.22370748782159
2024-09-23 14:53:31.972433,40.66,29.458268,-0.0035816467500972456,-0.023479709566915436,0.09710254654607277,32.08287849390507,-96.25519929585457,84.22370748782159
2024-09-23 14:53:31.983534,40.66,29.458268,-0.0035816467500972456,-0.023280723622328886,0.09725178296655933,28.07457030097246,-96.25519929585457,84.22370748782159
2024-09-23 14:53:32.026770,40.66,29.45832,-0.0032831742888682963,-0.02338022115155219,0.09655535038822652,28.07457030097246,-100.26678939585686,84.22370748782159
2024-09-23 14:53:32.069996,40.66,29.45832,-0.0032831742888682963,-0.02338022115155219,0.09655535038822652,24.06297849342227,-96.25519929585457,80.21211738781929
2024-09-23 14:53:32.081430,40.66,29.45837,-0.0030344509719951677,-0.023280723622328886,0.09655535038822652,24.06297849342227,-96.25519929585457,80.21211738781929
2024-09-23 14:53:32.124579,40.66,29.45837,-0.0030344509719951677,-0.023280723622328886,0.09710254654607277,36.09446859390736,-96.25519929585457,80.21211738781929
2024-09-23 14:53:32.168477,40.66,29.458421,-0.0030344509719951677,-0.023280723622328886,0.09710254654607277,36.09446859390736,-96.25519929585457,80.21211738781929
2024-09-23 14:53:32.179445,40.66,29.458421,-0.0037308827908396356,-0.022833026512682618,0.09725178296655933,36.09446859390736,-96.25519929585457,80.21211738781929
2024-09-23 14:53:32.221857,40.66,29.458511,-0.0032831742888682963,-0.02362894446842532,0.09725178296655933,44.11764879391193,-96.25519929585457,76.200527287817
2024-09-23 14:53:32.265406,40.66,29.458511,-0.0032831742888682963,-0.02362894446842532,0.09715228999426605,56.14914060194492,-92.24360919585227,76.200527287817
2024-09-23 14:53:32.277284,40.66,29.458563,-0.0034324103296106863,-0.02362894446842532,0.09715228999426605,56.14914060194492,-92.24360919585227,76.200527287817
2024-09-23 14:53:32.310662,40.77,29.458563,-0.0034324103296106863,-0.023181236725942318,0.09715228999426605,56.14914060194492,-92.24360919585227,76.200527287817
2024-09-23 14:53:32.321821,40.77,29.458613,-0.0034324103296106863,-0.023181236725942318,0.09715228999426605,36.09446859390736,-92.24360919585227,76.200527287817
2024-09-23 14:53:32.363685,40.77,29.458613,-0.003382661564999035,-0.023181236725942318,0.09685382322919964,28.07457030097246,-92.24360919585227,76.200527287817
2024-09-23 14:53:32.374642,40.77,29.458613,-0.003382661564999035,-0.023181236725942318,0.09685382322919964,28.07457030097246,-104.27510100388527,84.22370748782159
2024-09-23 14:53:32.418009,40.77,29.458707,-0.0034324103296106863,-0.023181236725942318,0.0973512698629459,32.08287849390507,-100.26678939585686,84.22370748782159
2024-09-23 14:53:32.459704,40.77,29.458758,-0.0033329230534799477,-0.023181236725942318,0.0973512698629459,32.08287849390507,-100.26678939585686,84.22370748782159
2024-09-23 14:53:32.470745,40.77,29.458758,-0.0033329230534799477,-0.0228827638849692,0.09740101331113918,32.08287849390507,-100.26678939585686,84.22370748782159
2024-09-23 14:53:32.512904,40.77,29.458809,-0.0029847020175114316,-0.023181236725942318,0.09720203344245934,32.08287849390507,-92.24360919585227,80.21211738781929
2024-09-23 14:53:32.558397,40.77,29.458809,-0.0029847020175114316,-0.023181236725942318,0.09720203344245934,40.106058693909645,-96.25519929585457,80.21211738781929
2024-09-23 14:53:32.569847,40.77,29.458859,-0.0035816467500972456,-0.023479709566915436,0.09720203344245934,40.106058693909645,-96.25519929585457,80.21211738781929
2024-09-23 14:53:32.603731,40.77,29.458859,-0.0035816467500972456,-0.023479709566915436,0.09715228999426605,40.106058693909645,-96.25519929585457,80.21211738781929
2024-09-23 14:53:32.614943,40.77,29.45891,-0.003233425524256645,-0.023479709566915436,0.09715228999426605,48.12595698684454,-96.25519929585457,76.200527287817
2024-09-23 14:53:32.657924,40.77,29.45891,-0.003233425524256645,-0.02293251340906919,0.09705279702197278,36.09446859390736,-96.25519929585457,88.23529758782387
2024-09-23 14:53:32.670319,40.77,29.458999,-0.003233425524256645,-0.02293251340906919,0.09705279702197278,36.09446859390736,-96.25519929585457,88.23529758782387
2024-09-23 14:53:32.702286,40.77,29.458999,-0.0030344509719951677,-0.02303200030545576,0.09705279702197278,36.09446859390736,-96.25519929585457,88.23529758782387
2024-09-23 14:53:32.713386,40.77,29.458999,-0.0030344509719951677,-0.02303200030545576,0.09715228999426605,36.09446859390736,-100.26678939585686,84.22370748782159
2024-09-23 14:53:32.755996,40.77,29.45905,-0.0033329230534799477,-0.023230986250042305,0.0973015264147526,36.09446859390736,-100.26678939585686,84.22370748782159
2024-09-23 14:53:32.799835,40.77,29.45905,-0.0033329230534799477,-0.023230986250042305,0.0973015264147526,28.07457030097246,-100.26678939585686,84.22370748782159
2024-09-23 14:53:32.810848,40.77,29.459101,-0.0030344509719951677,-0.02352945757203875,0.0973015264147526,28.07457030097246,-100.26678939585686,80.21211738781929
2024-09-23 14:53:32.853336,40.77,29.459151,-0.0030344509719951677,-0.02352945757203875,0.09715228999426605,32.08287849390507,-96.25519929585457,80.21211738781929
2024-09-23 14:53:32.865400,40.77,29.459151,-0.003233425524256645,-0.02352945757203875,0.09715228999426605,32.08287849390507,-96.25519929585457,80.21211738781929
2024-09-23 14:53:32.899322,40.77,29.459151,-0.003233425524256645,-0.0228827638849692,0.09725178296655933,40.106058693909645,-96.25519929585457,80.21211738781929
2024-09-23 14:53:32.911282,40.77,29.459202,-0.003233425524256645,-0.0228827638849692,0.09725178296655933,40.106058693909645,-100.26678939585686,80.21211738781929
2024-09-23 14:53:32.953584,40.77,29.459202,-0.0030344509719951677,-0.023579196463302005,0.09665483728461309,40.106058693909645,-100.26678939585686,80.21211738781929
2024-09-23 14:53:32.996355,40.77,29.459202,-0.0030344509719951677,-0.023579196463302005,0.09665483728461309,48.12595698684454,-100.26678939585686,80.21211738781929
2024-09-23 14:53:33.008066,40.77,29.459253,-0.0031339382481259063,-0.023330473146428877,0.09665483728461309,48.12595698684454,-100.26678939585686,80.21211738781929
2024-09-23 14:53:33.051673,40.77,29.459341,-0.003233425524256645,-0.023330473146428877,0.09710254654607277,56.14914060194492,-92.24360919585227,80.21211738781929
2024-09-23 14:53:33.094726,40.77,29.459341,-0.003233425524256645,-0.02313149783467906,0.09705279702197278,40.106058693909645,-92.24360919585227,80.21211738781929
2024-09-23 14:53:33.106381,40.77,29.459392,-0.003233425524256645,-0.02313149783467906,0.09705279702197278,40.106058693909645,-92.24360919585227,84.22370748782159
2024-09-23 14:53:33.138597,40.77,29.459392,-0.0034324103296106863,-0.02313149783467906,0.09705279702197278,40.106058693909645,-92.24360919585227,84.22370748782159
2024-09-23 14:53:33.150137,40.77,29.459392,-0.0034324103296106863,-0.022833026512682618,0.09720203344245934,28.07457030097246,-96.25519929585457,80.21211738781929
2024-09-23 14:53:33.192681,40.77,29.459443,-0.0028354659767690416,-0.02313149783467906,0.09740101331113918,28.07457030097246,-96.25519929585457,80.21211738781929
2024-09-23 14:53:33.204279,40.77,29.459443,-0.0028354659767690416,-0.02313149783467906,0.09740101331113918,36.09446859390736,-96.25519929585457,80.21211738781929
2024-09-23 14:53:33.236083,40.77,29.459443,-0.0028354659767690416,-0.02313149783467906,0.09740101331113918,36.09446859390736,-96.25519929585457,92.24360919585227
2024-09-23 14:53:33.248513,40.77,29.459536,-0.0030841997366068195,-0.023429960042815445,0.09705279702197278,36.09446859390736,-96.25519929585457,92.24360919585227
2024-09-23 14:53:33.291829,40.77,29.459587,-0.0036811340262279837,-0.023429960042815445,0.09705279702197278,36.09446859390736,-96.25519929585457,88.23529758782387
2024-09-23 14:53:33.303673,40.77,29.459587,-0.0036811340262279837,-0.023429960042815445,0.09759999317981902,36.09446859390736,-96.25519929585457,88.23529758782387
2024-09-23 14:53:33.336043,40.94,29.459587,-0.0036811340262279837,-0.023429960042815445,0.09759999317981902,40.106058693909645,-92.24360919585227,88.23529758782387
2024-09-23 14:53:33.347564,40.94,29.459638,-0.0030344509719951677,-0.02352945757203875,0.09759999317981902,40.106058693909645,-92.24360919585227,80.21211738781929
2024-09-23 14:53:33.390651,40.94,29.459689,-0.0029847020175114316,-0.02352945757203875,0.09695331012558621,44.11764879391193,-104.27510100388527,76.200527287817
2024-09-23 14:53:33.433036,40.94,29.459689,-0.0029847020175114316,-0.023579196463302005,0.0970030596496862,44.11764879391193,-104.27510100388527,76.200527287817
2024-09-23 14:53:33.444411,40.94,29.459779,-0.0029847020175114316,-0.023579196463302005,0.0970030596496862,36.09446859390736,-92.24360919585227,80.21211738781929
2024-09-23 14:53:33.486563,40.94,29.459779,-0.003233425524256645,-0.023280723622328886,0.0973015264147526,28.07457030097246,-96.25519929585457,80.21211738781929
2024-09-23 14:53:33.498556,40.94,29.459779,-0.003233425524256645,-0.023280723622328886,0.0973015264147526,28.07457030097246,-96.25519929585457,84.22370748782159
2024-09-23 14:53:33.530986,40.94,29.459831,-0.0030344509719951677,-0.023280723622328886,0.0973015264147526,28.07457030097246,-96.25519929585457,84.22370748782159
2024-09-23 14:53:33.542858,40.94,29.459831,-0.0030344509719951677,-0.02367869399252531,0.09745075675933246,24.06297849342227,-104.27510100388527,84.22370748782159
2024-09-23 14:53:33.586382,40.94,29.459881,-0.004079093383843503,-0.02278327698858263,0.0973015264147526,28.07457030097246,-104.27510100388527,76.200527287817
2024-09-23 14:53:33.630569,40.94,29.459932,-0.004079093383843503,-0.02278327698858263,0.0973015264147526,28.07457030097246,-100.26678939585686,72.1922225099802
2024-09-23 14:53:33.642518,40.94,29.459932,-0.0033329230534799477,-0.023479709566915436,0.09725178296655933,28.07457030097246,-100.26678939585686,72.1922225099802
2024-09-23 14:53:33.675338,40.94,29.459932,-0.0033329230534799477,-0.023479709566915436,0.09725178296655933,40.106058693909645,-100.26678939585686,72.1922225099802
2024-09-23 14:53:33.686383,40.94,29.459983,-0.002785727465249955,-0.023230986250042305,0.09725178296655933,40.106058693909645,-96.25519929585457,80.21211738781929
2024-09-23 14:53:33.728488,40.94,29.459983,-0.002785727465249955,-0.023230986250042305,0.09665483728461309,36.09446859390736,-92.24360919585227,80.21211738781929
2024-09-23 14:53:33.781801,40.94,29.460033,-0.0030841997366068195,-0.023280723622328886,0.09675432418099966,36.09446859390736,-92.24360919585227,80.21211738781929
2024-09-23 14:53:33.824902,40.94,29.46012,-0.0036811340262279837,-0.023280723622328886,0.09675432418099966,36.09446859390736,-92.24360919585227,80.21211738781929
2024-09-23 14:53:33.836614,40.94,29.46012,-0.0036811340262279837,-0.023230986250042305,0.09740101331113918,48.12595698684454,-92.24360919585227,80.21211738781929
2024-09-23 14:53:33.879359,40.94,29.460171,-0.002785727465249955,-0.023479709566915436,0.09665483728461309,48.12595698684454,-96.25519929585457,76.200527287817
2024-09-23 14:53:33.923443,40.94,29.460171,-0.002785727465249955,-0.023479709566915436,0.09665483728461309,36.09446859390736,-100.26678939585686,76.200527287817
2024-09-23 14:53:33.935245,40.94,29.460222,-0.0030344509719951677,-0.023230986250042305,0.09665483728461309,36.09446859390736,-100.26678939585686,76.200527287817
2024-09-23 14:53:33.967605,40.94,29.460222,-0.0030344509719951677,-0.023230986250042305,0.09710254654607277,36.09446859390736,-100.26678939585686,76.200527287817
2024-09-23 14:53:33.978809,40.94,29.460273,-0.0032831742888682963,-0.023230986250042305,0.09710254654607277,28.07457030097246,-96.25519929585457,72.1922225099802
2024-09-23 14:53:34.021073,40.94,29.460273,-0.0032831742888682963,-0.02303200030545576,0.0976994861521123,28.07457030097246,-96.25519929585457,72.1922225099802
2024-09-23 14:53:34.073230,40.94,29.460364,-0.0030344509719951677,-0.0228827638849692,0.0976994861521123,36.09446859390736,-100.26678939585686,80.21211738781929
2024-09-23 14:53:34.116913,40.94,29.460364,-0.0030344509719951677,-0.0228827638849692,0.09764974270391902,44.11764879391193,-100.26678939585686,80.21211738781929
2024-09-23 14:53:34.127975,40.94,29.460415,-0.0033329230534799477,-0.0228827638849692,0.09764974270391902,44.11764879391193,-92.24360919585227,80.21211738781929
2024-09-23 14:53:34.170851,40.94,29.460466,-0.0033329230534799477,-0.023230986250042305,0.09705279702197278,52.137550501942634,-96.25519929585457,84.22370748782159
2024-09-23 14:53:34.214197,40.94,29.460466,-0.0030344509719951677,-0.023280723622328886,0.09670458680871308,52.137550501942634,-96.25519929585457,84.22370748782159
2024-09-23 14:53:34.226435,40.94,29.460466,-0.0030344509719951677,-0.023280723622328886,0.09670458680871308,44.11764879391193,-100.26678939585686,80.21211738781929
2024-09-23 14:53:34.269619,40.94,29.460517,-0.002785727465249955,-0.023429960042815445,0.09710254654607277,20.05138839341998,-96.25519929585457,80.21211738781929
2024-09-23 14:53:34.312130,40.94,29.460609,-0.0030344509719951677,-0.023429960042815445,0.09710254654607277,20.05138839341998,-96.25519929585457,80.21211738781929
2024-09-23 14:53:34.323318,40.94,29.460609,-0.0030344509719951677,-0.023429960042815445,0.09725178296655933,32.08287849390507,-96.25519929585457,80.21211738781929
2024-09-23 14:53:34.366757,40.93,29.46066,-0.0034324103296106863,-0.02303200030545576,0.09695331012558621,32.08287849390507,-100.26678939585686,84.22370748782159
2024-09-23 14:53:34.410074,40.93,29.46066,-0.0034324103296106863,-0.02303200030545576,0.09695331012558621,32.08287849390507,-92.24360919585227,84.22370748782159
2024-09-23 14:53:34.421895,40.93,29.46071,-0.0032831742888682963,-0.02303200030545576,0.09695331012558621,32.08287849390507,-92.24360919585227,84.22370748782159
2024-09-23 14:53:34.464089,40.93,29.460761,-0.0030344509719951677,-0.02303200030545576,0.09784872257259886,36.09446859390736,-92.24360919585227,80.21211738781929
2024-09-23 14:53:34.507384,40.93,29.460761,-0.0030344509719951677,-0.022833026512682618,0.09750050628343246,48.12595698684454,-92.24360919585227,80.21211738781929
2024-09-23 14:53:34.518942,40.93,29.460851,-0.0030344509719951677,-0.022833026512682618,0.09750050628343246,48.12595698684454,-96.25519929585457,76.200527287817
2024-09-23 14:53:34.561795,40.93,29.460851,-0.0027359787006383035,-0.023728432883788564,0.09680407370509965,36.09446859390736,-96.25519929585457,80.21211738781929
2024-09-23 14:53:34.604144,40.93,29.460903,-0.003233425524256645,-0.023479709566915436,0.09680407370509965,36.09446859390736,-96.25519929585457,80.21211738781929
2024-09-23 14:53:34.615365,40.93,29.460903,-0.003233425524256645,-0.023479709566915436,0.09680407370509965,32.08287849390507,-96.25519929585457,80.21211738781929
2024-09-23 14:53:34.658354,40.93,29.460953,-0.0031836870127375577,-0.023181236725942318,0.09680407370509965,32.08287849390507,-96.25519929585457,76.200527287817
2024-09-23 14:53:34.700815,40.93,29.460953,-0.0031836870127375577,-0.023181236725942318,0.0966050877605131,28.07457030097246,-96.25519929585457,76.200527287817
2024-09-23 14:53:34.711862,40.93,29.461004,-0.0031339382481259063,-0.023181236725942318,0.0966050877605131,28.07457030097246,-108.28669110388756,72.1922225099802
2024-09-23 14:53:34.754662,40.93,29.461004,-0.0031339382481259063,-0.023280723622328886,0.09759999317981902,36.09446859390736,-104.27510100388527,72.1922225099802
2024-09-23 14:53:34.766730,40.93,29.461055,-0.0031339382481259063,-0.023280723622328886,0.09759999317981902,36.09446859390736,-104.27510100388527,72.1922225099802
2024-09-23 14:53:34.798575,40.93,29.461055,-0.003382661564999035,-0.02268379009219606,0.09759999317981902,36.09446859390736,-104.27510100388527,72.1922225099802
2024-09-23 14:53:34.810472,40.93,29.461055,-0.003382661564999035,-0.02268379009219606,0.09695331012558621,36.09446859390736,-104.27510100388527,80.21211738781929
2024-09-23 14:53:34.853781,40.93,29.461105,-0.003233425524256645,-0.023579196463302005,0.0973512698629459,52.137550501942634,-96.25519929585457,80.21211738781929
2024-09-23 14:53:34.897738,40.93,29.461192,-0.003631395514708897,-0.023579196463302005,0.0973512698629459,52.137550501942634,-96.25519929585457,76.200527287817
2024-09-23 14:53:34.909089,40.93,29.461192,-0.003631395514708897,-0.02293251340906919,0.0970030596496862,40.106058693909645,-96.25519929585457,76.200527287817
2024-09-23 14:53:34.951563,40.93,29.461245,-0.0033329230534799477,-0.023330473146428877,0.09610764112676684,40.106058693909645,-96.25519929585457,84.22370748782159
2024-09-23 14:53:34.993671,40.93,29.461245,-0.0033329230534799477,-0.023330473146428877,0.09610764112676684,28.07457030097246,-96.25519929585457,84.22370748782159
2024-09-23 14:53:35.005729,40.93,29.461295,-0.003482159473966507,-0.02338022115155219,0.09610764112676684,28.07457030097246,-96.25519929585457,84.22370748782159
2024-09-23 14:53:35.048862,40.93,29.461346,-0.003929857343101113,-0.02338022115155219,0.0966050877605131,32.08287849390507,-100.26678939585686,80.21211738781929
2024-09-23 14:53:35.092436,40.93,29.461346,-0.003929857343101113,-0.02293251340906919,0.09720203344245934,28.07457030097246,-100.26678939585686,80.21211738781929
2024-09-23 14:53:35.103938,40.93,29.461436,-0.003929857343101113,-0.02293251340906919,0.09720203344245934,28.07457030097246,-96.25519929585457,80.21211738781929
2024-09-23 14:53:35.146523,40.93,29.461436,-0.003780631555451287,-0.02268379009219606,0.09695331012558621,28.07457030097246,-96.25519929585457,80.21211738781929
2024-09-23 14:53:35.190043,40.93,29.461488,-0.0035816467500972456,-0.023429960042815445,0.09695331012558621,28.07457030097246,-96.25519929585457,80.21211738781929
2024-09-23 14:53:35.201388,40.93,29.461488,-0.0035816467500972456,-0.023429960042815445,0.09725178296655933,44.11764879391193,-96.25519929585457,80.21211738781929
2024-09-23 14:53:35.244495,40.93,29.461538,-0.0031836870127375577,-0.022833026512682618,0.09690356060148622,48.12595698684454,-96.25519929585457,80.21211738781929
2024-09-23 14:53:35.287799,40.93,29.461589,-0.0031836870127375577,-0.022833026512682618,0.09690356060148622,48.12595698684454,-96.25519929585457,80.21211738781929
2024-09-23 14:53:35.299227,40.93,29.461589,-0.0033329230534799477,-0.02352945757203875,0.09680407370509965,48.12595698684454,-96.25519929585457,80.21211738781929
2024-09-23 14:53:35.341820,40.93,29.46164,-0.0032831742888682963,-0.02338022115155219,0.09680407370509965,40.106058693909645,-96.25519929585457,80.21211738781929
2024-09-23 14:53:35.384907,40.73,29.46164,-0.0032831742888682963,-0.02338022115155219,0.09715228999426605,36.09446859390736,-92.24360919585227,80.21211738781929
2024-09-23 14:53:35.396537,40.73,29.461691,-0.0035318979854855937,-0.02338022115155219,0.09715228999426605,36.09446859390736,-92.24360919585227,84.22370748782159
2024-09-23 14:53:35.440750,40.73,29.461777,-0.0035318979854855937,-0.023280723622328886,0.09725178296655933,20.05138839341998,-100.26678939585686,76.200527287817
2024-09-23 14:53:35.482655,40.73,29.461777,-0.003482159473966507,-0.02308174982955575,0.0973512698629459,20.05138839341998,-100.26678939585686,76.200527287817
2024-09-23 14:53:35.493851,40.73,29.461777,-0.003482159473966507,-0.02308174982955575,0.0973512698629459,28.07457030097246,-96.25519929585457,76.200527287817
2024-09-23 14:53:35.536674,40.73,29.461829,-0.003233425524256645,-0.023280723622328886,0.0970030596496862,28.07457030097246,-96.25519929585457,76.200527287817
2024-09-23 14:53:35.579203,40.73,29.46188,-0.003233425524256645,-0.023280723622328886,0.0970030596496862,28.07457030097246,-96.25519929585457,72.1922225099802
2024-09-23 14:53:35.590424,40.73,29.46188,-0.0035318979854855937,-0.02352945757203875,0.09685382322919964,52.137550501942634,-96.25519929585457,72.1922225099802
2024-09-23 14:53:35.633413,40.73,29.46193,-0.0033329230534799477,-0.02352945757203875,0.09685382322919964,52.137550501942634,-92.24360919585227,84.22370748782159
2024-09-23 14:53:35.645217,40.73,29.46193,-0.0033329230534799477,-0.02352945757203875,0.09670458680871308,52.137550501942634,-92.24360919585227,84.22370748782159
2024-09-23 14:53:35.678169,40.73,29.46193,-0.0033329230534799477,-0.02352945757203875,0.09670458680871308,52.137550501942634,-92.24360919585227,76.200527287817
2024-09-23 14:53:35.689443,40.73,29.461981,-0.0035816467500972456,-0.02338022115155219,0.09670458680871308,52.137550501942634,-92.24360919585227,76.200527287817
2024-09-23 14:53:35.734031,40.73,29.462032,-0.003631395514708897,-0.02338022115155219,0.09690356060148622,56.14914060194492,-96.25519929585457,76.200527287817
2024-09-23 14:53:35.777063,40.73,29.462032,-0.003631395514708897,-0.02338022115155219,0.09745075675933246,36.09446859390736,-96.25519929585457,76.200527287817
2024-09-23 14:53:35.830028,40.73,29.462119,-0.0033329230534799477,-0.0228827638849692,0.0962568775472534,24.06297849342227,-96.25519929585457,84.22370748782159
2024-09-23 14:53:35.872852,40.73,29.46217,-0.0033329230534799477,-0.0228827638849692,0.0962568775472534,24.06297849342227,-92.24360919585227,76.200527287817
2024-09-23 14:53:35.884688,40.73,29.46217,-0.003482159473966507,-0.022584292562972758,0.0962568775472534,24.06297849342227,-92.24360919585227,76.200527287817
2024-09-23 14:53:35.927708,40.73,29.462221,-0.0030841997366068195,-0.022584292562972758,0.09720203344245934,32.08287849390507,-104.27510100388527,72.1922225099802
2024-09-23 14:53:35.970863,40.73,29.462221,-0.0030841997366068195,-0.023778180888911878,0.0976994861521123,40.106058693909645,-104.27510100388527,72.1922225099802
2024-09-23 14:53:35.982204,40.73,29.462272,-0.0030841997366068195,-0.023778180888911878,0.0976994861521123,40.106058693909645,-92.24360919585227,84.22370748782159
2024-09-23 14:53:36.016722,40.73,29.462272,-0.0029349636958644295,-0.023778180888911878,0.0976994861521123,40.106058693909645,-92.24360919585227,84.22370748782159
2024-09-23 14:53:36.028259,40.73,29.462272,-0.0029349636958644295,-0.023429960042815445,0.09799795899308542,40.106058693909645,-96.25519929585457,84.22370748782159
2024-09-23 14:53:36.071544,40.73,29.462323,-0.0035816467500972456,-0.023479709566915436,0.09764974270391902,52.137550501942634,-96.25519929585457,84.22370748782159
2024-09-23 14:53:36.114524,40.73,29.462412,-0.0035816467500972456,-0.023479709566915436,0.09764974270391902,52.137550501942634,-96.25519929585457,76.200527287817
2024-09-23 14:53:36.125799,40.73,29.462412,-0.003382661564999035,-0.02303200030545576,0.09665483728461309,52.137550501942634,-96.25519929585457,76.200527287817
2024-09-23 14:53:36.167720,40.73,29.462463,-0.003482159473966507,-0.02303200030545576,0.09665483728461309,52.137550501942634,-96.25519929585457,76.200527287817
2024-09-23 14:53:36.178668,40.73,29.462463,-0.003482159473966507,-0.02293251340906919,0.09670458680871308,52.137550501942634,-96.25519929585457,76.200527287817
2024-09-23 14:53:36.210897,40.73,29.462463,-0.003482159473966507,-0.02293251340906919,0.09670458680871308,24.06297849342227,-96.25519929585457,76.200527287817
2024-09-23 14:53:36.222677,40.73,29.462514,-0.003233425524256645,-0.02352945757203875,0.09670458680871308,24.06297849342227,-104.27510100388527,80.21211738781929
2024-09-23 14:53:36.265201,40.73,29.462564,-0.003233425524256645,-0.02352945757203875,0.09740101331113918,20.05138839341998,-96.25519929585457,76.200527287817
2024-09-23 14:53:36.277014,40.73,29.462564,-0.003482159473966507,-0.02352945757203875,0.09740101331113918,20.05138839341998,-96.25519929585457,76.200527287817
2024-09-23 14:53:36.309691,40.73,29.462564,-0.003482159473966507,-0.0228827638849692,0.09764974270391902,20.05138839341998,-96.25519929585457,76.200527287817
2024-09-23 14:53:36.321159,40.73,29.462655,-0.003482159473966507,-0.0228827638849692,0.09764974270391902,40.106058693909645,-100.26678939585686,80.21211738781929
2024-09-23 14:53:36.364314,40.73,29.462655,-0.0038303700669703737,-0.02338022115155219,0.09670458680871308,52.137550501942634,-96.25519929585457,80.21211738781929
2024-09-23 14:53:36.408012,40.73,29.462706,-0.0032831742888682963,-0.02338022115155219,0.09670458680871308,52.137550501942634,-96.25519929585457,80.21211738781929
2024-09-23 14:53:36.419446,40.73,29.462706,-0.0032831742888682963,-0.023330473146428877,0.09695331012558621,44.11764879391193,-100.26678939585686,80.21211738781929
2024-09-23 14:53:36.462000,40.73,29.462757,-0.0035816467500972456,-0.023330473146428877,0.09695331012558621,44.11764879391193,-100.26678939585686,76.200527287817
2024-09-23 14:53:36.504464,40.73,29.462757,-0.0035816467500972456,-0.02313149783467906,0.09725178296655933,44.11764879391193,-100.26678939585686,76.200527287817
2024-09-23 14:53:36.515865,40.73,29.462808,-0.0035816467500972456,-0.02313149783467906,0.09725178296655933,44.11764879391193,-96.25519929585457,76.200527287817
2024-09-23 14:53:36.558331,40.73,29.462808,-0.0032831742888682963,-0.023429960042815445,0.09715228999426605,20.05138839341998,-96.25519929585457,76.200527287817
2024-09-23 14:53:36.570380,40.73,29.462808,-0.0032831742888682963,-0.023429960042815445,0.09715228999426605,20.05138839341998,-96.25519929585457,80.21211738781929
2024-09-23 14:53:36.601698,40.73,29.462858,-0.0029847020175114316,-0.023429960042815445,0.09715228999426605,20.05138839341998,-96.25519929585457,80.21211738781929
2024-09-23 14:53:36.613220,40.73,29.462858,-0.0029847020175114316,-0.02352945757203875,0.09695331012558621,20.05138839341998,-100.26678939585686,80.21211738781929
2024-09-23 14:53:36.656563,40.73,29.462909,-0.0031339382481259063,-0.023280723622328886,0.09705279702197278,32.08287849390507,-100.26678939585686,76.200527287817
2024-09-23 14:53:36.699768,40.73,29.462909,-0.0031339382481259063,-0.023280723622328886,0.09705279702197278,32.08287849390507,-104.27510100388527,76.200527287817
2024-09-23 14:53:36.711677,40.73,29.462996,-0.0032831742888682963,-0.02313149783467906,0.0973512698629459,32.08287849390507,-104.27510100388527,76.200527287817
2024-09-23 14:53:36.753772,40.73,29.463048,-0.003780631555451287,-0.02313149783467906,0.0973512698629459,40.106058693909645,-100.26678939585686,76.200527287817
2024-09-23 14:53:36.765846,40.73,29.463048,-0.003780631555451287,-0.02313149783467906,0.0973512698629459,40.106058693909645,-100.26678939585686,76.200527287817
2024-09-23 14:53:36.798081,40.73,29.463048,-0.003780631555451287,-0.02313149783467906,0.09720203344245934,44.11764879391193,-100.26678939585686,76.200527287817
2024-09-23 14:53:36.809706,40.73,29.463098,-0.0031339382481259063,-0.02313149783467906,0.09720203344245934,44.11764879391193,-96.25519929585457,76.200527287817
2024-09-23 14:53:36.852612,40.73,29.463191,-0.0031339382481259063,-0.02313149783467906,0.09740101331113918,56.14914060194492,-92.24360919585227,80.21211738781929
2024-09-23 14:53:36.946788,40.73,29.463191,-0.0031836870127375577,-0.023728432883788564,0.09725178296655933,32.08287849390507,-92.24360919585227,80.21211738781929
2024-09-23 14:53:36.961920,40.73,29.463191,-0.0031836870127375577,-0.023728432883788564,0.09725178296655933,32.08287849390507,-104.27510100388527,84.22370748782159
2024-09-23 14:53:36.994042,40.73,29.463243,-0.0032831742888682963,-0.0228827638849692,0.09725178296655933,32.08287849390507,-104.27510100388527,84.22370748782159
2024-09-23 14:53:37.005549,40.73,29.463243,-0.0032831742888682963,-0.0228827638849692,0.09670458680871308,28.07457030097246,-104.27510100388527,84.22370748782159
2024-09-23 14:53:37.047859,40.73,29.463293,-0.0031836870127375577,-0.02278327698858263,0.09695331012558621,28.07457030097246,-104.27510100388527,84.22370748782159
2024-09-23 14:53:37.090649,40.73,29.463344,-0.0031836870127375577,-0.02278327698858263,0.09695331012558621,28.07457030097246,-100.26678939585686,76.200527287817
2024-09-23 14:53:37.101697,40.73,29.463344,-0.003382661564999035,-0.02293251340906919,0.09665483728461309,28.07457030097246,-100.26678939585686,76.200527287817
2024-09-23 14:53:37.143950,40.73,29.463395,-0.0029847020175114316,-0.023181236725942318,0.09665483728461309,40.106058693909645,-92.24360919585227,88.23529758782387
2024-09-23 14:53:37.186269,40.73,29.463395,-0.0029847020175114316,-0.023181236725942318,0.09725178296655933,56.14914060194492,-92.24360919585227,88.23529758782387
2024-09-23 14:53:37.198391,40.73,29.463486,-0.0036811340262279837,-0.023181236725942318,0.09725178296655933,56.14914060194492,-88.23529758782387,80.21211738781929
2024-09-23 14:53:37.240928,40.73,29.463486,-0.0036811340262279837,-0.02313149783467906,0.09685382322919964,56.14914060194492,-92.24360919585227,88.23529758782387
2024-09-23 14:53:37.252926,40.73,29.463581,-0.0036811340262279837,-0.02313149783467906,0.09685382322919964,56.14914060194492,-92.24360919585227,88.23529758782387
2024-09-23 14:53:37.284792,40.73,29.463581,-0.003929857343101113,-0.023330473146428877,0.09685382322919964,56.14914060194492,-92.24360919585227,88.23529758782387
2024-09-23 14:53:37.296513,40.73,29.463581,-0.003929857343101113,-0.023330473146428877,0.0970030596496862,24.06297849342227,-92.24360919585227,88.23529758782387
2024-09-23 14:53:37.339106,40.73,29.463633,-0.0031339382481259063,-0.023330473146428877,0.0973512698629459,28.07457030097246,-96.25519929585457,88.23529758782387
2024-09-23 14:53:37.381915,40.73,29.463684,-0.0031339382481259063,-0.023330473146428877,0.0973512698629459,28.07457030097246,-96.25519929585457,84.22370748782159
2024-09-23 14:53:37.392849,40.73,29.463684,-0.0029349636958644295,-0.023778180888911878,0.09680407370509965,20.05138839341998,-96.25519929585457,84.22370748782159
2024-09-23 14:53:37.435192,40.35,29.463735,-0.0031339382481259063,-0.023778180888911878,0.09680407370509965,20.05138839341998,-108.28669110388756,84.22370748782159
2024-09-23 14:53:37.446341,40.35,29.463735,-0.0031339382481259063,-0.02313149783467906,0.09690356060148622,20.05138839341998,-108.28669110388756,84.22370748782159
2024-09-23 14:53:37.479262,40.35,29.463735,-0.0031339382481259063,-0.02313149783467906,0.09690356060148622,32.08287849390507,-100.26678939585686,84.22370748782159
2024-09-23 14:53:37.490442,40.35,29.463785,-0.0034324103296106863,-0.023230986250042305,0.09690356060148622,32.08287849390507,-100.26678939585686,80.21211738781929
2024-09-23 14:53:37.533564,40.35,29.463836,-0.0034324103296106863,-0.023230986250042305,0.09725178296655933,40.106058693909645,-96.25519929585457,76.200527287817
2024-09-23 14:53:37.545208,40.35,29.463836,-0.003482159473966507,-0.023230986250042305,0.09725178296655933,40.106058693909645,-96.25519929585457,76.200527287817
2024-09-23 14:53:37.577350,40.35,29.463836,-0.003482159473966507,-0.02308174982955575,0.09755024973162574,40.106058693909645,-96.25519929585457,76.200527287817
2024-09-23 14:53:37.588409,40.35,29.463922,-0.003482159473966507,-0.02308174982955575,0.09755024973162574,44.11764879391193,-96.25519929585457,84.22370748782159
2024-09-23 14:53:37.630567,40.35,29.463922,-0.003233425524256645,-0.023280723622328886,0.09675432418099966,36.09446859390736,-96.25519929585457,84.22370748782159
2024-09-23 14:53:37.642407,40.35,29.463922,-0.003233425524256645,-0.023280723622328886,0.09675432418099966,36.09446859390736,-96.25519929585457,80.21211738781929
2024-09-23 14:53:37.674610,40.35,29.463974,-0.0030841997366068195,-0.023280723622328886,0.09675432418099966,36.09446859390736,-96.25519929585457,80.21211738781929
2024-09-23 14:53:37.686485,40.35,29.463974,-0.0030841997366068195,-0.023330473146428877,0.09670458680871308,32.08287849390507,-100.26678939585686,80.21211738781929
2024-09-23 14:53:37.730374,40.35,29.464025,-0.0035816467500972456,-0.02268379009219606,0.09755024973162574,28.07457030097246,-100.26678939585686,76.200527287817
2024-09-23 14:53:37.773246,40.35,29.464075,-0.0035816467500972456,-0.02268379009219606,0.09755024973162574,28.07457030097246,-100.26678939585686,76.200527287817
2024-09-23 14:53:37.825988,40.35,29.464075,-0.003780631555451287,-0.023230986250042305,0.09745075675933246,20.05138839341998,-100.26678939585686,76.200527287817
2024-09-23 14:53:37.838169,40.35,29.464075,-0.003780631555451287,-0.023230986250042305,0.09745075675933246,20.05138839341998,-100.26678939585686,88.23529758782387
2024-09-23 14:53:37.871598,40.35,29.464126,-0.0030841997366068195,-0.023230986250042305,0.09745075675933246,20.05138839341998,-100.26678939585686,88.23529758782387
2024-09-23 14:53:37.882852,40.35,29.464126,-0.0030841997366068195,-0.023230986250042305,0.0973015264147526,36.09446859390736,-104.27510100388527,88.23529758782387
2024-09-23 14:53:37.925464,40.35,29.464177,-0.0031339382481259063,-0.02313149783467906,0.0973512698629459,48.12595698684454,-104.27510100388527,76.200527287817
2024-09-23 14:53:37.968193,40.35,29.464264,-0.0031339382481259063,-0.02313149783467906,0.0973512698629459,48.12595698684454,-104.27510100388527,76.200527287817
2024-09-23 14:53:37.979595,40.35,29.464264,-0.003780631555451287,-0.02313149783467906,0.09685382322919964,48.12595698684454,-104.27510100388527,76.200527287817
2024-09-23 14:53:38.021891,40.35,29.464315,-0.0037308827908396356,-0.022982261414192504,0.09685382322919964,48.12595698684454,-88.23529758782387,88.23529758782387
2024-09-23 14:53:38.064137,40.35,29.464315,-0.0037308827908396356,-0.022982261414192504,0.09690356060148622,32.08287849390507,-88.23529758782387,88.23529758782387
2024-09-23 14:53:38.075394,40.35,29.464366,-0.0026862297461545674,-0.022982261414192504,0.09690356060148622,32.08287849390507,-96.25519929585457,84.22370748782159
2024-09-23 14:53:38.119078,40.35,29.464459,-0.0026862297461545674,-0.02367869399252531,0.09690356060148622,20.05138839341998,-96.25519929585457,84.22370748782159
2024-09-23 14:53:38.162349,40.35,29.464459,-0.0031836870127375577,-0.023181236725942318,0.09690356060148622,20.05138839341998,-96.25519929585457,84.22370748782159
2024-09-23 14:53:38.174030,40.35,29.464459,-0.0031836870127375577,-0.023181236725942318,0.09715228999426605,28.07457030097246,-96.25519929585457,80.21211738781929
2024-09-23 14:53:38.216390,40.35,29.46451,-0.0028852147413806935,-0.023827930413011865,0.0973015264147526,36.09446859390736,-100.26678939585686,80.21211738781929
2024-09-23 14:53:38.259330,40.35,29.464561,-0.0028852147413806935,-0.023827930413011865,0.0973015264147526,36.09446859390736,-100.26678939585686,76.200527287817
2024-09-23 14:53:38.271202,40.35,29.464561,-0.003482159473966507,-0.02352945757203875,0.09690356060148622,48.12595698684454,-100.26678939585686,76.200527287817
2024-09-23 14:53:38.313898,40.35,29.464611,-0.003382661564999035,-0.02313149783467906,0.09690356060148622,48.12595698684454,-96.25519929585457,80.21211738781929
2024-09-23 14:53:38.325200,40.35,29.464611,-0.003382661564999035,-0.02313149783467906,0.0973015264147526,48.12595698684454,-96.25519929585457,80.21211738781929
2024-09-23 14:53:38.358343,40.35,29.464611,-0.003382661564999035,-0.02313149783467906,0.0973015264147526,48.12595698684454,-92.24360919585227,80.21211738781929
2024-09-23 14:53:38.369354,40.35,29.464662,-0.0034324103296106863,-0.023181236725942318,0.0973015264147526,48.12595698684454,-92.24360919585227,80.21211738781929
2024-09-23 14:53:38.412096,40.35,29.464713,-0.0034324103296106863,-0.023181236725942318,0.0973512698629459,40.106058693909645,-96.25519929585457,80.21211738781929
2024-09-23 14:53:38.454557,40.75,29.464713,-0.0030344509719951677,-0.022733528983459317,0.0973512698629459,40.106058693909645,-96.25519929585457,80.21211738781929
2024-09-23 14:53:38.466771,40.75,29.464713,-0.0030344509719951677,-0.022733528983459317,0.0973015264147526,20.05138839341998,-104.27510100388527,84.22370748782159
2024-09-23 14:53:38.510115,40.75,29.4648,-0.003382661564999035,-0.02313149783467906,0.0973512698629459,20.05138839341998,-100.26678939585686,84.22370748782159
2024-09-23 14:53:38.552054,40.75,29.464851,-0.003382661564999035,-0.02313149783467906,0.0973512698629459,20.05138839341998,-100.26678939585686,84.22370748782159
2024-09-23 14:53:38.563945,40.75,29.464851,-0.0036811340262279837,-0.023280723622328886,0.09750050628343246,24.06297849342227,-100.26678939585686,84.22370748782159
2024-09-23 14:53:38.608231,40.75,29.464902,-0.0030344509719951677,-0.023429960042815445,0.0970030596496862,24.06297849342227,-100.26678939585686,76.200527287817
2024-09-23 14:53:38.651418,40.75,29.464902,-0.0030344509719951677,-0.023429960042815445,0.0970030596496862,36.09446859390736,-92.24360919585227,76.200527287817
2024-09-23 14:53:38.662744,40.75,29.464953,-0.0028852147413806935,-0.023280723622328886,0.0970030596496862,36.09446859390736,-92.24360919585227,76.200527287817
2024-09-23 14:53:38.705306,40.75,29.465003,-0.003780631555451287,-0.023280723622328886,0.09750050628343246,48.12595698684454,-92.24360919585227,76.200527287817
2024-09-23 14:53:38.748527,40.75,29.465003,-0.003780631555451287,-0.02303200030545576,0.09705279702197278,44.11764879391193,-92.24360919585227,76.200527287817
2024-09-23 14:53:38.760292,40.75,29.465092,-0.003780631555451287,-0.02303200030545576,0.09705279702197278,44.11764879391193,-100.26678939585686,80.21211738781929
2024-09-23 14:53:38.802854,40.75,29.465092,-0.0030841997366068195,-0.02303200030545576,0.09675432418099966,36.09446859390736,-100.26678939585686,80.21211738781929
2024-09-23 14:53:38.846367,40.75,29.465144,-0.0029349636958644295,-0.023579196463302005,0.09675432418099966,36.09446859390736,-100.26678939585686,80.21211738781929
2024-09-23 14:53:38.858404,40.75,29.465144,-0.0029349636958644295,-0.023579196463302005,0.09650560086412653,24.06297849342227,-104.27510100388527,80.21211738781929
2024-09-23 14:53:38.891412,40.75,29.465144,-0.0029349636958644295,-0.023579196463302005,0.09650560086412653,24.06297849342227,-104.27510100388527,84.22370748782159
2024-09-23 14:53:38.902966,40.75,29.465195,-0.0038801188315820256,-0.023280723622328886,0.09715228999426605,28.07457030097246,-104.27510100388527,84.22370748782159
2024-09-23 14:53:38.944928,40.75,29.465245,-0.0031836870127375577,-0.023280723622328886,0.09715228999426605,28.07457030097246,-96.25519929585457,76.200527287817
2024-09-23 14:53:38.956164,40.75,29.465245,-0.0031836870127375577,-0.023181236725942318,0.09655535038822652,28.07457030097246,-96.25519929585457,76.200527287817
2024-09-23 14:53:38.989138,40.75,29.465245,-0.0031836870127375577,-0.023181236725942318,0.09655535038822652,28.07457030097246,-96.25519929585457,76.200527287817
