Ayaan's Suite
Timestamp,Sample Rate (Hz),Time,Ax,Ay,Az,Gx,Gy,Gz
2024-09-23 09:31:12.607720,0,10.118466,-0.0032831742888682963,-0.02397715620066169,0.09705279702197278,36.09446859390736,-96.25519929585457,80.21211738781929
2024-09-23 09:31:12.640038,0,10.118466,-0.0038801188315820256,-0.02397715620066169,0.09705279702197278,36.09446859390736,-96.25519929585457,80.21211738781929
2024-09-23 09:31:12.651552,0,10.118466,-0.0038801188315820256,-0.024026904205785005,0.09710254654607277,36.09446859390736,-96.25519929585457,80.21211738781929
2024-09-23 09:31:12.695172,0,10.118559,-0.0030344509719951677,-0.02352945757203875,0.09715228999426605,32.08287849390507,-96.25519929585457,80.21211738781929
2024-09-23 09:31:12.707097,0,10.118559,-0.0030344509719951677,-0.02352945757203875,0.09715228999426605,32.08287849390507,-96.25519929585457,80.21211738781929
2024-09-23 09:31:12.739721,0,10.11861,-0.0030344509719951677,-0.02352945757203875,0.09715228999426605,32.08287849390507,-96.25519929585457,76.200527287817
2024-09-23 09:31:12.751036,0,10.11861,-0.003233425524256645,-0.02338022115155219,0.0970030596496862,40.106058693909645,-96.25519929585457,76.200527287817
2024-09-23 09:31:12.793685,0,10.118661,-0.0034324103296106863,-0.02352945757203875,0.0970030596496862,40.106058693909645,-100.26678939585686,68.18063240997792
2024-09-23 09:31:12.805923,0,10.118661,-0.0034324103296106863,-0.02352945757203875,0.0970030596496862,40.106058693909645,-100.26678939585686,68.18063240997792
2024-09-23 09:31:12.838514,0,10.118661,-0.0034324103296106863,-0.02352945757203875,0.0970030596496862,44.11764879391193,-96.25519929585457,76.200527287817
2024-09-23 09:31:12.891892,0,10.118712,-0.0033329230534799477,-0.023429960042815445,0.09715228999426605,44.11764879391193,-96.25519929585457,76.200527287817
2024-09-23 09:31:12.934546,0,10.118762,-0.0033329230534799477,-0.023429960042815445,0.09715228999426605,44.11764879391193,-96.25519929585457,80.21211738781929
2024-09-23 09:31:12.946365,0,10.118762,-0.003780631555451287,-0.024026904205785005,0.09695331012558621,36.09446859390736,-96.25519929585457,80.21211738781929
2024-09-23 09:31:12.989408,0,10.118851,-0.0032831742888682963,-0.023429960042815445,0.09695331012558621,36.09446859390736,-104.27510100388527,72.1922225099802
2024-09-23 09:31:13.000748,0,10.118851,-0.0032831742888682963,-0.023429960042815445,0.09745075675933246,36.09446859390736,-104.27510100388527,72.1922225099802
2024-09-23 09:31:13.033230,0,10.118851,-0.0032831742888682963,-0.023429960042815445,0.09745075675933246,32.08287849390507,-104.27510100388527,76.200527287817
2024-09-23 09:31:13.044438,0,10.118903,-0.0033329230534799477,-0.02367869399252531,0.09745075675933246,32.08287849390507,-104.27510100388527,76.200527287817
2024-09-23 09:31:13.087995,0,10.118954,-0.0030841997366068195,-0.02367869399252531,0.09710254654607277,36.09446859390736,-104.27510100388527,80.21211738781929
2024-09-23 09:31:13.131343,0,10.118954,-0.0030841997366068195,-0.023479709566915436,0.09715228999426605,36.09446859390736,-104.27510100388527,80.21211738781929
2024-09-23 09:31:13.142670,0,10.119046,-0.0030841997366068195,-0.023479709566915436,0.09715228999426605,36.09446859390736,-100.26678939585686,80.21211738781929
2024-09-23 09:31:13.184914,0,10.119046,-0.0035318979854855937,-0.02308174982955575,0.09750050628343246,40.106058693909645,-96.25519929585457,80.21211738781929
2024-09-23 09:31:13.197030,0,10.119046,-0.0035318979854855937,-0.02308174982955575,0.09750050628343246,40.106058693909645,-96.25519929585457,80.21211738781929
2024-09-23 09:31:13.230526,0,10.119097,-0.004228329804330061,-0.023778180888911878,0.09720203344245934,40.106058693909645,-96.25519929585457,80.21211738781929
2024-09-23 09:31:13.241744,0,10.119097,-0.004228329804330061,-0.023778180888911878,0.09720203344245934,44.11764879391193,-96.25519929585457,80.21211738781929
2024-09-23 09:31:13.273866,0,10.119097,-0.004228329804330061,-0.023778180888911878,0.09720203344245934,44.11764879391193,-96.25519929585457,80.21211738781929
2024-09-23 09:31:13.285254,0,10.119148,-0.0032831742888682963,-0.023479709566915436,0.09695331012558621,32.08287849390507,-96.25519929585457,80.21211738781929
2024-09-23 09:31:13.327189,0,10.119148,-0.0032831742888682963,-0.023479709566915436,0.09695331012558621,32.08287849390507,-100.26678939585686,80.21211738781929
2024-09-23 09:31:13.380455,0,10.119199,-0.003482159473966507,-0.023877669304275123,0.09715228999426605,36.09446859390736,-100.26678939585686,84.22370748782159
2024-09-23 09:31:13.422334,0,10.119199,-0.003482159473966507,-0.023877669304275123,0.09715228999426605,36.09446859390736,-104.27510100388527,84.22370748782159
2024-09-23 09:31:13.433549,0,10.11925,-0.0030344509719951677,-0.02362894446842532,0.09715228999426605,36.09446859390736,-104.27510100388527,84.22370748782159
2024-09-23 09:31:13.477340,0,10.1193,-0.0031339382481259063,-0.023927417309398437,0.09715228999426605,40.106058693909645,-100.26678939585686,84.22370748782159
2024-09-23 09:31:13.519841,0,10.1193,-0.0031339382481259063,-0.023927417309398437,0.09774922960030558,44.11764879391193,-100.26678939585686,84.22370748782159
2024-09-23 09:31:13.531432,0,10.119387,-0.002785727465249955,-0.023927417309398437,0.09774922960030558,44.11764879391193,-104.27510100388527,72.1922225099802
2024-09-23 09:31:13.573304,0,10.119387,-0.002785727465249955,-0.023230986250042305,0.09670458680871308,32.08287849390507,-92.24360919585227,72.1922225099802
2024-09-23 09:31:13.585338,0,10.119438,-0.002785727465249955,-0.023230986250042305,0.09670458680871308,32.08287849390507,-92.24360919585227,80.21211738781929
2024-09-23 09:31:13.617578,43.08,10.119438,-0.0031339382481259063,-0.023330473146428877,0.09670458680871308,32.08287849390507,-92.24360919585227,80.21211738781929
2024-09-23 09:31:13.628663,43.08,10.119438,-0.0031339382481259063,-0.023330473146428877,0.09705279702197278,28.07457030097246,-96.25519929585457,80.21211738781929
2024-09-23 09:31:13.670403,43.08,10.119534,-0.0038303700669703737,-0.023827930413011865,0.09710254654607277,40.106058693909645,-96.25519929585457,80.21211738781929
2024-09-23 09:31:13.682325,43.08,10.119534,-0.0038303700669703737,-0.023827930413011865,0.09710254654607277,40.106058693909645,-100.26678939585686,80.21211738781929
2024-09-23 09:31:13.715067,43.08,10.119585,-0.0038303700669703737,-0.023827930413011865,0.09710254654607277,40.106058693909645,-100.26678939585686,80.21211738781929
2024-09-23 09:31:13.726996,43.08,10.119585,-0.0032831742888682963,-0.023827930413011865,0.0970030596496862,36.09446859390736,-100.26678939585686,80.21211738781929
2024-09-23 09:31:13.769665,43.08,10.119636,-0.003233425524256645,-0.02313149783467906,0.09715228999426605,36.09446859390736,-100.26678939585686,84.22370748782159
2024-09-23 09:31:13.812010,43.08,10.119636,-0.003233425524256645,-0.02313149783467906,0.09715228999426605,40.106058693909645,-92.24360919585227,84.22370748782159
2024-09-23 09:31:13.823549,43.08,10.119687,-0.0036811340262279837,-0.02397715620066169,0.09715228999426605,40.106058693909645,-92.24360919585227,84.22370748782159
2024-09-23 09:31:13.866526,43.08,10.119687,-0.0036811340262279837,-0.02397715620066169,0.09675432418099966,40.106058693909645,-92.24360919585227,84.22370748782159
2024-09-23 09:31:13.909865,43.08,10.119687,-0.0036811340262279837,-0.02397715620066169,0.09675432418099966,40.106058693909645,-96.25519929585457,80.21211738781929
2024-09-23 09:31:13.920931,43.08,10.119737,-0.0031836870127375577,-0.023429960042815445,0.09710254654607277,40.106058693909645,-96.25519929585457,80.21211738781929
2024-09-23 09:31:13.963782,43.08,10.119826,-0.0030841997366068195,-0.023429960042815445,0.09710254654607277,28.07457030097246,-96.25519929585457,84.22370748782159
2024-09-23 09:31:13.975871,43.08,10.119826,-0.0030841997366068195,-0.02362894446842532,0.09710254654607277,28.07457030097246,-96.25519929585457,84.22370748782159
2024-09-23 09:31:14.007988,43.08,10.119826,-0.0030841997366068195,-0.02362894446842532,0.09690356060148622,36.09446859390736,-100.26678939585686,84.22370748782159
2024-09-23 09:31:14.018942,43.08,10.119877,-0.0031836870127375577,-0.02362894446842532,0.09690356060148622,36.09446859390736,-100.26678939585686,84.22370748782159
2024-09-23 09:31:14.061711,43.08,10.119928,-0.0031836870127375577,-0.02397715620066169,0.09645586349183995,36.09446859390736,-96.25519929585457,84.22370748782159
2024-09-23 09:31:14.105390,43.08,10.119928,-0.003780631555451287,-0.023877669304275123,0.09645586349183995,36.09446859390736,-96.25519929585457,84.22370748782159
2024-09-23 09:31:14.116461,43.08,10.119928,-0.003780631555451287,-0.023877669304275123,0.09715228999426605,32.08287849390507,-92.24360919585227,84.22370748782159
2024-09-23 09:31:14.159251,43.08,10.120021,-0.0030841997366068195,-0.023877669304275123,0.09715228999426605,32.08287849390507,-92.24360919585227,84.22370748782159
2024-09-23 09:31:14.202237,43.08,10.120021,-0.0030841997366068195,-0.02278327698858263,0.09705279702197278,32.08287849390507,-92.24360919585227,84.22370748782159
2024-09-23 09:31:14.214326,43.08,10.120073,-0.0030841997366068195,-0.02278327698858263,0.09705279702197278,32.08287849390507,-96.25519929585457,80.21211738781929
2024-09-23 09:31:14.257887,43.08,10.120073,-0.0031339382481259063,-0.02367869399252531,0.09750050628343246,32.08287849390507,-100.26678939585686,84.22370748782159
2024-09-23 09:31:14.300170,43.08,10.120123,-0.0029349636958644295,-0.02367869399252531,0.09750050628343246,32.08287849390507,-100.26678939585686,84.22370748782159
2024-09-23 09:31:14.311644,43.08,10.120123,-0.0029349636958644295,-0.023429960042815445,0.09675432418099966,32.08287849390507,-92.24360919585227,84.22370748782159
2024-09-23 09:31:14.354464,43.08,10.120174,-0.0027359787006383035,-0.02362894446842532,0.0970030596496862,44.11764879391193,-92.24360919585227,76.200527287817
2024-09-23 09:31:14.397322,43.08,10.120174,-0.0027359787006383035,-0.02362894446842532,0.0970030596496862,44.11764879391193,-96.25519929585457,84.22370748782159
2024-09-23 09:31:14.408489,43.08,10.120225,-0.0034324103296106863,-0.023429960042815445,0.0970030596496862,44.11764879391193,-96.25519929585457,84.22370748782159
2024-09-23 09:31:14.451299,43.08,10.120316,-0.0035816467500972456,-0.023429960042815445,0.0970030596496862,44.11764879391193,-104.27510100388527,80.21211738781929
2024-09-23 09:31:14.463280,43.08,10.120316,-0.0035816467500972456,-0.023579196463302005,0.0970030596496862,44.11764879391193,-104.27510100388527,80.21211738781929
2024-09-23 09:31:14.496159,43.08,10.120316,-0.0035816467500972456,-0.023579196463302005,0.0973512698629459,44.11764879391193,-100.26678939585686,80.21211738781929
2024-09-23 09:31:14.507195,43.08,10.120367,-0.0030841997366068195,-0.023579196463302005,0.0973512698629459,44.11764879391193,-100.26678939585686,80.21211738781929
2024-09-23 09:31:14.549401,43.08,10.12046,-0.0030841997366068195,-0.023230986250042305,0.0966050877605131,32.08287849390507,-96.25519929585457,84.22370748782159
2024-09-23 09:31:14.591899,43.08,10.12046,-0.0029349636958644295,-0.023579196463302005,0.0966050877605131,32.08287849390507,-96.25519929585457,84.22370748782159
2024-09-23 09:31:14.603753,43.08,10.12046,-0.0029349636958644295,-0.023579196463302005,0.09695331012558621,40.106058693909645,-104.27510100388527,68.18063240997792
2024-09-23 09:31:14.646275,42.44,10.120511,-0.0036811340262279837,-0.02367869399252531,0.0973512698629459,36.09446859390736,-104.27510100388527,68.18063240997792
2024-09-23 09:31:14.658408,42.44,10.120511,-0.0036811340262279837,-0.02367869399252531,0.0973512698629459,36.09446859390736,-104.27510100388527,68.18063240997792
2024-09-23 09:31:14.690508,42.44,10.120562,-0.0036811340262279837,-0.02367869399252531,0.0973512698629459,36.09446859390736,-104.27510100388527,72.1922225099802
2024-09-23 09:31:14.701762,42.44,10.120562,-0.0031339382481259063,-0.024026904205785005,0.0973512698629459,32.08287849390507,-104.27510100388527,72.1922225099802
2024-09-23 09:31:14.744579,42.44,10.120612,-0.0033329230534799477,-0.024176140626271565,0.09630662707135339,32.08287849390507,-104.27510100388527,80.21211738781929
2024-09-23 09:31:14.786523,42.44,10.120612,-0.0033329230534799477,-0.024176140626271565,0.09630662707135339,36.09446859390736,-104.27510100388527,80.21211738781929
2024-09-23 09:31:14.797584,42.44,10.120663,-0.0028852147413806935,-0.02352945757203875,0.09630662707135339,36.09446859390736,-104.27510100388527,80.21211738781929
2024-09-23 09:31:14.840040,42.44,10.120663,-0.0028852147413806935,-0.02352945757203875,0.09725178296655933,32.08287849390507,-100.26678939585686,80.21211738781929
2024-09-23 09:31:14.851816,42.44,10.120714,-0.0035816467500972456,-0.02352945757203875,0.09725178296655933,32.08287849390507,-100.26678939585686,80.21211738781929
2024-09-23 09:31:14.883869,42.44,10.120714,-0.0035816467500972456,-0.023877669304275123,0.09725178296655933,32.08287849390507,-100.26678939585686,80.21211738781929
2024-09-23 09:31:14.894853,42.44,10.120801,-0.0035816467500972456,-0.023877669304275123,0.09725178296655933,40.106058693909645,-104.27510100388527,72.1922225099802
2024-09-23 09:31:14.937449,42.44,10.120801,-0.003382661564999035,-0.023778180888911878,0.09750050628343246,48.12595698684454,-96.25519929585457,72.1922225099802
2024-09-23 09:31:14.949643,42.44,10.120801,-0.003382661564999035,-0.023778180888911878,0.09750050628343246,48.12595698684454,-96.25519929585457,76.200527287817
2024-09-23 09:31:14.981830,42.44,10.120852,-0.003382661564999035,-0.023778180888911878,0.09750050628343246,48.12595698684454,-96.25519929585457,76.200527287817
2024-09-23 09:31:15.034505,42.44,10.120852,-0.0033329230534799477,-0.023728432883788564,0.0973512698629459,44.11764879391193,-96.25519929585457,76.200527287817
2024-09-23 09:31:15.046204,42.44,10.120852,-0.0033329230534799477,-0.023728432883788564,0.0973512698629459,44.11764879391193,-104.27510100388527,76.200527287817
2024-09-23 09:31:15.077786,42.44,10.120852,-0.0033329230534799477,-0.023728432883788564,0.0973512698629459,44.11764879391193,-104.27510100388527,72.1922225099802
2024-09-23 09:31:15.089347,42.44,10.120903,-0.0029349636958644295,-0.023827930413011865,0.09655535038822652,48.12595698684454,-104.27510100388527,72.1922225099802
2024-09-23 09:31:15.134217,42.44,10.120954,-0.0035816467500972456,-0.023330473146428877,0.09655535038822652,48.12595698684454,-92.24360919585227,72.1922225099802
2024-09-23 09:31:15.145550,42.44,10.120954,-0.0035816467500972456,-0.023330473146428877,0.09685382322919964,48.12595698684454,-92.24360919585227,72.1922225099802
2024-09-23 09:31:15.177314,42.44,10.120954,-0.0035816467500972456,-0.023330473146428877,0.09685382322919964,36.09446859390736,-96.25519929585457,72.1922225099802
2024-09-23 09:31:15.229393,42.44,10.121004,-0.003482159473966507,-0.023877669304275123,0.09685382322919964,36.09446859390736,-96.25519929585457,76.200527287817
2024-09-23 09:31:15.241256,42.44,10.121004,-0.003482159473966507,-0.023877669304275123,0.09710254654607277,32.08287849390507,-96.25519929585457,76.200527287817
2024-09-23 09:31:15.273950,42.44,10.121004,-0.003482159473966507,-0.023877669304275123,0.09710254654607277,32.08287849390507,-96.25519929585457,76.200527287817
2024-09-23 09:31:15.285801,42.44,10.121055,-0.003233425524256645,-0.023479709566915436,0.09720203344245934,32.08287849390507,-96.25519929585457,80.21211738781929
2024-09-23 09:31:15.327768,42.44,10.121145,-0.0031339382481259063,-0.023479709566915436,0.09720203344245934,36.09446859390736,-104.27510100388527,92.24360919585227
2024-09-23 09:31:15.339397,42.44,10.121145,-0.0031339382481259063,-0.02352945757203875,0.09720203344245934,36.09446859390736,-104.27510100388527,92.24360919585227
2024-09-23 09:31:15.371657,42.44,10.121145,-0.0031339382481259063,-0.02352945757203875,0.09680407370509965,32.08287849390507,-104.27510100388527,92.24360919585227
2024-09-23 09:31:15.383251,42.44,10.12124,-0.0031836870127375577,-0.02352945757203875,0.09680407370509965,32.08287849390507,-100.26678939585686,80.21211738781929
2024-09-23 09:31:15.426058,42.44,10.12124,-0.0031836870127375577,-0.023728432883788564,0.09705279702197278,28.07457030097246,-96.25519929585457,76.200527287817
2024-09-23 09:31:15.438218,42.44,10.121291,-0.0031836870127375577,-0.023728432883788564,0.09705279702197278,28.07457030097246,-96.25519929585457,76.200527287817
2024-09-23 09:31:15.471514,42.44,10.121291,-0.0031836870127375577,-0.023579196463302005,0.09715228999426605,28.07457030097246,-96.25519929585457,76.200527287817
2024-09-23 09:31:15.483774,42.44,10.121291,-0.0031836870127375577,-0.023579196463302005,0.09715228999426605,32.08287849390507,-96.25519929585457,80.21211738781929
2024-09-23 09:31:15.518620,42.44,10.121386,-0.0029349636958644295,-0.023579196463302005,0.09715228999426605,32.08287849390507,-96.25519929585457,80.21211738781929
2024-09-23 09:31:15.529958,42.44,10.121386,-0.0029349636958644295,-0.023280723622328886,0.09710254654607277,40.106058693909645,-100.26678939585686,80.21211738781929
2024-09-23 09:31:15.573125,42.44,10.121438,-0.0028852147413806935,-0.023579196463302005,0.09715228999426605,40.106058693909645,-100.26678939585686,84.22370748782159
2024-09-23 09:31:15.615602,42.44,10.121438,-0.0028852147413806935,-0.023579196463302005,0.09715228999426605,40.106058693909645,-104.27510100388527,80.21211738781929
2024-09-23 09:31:15.627064,42.44,10.121488,-0.0031836870127375577,-0.024375126570858115,0.09715228999426605,40.106058693909645,-104.27510100388527,80.21211738781929
2024-09-23 09:31:15.668782,43.29,10.121539,-0.0031836870127375577,-0.024375126570858115,0.09715228999426605,40.106058693909645,-104.27510100388527,80.21211738781929
2024-09-23 09:31:15.680086,43.29,10.121539,-0.0033329230534799477,-0.02338022115155219,0.09715228999426605,40.106058693909645,-104.27510100388527,80.21211738781929
2024-09-23 09:31:15.712243,43.29,10.121539,-0.0033329230534799477,-0.02338022115155219,0.09690356060148622,40.106058693909645,-104.27510100388527,80.21211738781929
2024-09-23 09:31:15.723174,43.29,10.12159,-0.0033329230534799477,-0.02338022115155219,0.09690356060148622,40.106058693909645,-88.23529758782387,76.200527287817
2024-09-23 09:31:15.764884,43.29,10.12159,-0.0033329230534799477,-0.023827930413011865,0.09680407370509965,28.07457030097246,-88.23529758782387,76.200527287817
2024-09-23 09:31:15.776656,43.29,10.121678,-0.0033329230534799477,-0.023827930413011865,0.09680407370509965,28.07457030097246,-96.25519929585457,84.22370748782159
2024-09-23 09:31:15.808395,43.29,10.121678,-0.0028852147413806935,-0.023827930413011865,0.09680407370509965,28.07457030097246,-96.25519929585457,84.22370748782159
2024-09-23 09:31:15.820139,43.29,10.121678,-0.0028852147413806935,-0.02293251340906919,0.09670458680871308,36.09446859390736,-96.25519929585457,80.21211738781929
2024-09-23 09:31:15.862756,43.29,10.12173,-0.003482159473966507,-0.023429960042815445,0.09615739065086683,36.09446859390736,-96.25519929585457,80.21211738781929
2024-09-23 09:31:15.873853,43.29,10.12173,-0.003482159473966507,-0.023429960042815445,0.09615739065086683,44.11764879391193,-100.26678939585686,80.21211738781929
2024-09-23 09:31:15.905944,43.29,10.12173,-0.003482159473966507,-0.023429960042815445,0.09615739065086683,44.11764879391193,-100.26678939585686,80.21211738781929
2024-09-23 09:31:15.917897,43.29,10.121781,-0.0035318979854855937,-0.02338022115155219,0.09725178296655933,32.08287849390507,-100.26678939585686,80.21211738781929
2024-09-23 09:31:15.960503,43.29,10.121832,-0.003631395514708897,-0.02338022115155219,0.09725178296655933,32.08287849390507,-96.25519929585457,80.21211738781929
2024-09-23 09:31:15.972290,43.29,10.121832,-0.003631395514708897,-0.023479709566915436,0.0973015264147526,32.08287849390507,-96.25519929585457,80.21211738781929
2024-09-23 09:31:16.004059,43.29,10.121832,-0.003631395514708897,-0.023479709566915436,0.0973015264147526,36.09446859390736,-96.25519929585457,80.21211738781929
2024-09-23 09:31:16.015229,43.29,10.121882,-0.0030344509719951677,-0.02367869399252531,0.0973015264147526,36.09446859390736,-104.27510100388527,84.22370748782159
2024-09-23 09:31:16.057634,43.29,10.121882,-0.0030344509719951677,-0.02367869399252531,0.09675432418099966,36.09446859390736,-100.26678939585686,84.22370748782159
2024-09-23 09:31:16.069636,43.29,10.121933,-0.0028852147413806935,-0.02367869399252531,0.09675432418099966,36.09446859390736,-100.26678939585686,84.22370748782159
2024-09-23 09:31:16.102414,43.29,10.121933,-0.0028852147413806935,-0.023728432883788564,0.09675432418099966,36.09446859390736,-100.26678939585686,84.22370748782159
2024-09-23 09:31:16.113640,43.29,10.12202,-0.0028852147413806935,-0.023728432883788564,0.09705279702197278,36.09446859390736,-96.25519929585457,80.21211738781929
2024-09-23 09:31:16.156269,43.29,10.12202,-0.0031836870127375577,-0.023330473146428877,0.09695331012558621,32.08287849390507,-96.25519929585457,80.21211738781929
2024-09-23 09:31:16.168107,43.29,10.12202,-0.0031836870127375577,-0.023330473146428877,0.09695331012558621,32.08287849390507,-96.25519929585457,80.21211738781929
2024-09-23 09:31:16.200593,43.29,10.122071,-0.0031339382481259063,-0.023330473146428877,0.09695331012558621,32.08287849390507,-96.25519929585457,80.21211738781929
2024-09-23 09:31:16.212073,43.29,10.122071,-0.0031339382481259063,-0.023479709566915436,0.09764974270391902,36.09446859390736,-100.26678939585686,80.21211738781929
2024-09-23 09:31:16.254368,43.29,10.122122,-0.0029349636958644295,-0.023827930413011865,0.09764974270391902,36.09446859390736,-100.26678939585686,76.200527287817
2024-09-23 09:31:16.266330,43.29,10.122122,-0.0029349636958644295,-0.023827930413011865,0.09685382322919964,48.12595698684454,-100.26678939585686,76.200527287817
2024-09-23 09:31:16.298601,43.29,10.122122,-0.0029349636958644295,-0.023827930413011865,0.09685382322919964,48.12595698684454,-96.25519929585457,72.1922225099802
2024-09-23 09:31:16.310744,43.29,10.122172,-0.0034324103296106863,-0.023778180888911878,0.09710254654607277,48.12595698684454,-96.25519929585457,72.1922225099802
2024-09-23 09:31:16.353264,43.29,10.122223,-0.0031339382481259063,-0.023429960042815445,0.09710254654607277,36.09446859390736,-100.26678939585686,76.200527287817
2024-09-23 09:31:16.395957,43.29,10.122223,-0.0031339382481259063,-0.023429960042815445,0.09690356060148622,36.09446859390736,-100.26678939585686,76.200527287817
2024-09-23 09:31:16.406848,43.29,10.122274,-0.0028852147413806935,-0.023429960042815445,0.09690356060148622,36.09446859390736,-104.27510100388527,80.21211738781929
2024-09-23 09:31:16.450640,43.29,10.122361,-0.0028852147413806935,-0.023927417309398437,0.09665483728461309,36.09446859390736,-104.27510100388527,84.22370748782159
2024-09-23 09:31:16.493644,43.29,10.122361,-0.003780631555451287,-0.023579196463302005,0.09665483728461309,36.09446859390736,-104.27510100388527,84.22370748782159
2024-09-23 09:31:16.505301,43.29,10.122361,-0.003780631555451287,-0.023579196463302005,0.09710254654607277,40.106058693909645,-96.25519929585457,84.22370748782159
2024-09-23 09:31:16.547121,43.29,10.122412,-0.0030344509719951677,-0.02412639262114825,0.09675432418099966,44.11764879391193,-96.25519929585457,84.22370748782159
2024-09-23 09:31:16.559156,43.29,10.122412,-0.0030344509719951677,-0.02412639262114825,0.09675432418099966,44.11764879391193,-104.27510100388527,84.22370748782159
2024-09-23 09:31:16.591026,43.29,10.122463,-0.0030344509719951677,-0.02412639262114825,0.09675432418099966,44.11764879391193,-104.27510100388527,80.21211738781929
2024-09-23 09:31:16.602151,43.29,10.122463,-0.003382661564999035,-0.023429960042815445,0.09670458680871308,36.09446859390736,-104.27510100388527,80.21211738781929
2024-09-23 09:31:16.644486,43.29,10.122514,-0.003631395514708897,-0.0228827638849692,0.09670458680871308,36.09446859390736,-96.25519929585457,80.21211738781929
2024-09-23 09:31:16.656830,43.29,10.122514,-0.003631395514708897,-0.0228827638849692,0.0966050877605131,36.09446859390736,-96.25519929585457,80.21211738781929
2024-09-23 09:31:16.690803,44.45,10.122514,-0.003631395514708897,-0.0228827638849692,0.0966050877605131,32.08287849390507,-96.25519929585457,84.22370748782159
2024-09-23 09:31:16.702153,44.45,10.122564,-0.0030344509719951677,-0.023827930413011865,0.0966050877605131,32.08287849390507,-96.25519929585457,84.22370748782159
2024-09-23 09:31:16.746058,44.45,10.122615,-0.0029847020175114316,-0.023827930413011865,0.09710254654607277,36.09446859390736,-96.25519929585457,84.22370748782159
2024-09-23 09:31:16.790027,44.45,10.122615,-0.0029847020175114316,-0.023927417309398437,0.09715228999426605,40.106058693909645,-92.24360919585227,84.22370748782159
2024-09-23 09:31:16.805930,44.45,10.122702,-0.0029847020175114316,-0.023927417309398437,0.09715228999426605,40.106058693909645,-92.24360919585227,80.21211738781929
2024-09-23 09:31:16.838187,44.45,10.122702,-0.003382661564999035,-0.0228827638849692,0.09720203344245934,32.08287849390507,-92.24360919585227,80.21211738781929
2024-09-23 09:31:16.850082,44.45,10.122702,-0.003382661564999035,-0.0228827638849692,0.09720203344245934,32.08287849390507,-96.25519929585457,84.22370748782159
2024-09-23 09:31:16.882832,44.45,10.122754,-0.0033329230534799477,-0.0228827638849692,0.09720203344245934,32.08287849390507,-96.25519929585457,84.22370748782159
2024-09-23 09:31:16.894221,44.45,10.122754,-0.0033329230534799477,-0.023827930413011865,0.09750050628343246,36.09446859390736,-96.25519929585457,84.22370748782159
2024-09-23 09:31:16.937067,44.45,10.122804,-0.0033329230534799477,-0.02367869399252531,0.09759999317981902,36.09446859390736,-96.25519929585457,84.22370748782159
2024-09-23 09:31:16.948809,44.45,10.122804,-0.0033329230534799477,-0.02367869399252531,0.09759999317981902,28.07457030097246,-96.25519929585457,84.22370748782159
2024-09-23 09:31:16.980417,44.45,10.122804,-0.0033329230534799477,-0.02367869399252531,0.09759999317981902,28.07457030097246,-100.26678939585686,80.21211738781929
2024-09-23 09:31:16.991903,44.45,10.122855,-0.003631395514708897,-0.023280723622328886,0.09725178296655933,28.07457030097246,-100.26678939585686,80.21211738781929
2024-09-23 09:31:17.034007,44.45,10.122906,-0.003631395514708897,-0.023280723622328886,0.09725178296655933,36.09446859390736,-100.26678939585686,80.21211738781929
2024-09-23 09:31:17.047078,44.45,10.122906,-0.0028852147413806935,-0.02352945757203875,0.09725178296655933,36.09446859390736,-100.26678939585686,80.21211738781929
2024-09-23 09:31:17.080142,44.45,10.122906,-0.0028852147413806935,-0.02352945757203875,0.09705279702197278,40.106058693909645,-100.26678939585686,80.21211738781929
2024-09-23 09:31:17.091212,44.45,10.122956,-0.0029847020175114316,-0.02352945757203875,0.09705279702197278,40.106058693909645,-100.26678939585686,72.1922225099802
2024-09-23 09:31:17.134292,44.45,10.123043,-0.0029847020175114316,-0.02362894446842532,0.09710254654607277,32.08287849390507,-96.25519929585457,84.22370748782159
2024-09-23 09:31:17.179419,44.45,10.123043,-0.0034324103296106863,-0.02397715620066169,0.09715228999426605,32.08287849390507,-96.25519929585457,84.22370748782159
2024-09-23 09:31:17.191221,44.45,10.123043,-0.0034324103296106863,-0.02397715620066169,0.09715228999426605,44.11764879391193,-96.25519929585457,88.23529758782387
2024-09-23 09:31:17.224332,44.45,10.123095,-0.0031836870127375577,-0.02397715620066169,0.09715228999426605,44.11764879391193,-96.25519929585457,88.23529758782387
2024-09-23 09:31:17.236177,44.45,10.123095,-0.0031836870127375577,-0.023479709566915436,0.09715228999426605,44.11764879391193,-96.25519929585457,88.23529758782387
2024-09-23 09:31:17.278612,44.45,10.123145,-0.0031836870127375577,-0.023479709566915436,0.09670458680871308,44.11764879391193,-96.25519929585457,84.22370748782159
2024-09-23 09:31:17.290589,44.45,10.123145,-0.003482159473966507,-0.023479709566915436,0.09670458680871308,44.11764879391193,-96.25519929585457,84.22370748782159
2024-09-23 09:31:17.323788,44.45,10.123145,-0.003482159473966507,-0.024026904205785005,0.0976994861521123,44.11764879391193,-96.25519929585457,84.22370748782159
2024-09-23 09:31:17.335275,44.45,10.123196,-0.003482159473966507,-0.024026904205785005,0.0976994861521123,44.11764879391193,-96.25519929585457,80.21211738781929
2024-09-23 09:31:17.377308,44.45,10.123196,-0.003382661564999035,-0.02367869399252531,0.09695331012558621,40.106058693909645,-96.25519929585457,80.21211738781929
2024-09-23 09:31:17.419191,44.45,10.123247,-0.0030841997366068195,-0.02367869399252531,0.09695331012558621,40.106058693909645,-96.25519929585457,80.21211738781929
2024-09-23 09:31:17.430709,44.45,10.123247,-0.0030841997366068195,-0.02367869399252531,0.09680407370509965,40.106058693909645,-100.26678939585686,80.21211738781929
2024-09-23 09:31:17.472865,44.45,10.123298,-0.003382661564999035,-0.02338022115155219,0.09685382322919964,40.106058693909645,-100.26678939585686,80.21211738781929
2024-09-23 09:31:17.484843,44.45,10.123298,-0.003382661564999035,-0.02338022115155219,0.09685382322919964,32.08287849390507,-100.26678939585686,80.21211738781929
2024-09-23 09:31:17.517078,44.45,10.123298,-0.003382661564999035,-0.02338022115155219,0.09685382322919964,32.08287849390507,-108.28669110388756,76.200527287817
2024-09-23 09:31:17.529131,44.45,10.123386,-0.0035816467500972456,-0.024026904205785005,0.09690356060148622,32.08287849390507,-108.28669110388756,76.200527287817
2024-09-23 09:31:17.572621,44.45,10.123437,-0.003631395514708897,-0.023877669304275123,0.09690356060148622,36.09446859390736,-108.28669110388756,72.1922225099802
2024-09-23 09:31:17.615737,44.45,10.123437,-0.003631395514708897,-0.023877669304275123,0.09635636444363997,36.09446859390736,-96.25519929585457,72.1922225099802
2024-09-23 09:31:17.626710,44.45,10.123488,-0.0036811340262279837,-0.023877669304275123,0.09635636444363997,36.09446859390736,-96.25519929585457,80.21211738781929
2024-09-23 09:31:17.669596,44.45,10.12358,-0.0036811340262279837,-0.024026904205785005,0.09690356060148622,40.106058693909645,-92.24360919585227,84.22370748782159
2024-09-23 09:31:17.712256,44.37,10.12358,-0.0032831742888682963,-0.023778180888911878,0.09690356060148622,40.106058693909645,-92.24360919585227,84.22370748782159
2024-09-23 09:31:17.724130,44.37,10.12358,-0.0032831742888682963,-0.023778180888911878,0.09715228999426605,36.09446859390736,-96.25519929585457,76.200527287817
2024-09-23 09:31:17.766166,44.37,10.123631,-0.0037308827908396356,-0.023330473146428877,0.09710254654607277,36.09446859390736,-96.25519929585457,76.200527287817
2024-09-23 09:31:17.778186,44.37,10.123631,-0.0037308827908396356,-0.023330473146428877,0.09710254654607277,36.09446859390736,-100.26678939585686,76.200527287817
2024-09-23 09:31:17.810837,44.37,10.123682,-0.0037308827908396356,-0.023330473146428877,0.09710254654607277,36.09446859390736,-100.26678939585686,80.21211738781929
2024-09-23 09:31:17.823117,44.37,10.123682,-0.003482159473966507,-0.023877669304275123,0.09710254654607277,36.09446859390736,-100.26678939585686,80.21211738781929
2024-09-23 09:31:17.865844,44.37,10.123733,-0.0037308827908396356,-0.023877669304275123,0.0970030596496862,44.11764879391193,-104.27510100388527,80.21211738781929
2024-09-23 09:31:17.909453,44.37,10.123733,-0.0037308827908396356,-0.023728432883788564,0.0973512698629459,44.11764879391193,-104.27510100388527,80.21211738781929
2024-09-23 09:31:17.921092,44.37,10.123783,-0.0037308827908396356,-0.023728432883788564,0.0973512698629459,44.11764879391193,-100.26678939585686,72.1922225099802
2024-09-23 09:31:17.955979,44.37,10.123783,-0.003382661564999035,-0.02397715620066169,0.0973512698629459,44.11764879391193,-100.26678939585686,72.1922225099802
2024-09-23 09:31:17.967179,44.37,10.123783,-0.003382661564999035,-0.02397715620066169,0.09685382322919964,32.08287849390507,-96.25519929585457,80.21211738781929
2024-09-23 09:31:18.010292,44.37,10.123834,-0.0033329230534799477,-0.02352945757203875,0.09685382322919964,32.08287849390507,-100.26678939585686,80.21211738781929
2024-09-23 09:31:18.053256,44.37,10.123921,-0.0033329230534799477,-0.02352945757203875,0.09685382322919964,32.08287849390507,-100.26678939585686,76.200527287817
2024-09-23 09:31:18.064436,44.37,10.123921,-0.0030841997366068195,-0.023579196463302005,0.09720203344245934,32.08287849390507,-100.26678939585686,76.200527287817
2024-09-23 09:31:18.106886,44.37,10.123972,-0.0033329230534799477,-0.023579196463302005,0.09720203344245934,32.08287849390507,-100.26678939585686,76.200527287817
2024-09-23 09:31:18.119289,44.37,10.123972,-0.0033329230534799477,-0.02367869399252531,0.09710254654607277,32.08287849390507,-100.26678939585686,76.200527287817
2024-09-23 09:31:18.153022,44.37,10.123972,-0.0033329230534799477,-0.02367869399252531,0.09710254654607277,44.11764879391193,-96.25519929585457,84.22370748782159
2024-09-23 09:31:18.164343,44.37,10.124023,-0.003382661564999035,-0.023778180888911878,0.09710254654607277,44.11764879391193,-96.25519929585457,84.22370748782159
2024-09-23 09:31:18.207646,44.37,10.124074,-0.0031836870127375577,-0.023778180888911878,0.09705279702197278,36.09446859390736,-96.25519929585457,88.23529758782387
2024-09-23 09:31:18.249441,44.37,10.124074,-0.0031836870127375577,-0.02338022115155219,0.09715228999426605,36.09446859390736,-96.25519929585457,88.23529758782387
2024-09-23 09:31:18.261459,44.37,10.124074,-0.0031836870127375577,-0.02338022115155219,0.09715228999426605,36.09446859390736,-100.26678939585686,88.23529758782387
2024-09-23 09:31:18.304244,44.37,10.124165,-0.0032831742888682963,-0.023778180888911878,0.09640611396773996,40.106058693909645,-100.26678939585686,80.21211738781929
2024-09-23 09:31:18.347703,44.37,10.124216,-0.0032831742888682963,-0.023778180888911878,0.09640611396773996,40.106058693909645,-96.25519929585457,80.21211738781929
2024-09-23 09:31:18.359082,44.37,10.124216,-0.002785727465249955,-0.023877669304275123,0.09745075675933246,40.106058693909645,-96.25519929585457,80.21211738781929
2024-09-23 09:31:18.402636,44.37,10.124267,-0.0030344509719951677,-0.023280723622328886,0.09745075675933246,32.08287849390507,-96.25519929585457,76.200527287817
2024-09-23 09:31:18.444728,44.37,10.124267,-0.0030344509719951677,-0.023280723622328886,0.09720203344245934,28.07457030097246,-96.25519929585457,76.200527287817
2024-09-23 09:31:18.456509,44.37,10.124317,-0.0025369937054121774,-0.023280723622328886,0.09720203344245934,28.07457030097246,-96.25519929585457,76.200527287817
2024-09-23 09:31:18.498637,44.37,10.124368,-0.0025369937054121774,-0.023479709566915436,0.0970030596496862,32.08287849390507,-100.26678939585686,80.21211738781929
2024-09-23 09:31:18.542640,44.37,10.124368,-0.0028354659767690416,-0.023280723622328886,0.09685382322919964,32.08287849390507,-100.26678939585686,80.21211738781929
2024-09-23 09:31:18.554348,44.37,10.124368,-0.0028354659767690416,-0.023280723622328886,0.09685382322919964,36.09446859390736,-96.25519929585457,80.21211738781929
2024-09-23 09:31:18.597004,44.37,10.124458,-0.0034324103296106863,-0.02362894446842532,0.09755024973162574,36.09446859390736,-96.25519929585457,80.21211738781929
2024-09-23 09:31:18.638848,44.37,10.124509,-0.003482159473966507,-0.02362894446842532,0.09755024973162574,36.09446859390736,-96.25519929585457,76.200527287817
2024-09-23 09:31:18.650019,44.37,10.124509,-0.003482159473966507,-0.023330473146428877,0.09680407370509965,32.08287849390507,-96.25519929585457,76.200527287817
2024-09-23 09:31:18.692977,44.37,10.12456,-0.002785727465249955,-0.02367869399252531,0.09655535038822652,32.08287849390507,-92.24360919585227,88.23529758782387
2024-09-23 09:31:18.735565,43.82,10.12456,-0.002785727465249955,-0.02367869399252531,0.09655535038822652,32.08287849390507,-96.25519929585457,88.23529758782387
2024-09-23 09:31:18.746946,43.82,10.12461,-0.0029349636958644295,-0.023877669304275123,0.09655535038822652,32.08287849390507,-96.25519929585457,84.22370748782159
2024-09-23 09:31:18.789190,43.82,10.124661,-0.0029349636958644295,-0.023877669304275123,0.09650560086412653,36.09446859390736,-92.24360919585227,76.200527287817
2024-09-23 09:31:18.800949,43.82,10.124661,-0.0029847020175114316,-0.023877669304275123,0.09650560086412653,36.09446859390736,-92.24360919585227,76.200527287817
2024-09-23 09:31:18.832457,43.82,10.124661,-0.0029847020175114316,-0.023429960042815445,0.09715228999426605,36.09446859390736,-92.24360919585227,76.200527287817
2024-09-23 09:31:18.885107,43.82,10.12475,-0.0029847020175114316,-0.023429960042815445,0.09715228999426605,40.106058693909645,-100.26678939585686,80.21211738781929
2024-09-23 09:31:18.896311,43.82,10.12475,-0.0034324103296106863,-0.023778180888911878,0.09715228999426605,40.106058693909645,-100.26678939585686,80.21211738781929
2024-09-23 09:31:18.928786,43.82,10.12475,-0.0034324103296106863,-0.023778180888911878,0.09715228999426605,40.106058693909645,-100.26678939585686,80.21211738781929
2024-09-23 09:31:18.940163,43.82,10.124801,-0.0029847020175114316,-0.023778180888911878,0.09715228999426605,40.106058693909645,-96.25519929585457,88.23529758782387
2024-09-23 09:31:18.983196,43.82,10.124801,-0.0029847020175114316,-0.02367869399252531,0.09675432418099966,44.11764879391193,-96.25519929585457,88.23529758782387
2024-09-23 09:31:18.994873,43.82,10.124852,-0.0029847020175114316,-0.02367869399252531,0.09675432418099966,44.11764879391193,-96.25519929585457,76.200527287817
2024-09-23 09:31:19.028152,43.82,10.124852,-0.003382661564999035,-0.02367869399252531,0.09675432418099966,44.11764879391193,-96.25519929585457,76.200527287817
2024-09-23 09:31:19.039968,43.82,10.124852,-0.003382661564999035,-0.02352945757203875,0.09725178296655933,36.09446859390736,-96.25519929585457,80.21211738781929
2024-09-23 09:31:19.082374,43.82,10.124903,-0.0030344509719951677,-0.023479709566915436,0.09725178296655933,28.07457030097246,-96.25519929585457,80.21211738781929
2024-09-23 09:31:19.094517,43.82,10.124903,-0.0030344509719951677,-0.023479709566915436,0.09725178296655933,28.07457030097246,-104.27510100388527,80.21211738781929
2024-09-23 09:31:19.127032,43.82,10.124994,-0.0031836870127375577,-0.023479709566915436,0.09725178296655933,28.07457030097246,-104.27510100388527,84.22370748782159
2024-09-23 09:31:19.139190,43.82,10.124994,-0.0031836870127375577,-0.023778180888911878,0.09725178296655933,40.106058693909645,-104.27510100388527,84.22370748782159
2024-09-23 09:31:19.181743,43.82,10.125046,-0.003382661564999035,-0.023479709566915436,0.09670458680871308,40.106058693909645,-92.24360919585227,80.21211738781929
2024-09-23 09:31:19.224051,43.82,10.125046,-0.003382661564999035,-0.023479709566915436,0.09670458680871308,40.106058693909645,-104.27510100388527,80.21211738781929
2024-09-23 09:31:19.235574,43.82,10.125096,-0.004029355252068585,-0.02352945757203875,0.09670458680871308,40.106058693909645,-104.27510100388527,76.200527287817
2024-09-23 09:31:19.278234,43.82,10.125147,-0.004029355252068585,-0.02352945757203875,0.09720203344245934,40.106058693909645,-104.27510100388527,76.200527287817
2024-09-23 09:31:19.289761,43.82,10.125147,-0.0031339382481259063,-0.02352945757203875,0.09720203344245934,40.106058693909645,-104.27510100388527,76.200527287817
2024-09-23 09:31:19.322728,43.82,10.125147,-0.0031339382481259063,-0.023877669304275123,0.0973015264147526,36.09446859390736,-104.27510100388527,76.200527287817
2024-09-23 09:31:19.334273,43.82,10.125237,-0.0031339382481259063,-0.023877669304275123,0.0973015264147526,36.09446859390736,-92.24360919585227,80.21211738781929
2024-09-23 09:31:19.377235,43.82,10.125237,-0.002586742470023829,-0.023778180888911878,0.09725178296655933,36.09446859390736,-92.24360919585227,80.21211738781929
2024-09-23 09:31:19.420024,43.82,10.125237,-0.002586742470023829,-0.023778180888911878,0.09725178296655933,52.137550501942634,-100.26678939585686,64.16903547978401
2024-09-23 09:31:19.431763,43.82,10.125289,-0.0029847020175114316,-0.023330473146428877,0.09725178296655933,52.137550501942634,-100.26678939585686,64.16903547978401
2024-09-23 09:31:19.474187,43.82,10.125339,-0.0030841997366068195,-0.023330473146428877,0.09725178296655933,36.09446859390736,-104.27510100388527,76.200527287817
2024-09-23 09:31:19.516614,43.82,10.125339,-0.0030841997366068195,-0.023579196463302005,0.09685382322919964,36.09446859390736,-104.27510100388527,76.200527287817
2024-09-23 09:31:19.528377,43.82,10.12539,-0.0030841997366068195,-0.023579196463302005,0.09685382322919964,28.07457030097246,-96.25519929585457,80.21211738781929
2024-09-23 09:31:19.571990,43.82,10.12539,-0.003631395514708897,-0.023728432883788564,0.09695331012558621,32.08287849390507,-96.25519929585457,84.22370748782159
2024-09-23 09:31:19.614393,43.82,10.125441,-0.0035318979854855937,-0.023330473146428877,0.09695331012558621,32.08287849390507,-96.25519929585457,84.22370748782159
2024-09-23 09:31:19.625679,43.82,10.125441,-0.0035318979854855937,-0.023330473146428877,0.09650560086412653,28.07457030097246,-96.25519929585457,84.22370748782159
2024-09-23 09:31:19.668948,43.82,10.125531,-0.0031339382481259063,-0.02367869399252531,0.09710254654607277,36.09446859390736,-96.25519929585457,84.22370748782159
2024-09-23 09:31:19.710453,43.82,10.125531,-0.0031339382481259063,-0.02367869399252531,0.09710254654607277,36.09446859390736,-100.26678939585686,88.23529758782387
2024-09-23 09:31:19.722056,43.82,10.125582,-0.0036811340262279837,-0.023479709566915436,0.0973015264147526,36.09446859390736,-100.26678939585686,88.23529758782387
2024-09-23 09:31:19.764298,43.67,10.125633,-0.0033329230534799477,-0.023479709566915436,0.0973015264147526,36.09446859390736,-104.27510100388527,84.22370748782159
2024-09-23 09:31:19.776392,43.67,10.125633,-0.0033329230534799477,-0.02352945757203875,0.0973015264147526,36.09446859390736,-104.27510100388527,84.22370748782159
2024-09-23 09:31:19.809794,43.67,10.125633,-0.0033329230534799477,-0.02352945757203875,0.0973512698629459,44.11764879391193,-104.27510100388527,84.22370748782159
2024-09-23 09:31:19.821713,43.67,10.125683,-0.0028852147413806935,-0.02352945757203875,0.0973512698629459,44.11764879391193,-104.27510100388527,80.21211738781929
2024-09-23 09:31:19.864373,43.67,10.125773,-0.0028852147413806935,-0.023280723622328886,0.0973015264147526,40.106058693909645,-100.26678939585686,80.21211738781929
2024-09-23 09:31:19.957473,43.67,10.125773,-0.0030344509719951677,-0.023280723622328886,0.0973015264147526,40.106058693909645,-100.26678939585686,80.21211738781929
2024-09-23 09:31:20.011553,43.67,10.125825,-0.0030344509719951677,-0.023877669304275123,0.0970030596496862,40.106058693909645,-92.24360919585227,80.21211738781929
2024-09-23 09:31:20.053809,43.67,10.125825,-0.003382661564999035,-0.023827930413011865,0.09650560086412653,40.106058693909645,-92.24360919585227,80.21211738781929
2024-09-23 09:31:20.065399,43.67,10.125825,-0.003382661564999035,-0.023827930413011865,0.09650560086412653,40.106058693909645,-96.25519929585457,76.200527287817
2024-09-23 09:31:20.108332,43.67,10.125876,-0.0038801188315820256,-0.023877669304275123,0.09695331012558621,32.08287849390507,-96.25519929585457,76.200527287817
2024-09-23 09:31:20.150659,43.67,10.125926,-0.0038801188315820256,-0.023877669304275123,0.09695331012558621,32.08287849390507,-96.25519929585457,76.200527287817
2024-09-23 09:31:20.162522,43.67,10.125926,-0.002785727465249955,-0.023579196463302005,0.09710254654607277,40.106058693909645,-96.25519929585457,76.200527287817
2024-09-23 09:31:20.205223,43.67,10.125977,-0.0031339382481259063,-0.024026904205785005,0.0973512698629459,40.106058693909645,-92.24360919585227,88.23529758782387
2024-09-23 09:31:20.248211,43.67,10.125977,-0.0031339382481259063,-0.024026904205785005,0.0973512698629459,40.106058693909645,-96.25519929585457,84.22370748782159
2024-09-23 09:31:20.259284,43.67,10.126117,-0.0035816467500972456,-0.02362894446842532,0.0973512698629459,40.106058693909645,-96.25519929585457,84.22370748782159
2024-09-23 09:31:20.302653,43.67,10.126168,-0.0035816467500972456,-0.02362894446842532,0.09710254654607277,32.08287849390507,-96.25519929585457,84.22370748782159
2024-09-23 09:31:20.344803,43.67,10.126168,-0.0032831742888682963,-0.023877669304275123,0.09710254654607277,32.08287849390507,-96.25519929585457,84.22370748782159
2024-09-23 09:31:20.356986,43.67,10.126168,-0.0032831742888682963,-0.023877669304275123,0.09725178296655933,36.09446859390736,-100.26678939585686,80.21211738781929
2024-09-23 09:31:20.400378,43.67,10.126261,-0.0032831742888682963,-0.02362894446842532,0.0970030596496862,44.11764879391193,-104.27510100388527,80.21211738781929
2024-09-23 09:31:20.443213,43.67,10.126312,-0.0031339382481259063,-0.02362894446842532,0.0970030596496862,44.11764879391193,-104.27510100388527,84.22370748782159
2024-09-23 09:31:20.454211,43.67,10.126312,-0.0031339382481259063,-0.023479709566915436,0.0970030596496862,36.09446859390736,-104.27510100388527,84.22370748782159
2024-09-23 09:31:20.498237,43.67,10.126363,-0.0032831742888682963,-0.02367869399252531,0.09640611396773996,36.09446859390736,-100.26678939585686,80.21211738781929
2024-09-23 09:31:20.540497,43.67,10.126363,-0.0032831742888682963,-0.02367869399252531,0.09640611396773996,40.106058693909645,-88.23529758782387,76.200527287817
2024-09-23 09:31:20.551738,43.67,10.126414,-0.0036811340262279837,-0.023728432883788564,0.09640611396773996,40.106058693909645,-88.23529758782387,76.200527287817
2024-09-23 09:31:20.594431,43.67,10.126464,-0.0031339382481259063,-0.023728432883788564,0.09680407370509965,32.08287849390507,-92.24360919585227,80.21211738781929
2024-09-23 09:31:20.636953,43.67,10.126464,-0.0031339382481259063,-0.023230986250042305,0.0973015264147526,32.08287849390507,-92.24360919585227,80.21211738781929
2024-09-23 09:31:20.648633,43.67,10.126553,-0.0031339382481259063,-0.023230986250042305,0.0973015264147526,44.11764879391193,-108.28669110388756,76.200527287817
2024-09-23 09:31:20.691529,43.67,10.126553,-0.002785727465249955,-0.023778180888911878,0.09720203344245934,48.12595698684454,-104.27510100388527,76.200527287817
2024-09-23 09:31:20.703104,43.67,10.126553,-0.002785727465249955,-0.023778180888911878,0.09720203344245934,48.12595698684454,-104.27510100388527,76.200527287817
2024-09-23 09:31:20.736283,43.67,10.126605,-0.003482159473966507,-0.023579196463302005,0.09720203344245934,48.12595698684454,-104.27510100388527,76.200527287817
2024-09-23 09:31:20.747931,43.67,10.126605,-0.003482159473966507,-0.023579196463302005,0.09740101331113918,36.09446859390736,-96.25519929585457,76.200527287817
2024-09-23 09:31:20.790707,42.96,10.126656,-0.0029847020175114316,-0.023728432883788564,0.09725178296655933,32.08287849390507,-96.25519929585457,80.21211738781929
2024-09-23 09:31:20.833276,42.96,10.126706,-0.0029847020175114316,-0.023728432883788564,0.09725178296655933,32.08287849390507,-96.25519929585457,76.200527287817
2024-09-23 09:31:20.845631,42.96,10.126706,-0.0030841997366068195,-0.02352945757203875,0.09740101331113918,32.08287849390507,-96.25519929585457,76.200527287817
2024-09-23 09:31:20.888923,42.96,10.126757,-0.0035318979854855937,-0.023330473146428877,0.09740101331113918,40.106058693909645,-108.28669110388756,72.1922225099802
2024-09-23 09:31:20.931616,42.96,10.126757,-0.0035318979854855937,-0.023330473146428877,0.09705279702197278,40.106058693909645,-108.28669110388756,72.1922225099802
2024-09-23 09:31:20.984212,42.96,10.126757,-0.0035318979854855937,-0.023330473146428877,0.09705279702197278,40.106058693909645,-108.28669110388756,72.1922225099802
2024-09-23 09:31:21.027366,42.96,10.126757,-0.0035318979854855937,-0.023330473146428877,0.09705279702197278,40.106058693909645,-104.27510100388527,84.22370748782159
2024-09-23 09:31:21.038558,42.96,10.126808,-0.0034324103296106863,-0.02397715620066169,0.09720203344245934,40.106058693909645,-104.27510100388527,84.22370748782159
2024-09-23 09:31:21.081106,42.96,10.126895,-0.0035816467500972456,-0.02397715620066169,0.09720203344245934,40.106058693909645,-96.25519929585457,84.22370748782159
2024-09-23 09:31:21.092990,42.96,10.126895,-0.0035816467500972456,-0.023728432883788564,0.09720203344245934,40.106058693909645,-96.25519929585457,84.22370748782159
2024-09-23 09:31:21.126607,42.96,10.126895,-0.0035816467500972456,-0.023728432883788564,0.09779897304849887,32.08287849390507,-104.27510100388527,84.22370748782159
2024-09-23 09:31:21.138186,42.96,10.126946,-0.0034324103296106863,-0.023728432883788564,0.09779897304849887,32.08287849390507,-104.27510100388527,80.21211738781929
2024-09-23 09:31:21.181214,42.96,10.126997,-0.0034324103296106863,-0.02352945757203875,0.09710254654607277,28.07457030097246,-96.25519929585457,84.22370748782159
2024-09-23 09:31:21.223608,42.96,10.126997,-0.0033329230534799477,-0.02308174982955575,0.09740101331113918,28.07457030097246,-96.25519929585457,84.22370748782159
2024-09-23 09:31:21.235563,42.96,10.126997,-0.0033329230534799477,-0.02308174982955575,0.09740101331113918,40.106058693909645,-100.26678939585686,76.200527287817
2024-09-23 09:31:21.268909,42.96,10.127139,-0.0033329230534799477,-0.02308174982955575,0.09740101331113918,40.106058693909645,-100.26678939585686,76.200527287817
2024-09-23 09:31:21.281574,42.96,10.127139,-0.0031339382481259063,-0.023827930413011865,0.09705279702197278,36.09446859390736,-96.25519929585457,76.200527287817
2024-09-23 09:31:21.323522,42.96,10.12719,-0.003631395514708897,-0.02338022115155219,0.09705279702197278,36.09446859390736,-96.25519929585457,80.21211738781929
2024-09-23 09:31:21.335305,42.96,10.12719,-0.003631395514708897,-0.02338022115155219,0.09675432418099966,36.09446859390736,-96.25519929585457,80.21211738781929
2024-09-23 09:31:21.367785,42.96,10.12719,-0.003631395514708897,-0.02338022115155219,0.09675432418099966,44.11764879391193,-96.25519929585457,80.21211738781929
2024-09-23 09:31:21.379683,42.96,10.127241,-0.0028852147413806935,-0.023330473146428877,0.09675432418099966,44.11764879391193,-96.25519929585457,80.21211738781929
2024-09-23 09:31:21.422014,42.96,10.127292,-0.0028852147413806935,-0.023330473146428877,0.09715228999426605,44.11764879391193,-100.26678939585686,76.200527287817
2024-09-23 09:31:21.434161,42.96,10.127292,-0.0030344509719951677,-0.023330473146428877,0.09715228999426605,44.11764879391193,-100.26678939585686,76.200527287817
2024-09-23 09:31:21.466779,42.96,10.127292,-0.0030344509719951677,-0.02352945757203875,0.0973015264147526,44.11764879391193,-100.26678939585686,76.200527287817
2024-09-23 09:31:21.478051,42.96,10.127343,-0.0030344509719951677,-0.02352945757203875,0.0973015264147526,32.08287849390507,-100.26678939585686,72.1922225099802
2024-09-23 09:31:21.521416,42.96,10.127343,-0.002785727465249955,-0.023579196463302005,0.0973512698629459,36.09446859390736,-100.26678939585686,84.22370748782159
2024-09-23 09:31:21.563485,42.96,10.127431,-0.0026862297461545674,-0.023579196463302005,0.0973512698629459,36.09446859390736,-100.26678939585686,84.22370748782159
2024-09-23 09:31:21.574983,42.96,10.127431,-0.0026862297461545674,-0.02313149783467906,0.09715228999426605,40.106058693909645,-104.27510100388527,84.22370748782159
2024-09-23 09:31:21.617431,42.96,10.127482,-0.0031339382481259063,-0.023728432883788564,0.0970030596496862,40.106058693909645,-104.27510100388527,84.22370748782159
2024-09-23 09:31:21.629279,42.96,10.127482,-0.0031339382481259063,-0.023728432883788564,0.0970030596496862,32.08287849390507,-104.27510100388527,84.22370748782159
2024-09-23 09:31:21.661985,42.96,10.127533,-0.0031339382481259063,-0.023728432883788564,0.0970030596496862,32.08287849390507,-100.26678939585686,84.22370748782159
2024-09-23 09:31:21.673121,42.96,10.127533,-0.0029847020175114316,-0.023330473146428877,0.09695331012558621,32.08287849390507,-100.26678939585686,84.22370748782159
2024-09-23 09:31:21.715597,42.96,10.127584,-0.0031836870127375577,-0.023330473146428877,0.09695331012558621,36.09446859390736,-96.25519929585457,80.21211738781929
2024-09-23 09:31:21.728220,42.96,10.127584,-0.0031836870127375577,-0.02352945757203875,0.09695331012558621,36.09446859390736,-96.25519929585457,80.21211738781929
2024-09-23 09:31:21.759895,42.96,10.127584,-0.0031836870127375577,-0.02352945757203875,0.09705279702197278,40.106058693909645,-100.26678939585686,80.21211738781929
2024-09-23 09:31:21.771404,42.96,10.127634,-0.003482159473966507,-0.02352945757203875,0.09705279702197278,40.106058693909645,-100.26678939585686,80.21211738781929
2024-09-23 09:31:21.813879,42.96,10.127723,-0.003482159473966507,-0.023280723622328886,0.09695331012558621,36.09446859390736,-100.26678939585686,80.21211738781929
2024-09-23 09:31:21.856102,42.96,10.127723,-0.0038801188315820256,-0.023877669304275123,0.09695331012558621,36.09446859390736,-100.26678939585686,80.21211738781929
2024-09-23 09:31:21.867828,42.96,10.127723,-0.0038801188315820256,-0.023877669304275123,0.09685382322919964,32.08287849390507,-100.26678939585686,80.21211738781929
2024-09-23 09:31:21.911772,42.96,10.127775,-0.0035816467500972456,-0.02313149783467906,0.09665483728461309,32.08287849390507,-96.25519929585457,80.21211738781929
2024-09-23 09:31:21.955163,42.96,10.127826,-0.0030841997366068195,-0.02313149783467906,0.09665483728461309,32.08287849390507,-96.25519929585457,80.21211738781929
2024-09-23 09:31:21.967027,42.96,10.127826,-0.0030841997366068195,-0.023877669304275123,0.09670458680871308,32.08287849390507,-96.25519929585457,80.21211738781929
2024-09-23 09:31:22.000980,42.96,10.127826,-0.0030841997366068195,-0.023877669304275123,0.09670458680871308,32.08287849390507,-100.26678939585686,80.21211738781929
2024-09-23 09:31:22.012316,42.96,10.127876,-0.0030841997366068195,-0.024076653729884996,0.0970030596496862,32.08287849390507,-100.26678939585686,76.200527287817
2024-09-23 09:31:22.055478,42.96,10.127927,-0.0029349636958644295,-0.024076653729884996,0.0970030596496862,32.08287849390507,-100.26678939585686,84.22370748782159
2024-09-23 09:31:22.068002,42.96,10.127927,-0.0029349636958644295,-0.02362894446842532,0.0970030596496862,32.08287849390507,-100.26678939585686,84.22370748782159
2024-09-23 09:31:22.101685,42.96,10.127927,-0.0029349636958644295,-0.02362894446842532,0.09695331012558621,48.12595698684454,-100.26678939585686,84.22370748782159
2024-09-23 09:31:22.113705,42.96,10.127978,-0.0033329230534799477,-0.02362894446842532,0.09695331012558621,48.12595698684454,-96.25519929585457,80.21211738781929
2024-09-23 09:31:22.197090,42.96,10.127978,-0.0033329230534799477,-0.02367869399252531,0.0973512698629459,48.12595698684454,-96.25519929585457,80.21211738781929
2024-09-23 09:31:22.210387,42.96,10.127978,-0.0033329230534799477,-0.02367869399252531,0.0973512698629459,40.106058693909645,-100.26678939585686,80.21211738781929
2024-09-23 09:31:22.253022,42.96,10.128065,-0.003382661564999035,-0.023429960042815445,0.09740101331113918,32.08287849390507,-100.26678939585686,76.200527287817
2024-09-23 09:31:22.296563,42.96,10.128116,-0.003382661564999035,-0.023429960042815445,0.09740101331113918,32.08287849390507,-100.26678939585686,84.22370748782159
2024-09-23 09:31:22.308158,42.96,10.128116,-0.003482159473966507,-0.02352945757203875,0.09720203344245934,32.08287849390507,-100.26678939585686,84.22370748782159
2024-09-23 09:31:22.351689,42.96,10.128167,-0.0031836870127375577,-0.023429960042815445,0.09720203344245934,40.106058693909645,-100.26678939585686,80.21211738781929
2024-09-23 09:31:22.394392,42.96,10.128167,-0.0031836870127375577,-0.023429960042815445,0.09640611396773996,36.09446859390736,-100.26678939585686,80.21211738781929
2024-09-23 09:31:22.405722,42.96,10.128218,-0.0035816467500972456,-0.023429960042815445,0.09640611396773996,36.09446859390736,-100.26678939585686,76.200527287817
2024-09-23 09:31:22.447930,42.96,10.128311,-0.0035816467500972456,-0.02412639262114825,0.09675432418099966,40.106058693909645,-88.23529758782387,84.22370748782159
2024-09-23 09:31:22.491811,42.96,10.128311,-0.0032831742888682963,-0.024026904205785005,0.09740101331113918,40.106058693909645,-88.23529758782387,84.22370748782159
2024-09-23 09:31:22.502821,42.96,10.128311,-0.0032831742888682963,-0.024026904205785005,0.09740101331113918,36.09446859390736,-96.25519929585457,80.21211738781929
2024-09-23 09:31:22.545604,42.96,10.128407,-0.0032831742888682963,-0.02362894446842532,0.09759999317981902,40.106058693909645,-100.26678939585686,80.21211738781929
2024-09-23 09:31:22.588261,42.96,10.128458,-0.0036811340262279837,-0.02362894446842532,0.09759999317981902,40.106058693909645,-100.26678939585686,76.200527287817
2024-09-23 09:31:22.600063,42.96,10.128458,-0.0036811340262279837,-0.02338022115155219,0.0973512698629459,32.08287849390507,-100.26678939585686,76.200527287817
2024-09-23 09:31:22.642758,42.96,10.128509,-0.003233425524256645,-0.02397715620066169,0.09685382322919964,32.08287849390507,-92.24360919585227,80.21211738781929
2024-09-23 09:31:22.686006,42.96,10.128509,-0.003233425524256645,-0.02397715620066169,0.09685382322919964,40.106058693909645,-96.25519929585457,76.200527287817
2024-09-23 09:31:22.738889,42.96,10.128559,-0.002437506429281439,-0.023728432883788564,0.09690356060148622,36.09446859390736,-96.25519929585457,76.200527287817
2024-09-23 09:31:22.751176,42.96,10.128559,-0.002437506429281439,-0.023728432883788564,0.09690356060148622,36.09446859390736,-92.24360919585227,76.200527287817
2024-09-23 09:31:22.783396,42.96,10.12861,-0.0029847020175114316,-0.023728432883788564,0.09690356060148622,36.09446859390736,-92.24360919585227,84.22370748782159
2024-09-23 09:31:22.794358,42.96,10.12861,-0.0029847020175114316,-0.02367869399252531,0.09725178296655933,36.09446859390736,-92.24360919585227,84.22370748782159
2024-09-23 09:31:22.836103,42.58,10.128699,-0.0029847020175114316,-0.024026904205785005,0.09725178296655933,36.09446859390736,-96.25519929585457,76.200527287817
2024-09-23 09:31:22.848222,42.58,10.128699,-0.0029847020175114316,-0.024026904205785005,0.09720203344245934,36.09446859390736,-96.25519929585457,76.200527287817
2024-09-23 09:31:22.881469,42.58,10.128699,-0.0029847020175114316,-0.024026904205785005,0.09720203344245934,36.09446859390736,-100.26678939585686,84.22370748782159
2024-09-23 09:31:22.893146,42.58,10.12875,-0.0035816467500972456,-0.023927417309398437,0.09720203344245934,36.09446859390736,-100.26678939585686,84.22370748782159
2024-09-23 09:31:22.935671,42.58,10.128801,-0.003233425524256645,-0.023927417309398437,0.09784872257259886,36.09446859390736,-100.26678939585686,76.200527287817
2024-09-23 09:31:22.977641,42.58,10.128801,-0.003233425524256645,-0.023778180888911878,0.0970030596496862,36.09446859390736,-100.26678939585686,76.200527287817
2024-09-23 09:31:22.989288,42.58,10.128894,-0.003233425524256645,-0.023778180888911878,0.0970030596496862,36.09446859390736,-100.26678939585686,80.21211738781929
2024-09-23 09:31:23.033245,42.58,10.128894,-0.0029349636958644295,-0.023728432883788564,0.09680407370509965,32.08287849390507,-100.26678939585686,76.200527287817
2024-09-23 09:31:23.075661,42.58,10.128945,-0.0030841997366068195,-0.023728432883788564,0.09680407370509965,32.08287849390507,-100.26678939585686,76.200527287817
2024-09-23 09:31:23.086805,42.58,10.128945,-0.0030841997366068195,-0.023429960042815445,0.09685382322919964,36.09446859390736,-96.25519929585457,76.200527287817
2024-09-23 09:31:23.129921,42.58,10.128996,-0.0026862297461545674,-0.02362894446842532,0.09695331012558621,36.09446859390736,-96.25519929585457,76.200527287817
2024-09-23 09:31:23.141394,42.58,10.128996,-0.0026862297461545674,-0.02362894446842532,0.09695331012558621,32.08287849390507,-96.25519929585457,76.200527287817
2024-09-23 09:31:23.173969,42.58,10.129046,-0.0026862297461545674,-0.02362894446842532,0.09695331012558621,32.08287849390507,-96.25519929585457,76.200527287817
2024-09-23 09:31:23.186037,42.58,10.129046,-0.0031339382481259063,-0.024176140626271565,0.0970030596496862,32.08287849390507,-96.25519929585457,76.200527287817
2024-09-23 09:31:23.228420,42.58,10.129097,-0.0038801188315820256,-0.024176140626271565,0.0970030596496862,36.09446859390736,-96.25519929585457,80.21211738781929
2024-09-23 09:31:23.241134,42.58,10.129097,-0.0038801188315820256,-0.02352945757203875,0.0970030596496862,36.09446859390736,-96.25519929585457,80.21211738781929
2024-09-23 09:31:23.325569,42.58,10.129148,-0.0031836870127375577,-0.02352945757203875,0.09695331012558621,28.07457030097246,-104.27510100388527,84.22370748782159
2024-09-23 09:31:23.368603,42.58,10.129148,-0.0031836870127375577,-0.02362894446842532,0.09670458680871308,40.106058693909645,-104.27510100388527,84.22370748782159
2024-09-23 09:31:23.380740,42.58,10.129235,-0.0031836870127375577,-0.02362894446842532,0.09670458680871308,40.106058693909645,-104.27510100388527,80.21211738781929
2024-09-23 09:31:23.423884,42.58,10.129235,-0.002785727465249955,-0.023230986250042305,0.09759999317981902,36.09446859390736,-104.27510100388527,84.22370748782159
2024-09-23 09:31:23.466630,42.58,10.129286,-0.0029847020175114316,-0.023877669304275123,0.09759999317981902,36.09446859390736,-104.27510100388527,84.22370748782159
2024-09-23 09:31:23.477854,42.58,10.129286,-0.0029847020175114316,-0.023877669304275123,0.0966050877605131,28.07457030097246,-100.26678939585686,84.22370748782159
2024-09-23 09:31:23.520711,42.58,10.129337,-0.0035816467500972456,-0.02367869399252531,0.09685382322919964,28.07457030097246,-100.26678939585686,80.21211738781929
2024-09-23 09:31:23.563110,42.58,10.129432,-0.0035816467500972456,-0.02367869399252531,0.09685382322919964,28.07457030097246,-100.26678939585686,84.22370748782159
2024-09-23 09:31:23.574240,42.58,10.129432,-0.0023380189632786156,-0.02367869399252531,0.09670458680871308,28.07457030097246,-100.26678939585686,84.22370748782159
2024-09-23 09:31:23.616311,42.58,10.129482,-0.0029349636958644295,-0.023877669304275123,0.09670458680871308,44.11764879391193,-96.25519929585457,80.21211738781929
2024-09-23 09:31:23.659868,42.58,10.129482,-0.0029349636958644295,-0.023877669304275123,0.0973512698629459,36.09446859390736,-96.25519929585457,80.21211738781929
2024-09-23 09:31:23.671172,42.58,10.129533,-0.003382661564999035,-0.023877669304275123,0.0973512698629459,36.09446859390736,-92.24360919585227,84.22370748782159
2024-09-23 09:31:23.713760,42.58,10.129533,-0.003382661564999035,-0.023330473146428877,0.09710254654607277,36.09446859390736,-104.27510100388527,80.21211738781929
2024-09-23 09:31:23.725931,42.58,10.129625,-0.003382661564999035,-0.023330473146428877,0.09710254654607277,36.09446859390736,-104.27510100388527,80.21211738781929
2024-09-23 09:31:23.758322,42.58,10.129625,-0.0034324103296106863,-0.02362894446842532,0.09690356060148622,36.09446859390736,-104.27510100388527,80.21211738781929
2024-09-23 09:31:23.769868,42.58,10.129625,-0.0034324103296106863,-0.02362894446842532,0.09690356060148622,40.106058693909645,-100.26678939585686,80.21211738781929
2024-09-23 09:31:23.811652,42.58,10.129676,-0.0034324103296106863,-0.023827930413011865,0.09680407370509965,36.09446859390736,-100.26678939585686,80.21211738781929
2024-09-23 09:31:23.855872,42.29,10.129676,-0.0034324103296106863,-0.023827930413011865,0.09680407370509965,36.09446859390736,-92.24360919585227,80.21211738781929
2024-09-23 09:31:23.867932,42.29,10.129727,-0.0030344509719951677,-0.023330473146428877,0.09720203344245934,36.09446859390736,-92.24360919585227,80.21211738781929
2024-09-23 09:31:23.910635,42.29,10.129778,-0.0028354659767690416,-0.023877669304275123,0.09720203344245934,32.08287849390507,-96.25519929585457,80.21211738781929
2024-09-23 09:31:23.953952,42.29,10.129778,-0.0028354659767690416,-0.023877669304275123,0.09640611396773996,32.08287849390507,-92.24360919585227,80.21211738781929
2024-09-23 09:31:23.965576,42.29,10.129828,-0.003382661564999035,-0.023877669304275123,0.09640611396773996,32.08287849390507,-92.24360919585227,80.21211738781929
2024-09-23 09:31:24.009123,42.29,10.129879,-0.003382661564999035,-0.02313149783467906,0.0973015264147526,32.08287849390507,-104.27510100388527,76.200527287817
2024-09-23 09:31:24.052011,42.29,10.129879,-0.0032831742888682963,-0.023778180888911878,0.09695331012558621,32.08287849390507,-104.27510100388527,76.200527287817
2024-09-23 09:31:24.063818,42.29,10.129879,-0.0032831742888682963,-0.023778180888911878,0.09695331012558621,36.09446859390736,-92.24360919585227,80.21211738781929
2024-09-23 09:31:24.106938,42.29,10.129967,-0.0028354659767690416,-0.023728432883788564,0.0966050877605131,44.11764879391193,-96.25519929585457,80.21211738781929
2024-09-23 09:31:24.150112,42.29,10.130018,-0.0033329230534799477,-0.023479709566915436,0.0966050877605131,44.11764879391193,-96.25519929585457,84.22370748782159
2024-09-23 09:31:24.161430,42.29,10.130018,-0.0033329230534799477,-0.023479709566915436,0.09745075675933246,36.09446859390736,-96.25519929585457,84.22370748782159
2024-09-23 09:31:24.193430,42.29,10.130018,-0.0033329230534799477,-0.023479709566915436,0.09745075675933246,36.09446859390736,-88.23529758782387,84.22370748782159
2024-09-23 09:31:24.205424,42.29,10.130069,-0.003233425524256645,-0.02308174982955575,0.09715228999426605,36.09446859390736,-88.23529758782387,88.23529758782387
2024-09-23 09:31:24.247635,42.29,10.130069,-0.003233425524256645,-0.02308174982955575,0.09715228999426605,40.106058693909645,-92.24360919585227,80.21211738781929
2024-09-23 09:31:24.259974,42.29,10.130119,-0.003482159473966507,-0.02362894446842532,0.09715228999426605,40.106058693909645,-92.24360919585227,80.21211738781929
2024-09-23 09:31:24.344033,42.29,10.130119,-0.003482159473966507,-0.02362894446842532,0.09715228999426605,40.106058693909645,-100.26678939585686,80.21211738781929
2024-09-23 09:31:24.355547,42.29,10.13017,-0.0028354659767690416,-0.02362894446842532,0.09715228999426605,40.106058693909645,-100.26678939585686,76.200527287817
2024-09-23 09:31:24.399250,42.29,10.13017,-0.0028354659767690416,-0.02352945757203875,0.0966050877605131,32.08287849390507,-88.23529758782387,92.24360919585227
2024-09-23 09:31:24.442224,42.29,10.130259,-0.003382661564999035,-0.02352945757203875,0.0966050877605131,32.08287849390507,-88.23529758782387,92.24360919585227
2024-09-23 09:31:24.453798,42.29,10.130259,-0.003382661564999035,-0.02397715620066169,0.09680407370509965,36.09446859390736,-92.24360919585227,92.24360919585227
2024-09-23 09:31:24.496712,42.29,10.130311,-0.0033329230534799477,-0.02338022115155219,0.09690356060148622,36.09446859390736,-92.24360919585227,88.23529758782387
2024-09-23 09:31:24.540670,42.29,10.130361,-0.0031836870127375577,-0.02338022115155219,0.09690356060148622,36.09446859390736,-104.27510100388527,76.200527287817
2024-09-23 09:31:24.551622,42.29,10.130361,-0.0031836870127375577,-0.023479709566915436,0.09675432418099966,36.09446859390736,-104.27510100388527,76.200527287817
2024-09-23 09:31:24.583607,42.29,10.130361,-0.0031836870127375577,-0.023479709566915436,0.09675432418099966,36.09446859390736,-104.27510100388527,76.200527287817
2024-09-23 09:31:24.595045,42.29,10.130455,-0.0022385316871478774,-0.023429960042815445,0.09675432418099966,36.09446859390736,-104.27510100388527,84.22370748782159
2024-09-23 09:31:24.636983,42.29,10.130455,-0.0022385316871478774,-0.023429960042815445,0.09715228999426605,40.106058693909645,-100.26678939585686,84.22370748782159
2024-09-23 09:31:24.648461,42.29,10.130506,-0.003382661564999035,-0.023429960042815445,0.09715228999426605,40.106058693909645,-100.26678939585686,80.21211738781929
2024-09-23 09:31:24.691388,42.29,10.1306,-0.003382661564999035,-0.023429960042815445,0.09640611396773996,28.07457030097246,-104.27510100388527,80.21211738781929
2024-09-23 09:31:24.734805,42.29,10.1306,-0.002785727465249955,-0.023778180888911878,0.09705279702197278,28.07457030097246,-104.27510100388527,80.21211738781929
2024-09-23 09:31:24.746202,42.29,10.1306,-0.002785727465249955,-0.023778180888911878,0.09705279702197278,36.09446859390736,-108.28669110388756,76.200527287817
2024-09-23 09:31:24.778949,42.29,10.130651,-0.002785727465249955,-0.023778180888911878,0.09705279702197278,36.09446859390736,-108.28669110388756,76.200527287817
2024-09-23 09:31:24.790317,42.29,10.130651,-0.0031836870127375577,-0.023728432883788564,0.09695331012558621,40.106058693909645,-104.27510100388527,76.200527287817
2024-09-23 09:31:24.833116,42.29,10.130702,-0.003233425524256645,-0.023330473146428877,0.09695331012558621,40.106058693909645,-104.27510100388527,80.21211738781929
2024-09-23 09:31:24.844824,42.29,10.130702,-0.003233425524256645,-0.023330473146428877,0.09755024973162574,40.106058693909645,-104.27510100388527,80.21211738781929
2024-09-23 09:31:24.878149,42.22,10.130702,-0.003233425524256645,-0.023330473146428877,0.09755024973162574,40.106058693909645,-96.25519929585457,80.21211738781929
2024-09-23 09:31:24.890834,42.22,10.130753,-0.003631395514708897,-0.022833026512682618,0.09690356060148622,40.106058693909645,-96.25519929585457,80.21211738781929
2024-09-23 09:31:24.933252,42.22,10.130803,-0.0029847020175114316,-0.023429960042815445,0.09690356060148622,36.09446859390736,-100.26678939585686,80.21211738781929
2024-09-23 09:31:24.975763,42.22,10.130803,-0.0029847020175114316,-0.023429960042815445,0.09690356060148622,32.08287849390507,-100.26678939585686,80.21211738781929
2024-09-23 09:31:24.987599,42.22,10.130803,-0.0029847020175114316,-0.023429960042815445,0.09690356060148622,32.08287849390507,-96.25519929585457,80.21211738781929
2024-09-23 09:31:25.030397,42.22,10.130854,-0.003482159473966507,-0.024026904205785005,0.0970030596496862,32.08287849390507,-96.25519929585457,84.22370748782159
2024-09-23 09:31:25.042256,42.22,10.130854,-0.003482159473966507,-0.024026904205785005,0.0970030596496862,32.08287849390507,-96.25519929585457,84.22370748782159
2024-09-23 09:31:25.073788,42.22,10.130854,-0.003482159473966507,-0.024026904205785005,0.0970030596496862,32.08287849390507,-100.26678939585686,80.21211738781929
2024-09-23 09:31:25.085737,42.22,10.130941,-0.0035318979854855937,-0.02367869399252531,0.09690356060148622,32.08287849390507,-100.26678939585686,80.21211738781929
2024-09-23 09:31:25.127688,42.22,10.130993,-0.0029847020175114316,-0.02367869399252531,0.09690356060148622,36.09446859390736,-80.21211738781929,88.23529758782387
2024-09-23 09:31:25.139864,42.22,10.130993,-0.0029847020175114316,-0.023280723622328886,0.09690356060148622,36.09446859390736,-80.21211738781929,88.23529758782387
2024-09-23 09:31:25.172256,42.22,10.130993,-0.0029847020175114316,-0.023280723622328886,0.09799795899308542,40.106058693909645,-88.23529758782387,88.23529758782387
2024-09-23 09:31:25.183542,42.22,10.131043,-0.0031339382481259063,-0.023280723622328886,0.09799795899308542,40.106058693909645,-88.23529758782387,80.21211738781929
2024-09-23 09:31:25.225476,42.22,10.131136,-0.0031339382481259063,-0.02338022115155219,0.09720203344245934,28.07457030097246,-96.25519929585457,80.21211738781929
2024-09-23 09:31:25.268489,42.22,10.131136,-0.0033329230534799477,-0.023778180888911878,0.09720203344245934,28.07457030097246,-96.25519929585457,80.21211738781929
2024-09-23 09:31:25.280641,42.22,10.131136,-0.0033329230534799477,-0.023778180888911878,0.09675432418099966,36.09446859390736,-96.25519929585457,84.22370748782159
2024-09-23 09:31:25.363928,42.22,10.131188,-0.0033329230534799477,-0.023778180888911878,0.09675432418099966,36.09446859390736,-96.25519929585457,84.22370748782159
2024-09-23 09:31:25.375062,42.22,10.131188,-0.0031339382481259063,-0.023181236725942318,0.09635636444363997,36.09446859390736,-96.25519929585457,84.22370748782159
2024-09-23 09:31:25.418264,42.22,10.131238,-0.0034324103296106863,-0.02362894446842532,0.09635636444363997,36.09446859390736,-96.25519929585457,84.22370748782159
2024-09-23 09:31:25.430102,42.22,10.131238,-0.0034324103296106863,-0.02362894446842532,0.09640611396773996,36.09446859390736,-96.25519929585457,84.22370748782159
2024-09-23 09:31:25.462844,42.22,10.131238,-0.0034324103296106863,-0.02362894446842532,0.09640611396773996,36.09446859390736,-92.24360919585227,84.22370748782159
2024-09-23 09:31:25.473865,42.22,10.131289,-0.0030344509719951677,-0.023181236725942318,0.09680407370509965,36.09446859390736,-92.24360919585227,80.21211738781929
2024-09-23 09:31:25.516735,42.22,10.13134,-0.003233425524256645,-0.023181236725942318,0.09680407370509965,32.08287849390507,-100.26678939585686,80.21211738781929
2024-09-23 09:31:25.528779,42.22,10.13134,-0.003233425524256645,-0.02308174982955575,0.09680407370509965,32.08287849390507,-100.26678939585686,80.21211738781929
2024-09-23 09:31:25.560520,42.22,10.13134,-0.003233425524256645,-0.02308174982955575,0.09720203344245934,32.08287849390507,-100.26678939585686,80.21211738781929
2024-09-23 09:31:25.572163,42.22,10.13139,-0.003631395514708897,-0.02308174982955575,0.09720203344245934,32.08287849390507,-96.25519929585457,80.21211738781929
2024-09-23 09:31:25.614145,42.22,10.13139,-0.003631395514708897,-0.02352945757203875,0.09685382322919964,36.09446859390736,-100.26678939585686,76.200527287817
2024-09-23 09:31:25.625833,42.22,10.131526,-0.003631395514708897,-0.02352945757203875,0.09685382322919964,36.09446859390736,-100.26678939585686,76.200527287817
2024-09-23 09:31:25.658224,42.22,10.131526,-0.0031836870127375577,-0.02362894446842532,0.09685382322919964,36.09446859390736,-100.26678939585686,76.200527287817
2024-09-23 09:31:25.669843,42.22,10.131526,-0.0031836870127375577,-0.02362894446842532,0.09685382322919964,40.106058693909645,-96.25519929585457,76.200527287817
2024-09-23 09:31:25.712363,42.22,10.131578,-0.0027359787006383035,-0.02367869399252531,0.09655535038822652,32.08287849390507,-96.25519929585457,76.200527287817
2024-09-23 09:31:25.724325,42.22,10.131578,-0.0027359787006383035,-0.02367869399252531,0.09655535038822652,32.08287849390507,-100.26678939585686,76.200527287817
2024-09-23 09:31:25.756250,42.22,10.131578,-0.0027359787006383035,-0.02367869399252531,0.09655535038822652,32.08287849390507,-100.26678939585686,76.200527287817
2024-09-23 09:31:25.767776,42.22,10.131628,-0.0032831742888682963,-0.02362894446842532,0.0966050877605131,28.07457030097246,-100.26678939585686,76.200527287817
2024-09-23 09:31:25.810823,42.22,10.131679,-0.0031339382481259063,-0.023927417309398437,0.09690356060148622,28.07457030097246,-100.26678939585686,72.1922225099802
2024-09-23 09:31:25.853190,42.22,10.131679,-0.0031339382481259063,-0.023927417309398437,0.09690356060148622,40.106058693909645,-108.28669110388756,72.1922225099802
2024-09-23 09:31:25.864613,42.22,10.13173,-0.0035816467500972456,-0.023429960042815445,0.09690356060148622,40.106058693909645,-108.28669110388756,76.200527287817
2024-09-23 09:31:25.907460,42.19,10.13178,-0.0035816467500972456,-0.023429960042815445,0.09690356060148622,40.106058693909645,-100.26678939585686,76.200527287817
2024-09-23 09:31:25.919379,42.19,10.13178,-0.0030344509719951677,-0.023429960042815445,0.09690356060148622,40.106058693909645,-100.26678939585686,76.200527287817
2024-09-23 09:31:25.950992,42.19,10.13178,-0.0030344509719951677,-0.023479709566915436,0.09680407370509965,40.106058693909645,-100.26678939585686,76.200527287817
2024-09-23 09:31:25.962212,42.19,10.131867,-0.0030344509719951677,-0.023479709566915436,0.09680407370509965,28.07457030097246,-96.25519929585457,80.21211738781929
2024-09-23 09:31:26.056176,42.19,10.131867,-0.002387757474797703,-0.023230986250042305,0.09685382322919964,32.08287849390507,-96.25519929585457,80.21211738781929
2024-09-23 09:31:26.151426,42.19,10.131919,-0.0031339382481259063,-0.023479709566915436,0.09685382322919964,32.08287849390507,-100.26678939585686,76.200527287817
2024-09-23 09:31:26.163242,42.19,10.131919,-0.0031339382481259063,-0.023479709566915436,0.09695331012558621,32.08287849390507,-100.26678939585686,76.200527287817
2024-09-23 09:31:26.196826,42.19,10.131919,-0.0031339382481259063,-0.023479709566915436,0.09695331012558621,40.106058693909645,-96.25519929585457,76.200527287817
2024-09-23 09:31:26.208412,42.19,10.131969,-0.002387757474797703,-0.023827930413011865,0.09695331012558621,40.106058693909645,-96.25519929585457,76.200527287817
2024-09-23 09:31:26.250515,42.19,10.13202,-0.003382661564999035,-0.023827930413011865,0.0970030596496862,36.09446859390736,-92.24360919585227,84.22370748782159
2024-09-23 09:31:26.293772,42.19,10.13202,-0.003382661564999035,-0.023827930413011865,0.09745075675933246,40.106058693909645,-92.24360919585227,84.22370748782159
2024-09-23 09:31:26.306003,42.19,10.132071,-0.003382661564999035,-0.023827930413011865,0.09745075675933246,40.106058693909645,-96.25519929585457,80.21211738781929
2024-09-23 09:31:26.338441,42.19,10.132071,-0.0031339382481259063,-0.023827930413011865,0.09745075675933246,40.106058693909645,-96.25519929585457,80.21211738781929
2024-09-23 09:31:26.350321,42.19,10.132071,-0.0031339382481259063,-0.023330473146428877,0.0970030596496862,36.09446859390736,-96.25519929585457,76.200527287817
2024-09-23 09:31:26.392353,42.19,10.132258,-0.0027359787006383035,-0.02338022115155219,0.0966050877605131,36.09446859390736,-96.25519929585457,76.200527287817
2024-09-23 09:31:26.403933,42.19,10.132258,-0.0027359787006383035,-0.02338022115155219,0.0966050877605131,36.09446859390736,-96.25519929585457,76.200527287817
2024-09-23 09:31:26.435997,42.19,10.132258,-0.0027359787006383035,-0.02338022115155219,0.0966050877605131,36.09446859390736,-96.25519929585457,72.1922225099802
2024-09-23 09:31:26.447312,42.19,10.132309,-0.0035816467500972456,-0.024076653729884996,0.09695331012558621,40.106058693909645,-96.25519929585457,72.1922225099802
2024-09-23 09:31:26.489710,42.19,10.13236,-0.003929857343101113,-0.024076653729884996,0.09695331012558621,40.106058693909645,-96.25519929585457,80.21211738781929
2024-09-23 09:31:26.500969,42.19,10.13236,-0.003929857343101113,-0.023479709566915436,0.09764974270391902,40.106058693909645,-96.25519929585457,80.21211738781929
2024-09-23 09:31:26.543181,42.19,10.132411,-0.0031836870127375577,-0.023579196463302005,0.09764974270391902,40.106058693909645,-92.24360919585227,84.22370748782159
2024-09-23 09:31:26.585762,42.19,10.132411,-0.0031836870127375577,-0.023579196463302005,0.09750050628343246,32.08287849390507,-100.26678939585686,84.22370748782159
2024-09-23 09:31:26.596821,42.19,10.132461,-0.0035816467500972456,-0.023579196463302005,0.09750050628343246,32.08287849390507,-100.26678939585686,76.200527287817
2024-09-23 09:31:26.639067,42.19,10.132461,-0.0035816467500972456,-0.023778180888911878,0.09690356060148622,36.09446859390736,-96.25519929585457,76.200527287817
2024-09-23 09:31:26.650731,42.19,10.13255,-0.0035816467500972456,-0.023778180888911878,0.09690356060148622,36.09446859390736,-96.25519929585457,76.200527287817
2024-09-23 09:31:26.683328,42.19,10.13255,-0.0032831742888682963,-0.02362894446842532,0.09710254654607277,36.09446859390736,-96.25519929585457,76.200527287817
2024-09-23 09:31:26.694371,42.19,10.13255,-0.0032831742888682963,-0.02362894446842532,0.09710254654607277,32.08287849390507,-100.26678939585686,80.21211738781929
2024-09-23 09:31:26.736906,42.19,10.132601,-0.0028354659767690416,-0.02362894446842532,0.09695331012558621,44.11764879391193,-96.25519929585457,80.21211738781929
2024-09-23 09:31:26.779140,42.19,10.132652,-0.0028354659767690416,-0.02362894446842532,0.09695331012558621,44.11764879391193,-96.25519929585457,80.21211738781929
2024-09-23 09:31:26.790683,42.19,10.132652,-0.003929857343101113,-0.022982261414192504,0.09675432418099966,40.106058693909645,-96.25519929585457,80.21211738781929
2024-09-23 09:31:26.833479,42.19,10.132703,-0.0031339382481259063,-0.023429960042815445,0.09675432418099966,40.106058693909645,-100.26678939585686,76.200527287817
2024-09-23 09:31:26.845754,42.19,10.132703,-0.0031339382481259063,-0.023429960042815445,0.09705279702197278,40.106058693909645,-100.26678939585686,76.200527287817
2024-09-23 09:31:26.877190,42.19,10.132703,-0.0031339382481259063,-0.023429960042815445,0.09705279702197278,32.08287849390507,-100.26678939585686,76.200527287817
2024-09-23 09:31:26.888488,42.19,10.132753,-0.0033329230534799477,-0.024026904205785005,0.09705279702197278,32.08287849390507,-100.26678939585686,76.200527287817
2024-09-23 09:31:26.933195,41.49,10.132804,-0.003382661564999035,-0.024026904205785005,0.09759999317981902,40.106058693909645,-96.25519929585457,80.21211738781929
2024-09-23 09:31:26.976126,41.49,10.132804,-0.003382661564999035,-0.02338022115155219,0.09645586349183995,44.11764879391193,-96.25519929585457,80.21211738781929
2024-09-23 09:31:26.987132,41.49,10.132891,-0.003382661564999035,-0.02338022115155219,0.09645586349183995,44.11764879391193,-100.26678939585686,72.1922225099802
2024-09-23 09:31:27.029341,41.49,10.132891,-0.0034324103296106863,-0.02367869399252531,0.09710254654607277,40.106058693909645,-100.26678939585686,76.200527287817
2024-09-23 09:31:27.073558,41.49,10.132943,-0.0029349636958644295,-0.02313149783467906,0.09710254654607277,40.106058693909645,-100.26678939585686,76.200527287817
2024-09-23 09:31:27.085322,41.49,10.132943,-0.0029349636958644295,-0.02313149783467906,0.09655535038822652,32.08287849390507,-96.25519929585457,76.200527287817
2024-09-23 09:31:27.127809,41.49,10.132993,-0.003482159473966507,-0.023927417309398437,0.09745075675933246,36.09446859390736,-96.25519929585457,80.21211738781929
2024-09-23 09:31:27.170859,41.49,10.133044,-0.003482159473966507,-0.023927417309398437,0.09745075675933246,36.09446859390736,-96.25519929585457,80.21211738781929
2024-09-23 09:31:27.224584,41.49,10.133044,-0.0030344509719951677,-0.023330473146428877,0.0973015264147526,36.09446859390736,-100.26678939585686,80.21211738781929
2024-09-23 09:31:27.236420,41.49,10.133044,-0.0030344509719951677,-0.023330473146428877,0.0973015264147526,36.09446859390736,-100.26678939585686,72.1922225099802
2024-09-23 09:31:27.267986,41.49,10.133095,-0.003233425524256645,-0.023330473146428877,0.0973015264147526,36.09446859390736,-100.26678939585686,72.1922225099802
2024-09-23 09:31:27.279059,41.49,10.133095,-0.003233425524256645,-0.023579196463302005,0.09755024973162574,36.09446859390736,-96.25519929585457,72.1922225099802
2024-09-23 09:31:27.322613,41.49,10.133145,-0.003382661564999035,-0.02397715620066169,0.09655535038822652,32.08287849390507,-96.25519929585457,72.1922225099802
2024-09-23 09:31:27.365956,41.49,10.133232,-0.003382661564999035,-0.02397715620066169,0.09655535038822652,32.08287849390507,-100.26678939585686,84.22370748782159
2024-09-23 09:31:27.377819,41.49,10.133232,-0.0031339382481259063,-0.023479709566915436,0.09779897304849887,32.08287849390507,-100.26678939585686,84.22370748782159
2024-09-23 09:31:27.420712,41.49,10.133283,-0.0035318979854855937,-0.023877669304275123,0.09779897304849887,32.08287849390507,-96.25519929585457,80.21211738781929
2024-09-23 09:31:27.464011,41.49,10.133283,-0.0035318979854855937,-0.023877669304275123,0.09665483728461309,36.09446859390736,-96.25519929585457,80.21211738781929
2024-09-23 09:31:27.475540,41.49,10.133334,-0.002636491424507565,-0.023877669304275123,0.09665483728461309,36.09446859390736,-96.25519929585457,84.22370748782159
2024-09-23 09:31:27.518062,41.49,10.133427,-0.002636491424507565,-0.023579196463302005,0.09690356060148622,44.11764879391193,-96.25519929585457,80.21211738781929
2024-09-23 09:31:27.559906,41.49,10.133427,-0.0030344509719951677,-0.023927417309398437,0.09690356060148622,44.11764879391193,-96.25519929585457,80.21211738781929
2024-09-23 09:31:27.571063,41.49,10.133427,-0.0030344509719951677,-0.023927417309398437,0.0966050877605131,40.106058693909645,-92.24360919585227,84.22370748782159
2024-09-23 09:31:27.613279,41.49,10.133479,-0.0029349636958644295,-0.02313149783467906,0.09695331012558621,40.106058693909645,-92.24360919585227,84.22370748782159
2024-09-23 09:31:27.625096,41.49,10.133479,-0.0029349636958644295,-0.02313149783467906,0.09695331012558621,40.106058693909645,-96.25519929585457,84.22370748782159
2024-09-23 09:31:27.657179,41.49,10.13353,-0.0029349636958644295,-0.02313149783467906,0.09695331012558621,40.106058693909645,-96.25519929585457,84.22370748782159
2024-09-23 09:31:27.668603,41.49,10.13353,-0.0033329230534799477,-0.02412639262114825,0.09725178296655933,48.12595698684454,-96.25519929585457,84.22370748782159
2024-09-23 09:31:27.711025,41.49,10.13358,-0.0028354659767690416,-0.02362894446842532,0.09725178296655933,48.12595698684454,-92.24360919585227,80.21211738781929
2024-09-23 09:31:27.754573,41.49,10.13358,-0.0028354659767690416,-0.02362894446842532,0.09695331012558621,44.11764879391193,-92.24360919585227,80.21211738781929
2024-09-23 09:31:27.765866,41.49,10.133631,-0.003233425524256645,-0.02362894446842532,0.09695331012558621,44.11764879391193,-96.25519929585457,84.22370748782159
2024-09-23 09:31:27.808519,41.49,10.133631,-0.003233425524256645,-0.023230986250042305,0.0973512698629459,28.07457030097246,-108.28669110388756,80.21211738781929
2024-09-23 09:31:27.820744,41.49,10.133682,-0.003233425524256645,-0.023230986250042305,0.0973512698629459,28.07457030097246,-108.28669110388756,80.21211738781929
2024-09-23 09:31:27.852712,41.49,10.133682,-0.0028354659767690416,-0.02352945757203875,0.09650560086412653,28.07457030097246,-108.28669110388756,80.21211738781929
2024-09-23 09:31:27.865305,41.49,10.133682,-0.0028354659767690416,-0.02352945757203875,0.09650560086412653,44.11764879391193,-96.25519929585457,84.22370748782159
2024-09-23 09:31:27.907984,41.49,10.133769,-0.0032831742888682963,-0.02352945757203875,0.0973512698629459,40.106058693909645,-100.26678939585686,84.22370748782159
2024-09-23 09:31:27.949983,41.02,10.13382,-0.0032831742888682963,-0.02352945757203875,0.0973512698629459,40.106058693909645,-100.26678939585686,80.21211738781929
2024-09-23 09:31:27.962165,41.02,10.13382,-0.0032831742888682963,-0.023927417309398437,0.09655535038822652,32.08287849390507,-100.26678939585686,80.21211738781929
2024-09-23 09:31:28.005552,41.02,10.133871,-0.0028852147413806935,-0.023429960042815445,0.0970030596496862,32.08287849390507,-96.25519929585457,80.21211738781929
2024-09-23 09:31:28.048617,41.02,10.133871,-0.0028852147413806935,-0.023429960042815445,0.0970030596496862,44.11764879391193,-104.27510100388527,76.200527287817
2024-09-23 09:31:28.061020,41.02,10.133921,-0.0038303700669703737,-0.023927417309398437,0.0970030596496862,44.11764879391193,-104.27510100388527,76.200527287817
2024-09-23 09:31:28.095163,41.02,10.133921,-0.0038303700669703737,-0.023927417309398437,0.09675432418099966,44.11764879391193,-104.27510100388527,76.200527287817
2024-09-23 09:31:28.106694,41.02,10.133972,-0.0026862297461545674,-0.023927417309398437,0.09675432418099966,40.106058693909645,-100.26678939585686,76.200527287817
2024-09-23 09:31:28.149405,41.02,10.133972,-0.0026862297461545674,-0.023230986250042305,0.09670458680871308,44.11764879391193,-100.26678939585686,76.200527287817
2024-09-23 09:31:28.160964,41.02,10.134061,-0.0026862297461545674,-0.023230986250042305,0.09670458680871308,44.11764879391193,-100.26678939585686,76.200527287817
2024-09-23 09:31:28.194142,41.02,10.134061,-0.0027359787006383035,-0.023230986250042305,0.09670458680871308,44.11764879391193,-100.26678939585686,76.200527287817
2024-09-23 09:31:28.206510,41.02,10.134061,-0.0027359787006383035,-0.023230986250042305,0.0973015264147526,40.106058693909645,-104.27510100388527,76.200527287817
2024-09-23 09:31:28.248852,41.02,10.134113,-0.0028354659767690416,-0.023778180888911878,0.09710254654607277,40.106058693909645,-104.27510100388527,76.200527287817
2024-09-23 09:31:28.291595,41.02,10.134164,-0.0028354659767690416,-0.023778180888911878,0.09710254654607277,40.106058693909645,-104.27510100388527,80.21211738781929
2024-09-23 09:31:28.303062,41.02,10.134164,-0.0034324103296106863,-0.023330473146428877,0.09665483728461309,36.09446859390736,-104.27510100388527,80.21211738781929
2024-09-23 09:31:28.346406,41.02,10.134214,-0.0030344509719951677,-0.02362894446842532,0.09655535038822652,36.09446859390736,-92.24360919585227,80.21211738781929
2024-09-23 09:31:28.390043,41.02,10.134214,-0.0030344509719951677,-0.02362894446842532,0.09655535038822652,40.106058693909645,-88.23529758782387,84.22370748782159
2024-09-23 09:31:28.400871,41.02,10.134265,-0.0030841997366068195,-0.023280723622328886,0.09655535038822652,40.106058693909645,-88.23529758782387,84.22370748782159
2024-09-23 09:31:28.443195,41.02,10.134316,-0.0035318979854855937,-0.023280723622328886,0.09720203344245934,44.11764879391193,-92.24360919585227,84.22370748782159
2024-09-23 09:31:28.487478,41.02,10.134316,-0.0035318979854855937,-0.023280723622328886,0.09690356060148622,36.09446859390736,-92.24360919585227,84.22370748782159
2024-09-23 09:31:28.498975,41.02,10.134402,-0.0035318979854855937,-0.023280723622328886,0.09690356060148622,36.09446859390736,-92.24360919585227,76.200527287817
2024-09-23 09:31:28.541730,41.02,10.134402,-0.0029847020175114316,-0.023728432883788564,0.09675432418099966,48.12595698684454,-96.25519929585457,80.21211738781929
2024-09-23 09:31:28.583925,41.02,10.134454,-0.003631395514708897,-0.023728432883788564,0.09675432418099966,48.12595698684454,-96.25519929585457,80.21211738781929
2024-09-23 09:31:28.595656,41.02,10.134454,-0.003631395514708897,-0.023877669304275123,0.0973512698629459,36.09446859390736,-100.26678939585686,80.21211738781929
2024-09-23 09:31:28.639076,41.02,10.134505,-0.003382661564999035,-0.02367869399252531,0.09670458680871308,36.09446859390736,-100.26678939585686,76.200527287817
2024-09-23 09:31:28.681300,41.02,10.134505,-0.003382661564999035,-0.02367869399252531,0.09670458680871308,36.09446859390736,-100.26678939585686,72.1922225099802
2024-09-23 09:31:28.734064,41.02,10.134555,-0.0029349636958644295,-0.02338022115155219,0.09695331012558621,36.09446859390736,-100.26678939585686,72.1922225099802
2024-09-23 09:31:28.746191,41.02,10.134555,-0.0029349636958644295,-0.02338022115155219,0.09695331012558621,36.09446859390736,-100.26678939585686,72.1922225099802
2024-09-23 09:31:28.778555,41.02,10.134606,-0.0029349636958644295,-0.02338022115155219,0.09695331012558621,36.09446859390736,-100.26678939585686,76.200527287817
2024-09-23 09:31:28.790466,41.02,10.134606,-0.0034324103296106863,-0.023479709566915436,0.09695331012558621,36.09446859390736,-100.26678939585686,76.200527287817
2024-09-23 09:31:28.834674,41.02,10.134657,-0.0035816467500972456,-0.023479709566915436,0.09695331012558621,36.09446859390736,-92.24360919585227,80.21211738781929
2024-09-23 09:31:28.846713,41.02,10.134657,-0.0035816467500972456,-0.023479709566915436,0.0973512698629459,36.09446859390736,-92.24360919585227,80.21211738781929
2024-09-23 09:31:28.880199,41.02,10.134744,-0.0035816467500972456,-0.023479709566915436,0.0973512698629459,40.106058693909645,-92.24360919585227,76.200527287817
2024-09-23 09:31:28.891734,41.02,10.134744,-0.0030344509719951677,-0.023827930413011865,0.0973512698629459,40.106058693909645,-92.24360919585227,76.200527287817
2024-09-23 09:31:28.923275,41.02,10.134744,-0.0030344509719951677,-0.023827930413011865,0.09759999317981902,40.106058693909645,-92.24360919585227,76.200527287817
2024-09-23 09:31:28.934629,41.02,10.134794,-0.0030841997366068195,-0.023827930413011865,0.09759999317981902,40.106058693909645,-100.26678939585686,84.22370748782159
2024-09-23 09:31:28.977738,41.1,10.134794,-0.0030841997366068195,-0.02397715620066169,0.09715228999426605,36.09446859390736,-92.24360919585227,84.22370748782159
2024-09-23 09:31:28.989853,41.1,10.13489,-0.0030841997366068195,-0.02397715620066169,0.09715228999426605,36.09446859390736,-92.24360919585227,84.22370748782159
2024-09-23 09:31:29.023235,41.1,10.13489,-0.0033329230534799477,-0.02352945757203875,0.09715228999426605,36.09446859390736,-92.24360919585227,84.22370748782159
2024-09-23 09:31:29.034903,41.1,10.13489,-0.0033329230534799477,-0.02352945757203875,0.09695331012558621,36.09446859390736,-96.25519929585457,84.22370748782159
2024-09-23 09:31:29.077789,41.1,10.134941,-0.0033329230534799477,-0.02338022115155219,0.09725178296655933,40.106058693909645,-96.25519929585457,84.22370748782159
2024-09-23 09:31:29.089682,41.1,10.134941,-0.0033329230534799477,-0.02338022115155219,0.09725178296655933,40.106058693909645,-100.26678939585686,84.22370748782159
2024-09-23 09:31:29.122236,41.1,10.134992,-0.003233425524256645,-0.02338022115155219,0.09725178296655933,40.106058693909645,-100.26678939585686,84.22370748782159
2024-09-23 09:31:29.133820,41.1,10.134992,-0.003233425524256645,-0.023579196463302005,0.09755024973162574,48.12595698684454,-100.26678939585686,84.22370748782159
2024-09-23 09:31:29.176590,41.1,10.135043,-0.0033329230534799477,-0.02362894446842532,0.0973015264147526,48.12595698684454,-108.28669110388756,72.1922225099802
2024-09-23 09:31:29.219532,41.1,10.135043,-0.0033329230534799477,-0.02362894446842532,0.0973015264147526,40.106058693909645,-100.26678939585686,76.200527287817
2024-09-23 09:31:29.231514,41.1,10.135093,-0.0032831742888682963,-0.023827930413011865,0.0973015264147526,40.106058693909645,-100.26678939585686,76.200527287817
2024-09-23 09:31:29.316059,41.1,10.135093,-0.0032831742888682963,-0.023827930413011865,0.09784872257259886,44.11764879391193,-96.25519929585457,76.200527287817
2024-09-23 09:31:29.327253,41.1,10.135144,-0.0032831742888682963,-0.023827930413011865,0.09784872257259886,44.11764879391193,-96.25519929585457,80.21211738781929
2024-09-23 09:31:29.370242,41.1,10.135144,-0.0031339382481259063,-0.023579196463302005,0.09705279702197278,36.09446859390736,-100.26678939585686,80.21211738781929
2024-09-23 09:31:29.412741,41.1,10.135231,-0.0031339382481259063,-0.023579196463302005,0.09705279702197278,36.09446859390736,-100.26678939585686,72.1922225099802
2024-09-23 09:31:29.423722,41.1,10.135231,-0.003482159473966507,-0.023778180888911878,0.09710254654607277,32.08287849390507,-100.26678939585686,72.1922225099802
2024-09-23 09:31:29.466138,41.1,10.135283,-0.0032831742888682963,-0.02352945757203875,0.09710254654607277,32.08287849390507,-104.27510100388527,76.200527287817
2024-09-23 09:31:29.478118,41.1,10.135283,-0.0032831742888682963,-0.02352945757203875,0.0966050877605131,32.08287849390507,-104.27510100388527,76.200527287817
2024-09-23 09:31:29.511364,41.1,10.135283,-0.0032831742888682963,-0.02352945757203875,0.0966050877605131,28.07457030097246,-92.24360919585227,76.200527287817
2024-09-23 09:31:29.523047,41.1,10.135334,-0.003233425524256645,-0.023280723622328886,0.0966050877605131,28.07457030097246,-92.24360919585227,76.200527287817
2024-09-23 09:31:29.565642,41.1,10.135428,-0.0034324103296106863,-0.023280723622328886,0.0970030596496862,36.09446859390736,-96.25519929585457,72.1922225099802
2024-09-23 09:31:29.608326,41.1,10.135428,-0.0034324103296106863,-0.023230986250042305,0.09650560086412653,44.11764879391193,-96.25519929585457,72.1922225099802
2024-09-23 09:31:29.620362,41.1,10.135479,-0.0034324103296106863,-0.023230986250042305,0.09650560086412653,44.11764879391193,-96.25519929585457,80.21211738781929
2024-09-23 09:31:29.663307,41.1,10.135479,-0.0030841997366068195,-0.02338022115155219,0.09705279702197278,40.106058693909645,-100.26678939585686,84.22370748782159
2024-09-23 09:31:29.706618,41.1,10.135573,-0.003233425524256645,-0.023778180888911878,0.09705279702197278,40.106058693909645,-100.26678939585686,84.22370748782159
2024-09-23 09:31:29.717794,41.1,10.135573,-0.003233425524256645,-0.023778180888911878,0.09725178296655933,44.11764879391193,-96.25519929585457,84.22370748782159
2024-09-23 09:31:29.761691,41.1,10.135624,-0.0031339382481259063,-0.023280723622328886,0.09680407370509965,36.09446859390736,-96.25519929585457,76.200527287817
2024-09-23 09:31:29.804537,41.1,10.135675,-0.0031339382481259063,-0.023280723622328886,0.09680407370509965,36.09446859390736,-96.25519929585457,80.21211738781929
2024-09-23 09:31:29.815515,41.1,10.135675,-0.0035318979854855937,-0.023927417309398437,0.09720203344245934,36.09446859390736,-96.25519929585457,80.21211738781929
2024-09-23 09:31:29.858313,41.1,10.135726,-0.0035318979854855937,-0.023927417309398437,0.09720203344245934,44.11764879391193,-100.26678939585686,80.21211738781929
2024-09-23 09:31:29.952204,41.1,10.135726,-0.0029349636958644295,-0.023429960042815445,0.09665483728461309,40.106058693909645,-100.26678939585686,80.21211738781929
2024-09-23 09:31:29.963796,41.1,10.135726,-0.0029349636958644295,-0.023429960042815445,0.09665483728461309,40.106058693909645,-104.27510100388527,72.1922225099802
2024-09-23 09:31:29.997218,40.85,10.135776,-0.003233425524256645,-0.023429960042815445,0.09665483728461309,40.106058693909645,-104.27510100388527,72.1922225099802
2024-09-23 09:31:30.009293,40.85,10.135776,-0.003233425524256645,-0.02362894446842532,0.09690356060148622,32.08287849390507,-92.24360919585227,72.1922225099802
2024-09-23 09:31:30.052727,40.85,10.135865,-0.003382661564999035,-0.023479709566915436,0.09774922960030558,40.106058693909645,-92.24360919585227,80.21211738781929
2024-09-23 09:31:30.094741,40.85,10.135865,-0.003382661564999035,-0.023479709566915436,0.09774922960030558,40.106058693909645,-92.24360919585227,80.21211738781929
2024-09-23 09:31:30.106235,40.85,10.135916,-0.0031339382481259063,-0.023778180888911878,0.09680407370509965,40.106058693909645,-92.24360919585227,80.21211738781929
2024-09-23 09:31:30.149108,40.85,10.135967,-0.0029349636958644295,-0.023778180888911878,0.09680407370509965,40.106058693909645,-100.26678939585686,76.200527287817
2024-09-23 09:31:30.161903,40.85,10.135967,-0.0029349636958644295,-0.023778180888911878,0.09680407370509965,40.106058693909645,-100.26678939585686,76.200527287817
2024-09-23 09:31:30.193913,40.85,10.135967,-0.0029349636958644295,-0.023778180888911878,0.09685382322919964,44.11764879391193,-96.25519929585457,76.200527287817
2024-09-23 09:31:30.205695,40.85,10.136063,-0.003233425524256645,-0.023778180888911878,0.09685382322919964,44.11764879391193,-96.25519929585457,80.21211738781929
2024-09-23 09:31:30.238460,40.85,10.136063,-0.003233425524256645,-0.023330473146428877,0.09685382322919964,44.11764879391193,-96.25519929585457,80.21211738781929
2024-09-23 09:31:30.250278,40.85,10.136158,-0.003233425524256645,-0.023330473146428877,0.09680407370509965,40.106058693909645,-96.25519929585457,80.21211738781929
2024-09-23 09:31:30.292253,40.85,10.136158,-0.0028852147413806935,-0.023778180888911878,0.09695331012558621,44.11764879391193,-96.25519929585457,80.21211738781929
2024-09-23 09:31:30.303925,40.85,10.136158,-0.0028852147413806935,-0.023778180888911878,0.09695331012558621,44.11764879391193,-96.25519929585457,80.21211738781929
2024-09-23 09:31:30.335711,40.85,10.136209,-0.0028852147413806935,-0.023778180888911878,0.09695331012558621,44.11764879391193,-96.25519929585457,80.21211738781929
2024-09-23 09:31:30.347597,40.85,10.136209,-0.003482159473966507,-0.023778180888911878,0.09695331012558621,44.11764879391193,-96.25519929585457,80.21211738781929
2024-09-23 09:31:30.389682,40.85,10.136209,-0.003482159473966507,-0.023280723622328886,0.09725178296655933,40.106058693909645,-92.24360919585227,80.21211738781929
2024-09-23 09:31:30.401605,40.85,10.13626,-0.003482159473966507,-0.023280723622328886,0.09725178296655933,40.106058693909645,-92.24360919585227,80.21211738781929
2024-09-23 09:31:30.433688,40.85,10.13626,-0.0033329230534799477,-0.023280723622328886,0.09725178296655933,40.106058693909645,-92.24360919585227,80.21211738781929
2024-09-23 09:31:30.444767,40.85,10.13626,-0.0033329230534799477,-0.023579196463302005,0.0973512698629459,36.09446859390736,-100.26678939585686,80.21211738781929
2024-09-23 09:31:30.487914,40.85,10.13631,-0.0031836870127375577,-0.023479709566915436,0.09685382322919964,36.09446859390736,-100.26678939585686,80.21211738781929
2024-09-23 09:31:30.499469,40.85,10.13631,-0.0031836870127375577,-0.023479709566915436,0.09685382322919964,40.106058693909645,-96.25519929585457,80.21211738781929
2024-09-23 09:31:30.530975,40.85,10.13631,-0.0031836870127375577,-0.023479709566915436,0.09685382322919964,40.106058693909645,-96.25519929585457,80.21211738781929
2024-09-23 09:31:30.542491,40.85,10.136361,-0.003233425524256645,-0.02367869399252531,0.0970030596496862,36.09446859390736,-96.25519929585457,80.21211738781929
2024-09-23 09:31:30.585448,40.85,10.136412,-0.0035318979854855937,-0.02367869399252531,0.0970030596496862,36.09446859390736,-92.24360919585227,80.21211738781929
2024-09-23 09:31:30.601935,40.85,10.136412,-0.0035318979854855937,-0.024026904205785005,0.09715228999426605,36.09446859390736,-92.24360919585227,80.21211738781929
2024-09-23 09:31:30.634224,40.85,10.136501,-0.0035318979854855937,-0.024026904205785005,0.09715228999426605,36.09446859390736,-96.25519929585457,88.23529758782387
2024-09-23 09:31:30.645876,40.85,10.136501,-0.0033329230534799477,-0.023330473146428877,0.09715228999426605,36.09446859390736,-96.25519929585457,88.23529758782387
2024-09-23 09:31:30.677627,40.85,10.136501,-0.0033329230534799477,-0.023330473146428877,0.09650560086412653,36.09446859390736,-96.25519929585457,88.23529758782387
2024-09-23 09:31:30.688848,40.85,10.136551,-0.003482159473966507,-0.023330473146428877,0.09650560086412653,40.106058693909645,-100.26678939585686,80.21211738781929
2024-09-23 09:31:30.732863,40.85,10.136551,-0.003482159473966507,-0.023181236725942318,0.0973015264147526,32.08287849390507,-96.25519929585457,80.21211738781929
2024-09-23 09:31:30.744610,40.85,10.136645,-0.003482159473966507,-0.023181236725942318,0.0973015264147526,32.08287849390507,-96.25519929585457,80.21211738781929
2024-09-23 09:31:30.777172,40.85,10.136645,-0.003482159473966507,-0.02362894446842532,0.0973015264147526,32.08287849390507,-96.25519929585457,80.21211738781929
2024-09-23 09:31:30.788969,40.85,10.136645,-0.003482159473966507,-0.02362894446842532,0.0973512698629459,48.12595698684454,-84.22370748782159,92.24360919585227
2024-09-23 09:31:30.831143,40.85,10.136696,-0.0038303700669703737,-0.02367869399252531,0.09715228999426605,36.09446859390736,-84.22370748782159,92.24360919585227
2024-09-23 09:31:30.843345,40.85,10.136696,-0.0038303700669703737,-0.02367869399252531,0.09715228999426605,36.09446859390736,-92.24360919585227,92.24360919585227
2024-09-23 09:31:30.876173,40.85,10.136747,-0.0030841997366068195,-0.02367869399252531,0.09715228999426605,36.09446859390736,-92.24360919585227,80.21211738781929
2024-09-23 09:31:30.887860,40.85,10.136747,-0.0030841997366068195,-0.023827930413011865,0.09665483728461309,36.09446859390736,-92.24360919585227,80.21211738781929
2024-09-23 09:31:30.930826,40.85,10.136798,-0.0032831742888682963,-0.023479709566915436,0.09705279702197278,36.09446859390736,-104.27510100388527,80.21211738781929
2024-09-23 09:31:30.973058,40.85,10.136798,-0.0032831742888682963,-0.023479709566915436,0.09705279702197278,40.106058693909645,-100.26678939585686,76.200527287817
2024-09-23 09:31:30.985389,40.85,10.136848,-0.0031836870127375577,-0.02367869399252531,0.09705279702197278,40.106058693909645,-100.26678939585686,76.200527287817
2024-09-23 09:31:31.028987,41.7,10.136899,-0.003382661564999035,-0.02367869399252531,0.09695331012558621,40.106058693909645,-100.26678939585686,76.200527287817
2024-09-23 09:31:31.071409,41.7,10.136899,-0.003382661564999035,-0.024076653729884996,0.09755024973162574,32.08287849390507,-100.26678939585686,76.200527287817
2024-09-23 09:31:31.082839,41.7,10.136986,-0.003382661564999035,-0.024076653729884996,0.09755024973162574,32.08287849390507,-104.27510100388527,84.22370748782159
2024-09-23 09:31:31.126354,41.7,10.136986,-0.003482159473966507,-0.023479709566915436,0.09720203344245934,36.09446859390736,-100.26678939585686,84.22370748782159
2024-09-23 09:31:31.168601,41.7,10.137038,-0.002785727465249955,-0.02362894446842532,0.09720203344245934,36.09446859390736,-100.26678939585686,84.22370748782159
2024-09-23 09:31:31.180182,41.7,10.137038,-0.002785727465249955,-0.02362894446842532,0.09715228999426605,40.106058693909645,-100.26678939585686,84.22370748782159
2024-09-23 09:31:31.222517,41.7,10.137088,-0.0028354659767690416,-0.023579196463302005,0.09710254654607277,40.106058693909645,-100.26678939585686,80.21211738781929
2024-09-23 09:31:31.235157,41.7,10.137088,-0.0028354659767690416,-0.023579196463302005,0.09710254654607277,36.09446859390736,-100.26678939585686,80.21211738781929
2024-09-23 09:31:31.266834,41.7,10.137139,-0.0028354659767690416,-0.023579196463302005,0.09710254654607277,36.09446859390736,-96.25519929585457,76.200527287817
2024-09-23 09:31:31.277935,41.7,10.137139,-0.0035318979854855937,-0.023479709566915436,0.09655535038822652,36.09446859390736,-96.25519929585457,76.200527287817
2024-09-23 09:31:31.320832,41.7,10.13719,-0.0033329230534799477,-0.023429960042815445,0.09655535038822652,36.09446859390736,-92.24360919585227,80.21211738781929
2024-09-23 09:31:31.363457,41.7,10.13719,-0.0033329230534799477,-0.023429960042815445,0.09695331012558621,44.11764879391193,-104.27510100388527,80.21211738781929
2024-09-23 09:31:31.375702,41.7,10.13724,-0.0029349636958644295,-0.023429960042815445,0.09695331012558621,44.11764879391193,-104.27510100388527,80.21211738781929
2024-09-23 09:31:31.417968,41.7,10.137327,-0.0029349636958644295,-0.02412639262114825,0.0970030596496862,32.08287849390507,-104.27510100388527,76.200527287817
2024-09-23 09:31:31.460699,41.7,10.137327,-0.0029847020175114316,-0.023827930413011865,0.09690356060148622,32.08287849390507,-104.27510100388527,76.200527287817
2024-09-23 09:31:31.471829,41.7,10.137327,-0.0029847020175114316,-0.023827930413011865,0.09690356060148622,40.106058693909645,-96.25519929585457,76.200527287817
2024-09-23 09:31:31.514577,41.7,10.137379,-0.003631395514708897,-0.023479709566915436,0.09690356060148622,44.11764879391193,-104.27510100388527,76.200527287817
2024-09-23 09:31:31.557229,41.7,10.13743,-0.003631395514708897,-0.023479709566915436,0.09690356060148622,44.11764879391193,-104.27510100388527,68.18063240997792
2024-09-23 09:31:31.568203,41.7,10.13743,-0.003382661564999035,-0.023429960042815445,0.09720203344245934,40.106058693909645,-104.27510100388527,68.18063240997792
2024-09-23 09:31:31.610303,41.7,10.13748,-0.0034324103296106863,-0.023877669304275123,0.09720203344245934,40.106058693909645,-100.26678939585686,72.1922225099802
2024-09-23 09:31:31.622264,41.7,10.13748,-0.0034324103296106863,-0.023877669304275123,0.09750050628343246,40.106058693909645,-100.26678939585686,72.1922225099802
2024-09-23 09:31:31.654623,41.7,10.13748,-0.0034324103296106863,-0.023877669304275123,0.09750050628343246,32.08287849390507,-96.25519929585457,72.1922225099802
2024-09-23 09:31:31.666144,41.7,10.137531,-0.0028354659767690416,-0.024026904205785005,0.09750050628343246,32.08287849390507,-96.25519929585457,80.21211738781929
2024-09-23 09:31:31.709054,41.7,10.137582,-0.0028354659767690416,-0.024026904205785005,0.09655535038822652,32.08287849390507,-92.24360919585227,84.22370748782159
2024-09-23 09:31:31.752054,41.7,10.137582,-0.0028354659767690416,-0.02397715620066169,0.09705279702197278,32.08287849390507,-92.24360919585227,84.22370748782159
2024-09-23 09:31:31.763980,41.7,10.137669,-0.0028354659767690416,-0.02397715620066169,0.09705279702197278,36.09446859390736,-100.26678939585686,84.22370748782159
2024-09-23 09:31:31.806781,41.7,10.137669,-0.0029349636958644295,-0.02367869399252531,0.09715228999426605,36.09446859390736,-100.26678939585686,80.21211738781929
2024-09-23 09:31:31.849869,41.7,10.13772,-0.0029847020175114316,-0.02367869399252531,0.09715228999426605,36.09446859390736,-100.26678939585686,80.21211738781929
2024-09-23 09:31:31.860829,41.7,10.13772,-0.0029847020175114316,-0.02397715620066169,0.09720203344245934,40.106058693909645,-100.26678939585686,80.21211738781929
2024-09-23 09:31:31.904486,41.7,10.137771,-0.002785727465249955,-0.023181236725942318,0.09715228999426605,32.08287849390507,-100.26678939585686,76.200527287817
2024-09-23 09:31:31.947108,41.7,10.137771,-0.002785727465249955,-0.023181236725942318,0.09715228999426605,32.08287849390507,-104.27510100388527,80.21211738781929
2024-09-23 09:31:31.958044,41.7,10.137821,-0.0038801188315820256,-0.02412639262114825,0.09685382322919964,32.08287849390507,-104.27510100388527,80.21211738781929
2024-09-23 09:31:32.000024,41.7,10.137872,-0.0037308827908396356,-0.02412639262114825,0.09685382322919964,44.11764879391193,-96.25519929585457,80.21211738781929
2024-09-23 09:31:32.012101,41.7,10.137872,-0.0037308827908396356,-0.02362894446842532,0.09685382322919964,44.11764879391193,-96.25519929585457,80.21211738781929
2024-09-23 09:31:32.044778,41.53,10.137872,-0.0037308827908396356,-0.02362894446842532,0.09750050628343246,40.106058693909645,-96.25519929585457,80.21211738781929
2024-09-23 09:31:32.056006,41.53,10.137923,-0.0037308827908396356,-0.02362894446842532,0.09750050628343246,40.106058693909645,-92.24360919585227,76.200527287817
2024-09-23 09:31:32.098472,41.53,10.137923,-0.0037308827908396356,-0.023728432883788564,0.0970030596496862,28.07457030097246,-96.25519929585457,76.200527287817
2024-09-23 09:31:32.111236,41.53,10.13801,-0.0037308827908396356,-0.023728432883788564,0.0970030596496862,28.07457030097246,-96.25519929585457,76.200527287817
2024-09-23 09:31:32.143747,41.53,10.13801,-0.0030841997366068195,-0.02362894446842532,0.0970030596496862,28.07457030097246,-96.25519929585457,76.200527287817
2024-09-23 09:31:32.154886,41.53,10.13801,-0.0030841997366068195,-0.02362894446842532,0.0973015264147526,32.08287849390507,-100.26678939585686,76.200527287817
2024-09-23 09:31:32.199791,41.53,10.138061,-0.002437506429281439,-0.02352945757203875,0.09725178296655933,40.106058693909645,-96.25519929585457,76.200527287817
2024-09-23 09:31:32.242225,41.53,10.138112,-0.003233425524256645,-0.02352945757203875,0.09725178296655933,40.106058693909645,-96.25519929585457,80.21211738781929
2024-09-23 09:31:32.254004,41.53,10.138112,-0.003233425524256645,-0.02352945757203875,0.09690356060148622,44.11764879391193,-96.25519929585457,80.21211738781929
2024-09-23 09:31:32.285927,41.53,10.138112,-0.003233425524256645,-0.02352945757203875,0.09690356060148622,44.11764879391193,-100.26678939585686,80.21211738781929
2024-09-23 09:31:32.297314,41.53,10.138163,-0.0031339382481259063,-0.023778180888911878,0.09710254654607277,44.11764879391193,-100.26678939585686,80.21211738781929
2024-09-23 09:31:32.340180,41.53,10.138163,-0.0031339382481259063,-0.023778180888911878,0.09710254654607277,36.09446859390736,-96.25519929585457,80.21211738781929
2024-09-23 09:31:32.351820,41.53,10.138213,-0.0029349636958644295,-0.023280723622328886,0.09710254654607277,36.09446859390736,-96.25519929585457,80.21211738781929
2024-09-23 09:31:32.383874,41.53,10.138213,-0.0029349636958644295,-0.023280723622328886,0.09675432418099966,36.09446859390736,-96.25519929585457,80.21211738781929
2024-09-23 09:31:32.395704,41.53,10.138264,-0.003631395514708897,-0.023280723622328886,0.09675432418099966,36.09446859390736,-104.27510100388527,80.21211738781929
2024-09-23 09:31:32.439006,41.53,10.138264,-0.003631395514708897,-0.023230986250042305,0.09655535038822652,40.106058693909645,-96.25519929585457,80.21211738781929
2024-09-23 09:31:32.450738,41.53,10.138351,-0.003631395514708897,-0.023230986250042305,0.09655535038822652,40.106058693909645,-96.25519929585457,80.21211738781929
2024-09-23 09:31:32.483782,41.53,10.138351,-0.0034324103296106863,-0.023728432883788564,0.09655535038822652,40.106058693909645,-96.25519929585457,80.21211738781929
2024-09-23 09:31:32.495512,41.53,10.138351,-0.0034324103296106863,-0.023728432883788564,0.09745075675933246,40.106058693909645,-96.25519929585457,76.200527287817
2024-09-23 09:31:32.538118,41.53,10.138403,-0.0033329230534799477,-0.023330473146428877,0.09705279702197278,40.106058693909645,-96.25519929585457,76.200527287817
2024-09-23 09:31:32.580711,41.53,10.138453,-0.0033329230534799477,-0.023330473146428877,0.09705279702197278,40.106058693909645,-96.25519929585457,72.1922225099802
2024-09-23 09:31:32.592246,41.53,10.138453,-0.0033329230534799477,-0.023330473146428877,0.09745075675933246,40.106058693909645,-96.25519929585457,72.1922225099802
2024-09-23 09:31:32.635595,41.53,10.138504,-0.0031836870127375577,-0.02308174982955575,0.09745075675933246,40.106058693909645,-104.27510100388527,76.200527287817
2024-09-23 09:31:32.647043,41.53,10.138504,-0.0031836870127375577,-0.02308174982955575,0.09690356060148622,40.106058693909645,-104.27510100388527,76.200527287817
2024-09-23 09:31:32.679980,41.53,10.138504,-0.0031836870127375577,-0.02308174982955575,0.09690356060148622,36.09446859390736,-96.25519929585457,84.22370748782159
2024-09-23 09:31:32.691642,41.53,10.138555,-0.003482159473966507,-0.023280723622328886,0.09690356060148622,36.09446859390736,-96.25519929585457,84.22370748782159
2024-09-23 09:31:32.734378,41.53,10.138605,-0.0028354659767690416,-0.023280723622328886,0.09745075675933246,36.09446859390736,-100.26678939585686,84.22370748782159
2024-09-23 09:31:32.776922,41.53,10.138605,-0.0028354659767690416,-0.023429960042815445,0.09705279702197278,32.08287849390507,-100.26678939585686,84.22370748782159
2024-09-23 09:31:32.788428,41.53,10.138692,-0.0028354659767690416,-0.023429960042815445,0.09705279702197278,32.08287849390507,-100.26678939585686,80.21211738781929
2024-09-23 09:31:32.830426,41.53,10.138692,-0.0033329230534799477,-0.023479709566915436,0.09630662707135339,36.09446859390736,-104.27510100388527,84.22370748782159
2024-09-23 09:31:32.873324,41.53,10.138744,-0.003382661564999035,-0.023479709566915436,0.09630662707135339,36.09446859390736,-104.27510100388527,84.22370748782159
2024-09-23 09:31:32.885442,41.53,10.138744,-0.003382661564999035,-0.02313149783467906,0.09740101331113918,44.11764879391193,-96.25519929585457,84.22370748782159
2024-09-23 09:31:32.929189,41.53,10.138795,-0.0033329230534799477,-0.023479709566915436,0.09685382322919964,32.08287849390507,-96.25519929585457,84.22370748782159
2024-09-23 09:31:32.972083,41.53,10.138795,-0.0033329230534799477,-0.023479709566915436,0.09685382322919964,32.08287849390507,-100.26678939585686,80.21211738781929
2024-09-23 09:31:32.983349,41.53,10.138845,-0.0032831742888682963,-0.023579196463302005,0.09745075675933246,32.08287849390507,-100.26678939585686,80.21211738781929
2024-09-23 09:31:33.026128,41.53,10.138896,-0.003233425524256645,-0.024026904205785005,0.09745075675933246,40.106058693909645,-92.24360919585227,80.21211738781929
2024-09-23 09:31:33.068363,41.92,10.138896,-0.003233425524256645,-0.024026904205785005,0.09655535038822652,40.106058693909645,-92.24360919585227,80.21211738781929
2024-09-23 09:31:33.079487,41.92,10.138947,-0.0031339382481259063,-0.024026904205785005,0.09655535038822652,40.106058693909645,-96.25519929585457,80.21211738781929
2024-09-23 09:31:33.122474,41.92,10.138947,-0.0031339382481259063,-0.02338022115155219,0.09670458680871308,40.106058693909645,-100.26678939585686,80.21211738781929
2024-09-23 09:31:33.134526,41.92,10.139034,-0.0031339382481259063,-0.02338022115155219,0.09670458680871308,40.106058693909645,-100.26678939585686,80.21211738781929
2024-09-23 09:31:33.167388,41.92,10.139034,-0.003631395514708897,-0.023877669304275123,0.09670458680871308,40.106058693909645,-100.26678939585686,80.21211738781929
2024-09-23 09:31:33.179164,41.92,10.139034,-0.003631395514708897,-0.023877669304275123,0.09710254654607277,44.11764879391193,-100.26678939585686,68.18063240997792
2024-09-23 09:31:33.221622,41.92,10.139085,-0.0028852147413806935,-0.023778180888911878,0.09750050628343246,36.09446859390736,-104.27510100388527,68.18063240997792
2024-09-23 09:31:33.263320,41.92,10.139136,-0.0028852147413806935,-0.023778180888911878,0.09750050628343246,36.09446859390736,-104.27510100388527,76.200527287817
2024-09-23 09:31:33.275499,41.92,10.139136,-0.0032831742888682963,-0.023728432883788564,0.0973015264147526,40.106058693909645,-104.27510100388527,76.200527287817
2024-09-23 09:31:33.319172,41.92,10.139187,-0.0032831742888682963,-0.023877669304275123,0.09720203344245934,40.106058693909645,-104.27510100388527,80.21211738781929
2024-09-23 09:31:33.363076,41.92,10.139187,-0.0032831742888682963,-0.023877669304275123,0.09720203344245934,36.09446859390736,-100.26678939585686,80.21211738781929
2024-09-23 09:31:33.374625,41.92,10.139238,-0.003631395514708897,-0.024076653729884996,0.09720203344245934,36.09446859390736,-100.26678939585686,80.21211738781929
2024-09-23 09:31:33.407624,41.92,10.139238,-0.003631395514708897,-0.024076653729884996,0.09710254654607277,36.09446859390736,-100.26678939585686,80.21211738781929
2024-09-23 09:31:33.419228,41.92,10.139288,-0.0035816467500972456,-0.024076653729884996,0.09710254654607277,36.09446859390736,-108.28669110388756,72.1922225099802
2024-09-23 09:31:33.461310,41.92,10.139288,-0.0035816467500972456,-0.023429960042815445,0.09715228999426605,36.09446859390736,-96.25519929585457,72.1922225099802
2024-09-23 09:31:33.472792,41.92,10.139375,-0.0035816467500972456,-0.023429960042815445,0.09715228999426605,36.09446859390736,-96.25519929585457,72.1922225099802
2024-09-23 09:31:33.505745,41.92,10.139375,-0.0032831742888682963,-0.023429960042815445,0.09715228999426605,36.09446859390736,-96.25519929585457,72.1922225099802
2024-09-23 09:31:33.519110,41.92,10.139375,-0.0032831742888682963,-0.023778180888911878,0.09650560086412653,40.106058693909645,-100.26678939585686,76.200527287817
2024-09-23 09:31:33.562271,41.92,10.139426,-0.0030841997366068195,-0.02362894446842532,0.09695331012558621,32.08287849390507,-100.26678939585686,76.200527287817
2024-09-23 09:31:33.604118,41.92,10.139477,-0.0030841997366068195,-0.02362894446842532,0.09695331012558621,32.08287849390507,-100.26678939585686,80.21211738781929
2024-09-23 09:31:33.615686,41.92,10.139477,-0.003631395514708897,-0.02362894446842532,0.0973512698629459,36.09446859390736,-100.26678939585686,80.21211738781929
2024-09-23 09:31:33.657982,41.92,10.139528,-0.0038801188315820256,-0.023877669304275123,0.0973512698629459,36.09446859390736,-92.24360919585227,80.21211738781929
2024-09-23 09:31:33.669732,41.92,10.139528,-0.0038801188315820256,-0.023877669304275123,0.09710254654607277,36.09446859390736,-92.24360919585227,80.21211738781929
2024-09-23 09:31:33.702182,41.92,10.139528,-0.0038801188315820256,-0.023877669304275123,0.09710254654607277,44.11764879391193,-92.24360919585227,80.21211738781929
2024-09-23 09:31:33.713547,41.92,10.139578,-0.0034324103296106863,-0.023728432883788564,0.09710254654607277,44.11764879391193,-92.24360919585227,80.21211738781929
2024-09-23 09:31:33.756062,41.92,10.139629,-0.0034324103296106863,-0.023728432883788564,0.09690356060148622,28.07457030097246,-96.25519929585457,76.200527287817
2024-09-23 09:31:33.768680,41.92,10.139629,-0.0028354659767690416,-0.023728432883788564,0.09690356060148622,28.07457030097246,-96.25519929585457,76.200527287817
2024-09-23 09:31:33.800436,41.92,10.139629,-0.0028354659767690416,-0.02367869399252531,0.09779897304849887,40.106058693909645,-96.25519929585457,76.200527287817
2024-09-23 09:31:33.811433,41.92,10.139716,-0.0028354659767690416,-0.02367869399252531,0.09779897304849887,40.106058693909645,-92.24360919585227,76.200527287817
2024-09-23 09:31:33.853708,41.92,10.139716,-0.0036811340262279837,-0.02352945757203875,0.09710254654607277,32.08287849390507,-104.27510100388527,76.200527287817
2024-09-23 09:31:33.896490,41.92,10.139768,-0.0027359787006383035,-0.02352945757203875,0.09710254654607277,32.08287849390507,-104.27510100388527,76.200527287817
2024-09-23 09:31:33.908374,41.92,10.139768,-0.0027359787006383035,-0.023579196463302005,0.09710254654607277,40.106058693909645,-96.25519929585457,76.200527287817
2024-09-23 09:31:33.951896,41.92,10.139818,-0.0029349636958644295,-0.023827930413011865,0.09685382322919964,32.08287849390507,-96.25519929585457,76.200527287817
