Ayaan's Suite
Timestamp,Sample Rate (Hz),Time,Ax,Ay,Az,Gx,Gy,Gz
2024-09-23 09:11:12.382595,0,8.918163,-0.0029349636958644295,-0.023778180888911878,0.09725178296655933,44.11764879391193,-100.26678939585686,80.21211738781929
2024-09-23 09:11:12.414622,0,8.918163,-0.0029349636958644295,-0.023778180888911878,0.09725178296655933,44.11764879391193,-96.25519929585457,80.21211738781929
2024-09-23 09:11:12.426298,0,8.918213,-0.0029847020175114316,-0.023479709566915436,0.09675432418099966,44.11764879391193,-96.25519929585457,80.21211738781929
2024-09-23 09:11:12.469838,0,8.918264,-0.0029847020175114316,-0.023479709566915436,0.09675432418099966,28.07457030097246,-96.25519929585457,84.22370748782159
2024-09-23 09:11:12.481197,0,8.918264,-0.003631395514708897,-0.023429960042815445,0.09675432418099966,28.07457030097246,-96.25519929585457,84.22370748782159
2024-09-23 09:11:12.513187,0,8.918264,-0.003631395514708897,-0.023429960042815445,0.0962568775472534,28.07457030097246,-96.25519929585457,84.22370748782159
2024-09-23 09:11:12.524653,0,8.918356,-0.0033329230534799477,-0.023429960042815445,0.0962568775472534,44.11764879391193,-96.25519929585457,84.22370748782159
2024-09-23 09:11:12.618770,0,8.918407,-0.0033329230534799477,-0.023579196463302005,0.09695331012558621,36.09446859390736,-104.27510100388527,76.200527287817
2024-09-23 09:11:12.661468,0,8.918407,-0.0037308827908396356,-0.023479709566915436,0.09695331012558621,36.09446859390736,-104.27510100388527,76.200527287817
2024-09-23 09:11:12.673400,0,8.918407,-0.0037308827908396356,-0.023479709566915436,0.09690356060148622,44.11764879391193,-96.25519929585457,80.21211738781929
2024-09-23 09:11:12.716102,0,8.918501,-0.0031836870127375577,-0.02338022115155219,0.09670458680871308,36.09446859390736,-100.26678939585686,80.21211738781929
2024-09-23 09:11:12.758290,0,8.918553,-0.0031836870127375577,-0.02338022115155219,0.09670458680871308,36.09446859390736,-100.26678939585686,80.21211738781929
2024-09-23 09:11:12.770414,0,8.918553,-0.0034324103296106863,-0.02367869399252531,0.09695331012558621,44.11764879391193,-100.26678939585686,80.21211738781929
2024-09-23 09:11:12.813580,0,8.918603,-0.0028852147413806935,-0.023429960042815445,0.09695331012558621,44.11764879391193,-100.26678939585686,80.21211738781929
2024-09-23 09:11:12.825837,0,8.918603,-0.0028852147413806935,-0.023429960042815445,0.09665483728461309,44.11764879391193,-100.26678939585686,80.21211738781929
2024-09-23 09:11:12.858012,0,8.918603,-0.0028852147413806935,-0.023429960042815445,0.09665483728461309,32.08287849390507,-100.26678939585686,80.21211738781929
2024-09-23 09:11:12.869754,0,8.918698,-0.003233425524256645,-0.023330473146428877,0.09665483728461309,32.08287849390507,-100.26678939585686,80.21211738781929
2024-09-23 09:11:12.902549,0,8.918698,-0.003233425524256645,-0.023330473146428877,0.09710254654607277,32.08287849390507,-100.26678939585686,80.21211738781929
2024-09-23 09:11:12.914303,0,8.918749,-0.0033329230534799477,-0.023330473146428877,0.09710254654607277,40.106058693909645,-96.25519929585457,80.21211738781929
2024-09-23 09:11:12.956321,0,8.918749,-0.0033329230534799477,-0.023280723622328886,0.09685382322919964,40.106058693909645,-96.25519929585457,80.21211738781929
2024-09-23 09:11:12.968013,0,8.918842,-0.0033329230534799477,-0.023280723622328886,0.09685382322919964,40.106058693909645,-96.25519929585457,80.21211738781929
2024-09-23 09:11:12.999625,0,8.918842,-0.0038303700669703737,-0.023280723622328886,0.09685382322919964,40.106058693909645,-96.25519929585457,80.21211738781929
2024-09-23 09:11:13.011548,0,8.918842,-0.0038303700669703737,-0.02367869399252531,0.09685382322919964,36.09446859390736,-92.24360919585227,84.22370748782159
2024-09-23 09:11:13.053713,0,8.918894,-0.0029847020175114316,-0.023877669304275123,0.09675432418099966,36.09446859390736,-92.24360919585227,84.22370748782159
2024-09-23 09:11:13.065193,0,8.918894,-0.0029847020175114316,-0.023877669304275123,0.09675432418099966,40.106058693909645,-96.25519929585457,84.22370748782159
2024-09-23 09:11:13.096795,0,8.918894,-0.0029847020175114316,-0.023877669304275123,0.09675432418099966,40.106058693909645,-96.25519929585457,84.22370748782159
2024-09-23 09:11:13.108517,0,8.918944,-0.003482159473966507,-0.02352945757203875,0.0973512698629459,32.08287849390507,-96.25519929585457,84.22370748782159
2024-09-23 09:11:13.152302,0,8.918995,-0.0033329230534799477,-0.02352945757203875,0.0973512698629459,32.08287849390507,-100.26678939585686,76.200527287817
2024-09-23 09:11:13.163684,0,8.918995,-0.0033329230534799477,-0.02397715620066169,0.09715228999426605,32.08287849390507,-100.26678939585686,76.200527287817
2024-09-23 09:11:13.196089,0,8.918995,-0.0033329230534799477,-0.02397715620066169,0.09715228999426605,40.106058693909645,-104.27510100388527,76.200527287817
2024-09-23 09:11:13.207719,0,8.919046,-0.0031339382481259063,-0.023877669304275123,0.09715228999426605,40.106058693909645,-104.27510100388527,72.1922225099802
2024-09-23 09:11:13.249643,0,8.919096,-0.0031339382481259063,-0.023877669304275123,0.09725178296655933,48.12595698684454,-104.27510100388527,76.200527287817
2024-09-23 09:11:13.266063,0,8.919096,-0.0031836870127375577,-0.023877669304275123,0.09725178296655933,48.12595698684454,-104.27510100388527,76.200527287817
2024-09-23 09:11:13.298684,0,8.919096,-0.0031836870127375577,-0.023877669304275123,0.0970030596496862,36.09446859390736,-96.25519929585457,76.200527287817
2024-09-23 09:11:13.310837,0,8.919183,-0.0031836870127375577,-0.023877669304275123,0.0970030596496862,36.09446859390736,-96.25519929585457,76.200527287817
2024-09-23 09:11:13.343026,0,8.919183,-0.003233425524256645,-0.02397715620066169,0.0970030596496862,36.09446859390736,-96.25519929585457,76.200527287817
2024-09-23 09:11:13.354518,0,8.919183,-0.003233425524256645,-0.02397715620066169,0.09680407370509965,32.08287849390507,-104.27510100388527,76.200527287817
2024-09-23 09:11:13.397710,44.81,8.919235,-0.0028354659767690416,-0.023280723622328886,0.0970030596496862,32.08287849390507,-96.25519929585457,76.200527287817
2024-09-23 09:11:13.440220,44.81,8.919285,-0.0028354659767690416,-0.023280723622328886,0.0970030596496862,32.08287849390507,-96.25519929585457,80.21211738781929
2024-09-23 09:11:13.451579,44.81,8.919285,-0.003382661564999035,-0.02362894446842532,0.09685382322919964,32.08287849390507,-96.25519929585457,80.21211738781929
2024-09-23 09:11:13.494025,44.81,8.919336,-0.0029349636958644295,-0.02362894446842532,0.09685382322919964,32.08287849390507,-96.25519929585457,88.23529758782387
2024-09-23 09:11:13.506411,44.81,8.919336,-0.0029349636958644295,-0.024325377046758124,0.09680407370509965,32.08287849390507,-96.25519929585457,88.23529758782387
2024-09-23 09:11:13.538485,44.81,8.919336,-0.0029349636958644295,-0.024325377046758124,0.09680407370509965,32.08287849390507,-96.25519929585457,88.23529758782387
2024-09-23 09:11:13.550437,44.81,8.919387,-0.0035318979854855937,-0.023877669304275123,0.09680407370509965,32.08287849390507,-96.25519929585457,80.21211738781929
2024-09-23 09:11:13.634421,44.81,8.919387,-0.0035318979854855937,-0.023877669304275123,0.09725178296655933,32.08287849390507,-96.25519929585457,80.21211738781929
2024-09-23 09:11:13.687789,44.81,8.919437,-0.0035318979854855937,-0.023877669304275123,0.09725178296655933,40.106058693909645,-96.25519929585457,80.21211738781929
2024-09-23 09:11:13.698906,44.81,8.919437,-0.0035318979854855937,-0.02397715620066169,0.09725178296655933,40.106058693909645,-96.25519929585457,80.21211738781929
2024-09-23 09:11:13.731049,44.81,8.919437,-0.0035318979854855937,-0.02397715620066169,0.09745075675933246,40.106058693909645,-96.25519929585457,80.21211738781929
2024-09-23 09:11:13.742675,44.81,8.919524,-0.003482159473966507,-0.02397715620066169,0.09745075675933246,32.08287849390507,-96.25519929585457,84.22370748782159
2024-09-23 09:11:13.785395,44.81,8.919524,-0.003482159473966507,-0.02397715620066169,0.09680407370509965,36.09446859390736,-100.26678939585686,84.22370748782159
2024-09-23 09:11:13.797224,44.81,8.919577,-0.003482159473966507,-0.02397715620066169,0.09680407370509965,36.09446859390736,-100.26678939585686,80.21211738781929
2024-09-23 09:11:13.830392,44.81,8.919577,-0.0031339382481259063,-0.02362894446842532,0.09680407370509965,36.09446859390736,-100.26678939585686,80.21211738781929
2024-09-23 09:11:13.841733,44.81,8.919577,-0.0031339382481259063,-0.02362894446842532,0.0973512698629459,28.07457030097246,-96.25519929585457,76.200527287817
2024-09-23 09:11:13.883444,44.81,8.919627,-0.003382661564999035,-0.023181236725942318,0.0973015264147526,28.07457030097246,-96.25519929585457,76.200527287817
2024-09-23 09:11:13.895075,44.81,8.919627,-0.003382661564999035,-0.023181236725942318,0.0973015264147526,32.08287849390507,-92.24360919585227,76.200527287817
2024-09-23 09:11:13.927831,44.81,8.919627,-0.003382661564999035,-0.023181236725942318,0.0973015264147526,32.08287849390507,-92.24360919585227,80.21211738781929
2024-09-23 09:11:13.939853,44.81,8.919769,-0.0031339382481259063,-0.023827930413011865,0.09740101331113918,28.07457030097246,-92.24360919585227,80.21211738781929
2024-09-23 09:11:13.982253,44.81,8.91982,-0.0035318979854855937,-0.023579196463302005,0.09740101331113918,28.07457030097246,-96.25519929585457,80.21211738781929
2024-09-23 09:11:13.994501,44.81,8.91982,-0.0035318979854855937,-0.023579196463302005,0.09710254654607277,28.07457030097246,-96.25519929585457,80.21211738781929
2024-09-23 09:11:14.027221,44.81,8.91982,-0.0035318979854855937,-0.023579196463302005,0.09710254654607277,44.11764879391193,-92.24360919585227,84.22370748782159
2024-09-23 09:11:14.038977,44.81,8.919871,-0.003979606107712764,-0.023429960042815445,0.09710254654607277,44.11764879391193,-92.24360919585227,84.22370748782159
2024-09-23 09:11:14.081737,44.81,8.919922,-0.003631395514708897,-0.023429960042815445,0.09715228999426605,36.09446859390736,-96.25519929585457,80.21211738781929
2024-09-23 09:11:14.123718,44.81,8.919922,-0.003631395514708897,-0.02362894446842532,0.09710254654607277,36.09446859390736,-96.25519929585457,80.21211738781929
2024-09-23 09:11:14.135871,44.81,8.920012,-0.003631395514708897,-0.02362894446842532,0.09710254654607277,32.08287849390507,-100.26678939585686,84.22370748782159
2024-09-23 09:11:14.179080,44.81,8.920012,-0.0031339382481259063,-0.02362894446842532,0.09665483728461309,32.08287849390507,-92.24360919585227,88.23529758782387
2024-09-23 09:11:14.222428,44.81,8.920063,-0.0033329230534799477,-0.02397715620066169,0.09665483728461309,32.08287849390507,-92.24360919585227,88.23529758782387
2024-09-23 09:11:14.234185,44.81,8.920063,-0.0033329230534799477,-0.02397715620066169,0.09680407370509965,36.09446859390736,-92.24360919585227,88.23529758782387
2024-09-23 09:11:14.268429,44.81,8.920063,-0.0033329230534799477,-0.02397715620066169,0.09680407370509965,36.09446859390736,-92.24360919585227,84.22370748782159
2024-09-23 09:11:14.279985,44.81,8.920115,-0.0030344509719951677,-0.023579196463302005,0.09720203344245934,36.09446859390736,-92.24360919585227,84.22370748782159
2024-09-23 09:11:14.322546,44.81,8.920165,-0.0034324103296106863,-0.02367869399252531,0.09720203344245934,36.09446859390736,-100.26678939585686,80.21211738781929
2024-09-23 09:11:14.334215,44.81,8.920165,-0.0034324103296106863,-0.02367869399252531,0.09740101331113918,36.09446859390736,-100.26678939585686,80.21211738781929
2024-09-23 09:11:14.366560,44.81,8.920165,-0.0034324103296106863,-0.02367869399252531,0.09740101331113918,44.11764879391193,-96.25519929585457,80.21211738781929
2024-09-23 09:11:14.378296,44.81,8.920216,-0.0028852147413806935,-0.023579196463302005,0.09740101331113918,44.11764879391193,-96.25519929585457,72.1922225099802
2024-09-23 09:11:14.420976,43.91,8.920267,-0.0028852147413806935,-0.023579196463302005,0.09685382322919964,40.106058693909645,-104.27510100388527,68.18063240997792
2024-09-23 09:11:14.432886,43.91,8.920267,-0.0029847020175114316,-0.023579196463302005,0.09685382322919964,40.106058693909645,-104.27510100388527,68.18063240997792
2024-09-23 09:11:14.464392,43.91,8.920267,-0.0029847020175114316,-0.024026904205785005,0.09645586349183995,40.106058693909645,-104.27510100388527,68.18063240997792
2024-09-23 09:11:14.475611,43.91,8.920353,-0.0029847020175114316,-0.024026904205785005,0.09645586349183995,32.08287849390507,-100.26678939585686,76.200527287817
2024-09-23 09:11:14.519410,43.91,8.920353,-0.0031339382481259063,-0.024076653729884996,0.09680407370509965,36.09446859390736,-100.26678939585686,76.200527287817
2024-09-23 09:11:14.561202,43.91,8.920405,-0.003780631555451287,-0.024076653729884996,0.09680407370509965,36.09446859390736,-100.26678939585686,76.200527287817
2024-09-23 09:11:14.572944,43.91,8.920405,-0.003780631555451287,-0.023778180888911878,0.09794820946898543,32.08287849390507,-104.27510100388527,76.200527287817
2024-09-23 09:11:14.707585,43.91,8.920405,-0.003780631555451287,-0.023778180888911878,0.09794820946898543,32.08287849390507,-104.27510100388527,80.21211738781929
2024-09-23 09:11:14.721938,43.91,8.920455,-0.0029349636958644295,-0.02397715620066169,0.09745075675933246,32.08287849390507,-104.27510100388527,80.21211738781929
2024-09-23 09:11:14.765063,43.91,8.920506,-0.0031836870127375577,-0.02338022115155219,0.0973512698629459,32.08287849390507,-96.25519929585457,84.22370748782159
2024-09-23 09:11:14.807705,43.91,8.920506,-0.0031836870127375577,-0.02338022115155219,0.0973512698629459,36.09446859390736,-96.25519929585457,80.21211738781929
2024-09-23 09:11:14.818830,43.91,8.920557,-0.0029847020175114316,-0.024225890150371555,0.0973512698629459,36.09446859390736,-96.25519929585457,80.21211738781929
2024-09-23 09:11:14.862306,43.91,8.920607,-0.003482159473966507,-0.024225890150371555,0.0966050877605131,44.11764879391193,-100.26678939585686,76.200527287817
2024-09-23 09:11:14.904579,43.91,8.920607,-0.003482159473966507,-0.02397715620066169,0.09675432418099966,44.11764879391193,-100.26678939585686,76.200527287817
2024-09-23 09:11:14.915615,43.91,8.920695,-0.003482159473966507,-0.02397715620066169,0.09675432418099966,40.106058693909645,-96.25519929585457,80.21211738781929
2024-09-23 09:11:14.958685,43.91,8.920695,-0.0033329230534799477,-0.023877669304275123,0.09705279702197278,32.08287849390507,-96.25519929585457,80.21211738781929
2024-09-23 09:11:14.970498,43.91,8.920695,-0.0033329230534799477,-0.023877669304275123,0.09705279702197278,32.08287849390507,-96.25519929585457,84.22370748782159
2024-09-23 09:11:15.002471,43.91,8.920841,-0.0029847020175114316,-0.023280723622328886,0.09705279702197278,32.08287849390507,-96.25519929585457,84.22370748782159
2024-09-23 09:11:15.013993,43.91,8.920841,-0.0029847020175114316,-0.023280723622328886,0.09705279702197278,36.09446859390736,-100.26678939585686,84.22370748782159
2024-09-23 09:11:15.056298,43.91,8.920893,-0.003233425524256645,-0.023827930413011865,0.0973512698629459,44.11764879391193,-100.26678939585686,84.22370748782159
2024-09-23 09:11:15.099638,43.91,8.920943,-0.003233425524256645,-0.023827930413011865,0.0973512698629459,44.11764879391193,-92.24360919585227,80.21211738781929
2024-09-23 09:11:15.111290,43.91,8.920943,-0.0029847020175114316,-0.023579196463302005,0.09690356060148622,44.11764879391193,-92.24360919585227,80.21211738781929
2024-09-23 09:11:15.153849,43.91,8.920994,-0.0028354659767690416,-0.023927417309398437,0.09690356060148622,40.106058693909645,-88.23529758782387,92.24360919585227
2024-09-23 09:11:15.196481,43.91,8.920994,-0.0028354659767690416,-0.023927417309398437,0.09680407370509965,36.09446859390736,-88.23529758782387,92.24360919585227
2024-09-23 09:11:15.207688,43.91,8.921045,-0.0026862297461545674,-0.023927417309398437,0.09680407370509965,36.09446859390736,-92.24360919585227,88.23529758782387
2024-09-23 09:11:15.250681,43.91,8.921133,-0.0026862297461545674,-0.023330473146428877,0.09750050628343246,44.11764879391193,-92.24360919585227,76.200527287817
2024-09-23 09:11:15.292925,43.91,8.921133,-0.0026862297461545674,-0.023181236725942318,0.09750050628343246,44.11764879391193,-92.24360919585227,76.200527287817
2024-09-23 09:11:15.304387,43.91,8.921133,-0.0026862297461545674,-0.023181236725942318,0.0970030596496862,40.106058693909645,-100.26678939585686,80.21211738781929
2024-09-23 09:11:15.346621,43.91,8.921185,-0.0030841997366068195,-0.02412639262114825,0.09715228999426605,36.09446859390736,-100.26678939585686,80.21211738781929
2024-09-23 09:11:15.358725,43.91,8.921185,-0.0030841997366068195,-0.02412639262114825,0.09715228999426605,36.09446859390736,-100.26678939585686,80.21211738781929
2024-09-23 09:11:15.391041,43.91,8.921235,-0.0030841997366068195,-0.02412639262114825,0.09715228999426605,36.09446859390736,-100.26678939585686,80.21211738781929
2024-09-23 09:11:15.402087,43.91,8.921235,-0.0029349636958644295,-0.023280723622328886,0.09680407370509965,36.09446859390736,-100.26678939585686,80.21211738781929
2024-09-23 09:11:15.444363,41.97,8.921286,-0.0029847020175114316,-0.023927417309398437,0.09680407370509965,36.09446859390736,-96.25519929585457,84.22370748782159
2024-09-23 09:11:15.456634,41.97,8.921286,-0.0029847020175114316,-0.023927417309398437,0.09670458680871308,36.09446859390736,-96.25519929585457,84.22370748782159
2024-09-23 09:11:15.489106,41.97,8.921286,-0.0029847020175114316,-0.023927417309398437,0.09670458680871308,36.09446859390736,-104.27510100388527,80.21211738781929
2024-09-23 09:11:15.542954,41.97,8.921337,-0.003482159473966507,-0.024375126570858115,0.09680407370509965,36.09446859390736,-96.25519929585457,80.21211738781929
2024-09-23 09:11:15.586543,41.97,8.921387,-0.003482159473966507,-0.024375126570858115,0.09680407370509965,36.09446859390736,-96.25519929585457,76.200527287817
2024-09-23 09:11:15.598009,41.97,8.921387,-0.003382661564999035,-0.023728432883788564,0.09725178296655933,40.106058693909645,-96.25519929585457,76.200527287817
2024-09-23 09:11:15.641633,41.97,8.921475,-0.003482159473966507,-0.023728432883788564,0.0973512698629459,40.106058693909645,-96.25519929585457,76.200527287817
2024-09-23 09:11:15.736323,41.97,8.921526,-0.003780631555451287,-0.023728432883788564,0.0973512698629459,44.11764879391193,-100.26678939585686,76.200527287817
2024-09-23 09:11:15.748366,41.97,8.921526,-0.003780631555451287,-0.02367869399252531,0.0973512698629459,44.11764879391193,-100.26678939585686,76.200527287817
2024-09-23 09:11:15.780806,41.97,8.921526,-0.003780631555451287,-0.02367869399252531,0.09670458680871308,32.08287849390507,-100.26678939585686,76.200527287817
2024-09-23 09:11:15.792158,41.97,8.921577,-0.0038303700669703737,-0.02367869399252531,0.09670458680871308,32.08287849390507,-100.26678939585686,80.21211738781929
2024-09-23 09:11:15.834601,41.97,8.921577,-0.0038303700669703737,-0.023877669304275123,0.09695331012558621,40.106058693909645,-92.24360919585227,76.200527287817
2024-09-23 09:11:15.846448,41.97,8.92167,-0.0038303700669703737,-0.023877669304275123,0.09695331012558621,40.106058693909645,-92.24360919585227,76.200527287817
2024-09-23 09:11:15.879296,41.97,8.92167,-0.003382661564999035,-0.02397715620066169,0.09685382322919964,40.106058693909645,-92.24360919585227,76.200527287817
2024-09-23 09:11:15.890419,41.97,8.92167,-0.003382661564999035,-0.02397715620066169,0.09685382322919964,48.12595698684454,-96.25519929585457,80.21211738781929
2024-09-23 09:11:15.932753,41.97,8.921721,-0.003631395514708897,-0.023827930413011865,0.09720203344245934,44.11764879391193,-100.26678939585686,80.21211738781929
2024-09-23 09:11:15.975819,41.97,8.921817,-0.003631395514708897,-0.023827930413011865,0.09720203344245934,44.11764879391193,-100.26678939585686,76.200527287817
2024-09-23 09:11:15.988134,41.97,8.921817,-0.0030344509719951677,-0.023927417309398437,0.09725178296655933,36.09446859390736,-100.26678939585686,76.200527287817
2024-09-23 09:11:16.030671,41.97,8.921868,-0.0032831742888682963,-0.023728432883788564,0.09725178296655933,36.09446859390736,-100.26678939585686,80.21211738781929
2024-09-23 09:11:16.074808,41.97,8.921868,-0.0032831742888682963,-0.023728432883788564,0.09655535038822652,40.106058693909645,-88.23529758782387,80.21211738781929
2024-09-23 09:11:16.085849,41.97,8.921919,-0.0033329230534799477,-0.023728432883788564,0.09655535038822652,40.106058693909645,-88.23529758782387,84.22370748782159
2024-09-23 09:11:16.129883,41.97,8.921969,-0.0033329230534799477,-0.023778180888911878,0.0973512698629459,36.09446859390736,-88.23529758782387,84.22370748782159
2024-09-23 09:11:16.172228,41.97,8.921969,-0.003482159473966507,-0.023827930413011865,0.09725178296655933,36.09446859390736,-88.23529758782387,84.22370748782159
2024-09-23 09:11:16.183329,41.97,8.921969,-0.003482159473966507,-0.023827930413011865,0.09725178296655933,44.11764879391193,-96.25519929585457,80.21211738781929
2024-09-23 09:11:16.225771,41.97,8.92206,-0.0028852147413806935,-0.023778180888911878,0.0970030596496862,40.106058693909645,-96.25519929585457,80.21211738781929
2024-09-23 09:11:16.268248,41.97,8.922111,-0.0028852147413806935,-0.023778180888911878,0.0970030596496862,40.106058693909645,-96.25519929585457,80.21211738781929
2024-09-23 09:11:16.280062,41.97,8.922111,-0.0038303700669703737,-0.023330473146428877,0.0970030596496862,36.09446859390736,-96.25519929585457,80.21211738781929
2024-09-23 09:11:16.323044,41.97,8.922162,-0.003482159473966507,-0.023877669304275123,0.09774922960030558,36.09446859390736,-96.25519929585457,80.21211738781929
2024-09-23 09:11:16.365681,41.97,8.922162,-0.003482159473966507,-0.023877669304275123,0.09774922960030558,32.08287849390507,-100.26678939585686,80.21211738781929
2024-09-23 09:11:16.377699,41.97,8.922212,-0.0030841997366068195,-0.023778180888911878,0.09774922960030558,32.08287849390507,-100.26678939585686,80.21211738781929
2024-09-23 09:11:16.421471,41.97,8.922263,-0.0036811340262279837,-0.023778180888911878,0.09705279702197278,36.09446859390736,-100.26678939585686,84.22370748782159
2024-09-23 09:11:16.464947,41.03,8.922263,-0.0036811340262279837,-0.023579196463302005,0.09725178296655933,36.09446859390736,-100.26678939585686,84.22370748782159
2024-09-23 09:11:16.476592,41.03,8.922352,-0.0036811340262279837,-0.023579196463302005,0.09725178296655933,36.09446859390736,-100.26678939585686,80.21211738781929
2024-09-23 09:11:16.520185,41.03,8.922352,-0.0037308827908396356,-0.02352945757203875,0.09695331012558621,36.09446859390736,-100.26678939585686,80.21211738781929
2024-09-23 09:11:16.562106,41.03,8.922404,-0.003482159473966507,-0.02352945757203875,0.09695331012558621,36.09446859390736,-100.26678939585686,80.21211738781929
2024-09-23 09:11:16.574028,41.03,8.922404,-0.003482159473966507,-0.02352945757203875,0.0973015264147526,36.09446859390736,-96.25519929585457,80.21211738781929
2024-09-23 09:11:16.616584,41.03,8.922454,-0.0029847020175114316,-0.023827930413011865,0.09680407370509965,36.09446859390736,-96.25519929585457,80.21211738781929
2024-09-23 09:11:16.659307,41.03,8.922505,-0.0029847020175114316,-0.023827930413011865,0.09680407370509965,36.09446859390736,-96.25519929585457,84.22370748782159
2024-09-23 09:11:16.671233,41.03,8.922505,-0.0029349636958644295,-0.023479709566915436,0.09695331012558621,36.09446859390736,-96.25519929585457,84.22370748782159
2024-09-23 09:11:16.714164,41.03,8.922556,-0.0033329230534799477,-0.023877669304275123,0.09695331012558621,32.08287849390507,-104.27510100388527,80.21211738781929
2024-09-23 09:11:16.756773,41.03,8.922556,-0.0033329230534799477,-0.023877669304275123,0.09740101331113918,32.08287849390507,-100.26678939585686,80.21211738781929
2024-09-23 09:11:16.768277,41.03,8.922606,-0.0032831742888682963,-0.023877669304275123,0.09740101331113918,32.08287849390507,-100.26678939585686,76.200527287817
2024-09-23 09:11:16.810917,41.03,8.922606,-0.0032831742888682963,-0.02352945757203875,0.09680407370509965,32.08287849390507,-92.24360919585227,80.21211738781929
2024-09-23 09:11:16.822351,41.03,8.922693,-0.0032831742888682963,-0.02352945757203875,0.09680407370509965,32.08287849390507,-92.24360919585227,80.21211738781929
2024-09-23 09:11:16.855221,41.03,8.922693,-0.003382661564999035,-0.023927417309398437,0.09635636444363997,32.08287849390507,-92.24360919585227,80.21211738781929
2024-09-23 09:11:16.866356,41.03,8.922693,-0.003382661564999035,-0.023927417309398437,0.09635636444363997,40.106058693909645,-88.23529758782387,84.22370748782159
2024-09-23 09:11:16.910221,41.03,8.922745,-0.0033329230534799477,-0.023230986250042305,0.09715228999426605,44.11764879391193,-92.24360919585227,84.22370748782159
2024-09-23 09:11:16.953305,41.03,8.922796,-0.0031836870127375577,-0.024076653729884996,0.09715228999426605,44.11764879391193,-92.24360919585227,84.22370748782159
2024-09-23 09:11:16.964294,41.03,8.922796,-0.0031836870127375577,-0.024076653729884996,0.09705279702197278,40.106058693909645,-92.24360919585227,84.22370748782159
2024-09-23 09:11:16.998341,41.03,8.922796,-0.0031836870127375577,-0.024076653729884996,0.09705279702197278,40.106058693909645,-104.27510100388527,84.22370748782159
2024-09-23 09:11:17.009931,41.03,8.922846,-0.0035318979854855937,-0.023429960042815445,0.09690356060148622,40.106058693909645,-104.27510100388527,76.200527287817
2024-09-23 09:11:17.053722,41.03,8.922897,-0.0031836870127375577,-0.023429960042815445,0.09690356060148622,28.07457030097246,-100.26678939585686,84.22370748782159
2024-09-23 09:11:17.065583,41.03,8.922897,-0.0031836870127375577,-0.023280723622328886,0.09690356060148622,28.07457030097246,-100.26678939585686,84.22370748782159
2024-09-23 09:11:17.098787,41.03,8.922897,-0.0031836870127375577,-0.023280723622328886,0.09665483728461309,36.09446859390736,-104.27510100388527,84.22370748782159
2024-09-23 09:11:17.110559,41.03,8.922948,-0.0033329230534799477,-0.023280723622328886,0.09665483728461309,36.09446859390736,-104.27510100388527,84.22370748782159
2024-09-23 09:11:17.152861,41.03,8.923035,-0.0033329230534799477,-0.02367869399252531,0.09695331012558621,40.106058693909645,-96.25519929585457,84.22370748782159
2024-09-23 09:11:17.194642,41.03,8.923035,-0.0036811340262279837,-0.02397715620066169,0.09695331012558621,40.106058693909645,-96.25519929585457,84.22370748782159
2024-09-23 09:11:17.206397,41.03,8.923035,-0.0036811340262279837,-0.02397715620066169,0.09725178296655933,36.09446859390736,-96.25519929585457,80.21211738781929
2024-09-23 09:11:17.250334,41.03,8.923086,-0.003382661564999035,-0.023877669304275123,0.09710254654607277,36.09446859390736,-104.27510100388527,80.21211738781929
2024-09-23 09:11:17.292263,41.03,8.923137,-0.003382661564999035,-0.023877669304275123,0.09710254654607277,36.09446859390736,-104.27510100388527,84.22370748782159
2024-09-23 09:11:17.303579,41.03,8.923137,-0.003780631555451287,-0.023181236725942318,0.09715228999426605,24.06297849342227,-104.27510100388527,84.22370748782159
2024-09-23 09:11:17.346610,41.03,8.923187,-0.003482159473966507,-0.024225890150371555,0.09620712802315341,24.06297849342227,-92.24360919585227,80.21211738781929
2024-09-23 09:11:17.389752,41.03,8.923187,-0.003482159473966507,-0.024225890150371555,0.09620712802315341,28.07457030097246,-96.25519929585457,80.21211738781929
2024-09-23 09:11:17.400980,41.03,8.923238,-0.0034324103296106863,-0.023778180888911878,0.09620712802315341,28.07457030097246,-96.25519929585457,76.200527287817
2024-09-23 09:11:17.442789,41.03,8.923289,-0.0034324103296106863,-0.023778180888911878,0.09725178296655933,32.08287849390507,-96.25519929585457,80.21211738781929
2024-09-23 09:11:17.454251,41.03,8.923289,-0.0030344509719951677,-0.023778180888911878,0.09725178296655933,32.08287849390507,-96.25519929585457,80.21211738781929
2024-09-23 09:11:17.487302,41.43,8.923289,-0.0030344509719951677,-0.023429960042815445,0.09789846602079214,32.08287849390507,-96.25519929585457,80.21211738781929
2024-09-23 09:11:17.498747,41.43,8.923376,-0.0030344509719951677,-0.023429960042815445,0.09789846602079214,40.106058693909645,-104.27510100388527,80.21211738781929
2024-09-23 09:11:17.541276,41.43,8.923376,-0.0033329230534799477,-0.02367869399252531,0.0966050877605131,44.11764879391193,-104.27510100388527,80.21211738781929
2024-09-23 09:11:17.552337,41.43,8.923376,-0.0033329230534799477,-0.02367869399252531,0.0966050877605131,44.11764879391193,-100.26678939585686,80.21211738781929
2024-09-23 09:11:17.584739,41.43,8.923427,-0.003482159473966507,-0.02367869399252531,0.0966050877605131,44.11764879391193,-100.26678939585686,80.21211738781929
2024-09-23 09:11:17.596281,41.43,8.923427,-0.003482159473966507,-0.02367869399252531,0.09720203344245934,36.09446859390736,-104.27510100388527,80.21211738781929
2024-09-23 09:11:17.639224,41.43,8.923478,-0.0033329230534799477,-0.02352945757203875,0.09695331012558621,32.08287849390507,-104.27510100388527,76.200527287817
2024-09-23 09:11:17.681926,41.43,8.923478,-0.0033329230534799477,-0.02352945757203875,0.09695331012558621,32.08287849390507,-100.26678939585686,76.200527287817
2024-09-23 09:11:17.693251,41.43,8.923529,-0.0030841997366068195,-0.02412639262114825,0.09725178296655933,32.08287849390507,-100.26678939585686,76.200527287817
2024-09-23 09:11:17.736754,41.43,8.923579,-0.0035816467500972456,-0.02397715620066169,0.09725178296655933,40.106058693909645,-100.26678939585686,80.21211738781929
2024-09-23 09:11:17.778720,41.43,8.923579,-0.0035816467500972456,-0.02397715620066169,0.0973512698629459,28.07457030097246,-100.26678939585686,80.21211738781929
2024-09-23 09:11:17.789967,41.43,8.92363,-0.0029847020175114316,-0.02397715620066169,0.0973512698629459,28.07457030097246,-100.26678939585686,80.21211738781929
2024-09-23 09:11:17.832465,41.43,8.92363,-0.0029847020175114316,-0.023877669304275123,0.09690356060148622,40.106058693909645,-100.26678939585686,80.21211738781929
2024-09-23 09:11:17.843957,41.43,8.923717,-0.0029847020175114316,-0.023877669304275123,0.09690356060148622,40.106058693909645,-100.26678939585686,80.21211738781929
2024-09-23 09:11:17.876364,41.43,8.923717,-0.0031836870127375577,-0.023579196463302005,0.09690356060148622,40.106058693909645,-100.26678939585686,80.21211738781929
2024-09-23 09:11:17.887793,41.43,8.923717,-0.0031836870127375577,-0.023579196463302005,0.09645586349183995,36.09446859390736,-96.25519929585457,84.22370748782159
2024-09-23 09:11:17.930944,41.43,8.923769,-0.003482159473966507,-0.023181236725942318,0.09720203344245934,40.106058693909645,-96.25519929585457,84.22370748782159
2024-09-23 09:11:17.943041,41.43,8.923769,-0.003482159473966507,-0.023181236725942318,0.09720203344245934,40.106058693909645,-100.26678939585686,84.22370748782159
2024-09-23 09:11:17.976148,41.43,8.923819,-0.0037308827908396356,-0.023181236725942318,0.09720203344245934,40.106058693909645,-100.26678939585686,76.200527287817
2024-09-23 09:11:17.987829,41.43,8.923819,-0.0037308827908396356,-0.023330473146428877,0.0970030596496862,48.12595698684454,-100.26678939585686,76.200527287817
2024-09-23 09:11:18.030080,41.43,8.92387,-0.0036811340262279837,-0.02362894446842532,0.09740101331113918,48.12595698684454,-96.25519929585457,80.21211738781929
2024-09-23 09:11:18.072017,41.43,8.92387,-0.0036811340262279837,-0.02362894446842532,0.09740101331113918,44.11764879391193,-92.24360919585227,80.21211738781929
2024-09-23 09:11:18.084071,41.43,8.923921,-0.002785727465249955,-0.023479709566915436,0.09740101331113918,44.11764879391193,-92.24360919585227,80.21211738781929
2024-09-23 09:11:18.127151,41.43,8.923971,-0.002785727465249955,-0.023479709566915436,0.09680407370509965,32.08287849390507,-96.25519929585457,80.21211738781929
2024-09-23 09:11:18.138781,41.43,8.923971,-0.0035318979854855937,-0.023479709566915436,0.09680407370509965,32.08287849390507,-96.25519929585457,80.21211738781929
2024-09-23 09:11:18.171107,41.43,8.923971,-0.0035318979854855937,-0.024026904205785005,0.09695331012558621,40.106058693909645,-96.25519929585457,80.21211738781929
2024-09-23 09:11:18.182851,41.43,8.923971,-0.0035318979854855937,-0.024026904205785005,0.09695331012558621,40.106058693909645,-96.25519929585457,76.200527287817
2024-09-23 09:11:18.226246,41.43,8.924058,-0.0036811340262279837,-0.023181236725942318,0.0966050877605131,48.12595698684454,-96.25519929585457,76.200527287817
2024-09-23 09:11:18.268857,41.43,8.92411,-0.0035816467500972456,-0.023181236725942318,0.0966050877605131,48.12595698684454,-96.25519929585457,80.21211738781929
2024-09-23 09:11:18.280568,41.43,8.92411,-0.0035816467500972456,-0.023927417309398437,0.0970030596496862,40.106058693909645,-96.25519929585457,80.21211738781929
2024-09-23 09:11:18.323448,41.43,8.924161,-0.0022385316871478774,-0.023181236725942318,0.09695331012558621,40.106058693909645,-104.27510100388527,80.21211738781929
2024-09-23 09:11:18.366138,41.43,8.924161,-0.0022385316871478774,-0.023181236725942318,0.09695331012558621,36.09446859390736,-104.27510100388527,76.200527287817
2024-09-23 09:11:18.377593,41.43,8.924212,-0.0030344509719951677,-0.024026904205785005,0.09695331012558621,36.09446859390736,-104.27510100388527,76.200527287817
2024-09-23 09:11:18.420409,41.43,8.924262,-0.002586742470023829,-0.024026904205785005,0.09750050628343246,28.07457030097246,-104.27510100388527,76.200527287817
2024-09-23 09:11:18.463651,41.43,8.924262,-0.002586742470023829,-0.023877669304275123,0.09715228999426605,40.106058693909645,-104.27510100388527,76.200527287817
2024-09-23 09:11:18.474836,41.43,8.924351,-0.002586742470023829,-0.023877669304275123,0.09715228999426605,40.106058693909645,-88.23529758782387,84.22370748782159
2024-09-23 09:11:18.518973,41.64,8.924351,-0.0029349636958644295,-0.023728432883788564,0.09670458680871308,40.106058693909645,-96.25519929585457,76.200527287817
2024-09-23 09:11:18.560889,41.64,8.924402,-0.0028354659767690416,-0.02313149783467906,0.09670458680871308,40.106058693909645,-96.25519929585457,76.200527287817
2024-09-23 09:11:18.572593,41.64,8.924402,-0.0028354659767690416,-0.02313149783467906,0.0970030596496862,40.106058693909645,-96.25519929585457,76.200527287817
2024-09-23 09:11:18.615503,41.64,8.924453,-0.0031339382481259063,-0.023728432883788564,0.09705279702197278,40.106058693909645,-96.25519929585457,80.21211738781929
2024-09-23 09:11:18.658274,41.64,8.924504,-0.0031339382481259063,-0.023728432883788564,0.09705279702197278,40.106058693909645,-96.25519929585457,84.22370748782159
2024-09-23 09:11:18.669342,41.64,8.924504,-0.0035816467500972456,-0.024076653729884996,0.09710254654607277,40.106058693909645,-96.25519929585457,84.22370748782159
2024-09-23 09:11:18.711742,41.64,8.924554,-0.0037308827908396356,-0.02367869399252531,0.09710254654607277,44.11764879391193,-96.25519929585457,80.21211738781929
2024-09-23 09:11:18.754586,41.64,8.924554,-0.0037308827908396356,-0.02367869399252531,0.09710254654607277,48.12595698684454,-96.25519929585457,80.21211738781929
2024-09-23 09:11:18.765693,41.64,8.924605,-0.0030344509719951677,-0.02367869399252531,0.09710254654607277,48.12595698684454,-92.24360919585227,80.21211738781929
2024-09-23 09:11:18.808239,41.64,8.924605,-0.0030344509719951677,-0.02367869399252531,0.09685382322919964,32.08287849390507,-92.24360919585227,80.21211738781929
2024-09-23 09:11:18.820467,41.64,8.924692,-0.0030344509719951677,-0.02367869399252531,0.09685382322919964,32.08287849390507,-92.24360919585227,80.21211738781929
2024-09-23 09:11:18.852949,41.64,8.924692,-0.0031339382481259063,-0.024076653729884996,0.09715228999426605,32.08287849390507,-92.24360919585227,80.21211738781929
2024-09-23 09:11:18.864072,41.64,8.924692,-0.0031339382481259063,-0.024076653729884996,0.09715228999426605,32.08287849390507,-92.24360919585227,80.21211738781929
2024-09-23 09:11:18.906906,41.64,8.924744,-0.003631395514708897,-0.02303200030545576,0.0973512698629459,28.07457030097246,-96.25519929585457,80.21211738781929
2024-09-23 09:11:18.950173,41.64,8.924794,-0.003631395514708897,-0.02303200030545576,0.0973512698629459,28.07457030097246,-96.25519929585457,80.21211738781929
2024-09-23 09:11:18.961768,41.64,8.924794,-0.0038801188315820256,-0.023778180888911878,0.09640611396773996,40.106058693909645,-96.25519929585457,80.21211738781929
2024-09-23 09:11:19.005351,41.64,8.924845,-0.0035318979854855937,-0.02338022115155219,0.09670458680871308,40.106058693909645,-92.24360919585227,80.21211738781929
2024-09-23 09:11:19.048433,41.64,8.924845,-0.0035318979854855937,-0.02338022115155219,0.09670458680871308,36.09446859390736,-92.24360919585227,80.21211738781929
2024-09-23 09:11:19.059962,41.64,8.924896,-0.003233425524256645,-0.023877669304275123,0.09670458680871308,36.09446859390736,-92.24360919585227,80.21211738781929
2024-09-23 09:11:19.102286,41.64,8.924946,-0.003482159473966507,-0.023877669304275123,0.09705279702197278,36.09446859390736,-96.25519929585457,80.21211738781929
2024-09-23 09:11:19.144210,41.64,8.924946,-0.003482159473966507,-0.023330473146428877,0.09710254654607277,36.09446859390736,-96.25519929585457,80.21211738781929
2024-09-23 09:11:19.155559,41.64,8.925033,-0.003482159473966507,-0.023330473146428877,0.09710254654607277,36.09446859390736,-104.27510100388527,80.21211738781929
2024-09-23 09:11:19.197719,41.64,8.925033,-0.0029847020175114316,-0.023330473146428877,0.09715228999426605,44.11764879391193,-92.24360919585227,80.21211738781929
2024-09-23 09:11:19.209781,41.64,8.925033,-0.0029847020175114316,-0.023330473146428877,0.09715228999426605,44.11764879391193,-92.24360919585227,80.21211738781929
2024-09-23 09:11:19.242183,41.64,8.925085,-0.0028354659767690416,-0.023330473146428877,0.09715228999426605,44.11764879391193,-92.24360919585227,80.21211738781929
2024-09-23 09:11:19.253754,41.64,8.925085,-0.0028354659767690416,-0.023827930413011865,0.09710254654607277,40.106058693909645,-92.24360919585227,80.21211738781929
2024-09-23 09:11:19.296419,41.64,8.925136,-0.0031836870127375577,-0.02352945757203875,0.09670458680871308,36.09446859390736,-92.24360919585227,76.200527287817
2024-09-23 09:11:19.339077,41.64,8.925136,-0.0031836870127375577,-0.02352945757203875,0.09670458680871308,36.09446859390736,-100.26678939585686,80.21211738781929
2024-09-23 09:11:19.350503,41.64,8.925186,-0.0031339382481259063,-0.02362894446842532,0.09764974270391902,36.09446859390736,-100.26678939585686,80.21211738781929
2024-09-23 09:11:19.393666,41.64,8.925237,-0.0031339382481259063,-0.02362894446842532,0.09764974270391902,36.09446859390736,-96.25519929585457,76.200527287817
2024-09-23 09:11:19.406017,41.64,8.925237,-0.0033329230534799477,-0.023877669304275123,0.09764974270391902,36.09446859390736,-96.25519929585457,76.200527287817
2024-09-23 09:11:19.439437,41.64,8.925237,-0.0033329230534799477,-0.023877669304275123,0.09715228999426605,40.106058693909645,-96.25519929585457,76.200527287817
2024-09-23 09:11:19.452092,41.64,8.925288,-0.0031836870127375577,-0.023877669304275123,0.09715228999426605,40.106058693909645,-96.25519929585457,76.200527287817
2024-09-23 09:11:19.486935,41.64,8.925288,-0.0031836870127375577,-0.02397715620066169,0.09759999317981902,40.106058693909645,-96.25519929585457,76.200527287817
2024-09-23 09:11:19.498564,41.64,8.925375,-0.0031836870127375577,-0.02397715620066169,0.09759999317981902,44.11764879391193,-96.25519929585457,84.22370748782159
2024-09-23 09:11:19.540430,41.7,8.925375,-0.003233425524256645,-0.02352945757203875,0.09774922960030558,40.106058693909645,-96.25519929585457,80.21211738781929
2024-09-23 09:11:19.582968,41.7,8.925426,-0.0028354659767690416,-0.02352945757203875,0.09774922960030558,40.106058693909645,-96.25519929585457,80.21211738781929
2024-09-23 09:11:19.594480,41.7,8.925426,-0.0028354659767690416,-0.023330473146428877,0.09685382322919964,36.09446859390736,-100.26678939585686,80.21211738781929
2024-09-23 09:11:19.637701,41.7,8.925477,-0.0030344509719951677,-0.023579196463302005,0.0970030596496862,32.08287849390507,-100.26678939585686,80.21211738781929
2024-09-23 09:11:19.680448,41.7,8.925477,-0.0030344509719951677,-0.023579196463302005,0.0970030596496862,32.08287849390507,-104.27510100388527,80.21211738781929
2024-09-23 09:11:19.691745,41.7,8.925528,-0.0035816467500972456,-0.023877669304275123,0.0976994861521123,32.08287849390507,-104.27510100388527,80.21211738781929
2024-09-23 09:11:19.734647,41.7,8.925578,-0.002437506429281439,-0.023877669304275123,0.0976994861521123,36.09446859390736,-92.24360919585227,80.21211738781929
2024-09-23 09:11:19.746592,41.7,8.925578,-0.002437506429281439,-0.02362894446842532,0.0976994861521123,36.09446859390736,-92.24360919585227,80.21211738781929
2024-09-23 09:11:19.778840,41.7,8.925578,-0.002437506429281439,-0.02362894446842532,0.09680407370509965,36.09446859390736,-96.25519929585457,80.21211738781929
2024-09-23 09:11:19.791112,41.7,8.925629,-0.0033329230534799477,-0.02362894446842532,0.09680407370509965,36.09446859390736,-96.25519929585457,80.21211738781929
2024-09-23 09:11:19.834444,41.7,8.925716,-0.0033329230534799477,-0.023579196463302005,0.09690356060148622,44.11764879391193,-104.27510100388527,84.22370748782159
2024-09-23 09:11:19.877337,41.7,8.925716,-0.003631395514708897,-0.024176140626271565,0.09715228999426605,44.11764879391193,-104.27510100388527,84.22370748782159
2024-09-23 09:11:19.888899,41.7,8.925716,-0.003631395514708897,-0.024176140626271565,0.09715228999426605,40.106058693909645,-104.27510100388527,76.200527287817
2024-09-23 09:11:19.931754,41.7,8.925768,-0.0037308827908396356,-0.02367869399252531,0.09655535038822652,40.106058693909645,-92.24360919585227,76.200527287817
2024-09-23 09:11:19.974812,41.7,8.925819,-0.002636491424507565,-0.02367869399252531,0.09655535038822652,40.106058693909645,-92.24360919585227,80.21211738781929
2024-09-23 09:11:19.986423,41.7,8.925819,-0.002636491424507565,-0.02338022115155219,0.09710254654607277,40.106058693909645,-92.24360919585227,80.21211738781929
2024-09-23 09:11:20.030217,41.7,8.925869,-0.0035318979854855937,-0.023479709566915436,0.09695331012558621,40.106058693909645,-100.26678939585686,80.21211738781929
2024-09-23 09:11:20.072647,41.7,8.925869,-0.0035318979854855937,-0.023479709566915436,0.09695331012558621,36.09446859390736,-100.26678939585686,80.21211738781929
2024-09-23 09:11:20.083552,41.7,8.92592,-0.0030344509719951677,-0.023479709566915436,0.09695331012558621,36.09446859390736,-100.26678939585686,80.21211738781929
2024-09-23 09:11:20.126821,41.7,8.925971,-0.0031836870127375577,-0.023479709566915436,0.09690356060148622,36.09446859390736,-108.28669110388756,76.200527287817
2024-09-23 09:11:20.169724,41.7,8.925971,-0.0031836870127375577,-0.023778180888911878,0.09695331012558621,36.09446859390736,-108.28669110388756,76.200527287817
2024-09-23 09:11:20.181703,41.7,8.926057,-0.0031836870127375577,-0.023778180888911878,0.09695331012558621,44.11764879391193,-92.24360919585227,80.21211738781929
2024-09-23 09:11:20.223830,41.7,8.926057,-0.003631395514708897,-0.023479709566915436,0.09705279702197278,44.11764879391193,-92.24360919585227,80.21211738781929
2024-09-23 09:11:20.266531,41.7,8.926109,-0.003631395514708897,-0.02352945757203875,0.09705279702197278,44.11764879391193,-92.24360919585227,80.21211738781929
2024-09-23 09:11:20.277775,41.7,8.926109,-0.003631395514708897,-0.02352945757203875,0.09680407370509965,44.11764879391193,-96.25519929585457,80.21211738781929
2024-09-23 09:11:20.320450,41.7,8.926159,-0.0029349636958644295,-0.023728432883788564,0.09705279702197278,48.12595698684454,-96.25519929585457,76.200527287817
2024-09-23 09:11:20.362730,41.7,8.926159,-0.0029349636958644295,-0.023728432883788564,0.09705279702197278,48.12595698684454,-96.25519929585457,80.21211738781929
2024-09-23 09:11:20.375036,41.7,8.92621,-0.003233425524256645,-0.02352945757203875,0.09670458680871308,48.12595698684454,-96.25519929585457,80.21211738781929
2024-09-23 09:11:20.417544,41.7,8.92621,-0.003233425524256645,-0.02352945757203875,0.09670458680871308,40.106058693909645,-96.25519929585457,80.21211738781929
2024-09-23 09:11:20.460739,41.7,8.926261,-0.003233425524256645,-0.02352945757203875,0.09670458680871308,40.106058693909645,-96.25519929585457,76.200527287817
2024-09-23 09:11:20.471907,41.7,8.926261,-0.003233425524256645,-0.02352945757203875,0.09680407370509965,40.106058693909645,-96.25519929585457,76.200527287817
2024-09-23 09:11:20.514655,41.7,8.926311,-0.0031339382481259063,-0.02367869399252531,0.09680407370509965,40.106058693909645,-92.24360919585227,80.21211738781929
2024-09-23 09:11:20.526798,41.7,8.926311,-0.0031339382481259063,-0.02367869399252531,0.09740101331113918,40.106058693909645,-92.24360919585227,80.21211738781929
2024-09-23 09:11:20.558768,41.52,8.926311,-0.0031339382481259063,-0.02367869399252531,0.09740101331113918,40.106058693909645,-96.25519929585457,80.21211738781929
2024-09-23 09:11:20.570077,41.52,8.926398,-0.0038303700669703737,-0.023927417309398437,0.09740101331113918,40.106058693909645,-96.25519929585457,84.22370748782159
2024-09-23 09:11:20.612516,41.52,8.92645,-0.0030344509719951677,-0.023927417309398437,0.09675432418099966,36.09446859390736,-96.25519929585457,76.200527287817
2024-09-23 09:11:20.655622,41.52,8.92645,-0.0030344509719951677,-0.02313149783467906,0.09690356060148622,36.09446859390736,-96.25519929585457,76.200527287817
2024-09-23 09:11:20.666656,41.52,8.926545,-0.0030344509719951677,-0.02313149783467906,0.09690356060148622,36.09446859390736,-96.25519929585457,80.21211738781929
2024-09-23 09:11:20.708758,41.52,8.926545,-0.0033329230534799477,-0.023479709566915436,0.09680407370509965,36.09446859390736,-96.25519929585457,80.21211738781929
2024-09-23 09:11:20.720006,41.52,8.926545,-0.0033329230534799477,-0.023479709566915436,0.09680407370509965,36.09446859390736,-96.25519929585457,80.21211738781929
2024-09-23 09:11:20.754202,41.52,8.926596,-0.0033329230534799477,-0.023479709566915436,0.09680407370509965,36.09446859390736,-96.25519929585457,80.21211738781929
2024-09-23 09:11:20.765406,41.52,8.926596,-0.0033329230534799477,-0.023230986250042305,0.09740101331113918,32.08287849390507,-100.26678939585686,80.21211738781929
2024-09-23 09:11:20.807593,41.52,8.926647,-0.0035318979854855937,-0.024275627522658133,0.09690356060148622,32.08287849390507,-100.26678939585686,80.21211738781929
2024-09-23 09:11:20.819206,41.52,8.926647,-0.0035318979854855937,-0.024275627522658133,0.09690356060148622,40.106058693909645,-100.26678939585686,80.21211738781929
2024-09-23 09:11:20.850834,41.52,8.926647,-0.0035318979854855937,-0.024275627522658133,0.09690356060148622,40.106058693909645,-96.25519929585457,80.21211738781929
2024-09-23 09:11:20.903966,41.52,8.926698,-0.002586742470023829,-0.023827930413011865,0.09725178296655933,40.106058693909645,-96.25519929585457,80.21211738781929
2024-09-23 09:11:20.916581,41.52,8.926698,-0.002586742470023829,-0.023827930413011865,0.09725178296655933,40.106058693909645,-96.25519929585457,80.21211738781929
2024-09-23 09:11:20.948476,41.52,8.926748,-0.002586742470023829,-0.023827930413011865,0.09725178296655933,40.106058693909645,-96.25519929585457,84.22370748782159
2024-09-23 09:11:20.960360,41.52,8.926748,-0.0038303700669703737,-0.023927417309398437,0.09695331012558621,40.106058693909645,-96.25519929585457,84.22370748782159
2024-09-23 09:11:21.003013,41.52,8.926799,-0.0031836870127375577,-0.02367869399252531,0.09640611396773996,40.106058693909645,-96.25519929585457,80.21211738781929
2024-09-23 09:11:21.045382,41.52,8.926799,-0.0031836870127375577,-0.02367869399252531,0.09640611396773996,32.08287849390507,-104.27510100388527,80.21211738781929
2024-09-23 09:11:21.056359,41.52,8.926886,-0.003233425524256645,-0.024026904205785005,0.09640611396773996,32.08287849390507,-104.27510100388527,84.22370748782159
2024-09-23 09:11:21.099224,41.52,8.926886,-0.003233425524256645,-0.024026904205785005,0.09725178296655933,36.09446859390736,-108.28669110388756,80.21211738781929
2024-09-23 09:11:21.111203,41.52,8.926937,-0.0029847020175114316,-0.024026904205785005,0.09725178296655933,36.09446859390736,-108.28669110388756,80.21211738781929
2024-09-23 09:11:21.143223,41.52,8.926937,-0.0029847020175114316,-0.023728432883788564,0.09695331012558621,36.09446859390736,-108.28669110388756,80.21211738781929
2024-09-23 09:11:21.154457,41.52,8.927032,-0.0029847020175114316,-0.023728432883788564,0.09695331012558621,36.09446859390736,-96.25519929585457,80.21211738781929
2024-09-23 09:11:21.197647,41.52,8.927032,-0.0029847020175114316,-0.022982261414192504,0.09715228999426605,32.08287849390507,-96.25519929585457,80.21211738781929
2024-09-23 09:11:21.240353,41.52,8.927084,-0.003979606107712764,-0.022982261414192504,0.09715228999426605,32.08287849390507,-96.25519929585457,80.21211738781929
2024-09-23 09:11:21.251819,41.52,8.927084,-0.003979606107712764,-0.023230986250042305,0.09740101331113918,44.11764879391193,-96.25519929585457,80.21211738781929
2024-09-23 09:11:21.295138,41.52,8.927134,-0.0028852147413806935,-0.023778180888911878,0.09690356060148622,40.106058693909645,-96.25519929585457,80.21211738781929
2024-09-23 09:11:21.337774,41.52,8.927134,-0.0028852147413806935,-0.023778180888911878,0.09690356060148622,40.106058693909645,-104.27510100388527,80.21211738781929
2024-09-23 09:11:21.349291,41.52,8.927185,-0.0034324103296106863,-0.023877669304275123,0.09725178296655933,40.106058693909645,-104.27510100388527,80.21211738781929
2024-09-23 09:11:21.392355,41.52,8.927185,-0.0034324103296106863,-0.023877669304275123,0.09725178296655933,36.09446859390736,-100.26678939585686,80.21211738781929
2024-09-23 09:11:21.434258,41.52,8.927185,-0.0034324103296106863,-0.023877669304275123,0.09725178296655933,36.09446859390736,-100.26678939585686,80.21211738781929
2024-09-23 09:11:21.445829,41.52,8.927236,-0.0032831742888682963,-0.02362894446842532,0.09695331012558621,44.11764879391193,-100.26678939585686,80.21211738781929
2024-09-23 09:11:21.540213,41.52,8.927286,-0.003482159473966507,-0.023579196463302005,0.0973015264147526,44.11764879391193,-104.27510100388527,80.21211738781929
2024-09-23 09:11:21.583896,41.35,8.927286,-0.003482159473966507,-0.023579196463302005,0.0973015264147526,48.12595698684454,-96.25519929585457,80.21211738781929
2024-09-23 09:11:21.595660,41.35,8.927373,-0.0033329230534799477,-0.023330473146428877,0.0973015264147526,48.12595698684454,-96.25519929585457,80.21211738781929
2024-09-23 09:11:21.638113,41.35,8.927425,-0.0033329230534799477,-0.023330473146428877,0.09680407370509965,32.08287849390507,-92.24360919585227,80.21211738781929
2024-09-23 09:11:21.680448,41.35,8.927425,-0.0033329230534799477,-0.023778180888911878,0.09680407370509965,40.106058693909645,-92.24360919585227,80.21211738781929
2024-09-23 09:11:21.691999,41.35,8.927476,-0.0033329230534799477,-0.023778180888911878,0.09680407370509965,40.106058693909645,-96.25519929585457,80.21211738781929
2024-09-23 09:11:21.735164,41.35,8.927476,-0.0033329230534799477,-0.02352945757203875,0.09774922960030558,32.08287849390507,-108.28669110388756,76.200527287817
2024-09-23 09:11:21.777022,41.35,8.927618,-0.003929857343101113,-0.02352945757203875,0.09774922960030558,32.08287849390507,-108.28669110388756,76.200527287817
2024-09-23 09:11:21.788255,41.35,8.927618,-0.003929857343101113,-0.02362894446842532,0.09705279702197278,36.09446859390736,-100.26678939585686,76.200527287817
2024-09-23 09:11:21.831957,41.35,8.92767,-0.0025369937054121774,-0.023778180888911878,0.09705279702197278,36.09446859390736,-100.26678939585686,84.22370748782159
2024-09-23 09:11:21.926289,41.35,8.92767,-0.0025369937054121774,-0.023778180888911878,0.09745075675933246,40.106058693909645,-96.25519929585457,84.22370748782159
2024-09-23 09:11:21.969778,41.35,8.92772,-0.0025369937054121774,-0.023778180888911878,0.09745075675933246,40.106058693909645,-96.25519929585457,84.22370748782159
2024-09-23 09:11:21.980882,41.35,8.92772,-0.0034324103296106863,-0.02367869399252531,0.09685382322919964,48.12595698684454,-100.26678939585686,84.22370748782159
2024-09-23 09:11:22.024141,41.35,8.927771,-0.0026862297461545674,-0.024026904205785005,0.09685382322919964,48.12595698684454,-100.26678939585686,80.21211738781929
2024-09-23 09:11:22.035951,41.35,8.927771,-0.0026862297461545674,-0.024026904205785005,0.09725178296655933,36.09446859390736,-100.26678939585686,80.21211738781929
2024-09-23 09:11:22.068883,41.35,8.927771,-0.0026862297461545674,-0.024026904205785005,0.09725178296655933,36.09446859390736,-92.24360919585227,80.21211738781929
2024-09-23 09:11:22.080432,41.35,8.927821,-0.0030841997366068195,-0.023479709566915436,0.09690356060148622,36.09446859390736,-92.24360919585227,80.21211738781929
2024-09-23 09:11:22.123771,41.35,8.92791,-0.0030841997366068195,-0.023479709566915436,0.09690356060148622,36.09446859390736,-100.26678939585686,76.200527287817
2024-09-23 09:11:22.135435,41.35,8.92791,-0.0030841997366068195,-0.023280723622328886,0.09690356060148622,36.09446859390736,-100.26678939585686,76.200527287817
2024-09-23 09:11:22.167756,41.35,8.92791,-0.0030841997366068195,-0.023280723622328886,0.0973512698629459,36.09446859390736,-88.23529758782387,76.200527287817
2024-09-23 09:11:22.179224,41.35,8.928009,-0.0030841997366068195,-0.023280723622328886,0.0973512698629459,36.09446859390736,-88.23529758782387,80.21211738781929
2024-09-23 09:11:22.221695,41.35,8.928105,-0.0030841997366068195,-0.023280723622328886,0.09695331012558621,32.08287849390507,-92.24360919585227,76.200527287817
2024-09-23 09:11:22.264189,41.35,8.928105,-0.003233425524256645,-0.023778180888911878,0.09695331012558621,32.08287849390507,-92.24360919585227,76.200527287817
2024-09-23 09:11:22.275427,41.35,8.928105,-0.003233425524256645,-0.023778180888911878,0.0973015264147526,32.08287849390507,-96.25519929585457,72.1922225099802
2024-09-23 09:11:22.317685,41.35,8.928156,-0.0029847020175114316,-0.023877669304275123,0.09715228999426605,32.08287849390507,-96.25519929585457,72.1922225099802
2024-09-23 09:11:22.329771,41.35,8.928156,-0.0029847020175114316,-0.023877669304275123,0.09715228999426605,32.08287849390507,-96.25519929585457,72.1922225099802
2024-09-23 09:11:22.361911,41.35,8.928207,-0.0029847020175114316,-0.023877669304275123,0.09715228999426605,32.08287849390507,-96.25519929585457,84.22370748782159
2024-09-23 09:11:22.373081,41.35,8.928207,-0.003233425524256645,-0.023778180888911878,0.09685382322919964,40.106058693909645,-96.25519929585457,84.22370748782159
2024-09-23 09:11:22.415639,41.35,8.928258,-0.003233425524256645,-0.02397715620066169,0.09685382322919964,40.106058693909645,-96.25519929585457,84.22370748782159
2024-09-23 09:11:22.427627,41.35,8.928258,-0.003233425524256645,-0.02397715620066169,0.09715228999426605,40.106058693909645,-96.25519929585457,84.22370748782159
2024-09-23 09:11:22.459285,41.35,8.928258,-0.003233425524256645,-0.02397715620066169,0.09715228999426605,40.106058693909645,-100.26678939585686,84.22370748782159
2024-09-23 09:11:22.470701,41.35,8.928308,-0.0033329230534799477,-0.02352945757203875,0.09715228999426605,40.106058693909645,-100.26678939585686,80.21211738781929
2024-09-23 09:11:22.512553,41.35,8.928359,-0.0033329230534799477,-0.02352945757203875,0.09710254654607277,40.106058693909645,-88.23529758782387,96.25519929585457
2024-09-23 09:11:22.524345,41.35,8.928359,-0.003979606107712764,-0.02352945757203875,0.09710254654607277,40.106058693909645,-88.23529758782387,96.25519929585457
2024-09-23 09:11:22.557224,41.35,8.928359,-0.003979606107712764,-0.022982261414192504,0.09650560086412653,40.106058693909645,-88.23529758782387,96.25519929585457
2024-09-23 09:11:22.568770,41.35,8.928446,-0.003979606107712764,-0.022982261414192504,0.09650560086412653,40.106058693909645,-96.25519929585457,76.200527287817
2024-09-23 09:11:22.611457,41.4,8.928446,-0.003233425524256645,-0.023877669304275123,0.09710254654607277,32.08287849390507,-96.25519929585457,80.21211738781929
2024-09-23 09:11:22.654473,41.4,8.928497,-0.0029349636958644295,-0.023877669304275123,0.09710254654607277,32.08287849390507,-96.25519929585457,80.21211738781929
2024-09-23 09:11:22.666160,41.4,8.928497,-0.0029349636958644295,-0.023728432883788564,0.09740101331113918,36.09446859390736,-100.26678939585686,80.21211738781929
2024-09-23 09:11:22.708481,41.4,8.928548,-0.003382661564999035,-0.023280723622328886,0.09725178296655933,36.09446859390736,-100.26678939585686,80.21211738781929
2024-09-23 09:11:22.720392,41.4,8.928548,-0.003382661564999035,-0.023280723622328886,0.09725178296655933,36.09446859390736,-100.26678939585686,80.21211738781929
2024-09-23 09:11:22.752866,41.4,8.928599,-0.003382661564999035,-0.023280723622328886,0.09725178296655933,36.09446859390736,-96.25519929585457,76.200527287817
2024-09-23 09:11:22.764646,41.4,8.928599,-0.0029847020175114316,-0.023877669304275123,0.09710254654607277,36.09446859390736,-96.25519929585457,76.200527287817
2024-09-23 09:11:22.807505,41.4,8.928649,-0.0032831742888682963,-0.02352945757203875,0.09710254654607277,28.07457030097246,-96.25519929585457,84.22370748782159
2024-09-23 09:11:22.850320,41.4,8.928649,-0.0032831742888682963,-0.02352945757203875,0.09695331012558621,32.08287849390507,-100.26678939585686,84.22370748782159
2024-09-23 09:11:22.861339,41.4,8.9287,-0.0028354659767690416,-0.02352945757203875,0.09695331012558621,32.08287849390507,-100.26678939585686,84.22370748782159
2024-09-23 09:11:22.903772,41.4,8.928787,-0.0028354659767690416,-0.024026904205785005,0.0970030596496862,44.11764879391193,-100.26678939585686,80.21211738781929
2024-09-23 09:11:22.946834,41.4,8.928787,-0.002785727465249955,-0.023579196463302005,0.0970030596496862,44.11764879391193,-100.26678939585686,80.21211738781929
2024-09-23 09:11:22.958328,41.4,8.928787,-0.002785727465249955,-0.023579196463302005,0.09690356060148622,32.08287849390507,-100.26678939585686,84.22370748782159
2024-09-23 09:11:23.001254,41.4,8.928839,-0.003780631555451287,-0.023479709566915436,0.09720203344245934,44.11764879391193,-100.26678939585686,84.22370748782159
2024-09-23 09:11:23.044159,41.4,8.928889,-0.003780631555451287,-0.023479709566915436,0.09720203344245934,44.11764879391193,-100.26678939585686,84.22370748782159
2024-09-23 09:11:23.055789,41.4,8.928889,-0.0031339382481259063,-0.02397715620066169,0.09685382322919964,36.09446859390736,-100.26678939585686,84.22370748782159
2024-09-23 09:11:23.098453,41.4,8.928941,-0.003382661564999035,-0.02397715620066169,0.09685382322919964,36.09446859390736,-92.24360919585227,80.21211738781929
2024-09-23 09:11:23.109835,41.4,8.928941,-0.003382661564999035,-0.023927417309398437,0.09690356060148622,36.09446859390736,-92.24360919585227,80.21211738781929
2024-09-23 09:11:23.141609,41.4,8.928941,-0.003382661564999035,-0.023927417309398437,0.09690356060148622,36.09446859390736,-92.24360919585227,80.21211738781929
2024-09-23 09:11:23.153179,41.4,8.928991,-0.0032831742888682963,-0.022982261414192504,0.09690356060148622,36.09446859390736,-100.26678939585686,80.21211738781929
2024-09-23 09:11:23.197842,41.4,8.929042,-0.0032831742888682963,-0.022982261414192504,0.0973512698629459,32.08287849390507,-96.25519929585457,80.21211738781929
2024-09-23 09:11:23.241038,41.4,8.929042,-0.0032831742888682963,-0.023479709566915436,0.0966050877605131,36.09446859390736,-96.25519929585457,80.21211738781929
2024-09-23 09:11:23.252123,41.4,8.929128,-0.0032831742888682963,-0.023479709566915436,0.0966050877605131,36.09446859390736,-104.27510100388527,76.200527287817
2024-09-23 09:11:23.294721,41.4,8.929128,-0.0036811340262279837,-0.023927417309398437,0.09715228999426605,32.08287849390507,-100.26678939585686,80.21211738781929
2024-09-23 09:11:23.337850,41.4,8.92918,-0.0027359787006383035,-0.023479709566915436,0.09715228999426605,32.08287849390507,-100.26678939585686,80.21211738781929
2024-09-23 09:11:23.349124,41.4,8.92918,-0.0027359787006383035,-0.023479709566915436,0.09690356060148622,36.09446859390736,-100.26678939585686,80.21211738781929
2024-09-23 09:11:23.392888,41.4,8.929231,-0.0028354659767690416,-0.024225890150371555,0.09670458680871308,36.09446859390736,-100.26678939585686,76.200527287817
2024-09-23 09:11:23.434936,41.4,8.929231,-0.0028354659767690416,-0.024225890150371555,0.09670458680871308,36.09446859390736,-100.26678939585686,76.200527287817
2024-09-23 09:11:23.447500,41.4,8.929281,-0.0033329230534799477,-0.023877669304275123,0.09645586349183995,36.09446859390736,-100.26678939585686,76.200527287817
2024-09-23 09:11:23.490253,41.4,8.929332,-0.003382661564999035,-0.023778180888911878,0.09645586349183995,48.12595698684454,-100.26678939585686,76.200527287817
2024-09-23 09:11:23.533967,41.4,8.929332,-0.003382661564999035,-0.023778180888911878,0.09675432418099966,44.11764879391193,-96.25519929585457,76.200527287817
2024-09-23 09:11:23.545385,41.4,8.929383,-0.0034324103296106863,-0.023778180888911878,0.09675432418099966,44.11764879391193,-96.25519929585457,84.22370748782159
2024-09-23 09:11:23.588995,41.4,8.92947,-0.0034324103296106863,-0.024026904205785005,0.09640611396773996,36.09446859390736,-100.26678939585686,80.21211738781929
2024-09-23 09:11:23.632193,40.94,8.92947,-0.0031836870127375577,-0.023579196463302005,0.09690356060148622,40.106058693909645,-100.26678939585686,80.21211738781929
2024-09-23 09:11:23.643610,40.94,8.92947,-0.0031836870127375577,-0.023579196463302005,0.09690356060148622,40.106058693909645,-96.25519929585457,84.22370748782159
2024-09-23 09:11:23.686279,40.94,8.929521,-0.0030344509719951677,-0.02338022115155219,0.09665483728461309,36.09446859390736,-100.26678939585686,84.22370748782159
2024-09-23 09:11:23.730227,40.94,8.929572,-0.0031836870127375577,-0.02338022115155219,0.09665483728461309,36.09446859390736,-100.26678939585686,80.21211738781929
2024-09-23 09:11:23.741806,40.94,8.929572,-0.0031836870127375577,-0.023728432883788564,0.09685382322919964,44.11764879391193,-100.26678939585686,80.21211738781929
2024-09-23 09:11:23.773601,40.94,8.929572,-0.0031836870127375577,-0.023728432883788564,0.09685382322919964,44.11764879391193,-96.25519929585457,80.21211738781929
2024-09-23 09:11:23.784635,40.94,8.929623,-0.0029349636958644295,-0.023429960042815445,0.09665483728461309,44.11764879391193,-96.25519929585457,72.1922225099802
2024-09-23 09:11:23.828656,40.94,8.929673,-0.0029349636958644295,-0.023429960042815445,0.09665483728461309,40.106058693909645,-100.26678939585686,76.200527287817
2024-09-23 09:11:23.841006,40.94,8.929673,-0.0028852147413806935,-0.02397715620066169,0.09665483728461309,40.106058693909645,-100.26678939585686,76.200527287817
2024-09-23 09:11:23.873471,40.94,8.929673,-0.0028852147413806935,-0.02397715620066169,0.09755024973162574,36.09446859390736,-100.26678939585686,76.200527287817
2024-09-23 09:11:23.885629,40.94,8.929724,-0.004128842528199323,-0.02397715620066169,0.09755024973162574,36.09446859390736,-100.26678939585686,80.21211738781929
2024-09-23 09:11:23.928665,40.94,8.929811,-0.004128842528199323,-0.023429960042815445,0.0970030596496862,44.11764879391193,-92.24360919585227,76.200527287817
2024-09-23 09:11:23.970751,40.94,8.929811,-0.0034324103296106863,-0.023479709566915436,0.0970030596496862,44.11764879391193,-92.24360919585227,76.200527287817
2024-09-23 09:11:23.983087,40.94,8.929811,-0.0034324103296106863,-0.023479709566915436,0.09690356060148622,36.09446859390736,-96.25519929585457,76.200527287817
2024-09-23 09:11:24.025817,40.94,8.929862,-0.0031339382481259063,-0.02367869399252531,0.09685382322919964,48.12595698684454,-96.25519929585457,76.200527287817
2024-09-23 09:11:24.037298,40.94,8.929862,-0.0031339382481259063,-0.02367869399252531,0.09685382322919964,48.12595698684454,-96.25519929585457,76.200527287817
2024-09-23 09:11:24.069914,40.94,8.929913,-0.003233425524256645,-0.02367869399252531,0.09685382322919964,48.12595698684454,-96.25519929585457,80.21211738781929
2024-09-23 09:11:24.081657,40.94,8.929913,-0.003233425524256645,-0.02308174982955575,0.09645586349183995,40.106058693909645,-96.25519929585457,80.21211738781929
2024-09-23 09:11:24.124456,40.94,8.929964,-0.003233425524256645,-0.023579196463302005,0.09645586349183995,40.106058693909645,-100.26678939585686,80.21211738781929
2024-09-23 09:11:24.167232,40.94,8.929964,-0.003233425524256645,-0.023579196463302005,0.09715228999426605,36.09446859390736,-100.26678939585686,80.21211738781929
2024-09-23 09:11:24.178798,40.94,8.930014,-0.0030841997366068195,-0.023579196463302005,0.09715228999426605,36.09446859390736,-100.26678939585686,76.200527287817
2024-09-23 09:11:24.221905,40.94,8.930065,-0.0030841997366068195,-0.02367869399252531,0.0973015264147526,36.09446859390736,-100.26678939585686,80.21211738781929
2024-09-23 09:11:24.264474,40.94,8.930065,-0.003382661564999035,-0.02362894446842532,0.09695331012558621,36.09446859390736,-100.26678939585686,80.21211738781929
2024-09-23 09:11:24.275631,40.94,8.930065,-0.003382661564999035,-0.02362894446842532,0.09695331012558621,44.11764879391193,-96.25519929585457,76.200527287817
2024-09-23 09:11:24.318816,40.94,8.930152,-0.0030841997366068195,-0.023479709566915436,0.09645586349183995,44.11764879391193,-100.26678939585686,76.200527287817
2024-09-23 09:11:24.361368,40.94,8.930203,-0.0029349636958644295,-0.023479709566915436,0.09645586349183995,44.11764879391193,-100.26678939585686,76.200527287817
2024-09-23 09:11:24.373025,40.94,8.930203,-0.0029349636958644295,-0.024026904205785005,0.09705279702197278,36.09446859390736,-100.26678939585686,76.200527287817
2024-09-23 09:11:24.418426,40.94,8.930254,-0.0027359787006383035,-0.023280723622328886,0.0966050877605131,36.09446859390736,-96.25519929585457,76.200527287817
2024-09-23 09:11:24.461187,40.94,8.930305,-0.0027359787006383035,-0.023280723622328886,0.0966050877605131,40.106058693909645,-96.25519929585457,84.22370748782159
2024-09-23 09:11:24.472402,40.94,8.930305,-0.0029847020175114316,-0.023579196463302005,0.0966050877605131,40.106058693909645,-96.25519929585457,84.22370748782159
2024-09-23 09:11:24.506920,40.94,8.930305,-0.0029847020175114316,-0.023579196463302005,0.09695331012558621,36.09446859390736,-96.25519929585457,84.22370748782159
2024-09-23 09:11:24.518621,40.94,8.930355,-0.003382661564999035,-0.023579196463302005,0.09695331012558621,36.09446859390736,-92.24360919585227,80.21211738781929
2024-09-23 09:11:24.560704,40.94,8.930355,-0.003382661564999035,-0.024176140626271565,0.09710254654607277,36.09446859390736,-104.27510100388527,80.21211738781929
2024-09-23 09:11:24.572435,40.94,8.930445,-0.003382661564999035,-0.024176140626271565,0.09710254654607277,36.09446859390736,-104.27510100388527,80.21211738781929
2024-09-23 09:11:24.604460,40.94,8.930445,-0.003233425524256645,-0.023330473146428877,0.09710254654607277,36.09446859390736,-104.27510100388527,80.21211738781929
2024-09-23 09:11:24.615966,40.94,8.930445,-0.003233425524256645,-0.023330473146428877,0.09650560086412653,32.08287849390507,-100.26678939585686,76.200527287817
2024-09-23 09:11:24.658243,40.93,8.930496,-0.003979606107712764,-0.02338022115155219,0.09715228999426605,32.08287849390507,-100.26678939585686,76.200527287817
2024-09-23 09:11:24.670307,40.93,8.930496,-0.003979606107712764,-0.02338022115155219,0.09715228999426605,32.08287849390507,-92.24360919585227,76.200527287817
2024-09-23 09:11:24.701753,40.93,8.930547,-0.003979606107712764,-0.02338022115155219,0.09715228999426605,32.08287849390507,-92.24360919585227,80.21211738781929
2024-09-23 09:11:24.713199,40.93,8.930547,-0.0031836870127375577,-0.02367869399252531,0.09665483728461309,36.09446859390736,-92.24360919585227,80.21211738781929
2024-09-23 09:11:24.756232,40.93,8.930598,-0.0029349636958644295,-0.02362894446842532,0.09695331012558621,36.09446859390736,-96.25519929585457,80.21211738781929
2024-09-23 09:11:24.799270,40.93,8.930598,-0.0029349636958644295,-0.02362894446842532,0.09695331012558621,40.106058693909645,-100.26678939585686,80.21211738781929
2024-09-23 09:11:24.810555,40.93,8.930649,-0.0030841997366068195,-0.023330473146428877,0.09695331012558621,40.106058693909645,-100.26678939585686,80.21211738781929
2024-09-23 09:11:24.853454,40.93,8.930699,-0.0030841997366068195,-0.023330473146428877,0.09740101331113918,32.08287849390507,-100.26678939585686,80.21211738781929
2024-09-23 09:11:24.865658,40.93,8.930699,-0.0032831742888682963,-0.023330473146428877,0.09740101331113918,32.08287849390507,-100.26678939585686,80.21211738781929
2024-09-23 09:11:24.898583,40.93,8.930699,-0.0032831742888682963,-0.023778180888911878,0.09690356060148622,40.106058693909645,-100.26678939585686,80.21211738781929
2024-09-23 09:11:24.910181,40.93,8.930786,-0.0032831742888682963,-0.023778180888911878,0.09690356060148622,40.106058693909645,-92.24360919585227,80.21211738781929
2024-09-23 09:11:24.952518,40.93,8.930786,-0.0031339382481259063,-0.023728432883788564,0.0966050877605131,40.106058693909645,-96.25519929585457,76.200527287817
2024-09-23 09:11:24.994915,40.93,8.930837,-0.0030841997366068195,-0.023728432883788564,0.0966050877605131,40.106058693909645,-96.25519929585457,76.200527287817
2024-09-23 09:11:25.006416,40.93,8.930837,-0.0030841997366068195,-0.023579196463302005,0.09690356060148622,40.106058693909645,-96.25519929585457,76.200527287817
2024-09-23 09:11:25.050232,40.93,8.930888,-0.0033329230534799477,-0.02362894446842532,0.09740101331113918,32.08287849390507,-96.25519929585457,80.21211738781929
2024-09-23 09:11:25.092496,40.93,8.930888,-0.0033329230534799477,-0.02362894446842532,0.09740101331113918,32.08287849390507,-92.24360919585227,88.23529758782387
2024-09-23 09:11:25.104174,40.93,8.930939,-0.0036811340262279837,-0.02397715620066169,0.0976994861521123,32.08287849390507,-92.24360919585227,88.23529758782387
2024-09-23 09:11:25.147767,40.93,8.930989,-0.003233425524256645,-0.023479709566915436,0.0976994861521123,44.11764879391193,-92.24360919585227,76.200527287817
2024-09-23 09:11:25.190695,40.93,8.930989,-0.003233425524256645,-0.023479709566915436,0.0973512698629459,36.09446859390736,-92.24360919585227,76.200527287817
2024-09-23 09:11:25.201731,40.93,8.93104,-0.0028852147413806935,-0.023479709566915436,0.0973512698629459,36.09446859390736,-92.24360919585227,80.21211738781929
2024-09-23 09:11:25.244234,40.93,8.931127,-0.0028852147413806935,-0.023778180888911878,0.09655535038822652,36.09446859390736,-96.25519929585457,80.21211738781929
2024-09-23 09:11:25.286589,40.93,8.931127,-0.0033329230534799477,-0.023330473146428877,0.09655535038822652,36.09446859390736,-96.25519929585457,80.21211738781929
2024-09-23 09:11:25.298292,40.93,8.931127,-0.0033329230534799477,-0.023330473146428877,0.09725178296655933,32.08287849390507,-96.25519929585457,80.21211738781929
2024-09-23 09:11:25.341292,40.93,8.931179,-0.0032831742888682963,-0.023778180888911878,0.09685382322919964,36.09446859390736,-96.25519929585457,80.21211738781929
2024-09-23 09:11:25.384070,40.93,8.931229,-0.0032831742888682963,-0.023778180888911878,0.09685382322919964,36.09446859390736,-96.25519929585457,84.22370748782159
2024-09-23 09:11:25.395447,40.93,8.931229,-0.0028354659767690416,-0.02338022115155219,0.09715228999426605,36.09446859390736,-96.25519929585457,84.22370748782159
2024-09-23 09:11:25.438195,40.93,8.93128,-0.0029847020175114316,-0.023927417309398437,0.09715228999426605,36.09446859390736,-96.25519929585457,84.22370748782159
2024-09-23 09:11:25.450247,40.93,8.93128,-0.0029847020175114316,-0.023927417309398437,0.0970030596496862,36.09446859390736,-96.25519929585457,84.22370748782159
2024-09-23 09:11:25.481827,40.93,8.93128,-0.0029847020175114316,-0.023927417309398437,0.0970030596496862,36.09446859390736,-96.25519929585457,84.22370748782159
2024-09-23 09:11:25.492926,40.93,8.931331,-0.0035816467500972456,-0.02367869399252531,0.0970030596496862,36.09446859390736,-96.25519929585457,76.200527287817
2024-09-23 09:11:25.536418,40.93,8.931381,-0.0035318979854855937,-0.02367869399252531,0.09809744588947199,40.106058693909645,-96.25519929585457,76.200527287817
2024-09-23 09:11:25.578818,40.93,8.931381,-0.0035318979854855937,-0.023778180888911878,0.0970030596496862,40.106058693909645,-96.25519929585457,76.200527287817
2024-09-23 09:11:25.590642,40.93,8.931468,-0.0035318979854855937,-0.023778180888911878,0.0970030596496862,28.07457030097246,-108.28669110388756,76.200527287817
2024-09-23 09:11:25.632202,40.93,8.931468,-0.002785727465249955,-0.023579196463302005,0.09675432418099966,44.11764879391193,-96.25519929585457,76.200527287817
2024-09-23 09:11:25.644264,40.93,8.931468,-0.002785727465249955,-0.023579196463302005,0.09675432418099966,44.11764879391193,-96.25519929585457,80.21211738781929
2024-09-23 09:11:25.677250,41.34,8.93152,-0.003631395514708897,-0.023579196463302005,0.09675432418099966,44.11764879391193,-96.25519929585457,80.21211738781929
2024-09-23 09:11:25.688660,41.34,8.93152,-0.003631395514708897,-0.02338022115155219,0.09715228999426605,44.11764879391193,-96.25519929585457,80.21211738781929
2024-09-23 09:11:25.731904,41.34,8.931571,-0.0035318979854855937,-0.023827930413011865,0.09685382322919964,44.11764879391193,-96.25519929585457,84.22370748782159
2024-09-23 09:11:25.743361,41.34,8.931571,-0.0035318979854855937,-0.023827930413011865,0.09685382322919964,40.106058693909645,-96.25519929585457,84.22370748782159
2024-09-23 09:11:25.776752,41.34,8.931621,-0.0035318979854855937,-0.023827930413011865,0.09685382322919964,40.106058693909645,-104.27510100388527,80.21211738781929
2024-09-23 09:11:25.787794,41.34,8.931621,-0.002785727465249955,-0.02338022115155219,0.09670458680871308,40.106058693909645,-104.27510100388527,80.21211738781929
2024-09-23 09:11:25.830112,41.34,8.931672,-0.003233425524256645,-0.02367869399252531,0.09670458680871308,36.09446859390736,-96.25519929585457,80.21211738781929
2024-09-23 09:11:25.874451,41.34,8.931672,-0.003233425524256645,-0.02367869399252531,0.09680407370509965,40.106058693909645,-92.24360919585227,80.21211738781929
2024-09-23 09:11:25.890066,41.34,8.931723,-0.0029349636958644295,-0.02367869399252531,0.09680407370509965,40.106058693909645,-92.24360919585227,80.21211738781929
2024-09-23 09:11:25.922398,41.34,8.931723,-0.0029349636958644295,-0.024076653729884996,0.09720203344245934,40.106058693909645,-92.24360919585227,80.21211738781929
2024-09-23 09:11:25.933903,41.34,8.93181,-0.0029349636958644295,-0.024076653729884996,0.09720203344245934,40.106058693909645,-96.25519929585457,76.200527287817
2024-09-23 09:11:25.976080,41.34,8.93181,-0.0029847020175114316,-0.02367869399252531,0.09720203344245934,40.106058693909645,-100.26678939585686,76.200527287817
2024-09-23 09:11:25.988034,41.34,8.93181,-0.0029847020175114316,-0.02367869399252531,0.09720203344245934,40.106058693909645,-100.26678939585686,80.21211738781929
2024-09-23 09:11:26.021918,41.34,8.931861,-0.0032831742888682963,-0.023728432883788564,0.09715228999426605,40.106058693909645,-100.26678939585686,80.21211738781929
2024-09-23 09:11:26.033680,41.34,8.931861,-0.0032831742888682963,-0.023728432883788564,0.09715228999426605,36.09446859390736,-108.28669110388756,80.21211738781929
2024-09-23 09:11:26.065988,41.34,8.931861,-0.0032831742888682963,-0.023728432883788564,0.09715228999426605,36.09446859390736,-108.28669110388756,80.21211738781929
2024-09-23 09:11:26.077393,41.34,8.931912,-0.0031339382481259063,-0.024076653729884996,0.09695331012558621,40.106058693909645,-108.28669110388756,80.21211738781929
2024-09-23 09:11:26.120654,41.34,8.931963,-0.003233425524256645,-0.02352945757203875,0.09695331012558621,40.106058693909645,-104.27510100388527,76.200527287817
2024-09-23 09:11:26.132805,41.34,8.931963,-0.003233425524256645,-0.02352945757203875,0.0973512698629459,40.106058693909645,-104.27510100388527,76.200527287817
2024-09-23 09:11:26.165770,41.34,8.931963,-0.003233425524256645,-0.02352945757203875,0.0973512698629459,36.09446859390736,-96.25519929585457,80.21211738781929
2024-09-23 09:11:26.177462,41.34,8.932013,-0.0035318979854855937,-0.02308174982955575,0.0973512698629459,36.09446859390736,-96.25519929585457,80.21211738781929
2024-09-23 09:11:26.220562,41.34,8.932064,-0.0034324103296106863,-0.02308174982955575,0.09710254654607277,36.09446859390736,-88.23529758782387,88.23529758782387
2024-09-23 09:11:26.264219,41.34,8.932064,-0.0034324103296106863,-0.023827930413011865,0.09690356060148622,36.09446859390736,-88.23529758782387,88.23529758782387
2024-09-23 09:11:26.275409,41.34,8.932151,-0.0034324103296106863,-0.023827930413011865,0.09690356060148622,36.09446859390736,-92.24360919585227,76.200527287817
2024-09-23 09:11:26.318795,41.34,8.932151,-0.0035816467500972456,-0.024176140626271565,0.09710254654607277,36.09446859390736,-92.24360919585227,72.1922225099802
2024-09-23 09:11:26.360640,41.34,8.932203,-0.0029847020175114316,-0.023728432883788564,0.09710254654607277,36.09446859390736,-92.24360919585227,72.1922225099802
2024-09-23 09:11:26.372258,41.34,8.932203,-0.0029847020175114316,-0.023728432883788564,0.09720203344245934,40.106058693909645,-100.26678939585686,72.1922225099802
2024-09-23 09:11:26.415556,41.34,8.932253,-0.003382661564999035,-0.02313149783467906,0.09645586349183995,40.106058693909645,-100.26678939585686,76.200527287817
2024-09-23 09:11:26.457204,41.34,8.932253,-0.003382661564999035,-0.02313149783467906,0.09645586349183995,40.106058693909645,-100.26678939585686,80.21211738781929
2024-09-23 09:11:26.469096,41.34,8.932304,-0.0029349636958644295,-0.023429960042815445,0.0973015264147526,40.106058693909645,-100.26678939585686,80.21211738781929
2024-09-23 09:11:26.511566,41.34,8.932355,-0.0029349636958644295,-0.023181236725942318,0.0973015264147526,40.106058693909645,-100.26678939585686,80.21211738781929
2024-09-23 09:11:26.554693,41.34,8.932355,-0.0029349636958644295,-0.023181236725942318,0.0973512698629459,44.11764879391193,-100.26678939585686,80.21211738781929
2024-09-23 09:11:26.565890,41.34,8.932405,-0.003482159473966507,-0.023181236725942318,0.0973512698629459,44.11764879391193,-104.27510100388527,68.18063240997792
2024-09-23 09:11:26.608401,41.34,8.932405,-0.003482159473966507,-0.023827930413011865,0.0970030596496862,40.106058693909645,-100.26678939585686,76.200527287817
2024-09-23 09:11:26.620425,41.34,8.932492,-0.003482159473966507,-0.023827930413011865,0.0970030596496862,40.106058693909645,-100.26678939585686,76.200527287817
2024-09-23 09:11:26.653218,41.34,8.932492,-0.0030841997366068195,-0.023429960042815445,0.09645586349183995,40.106058693909645,-100.26678939585686,76.200527287817
2024-09-23 09:11:26.664557,41.34,8.932492,-0.0030841997366068195,-0.023429960042815445,0.09645586349183995,32.08287849390507,-96.25519929585457,80.21211738781929
2024-09-23 09:11:26.707600,41.88,8.932544,-0.0035816467500972456,-0.02362894446842532,0.09705279702197278,40.106058693909645,-92.24360919585227,80.21211738781929
2024-09-23 09:11:26.749284,41.88,8.932594,-0.0035816467500972456,-0.02362894446842532,0.09705279702197278,40.106058693909645,-92.24360919585227,76.200527287817
2024-09-23 09:11:26.760836,41.88,8.932594,-0.003482159473966507,-0.02352945757203875,0.0970030596496862,36.09446859390736,-92.24360919585227,76.200527287817
2024-09-23 09:11:26.804082,41.88,8.932645,-0.003382661564999035,-0.02338022115155219,0.0970030596496862,36.09446859390736,-96.25519929585457,76.200527287817
2024-09-23 09:11:26.815686,41.88,8.932645,-0.003382661564999035,-0.02338022115155219,0.0966050877605131,36.09446859390736,-96.25519929585457,76.200527287817
2024-09-23 09:11:26.848472,41.88,8.932645,-0.003382661564999035,-0.02338022115155219,0.0966050877605131,40.106058693909645,-96.25519929585457,72.1922225099802
2024-09-23 09:11:26.860148,41.88,8.932696,-0.0031836870127375577,-0.023877669304275123,0.0966050877605131,40.106058693909645,-96.25519929585457,72.1922225099802
2024-09-23 09:11:26.903669,41.88,8.932746,-0.0032831742888682963,-0.023877669304275123,0.0970030596496862,28.07457030097246,-96.25519929585457,76.200527287817
2024-09-23 09:11:26.945465,41.88,8.932746,-0.0032831742888682963,-0.02352945757203875,0.09740101331113918,36.09446859390736,-96.25519929585457,76.200527287817
2024-09-23 09:11:26.957296,41.88,8.932833,-0.0032831742888682963,-0.02352945757203875,0.09740101331113918,36.09446859390736,-96.25519929585457,80.21211738781929
2024-09-23 09:11:27.000207,41.88,8.932833,-0.0033329230534799477,-0.023728432883788564,0.09690356060148622,36.09446859390736,-100.26678939585686,84.22370748782159
2024-09-23 09:11:27.044957,41.88,8.932885,-0.0032831742888682963,-0.023778180888911878,0.09690356060148622,36.09446859390736,-100.26678939585686,84.22370748782159
2024-09-23 09:11:27.056851,41.88,8.932885,-0.0032831742888682963,-0.023778180888911878,0.09759999317981902,32.08287849390507,-100.26678939585686,84.22370748782159
2024-09-23 09:11:27.088573,41.88,8.932885,-0.0032831742888682963,-0.023778180888911878,0.09759999317981902,32.08287849390507,-100.26678939585686,80.21211738781929
2024-09-23 09:11:27.099788,41.88,8.932936,-0.0030841997366068195,-0.02367869399252531,0.0970030596496862,48.12595698684454,-100.26678939585686,80.21211738781929
2024-09-23 09:11:27.142515,41.88,8.932987,-0.003233425524256645,-0.02367869399252531,0.0970030596496862,48.12595698684454,-96.25519929585457,84.22370748782159
2024-09-23 09:11:27.154340,41.88,8.932987,-0.003233425524256645,-0.023579196463302005,0.0973512698629459,48.12595698684454,-96.25519929585457,84.22370748782159
2024-09-23 09:11:27.187284,41.88,8.932987,-0.003233425524256645,-0.023579196463302005,0.0973512698629459,44.11764879391193,-96.25519929585457,84.22370748782159
2024-09-23 09:11:27.199220,41.88,8.933037,-0.0036811340262279837,-0.023230986250042305,0.0973512698629459,44.11764879391193,-88.23529758782387,80.21211738781929
2024-09-23 09:11:27.241271,41.88,8.933088,-0.0036811340262279837,-0.023230986250042305,0.09690356060148622,44.11764879391193,-96.25519929585457,76.200527287817
2024-09-23 09:11:27.253248,41.88,8.933088,-0.0031836870127375577,-0.023230986250042305,0.09690356060148622,44.11764879391193,-96.25519929585457,76.200527287817
2024-09-23 09:11:27.286726,41.88,8.933088,-0.0031836870127375577,-0.024076653729884996,0.09705279702197278,40.106058693909645,-96.25519929585457,76.200527287817
2024-09-23 09:11:27.297893,41.88,8.933175,-0.0031836870127375577,-0.024076653729884996,0.09705279702197278,40.106058693909645,-108.28669110388756,80.21211738781929
2024-09-23 09:11:27.340124,41.88,8.933175,-0.002785727465249955,-0.023280723622328886,0.09720203344245934,40.106058693909645,-108.28669110388756,80.21211738781929
2024-09-23 09:11:27.382574,41.88,8.933226,-0.0033329230534799477,-0.023280723622328886,0.09720203344245934,40.106058693909645,-108.28669110388756,80.21211738781929
2024-09-23 09:11:27.394403,41.88,8.933226,-0.0033329230534799477,-0.023778180888911878,0.09690356060148622,32.08287849390507,-96.25519929585457,80.21211738781929
2024-09-23 09:11:27.438069,41.88,8.933277,-0.0031339382481259063,-0.02352945757203875,0.09640611396773996,32.08287849390507,-96.25519929585457,76.200527287817
2024-09-23 09:11:27.449815,41.88,8.933277,-0.0031339382481259063,-0.02352945757203875,0.09640611396773996,36.09446859390736,-96.25519929585457,76.200527287817
2024-09-23 09:11:27.482565,41.88,8.933328,-0.0031339382481259063,-0.02352945757203875,0.09640611396773996,36.09446859390736,-92.24360919585227,76.200527287817
2024-09-23 09:11:27.493849,41.88,8.933328,-0.0026862297461545674,-0.023579196463302005,0.09680407370509965,36.09446859390736,-92.24360919585227,76.200527287817
2024-09-23 09:11:27.536612,41.88,8.933378,-0.0032831742888682963,-0.023877669304275123,0.09680407370509965,40.106058693909645,-92.24360919585227,80.21211738781929
2024-09-23 09:11:27.580064,41.88,8.933378,-0.0032831742888682963,-0.023877669304275123,0.09710254654607277,40.106058693909645,-100.26678939585686,80.21211738781929
2024-09-23 09:11:27.590922,41.88,8.933429,-0.003482159473966507,-0.023877669304275123,0.09710254654607277,40.106058693909645,-100.26678939585686,80.21211738781929
2024-09-23 09:11:27.632590,41.88,8.933516,-0.003482159473966507,-0.024176140626271565,0.09705279702197278,36.09446859390736,-100.26678939585686,76.200527287817
2024-09-23 09:11:27.675607,41.88,8.933516,-0.0035816467500972456,-0.023479709566915436,0.09705279702197278,36.09446859390736,-100.26678939585686,76.200527287817
2024-09-23 09:11:27.686788,41.88,8.933516,-0.0035816467500972456,-0.023479709566915436,0.09740101331113918,40.106058693909645,-100.26678939585686,80.21211738781929
2024-09-23 09:11:27.728787,41.89,8.933567,-0.003780631555451287,-0.023827930413011865,0.09650560086412653,36.09446859390736,-100.26678939585686,80.21211738781929
2024-09-23 09:11:27.740628,41.89,8.933567,-0.003780631555451287,-0.023827930413011865,0.09650560086412653,36.09446859390736,-104.27510100388527,80.21211738781929
2024-09-23 09:11:27.773647,41.89,8.933618,-0.003780631555451287,-0.023827930413011865,0.09650560086412653,36.09446859390736,-104.27510100388527,80.21211738781929
2024-09-23 09:11:27.784835,41.89,8.933618,-0.0031339382481259063,-0.023927417309398437,0.0973015264147526,36.09446859390736,-104.27510100388527,80.21211738781929
2024-09-23 09:11:27.827362,41.89,8.933669,-0.0035816467500972456,-0.02352945757203875,0.0973015264147526,36.09446859390736,-100.26678939585686,80.21211738781929
2024-09-23 09:11:27.839067,41.89,8.933669,-0.0035816467500972456,-0.02352945757203875,0.09685382322919964,36.09446859390736,-100.26678939585686,80.21211738781929
2024-09-23 09:11:27.870672,41.89,8.933669,-0.0035816467500972456,-0.02352945757203875,0.09685382322919964,32.08287849390507,-100.26678939585686,80.21211738781929
2024-09-23 09:11:27.882227,41.89,8.93372,-0.0029349636958644295,-0.023827930413011865,0.09685382322919964,32.08287849390507,-100.26678939585686,80.21211738781929
2024-09-23 09:11:27.925299,41.89,8.93377,-0.003780631555451287,-0.023827930413011865,0.09715228999426605,36.09446859390736,-92.24360919585227,80.21211738781929
2024-09-23 09:11:27.968320,41.89,8.93377,-0.003780631555451287,-0.023579196463302005,0.09705279702197278,36.09446859390736,-92.24360919585227,80.21211738781929
2024-09-23 09:11:27.979381,41.89,8.933857,-0.003780631555451287,-0.023579196463302005,0.09705279702197278,32.08287849390507,-104.27510100388527,72.1922225099802
2024-09-23 09:11:28.024267,41.89,8.933857,-0.002636491424507565,-0.02362894446842532,0.0973512698629459,36.09446859390736,-100.26678939585686,80.21211738781929
2024-09-23 09:11:28.066577,41.89,8.933909,-0.003631395514708897,-0.023877669304275123,0.0973512698629459,36.09446859390736,-100.26678939585686,80.21211738781929
2024-09-23 09:11:28.077655,41.89,8.933909,-0.003631395514708897,-0.023877669304275123,0.0973512698629459,32.08287849390507,-96.25519929585457,80.21211738781929
2024-09-23 09:11:28.121415,41.89,8.933959,-0.0031339382481259063,-0.02352945757203875,0.09745075675933246,32.08287849390507,-96.25519929585457,84.22370748782159
2024-09-23 09:11:28.164800,41.89,8.93401,-0.0031339382481259063,-0.02352945757203875,0.09745075675933246,32.08287849390507,-92.24360919585227,84.22370748782159
2024-09-23 09:11:28.176391,41.89,8.93401,-0.0031339382481259063,-0.023330473146428877,0.09715228999426605,32.08287849390507,-92.24360919585227,84.22370748782159
2024-09-23 09:11:28.218956,41.89,8.934061,-0.0037308827908396356,-0.023579196463302005,0.09715228999426605,40.106058693909645,-108.28669110388756,64.16903547978401
2024-09-23 09:11:28.262006,41.89,8.934061,-0.0037308827908396356,-0.023579196463302005,0.0962568775472534,44.11764879391193,-104.27510100388527,64.16903547978401
2024-09-23 09:11:28.273537,41.89,8.934111,-0.0034324103296106863,-0.023579196463302005,0.0962568775472534,44.11764879391193,-104.27510100388527,76.200527287817
2024-09-23 09:11:28.315824,41.89,8.934198,-0.0034324103296106863,-0.023330473146428877,0.09705279702197278,36.09446859390736,-104.27510100388527,72.1922225099802
2024-09-23 09:11:28.357784,41.89,8.934198,-0.0035318979854855937,-0.024026904205785005,0.09705279702197278,36.09446859390736,-104.27510100388527,72.1922225099802
2024-09-23 09:11:28.368844,41.89,8.934198,-0.0035318979854855937,-0.024026904205785005,0.09695331012558621,40.106058693909645,-96.25519929585457,80.21211738781929
2024-09-23 09:11:28.412185,41.89,8.93425,-0.0028852147413806935,-0.023728432883788564,0.09665483728461309,48.12595698684454,-96.25519929585457,80.21211738781929
2024-09-23 09:11:28.424092,41.89,8.93425,-0.0028852147413806935,-0.023728432883788564,0.09665483728461309,48.12595698684454,-96.25519929585457,80.21211738781929
2024-09-23 09:11:28.456337,41.89,8.934301,-0.0028852147413806935,-0.023728432883788564,0.09665483728461309,48.12595698684454,-96.25519929585457,76.200527287817
2024-09-23 09:11:28.467946,41.89,8.934301,-0.003382661564999035,-0.023728432883788564,0.09705279702197278,32.08287849390507,-96.25519929585457,76.200527287817
2024-09-23 09:11:28.510648,41.89,8.934351,-0.0029349636958644295,-0.023429960042815445,0.09705279702197278,32.08287849390507,-96.25519929585457,80.21211738781929
2024-09-23 09:11:28.522446,41.89,8.934351,-0.0029349636958644295,-0.023429960042815445,0.09740101331113918,32.08287849390507,-96.25519929585457,80.21211738781929
2024-09-23 09:11:28.555363,41.89,8.934351,-0.0029349636958644295,-0.023429960042815445,0.09740101331113918,48.12595698684454,-100.26678939585686,84.22370748782159
2024-09-23 09:11:28.567331,41.89,8.934402,-0.0035318979854855937,-0.024176140626271565,0.09740101331113918,48.12595698684454,-100.26678939585686,84.22370748782159
2024-09-23 09:11:28.599411,41.89,8.934402,-0.0035318979854855937,-0.024176140626271565,0.09680407370509965,48.12595698684454,-100.26678939585686,84.22370748782159
2024-09-23 09:11:28.611154,41.89,8.934453,-0.0029349636958644295,-0.024176140626271565,0.09680407370509965,48.12595698684454,-92.24360919585227,84.22370748782159
2024-09-23 09:11:28.653383,41.89,8.934453,-0.0029349636958644295,-0.023927417309398437,0.09680407370509965,28.07457030097246,-100.26678939585686,84.22370748782159
2024-09-23 09:11:28.665135,41.89,8.93454,-0.0029349636958644295,-0.023927417309398437,0.09680407370509965,28.07457030097246,-100.26678939585686,72.1922225099802
2024-09-23 09:11:28.696753,41.89,8.93454,-0.0031339382481259063,-0.023927417309398437,0.09680407370509965,28.07457030097246,-100.26678939585686,72.1922225099802
2024-09-23 09:11:28.708544,41.89,8.93454,-0.0031339382481259063,-0.02397715620066169,0.09665483728461309,32.08287849390507,-92.24360919585227,76.200527287817
2024-09-23 09:11:28.750830,42.02,8.934591,-0.0031836870127375577,-0.023728432883788564,0.09630662707135339,32.08287849390507,-92.24360919585227,76.200527287817
2024-09-23 09:11:28.762482,42.02,8.934591,-0.0031836870127375577,-0.023728432883788564,0.09630662707135339,32.08287849390507,-100.26678939585686,76.200527287817
2024-09-23 09:11:28.794615,42.02,8.934591,-0.0031836870127375577,-0.023728432883788564,0.09630662707135339,32.08287849390507,-100.26678939585686,80.21211738781929
2024-09-23 09:11:28.805884,42.02,8.934642,-0.0035816467500972456,-0.023927417309398437,0.09650560086412653,28.07457030097246,-100.26678939585686,80.21211738781929
2024-09-23 09:11:28.849141,42.02,8.934693,-0.0032831742888682963,-0.023927417309398437,0.09650560086412653,28.07457030097246,-96.25519929585457,80.21211738781929
2024-09-23 09:11:28.860812,42.02,8.934693,-0.0032831742888682963,-0.023927417309398437,0.09740101331113918,28.07457030097246,-96.25519929585457,80.21211738781929
2024-09-23 09:11:28.893601,42.02,8.934693,-0.0032831742888682963,-0.023927417309398437,0.09740101331113918,36.09446859390736,-96.25519929585457,80.21211738781929
2024-09-23 09:11:28.905395,42.02,8.934743,-0.0029847020175114316,-0.023778180888911878,0.09740101331113918,36.09446859390736,-96.25519929585457,84.22370748782159
2024-09-23 09:11:28.948182,42.02,8.934794,-0.0029847020175114316,-0.023778180888911878,0.09635636444363997,36.09446859390736,-92.24360919585227,84.22370748782159
2024-09-23 09:11:28.960301,42.02,8.934794,-0.003233425524256645,-0.023778180888911878,0.09635636444363997,36.09446859390736,-92.24360919585227,84.22370748782159
2024-09-23 09:11:28.992052,42.02,8.934794,-0.003233425524256645,-0.02338022115155219,0.09759999317981902,36.09446859390736,-92.24360919585227,84.22370748782159
2024-09-23 09:11:29.003450,42.02,8.934881,-0.003233425524256645,-0.02338022115155219,0.09759999317981902,40.106058693909645,-96.25519929585457,80.21211738781929
2024-09-23 09:11:29.046748,42.02,8.934881,-0.0031836870127375577,-0.024026904205785005,0.0970030596496862,40.106058693909645,-100.26678939585686,80.21211738781929
2024-09-23 09:11:29.140506,42.02,8.934933,-0.003631395514708897,-0.023230986250042305,0.0970030596496862,40.106058693909645,-100.26678939585686,80.21211738781929
2024-09-23 09:11:29.152490,42.02,8.934933,-0.003631395514708897,-0.023230986250042305,0.09725178296655933,36.09446859390736,-96.25519929585457,80.21211738781929
2024-09-23 09:11:29.185863,42.02,8.934933,-0.003631395514708897,-0.023230986250042305,0.09725178296655933,36.09446859390736,-96.25519929585457,80.21211738781929
2024-09-23 09:11:29.197199,42.02,8.934983,-0.0032831742888682963,-0.023230986250042305,0.09750050628343246,40.106058693909645,-96.25519929585457,80.21211738781929
2024-09-23 09:11:29.239306,42.02,8.935034,-0.002785727465249955,-0.023230986250042305,0.09750050628343246,40.106058693909645,-96.25519929585457,84.22370748782159
2024-09-23 09:11:29.251197,42.02,8.935034,-0.002785727465249955,-0.02367869399252531,0.09720203344245934,40.106058693909645,-96.25519929585457,84.22370748782159
2024-09-23 09:11:29.284517,42.02,8.935034,-0.002785727465249955,-0.02367869399252531,0.09720203344245934,40.106058693909645,-100.26678939585686,84.22370748782159
2024-09-23 09:11:29.296303,42.02,8.935084,-0.0035318979854855937,-0.023877669304275123,0.09720203344245934,40.106058693909645,-100.26678939585686,80.21211738781929
2024-09-23 09:11:29.339024,42.02,8.935135,-0.0030344509719951677,-0.023877669304275123,0.09690356060148622,28.07457030097246,-96.25519929585457,88.23529758782387
2024-09-23 09:11:29.382661,42.02,8.935135,-0.0030344509719951677,-0.023280723622328886,0.09690356060148622,28.07457030097246,-96.25519929585457,88.23529758782387
2024-09-23 09:11:29.396220,42.02,8.935271,-0.0030344509719951677,-0.023280723622328886,0.09690356060148622,40.106058693909645,-100.26678939585686,76.200527287817
2024-09-23 09:11:29.428347,42.02,8.935271,-0.0028354659767690416,-0.023280723622328886,0.09690356060148622,40.106058693909645,-100.26678939585686,76.200527287817
2024-09-23 09:11:29.439876,42.02,8.935271,-0.0028354659767690416,-0.02367869399252531,0.09685382322919964,36.09446859390736,-96.25519929585457,80.21211738781929
2024-09-23 09:11:29.482451,42.02,8.935322,-0.0028852147413806935,-0.02352945757203875,0.09720203344245934,36.09446859390736,-96.25519929585457,80.21211738781929
2024-09-23 09:11:29.494208,42.02,8.935322,-0.0028852147413806935,-0.02352945757203875,0.09720203344245934,40.106058693909645,-100.26678939585686,80.21211738781929
2024-09-23 09:11:29.526034,42.02,8.935322,-0.0028852147413806935,-0.02352945757203875,0.09720203344245934,40.106058693909645,-100.26678939585686,84.22370748782159
2024-09-23 09:11:29.537567,42.02,8.935373,-0.003631395514708897,-0.023728432883788564,0.09710254654607277,40.106058693909645,-100.26678939585686,84.22370748782159
2024-09-23 09:11:29.579741,42.02,8.935424,-0.0031339382481259063,-0.023728432883788564,0.09710254654607277,40.106058693909645,-100.26678939585686,84.22370748782159
2024-09-23 09:11:29.593007,42.02,8.935424,-0.0031339382481259063,-0.023429960042815445,0.09715228999426605,40.106058693909645,-100.26678939585686,84.22370748782159
2024-09-23 09:11:29.624836,42.02,8.935424,-0.0031339382481259063,-0.023429960042815445,0.09715228999426605,40.106058693909645,-96.25519929585457,84.22370748782159
2024-09-23 09:11:29.636785,42.02,8.935474,-0.003382661564999035,-0.023280723622328886,0.09715228999426605,40.106058693909645,-96.25519929585457,76.200527287817
2024-09-23 09:11:29.680339,42.02,8.935525,-0.003382661564999035,-0.023280723622328886,0.09665483728461309,36.09446859390736,-100.26678939585686,76.200527287817
2024-09-23 09:11:29.692115,42.02,8.935525,-0.0036811340262279837,-0.023280723622328886,0.09665483728461309,36.09446859390736,-100.26678939585686,76.200527287817
2024-09-23 09:11:29.725041,42.02,8.935525,-0.0036811340262279837,-0.023429960042815445,0.09675432418099966,36.09446859390736,-100.26678939585686,76.200527287817
2024-09-23 09:11:29.736147,42.02,8.935612,-0.0036811340262279837,-0.023429960042815445,0.09675432418099966,44.11764879391193,-100.26678939585686,84.22370748782159
2024-09-23 09:11:29.771033,42.42,8.935612,-0.0032831742888682963,-0.023429960042815445,0.09675432418099966,44.11764879391193,-100.26678939585686,84.22370748782159
2024-09-23 09:11:29.782363,42.42,8.935612,-0.0032831742888682963,-0.02352945757203875,0.0970030596496862,36.09446859390736,-100.26678939585686,88.23529758782387
2024-09-23 09:11:29.824664,42.42,8.935664,-0.0030841997366068195,-0.02367869399252531,0.09690356060148622,36.09446859390736,-100.26678939585686,88.23529758782387
2024-09-23 09:11:29.836911,42.42,8.935664,-0.0030841997366068195,-0.02367869399252531,0.09690356060148622,48.12595698684454,-104.27510100388527,88.23529758782387
2024-09-23 09:11:29.869720,42.42,8.935714,-0.0030841997366068195,-0.02367869399252531,0.09690356060148622,48.12595698684454,-104.27510100388527,72.1922225099802
2024-09-23 09:11:29.880802,42.42,8.935714,-0.002785727465249955,-0.023728432883788564,0.0962568775472534,40.106058693909645,-104.27510100388527,72.1922225099802
2024-09-23 09:11:29.923419,42.42,8.935765,-0.0029349636958644295,-0.023927417309398437,0.0962568775472534,40.106058693909645,-100.26678939585686,76.200527287817
2024-09-23 09:11:29.935444,42.42,8.935765,-0.0029349636958644295,-0.023927417309398437,0.09635636444363997,40.106058693909645,-100.26678939585686,76.200527287817
2024-09-23 09:11:29.968456,42.42,8.935765,-0.0029349636958644295,-0.023927417309398437,0.09635636444363997,28.07457030097246,-100.26678939585686,76.200527287817
2024-09-23 09:11:29.980109,42.42,8.935816,-0.0035816467500972456,-0.023330473146428877,0.09635636444363997,28.07457030097246,-100.26678939585686,76.200527287817
2024-09-23 09:11:30.023574,42.42,8.935866,-0.0031836870127375577,-0.023330473146428877,0.0970030596496862,40.106058693909645,-100.26678939585686,80.21211738781929
2024-09-23 09:11:30.065619,42.42,8.935866,-0.0031836870127375577,-0.023778180888911878,0.09620712802315341,32.08287849390507,-100.26678939585686,80.21211738781929
2024-09-23 09:11:30.077111,42.42,8.935954,-0.0031836870127375577,-0.023778180888911878,0.09620712802315341,32.08287849390507,-108.28669110388756,80.21211738781929
2024-09-23 09:11:30.120152,42.42,8.935954,-0.0028852147413806935,-0.02352945757203875,0.09650560086412653,32.08287849390507,-96.25519929585457,80.21211738781929
2024-09-23 09:11:30.163740,42.42,8.936005,-0.0028852147413806935,-0.02362894446842532,0.09650560086412653,32.08287849390507,-96.25519929585457,80.21211738781929
2024-09-23 09:11:30.175061,42.42,8.936005,-0.0028852147413806935,-0.02362894446842532,0.09675432418099966,36.09446859390736,-96.25519929585457,80.21211738781929
2024-09-23 09:11:30.217477,42.42,8.936056,-0.0035816467500972456,-0.02308174982955575,0.09715228999426605,28.07457030097246,-96.25519929585457,80.21211738781929
2024-09-23 09:11:30.260608,42.42,8.936106,-0.0035816467500972456,-0.02308174982955575,0.09715228999426605,28.07457030097246,-96.25519929585457,80.21211738781929
2024-09-23 09:11:30.272136,42.42,8.936106,-0.0031836870127375577,-0.023579196463302005,0.09675432418099966,28.07457030097246,-96.25519929585457,80.21211738781929
2024-09-23 09:11:30.314780,42.42,8.936157,-0.0031339382481259063,-0.02362894446842532,0.09675432418099966,36.09446859390736,-96.25519929585457,84.22370748782159
2024-09-23 09:11:30.358027,42.42,8.936157,-0.0031339382481259063,-0.02362894446842532,0.0970030596496862,40.106058693909645,-92.24360919585227,84.22370748782159
2024-09-23 09:11:30.369984,42.42,8.936208,-0.003482159473966507,-0.02362894446842532,0.0970030596496862,40.106058693909645,-92.24360919585227,84.22370748782159
2024-09-23 09:11:30.412654,42.42,8.936295,-0.003482159473966507,-0.023877669304275123,0.0973015264147526,40.106058693909645,-96.25519929585457,80.21211738781929
2024-09-23 09:11:30.455172,42.42,8.936295,-0.003482159473966507,-0.02352945757203875,0.09710254654607277,40.106058693909645,-96.25519929585457,80.21211738781929
2024-09-23 09:11:30.466623,42.42,8.936295,-0.003482159473966507,-0.02352945757203875,0.09710254654607277,36.09446859390736,-96.25519929585457,84.22370748782159
2024-09-23 09:11:30.509249,42.42,8.936346,-0.0030344509719951677,-0.023778180888911878,0.0973015264147526,36.09446859390736,-104.27510100388527,84.22370748782159
2024-09-23 09:11:30.551496,42.42,8.936397,-0.0030344509719951677,-0.023778180888911878,0.0973015264147526,36.09446859390736,-104.27510100388527,76.200527287817
2024-09-23 09:11:30.563079,42.42,8.936397,-0.003233425524256645,-0.024026904205785005,0.09725178296655933,36.09446859390736,-104.27510100388527,76.200527287817
2024-09-23 09:11:30.605870,42.42,8.936448,-0.0031836870127375577,-0.023230986250042305,0.09725178296655933,36.09446859390736,-96.25519929585457,76.200527287817
2024-09-23 09:11:30.618075,42.42,8.936448,-0.0031836870127375577,-0.023230986250042305,0.09680407370509965,36.09446859390736,-96.25519929585457,76.200527287817
2024-09-23 09:11:30.653044,42.42,8.936448,-0.0031836870127375577,-0.023230986250042305,0.09680407370509965,44.11764879391193,-100.26678939585686,76.200527287817
2024-09-23 09:11:30.664684,42.42,8.936498,-0.003233425524256645,-0.02308174982955575,0.09680407370509965,44.11764879391193,-100.26678939585686,76.200527287817
2024-09-23 09:11:30.697203,42.42,8.936498,-0.003233425524256645,-0.02308174982955575,0.09745075675933246,44.11764879391193,-100.26678939585686,76.200527287817
2024-09-23 09:11:30.709559,42.42,8.936549,-0.003929857343101113,-0.02308174982955575,0.09745075675933246,44.11764879391193,-100.26678939585686,84.22370748782159
2024-09-23 09:11:30.752835,42.42,8.936636,-0.003929857343101113,-0.023827930413011865,0.09645586349183995,40.106058693909645,-100.26678939585686,80.21211738781929
2024-09-23 09:11:30.795810,42.59,8.936636,-0.0031339382481259063,-0.023429960042815445,0.09645586349183995,40.106058693909645,-100.26678939585686,80.21211738781929
2024-09-23 09:11:30.807443,42.59,8.936636,-0.0031339382481259063,-0.023429960042815445,0.09690356060148622,32.08287849390507,-100.26678939585686,80.21211738781929
2024-09-23 09:11:30.849874,42.59,8.936688,-0.0033329230534799477,-0.023827930413011865,0.09645586349183995,32.08287849390507,-100.26678939585686,80.21211738781929
2024-09-23 09:11:30.862013,42.59,8.936688,-0.0033329230534799477,-0.023827930413011865,0.09645586349183995,32.08287849390507,-96.25519929585457,80.21211738781929
2024-09-23 09:11:30.894566,42.59,8.936739,-0.003233425524256645,-0.023827930413011865,0.09645586349183995,32.08287849390507,-96.25519929585457,80.21211738781929
2024-09-23 09:11:30.906343,42.59,8.936739,-0.003233425524256645,-0.023579196463302005,0.09710254654607277,40.106058693909645,-96.25519929585457,80.21211738781929
2024-09-23 09:11:30.948954,42.59,8.936789,-0.002387757474797703,-0.023429960042815445,0.09725178296655933,40.106058693909645,-92.24360919585227,80.21211738781929
2024-09-23 09:11:30.992240,42.59,8.936789,-0.002387757474797703,-0.023429960042815445,0.09725178296655933,36.09446859390736,-96.25519929585457,80.21211738781929
2024-09-23 09:11:31.004233,42.59,8.93684,-0.0035816467500972456,-0.023927417309398437,0.09725178296655933,36.09446859390736,-96.25519929585457,80.21211738781929
2024-09-23 09:11:31.047564,42.59,8.936891,-0.0029349636958644295,-0.023927417309398437,0.0973512698629459,32.08287849390507,-96.25519929585457,84.22370748782159
2024-09-23 09:11:31.089905,42.59,8.936891,-0.0029349636958644295,-0.02397715620066169,0.09740101331113918,44.11764879391193,-96.25519929585457,84.22370748782159
2024-09-23 09:11:31.101291,42.59,8.936977,-0.0029349636958644295,-0.02397715620066169,0.09740101331113918,44.11764879391193,-104.27510100388527,72.1922225099802
2024-09-23 09:11:31.144205,42.59,8.936977,-0.0032831742888682963,-0.023827930413011865,0.09710254654607277,36.09446859390736,-104.27510100388527,72.1922225099802
2024-09-23 09:11:31.186465,42.59,8.936977,-0.0032831742888682963,-0.023827930413011865,0.09710254654607277,36.09446859390736,-100.26678939585686,80.21211738781929
2024-09-23 09:11:31.198292,42.59,8.937029,-0.003382661564999035,-0.023728432883788564,0.09705279702197278,36.09446859390736,-100.26678939585686,80.21211738781929
2024-09-23 09:11:31.241568,42.59,8.937079,-0.003382661564999035,-0.023181236725942318,0.09705279702197278,48.12595698684454,-96.25519929585457,84.22370748782159
2024-09-23 09:11:31.284893,42.59,8.937079,-0.003382661564999035,-0.023181236725942318,0.09675432418099966,40.106058693909645,-96.25519929585457,84.22370748782159
2024-09-23 09:11:31.296568,42.59,8.93713,-0.0028852147413806935,-0.023181236725942318,0.09675432418099966,40.106058693909645,-96.25519929585457,80.21211738781929
2024-09-23 09:11:31.339124,42.59,8.937181,-0.0028852147413806935,-0.02313149783467906,0.09680407370509965,36.09446859390736,-96.25519929585457,80.21211738781929
2024-09-23 09:11:31.381268,42.59,8.937181,-0.0030841997366068195,-0.02362894446842532,0.09725178296655933,36.09446859390736,-96.25519929585457,80.21211738781929
2024-09-23 09:11:31.392770,42.59,8.937181,-0.0030841997366068195,-0.02362894446842532,0.09725178296655933,32.08287849390507,-96.25519929585457,76.200527287817
2024-09-23 09:11:31.436406,42.59,8.93727,-0.0029847020175114316,-0.023778180888911878,0.09740101331113918,24.06297849342227,-96.25519929585457,76.200527287817
2024-09-23 09:11:31.478931,42.59,8.937322,-0.0027359787006383035,-0.023778180888911878,0.09740101331113918,24.06297849342227,-96.25519929585457,72.1922225099802
2024-09-23 09:11:31.489993,42.59,8.937322,-0.0027359787006383035,-0.023778180888911878,0.0966050877605131,40.106058693909645,-96.25519929585457,72.1922225099802
2024-09-23 09:11:31.532722,42.59,8.937372,-0.0031836870127375577,-0.023429960042815445,0.0966050877605131,40.106058693909645,-96.25519929585457,84.22370748782159
2024-09-23 09:11:31.544267,42.59,8.937372,-0.0031836870127375577,-0.023429960042815445,0.09715228999426605,40.106058693909645,-96.25519929585457,84.22370748782159
2024-09-23 09:11:31.577690,42.59,8.937372,-0.0031836870127375577,-0.023429960042815445,0.09715228999426605,44.11764879391193,-100.26678939585686,80.21211738781929
2024-09-23 09:11:31.590414,42.59,8.937423,-0.0036811340262279837,-0.023479709566915436,0.09715228999426605,44.11764879391193,-100.26678939585686,80.21211738781929
2024-09-23 09:11:31.623731,42.59,8.937423,-0.0036811340262279837,-0.023479709566915436,0.09680407370509965,44.11764879391193,-100.26678939585686,80.21211738781929
2024-09-23 09:11:31.634619,42.59,8.937474,-0.0029847020175114316,-0.023479709566915436,0.09680407370509965,36.09446859390736,-96.25519929585457,80.21211738781929
2024-09-23 09:11:31.677311,42.59,8.937474,-0.0029847020175114316,-0.023927417309398437,0.09650560086412653,36.09446859390736,-100.26678939585686,80.21211738781929
2024-09-23 09:11:31.689004,42.59,8.937563,-0.0029847020175114316,-0.023927417309398437,0.09650560086412653,36.09446859390736,-100.26678939585686,80.21211738781929
2024-09-23 09:11:31.720853,42.59,8.937563,-0.0027359787006383035,-0.023927417309398437,0.09650560086412653,36.09446859390736,-100.26678939585686,80.21211738781929
2024-09-23 09:11:31.732430,42.59,8.937563,-0.0027359787006383035,-0.023579196463302005,0.0970030596496862,44.11764879391193,-100.26678939585686,84.22370748782159
2024-09-23 09:11:31.826567,42.67,8.937614,-0.0035318979854855937,-0.02352945757203875,0.09620712802315341,32.08287849390507,-96.25519929585457,84.22370748782159
2024-09-23 09:11:31.870313,42.67,8.937665,-0.003482159473966507,-0.02352945757203875,0.09620712802315341,32.08287849390507,-96.25519929585457,80.21211738781929
2024-09-23 09:11:31.881478,42.67,8.937665,-0.003482159473966507,-0.02362894446842532,0.09685382322919964,32.08287849390507,-96.25519929585457,80.21211738781929
2024-09-23 09:11:31.923735,42.67,8.937715,-0.0032831742888682963,-0.023927417309398437,0.09715228999426605,32.08287849390507,-96.25519929585457,84.22370748782159
2024-09-23 09:11:31.966977,42.67,8.937715,-0.0032831742888682963,-0.023927417309398437,0.09715228999426605,28.07457030097246,-88.23529758782387,84.22370748782159
2024-09-23 09:11:31.978982,42.67,8.937766,-0.003482159473966507,-0.023728432883788564,0.09715228999426605,28.07457030097246,-88.23529758782387,84.22370748782159
2024-09-23 09:11:32.022553,42.67,8.937817,-0.0028852147413806935,-0.023728432883788564,0.09670458680871308,28.07457030097246,-92.24360919585227,80.21211738781929
2024-09-23 09:11:32.064975,42.67,8.937817,-0.0028852147413806935,-0.023280723622328886,0.09759999317981902,32.08287849390507,-92.24360919585227,80.21211738781929
2024-09-23 09:11:32.076351,42.67,8.937952,-0.0028852147413806935,-0.023280723622328886,0.09759999317981902,32.08287849390507,-96.25519929585457,80.21211738781929
2024-09-23 09:11:32.119908,42.67,8.937952,-0.0030344509719951677,-0.023181236725942318,0.09764974270391902,32.08287849390507,-100.26678939585686,84.22370748782159
2024-09-23 09:11:32.161877,42.67,8.938004,-0.003233425524256645,-0.023429960042815445,0.09764974270391902,32.08287849390507,-100.26678939585686,84.22370748782159
2024-09-23 09:11:32.214335,42.67,8.938004,-0.003233425524256645,-0.023429960042815445,0.09740101331113918,36.09446859390736,-96.25519929585457,76.200527287817
2024-09-23 09:11:32.225813,42.67,8.938054,-0.0037308827908396356,-0.023429960042815445,0.09740101331113918,36.09446859390736,-96.25519929585457,76.200527287817
2024-09-23 09:11:32.258646,42.67,8.938054,-0.0037308827908396356,-0.023579196463302005,0.09715228999426605,36.09446859390736,-96.25519929585457,76.200527287817
2024-09-23 09:11:32.269799,42.67,8.938105,-0.0037308827908396356,-0.023579196463302005,0.09715228999426605,48.12595698684454,-108.28669110388756,72.1922225099802
2024-09-23 09:11:32.312301,42.67,8.938105,-0.003233425524256645,-0.022833026512682618,0.09665483728461309,44.11764879391193,-100.26678939585686,72.1922225099802
2024-09-23 09:11:32.355026,42.67,8.938156,-0.0032831742888682963,-0.022833026512682618,0.09665483728461309,44.11764879391193,-100.26678939585686,72.1922225099802
2024-09-23 09:11:32.366639,42.67,8.938156,-0.0032831742888682963,-0.02352945757203875,0.09680407370509965,36.09446859390736,-92.24360919585227,72.1922225099802
2024-09-23 09:11:32.409939,42.67,8.938206,-0.0029847020175114316,-0.02338022115155219,0.09705279702197278,36.09446859390736,-92.24360919585227,76.200527287817
2024-09-23 09:11:32.421409,42.67,8.938206,-0.0029847020175114316,-0.02338022115155219,0.09705279702197278,36.09446859390736,-92.24360919585227,76.200527287817
2024-09-23 09:11:32.452999,42.67,8.938206,-0.0029847020175114316,-0.02338022115155219,0.09705279702197278,36.09446859390736,-100.26678939585686,76.200527287817
2024-09-23 09:11:32.464706,42.67,8.938295,-0.0029847020175114316,-0.024076653729884996,0.09745075675933246,36.09446859390736,-100.26678939585686,76.200527287817
2024-09-23 09:11:32.507655,42.67,8.938346,-0.0035816467500972456,-0.024076653729884996,0.09745075675933246,36.09446859390736,-96.25519929585457,72.1922225099802
2024-09-23 09:11:32.519045,42.67,8.938346,-0.0035816467500972456,-0.02308174982955575,0.09745075675933246,36.09446859390736,-96.25519929585457,72.1922225099802
2024-09-23 09:11:32.550510,42.67,8.938346,-0.0035816467500972456,-0.02308174982955575,0.09725178296655933,36.09446859390736,-96.25519929585457,72.1922225099802
2024-09-23 09:11:32.561947,42.67,8.938397,-0.0033329230534799477,-0.02308174982955575,0.09725178296655933,36.09446859390736,-96.25519929585457,80.21211738781929
2024-09-23 09:11:32.604314,42.67,8.938397,-0.0033329230534799477,-0.02362894446842532,0.09695331012558621,44.11764879391193,-100.26678939585686,80.21211738781929
2024-09-23 09:11:32.616081,42.67,8.938488,-0.0033329230534799477,-0.02362894446842532,0.09695331012558621,44.11764879391193,-100.26678939585686,80.21211738781929
2024-09-23 09:11:32.648200,42.67,8.938488,-0.003482159473966507,-0.023927417309398437,0.09695331012558621,44.11764879391193,-100.26678939585686,80.21211738781929
2024-09-23 09:11:32.659435,42.67,8.938488,-0.003482159473966507,-0.023927417309398437,0.09705279702197278,40.106058693909645,-104.27510100388527,76.200527287817
2024-09-23 09:11:32.702176,42.67,8.93854,-0.0031836870127375577,-0.023778180888911878,0.09685382322919964,40.106058693909645,-104.27510100388527,76.200527287817
2024-09-23 09:11:32.714236,42.67,8.93854,-0.0031836870127375577,-0.023778180888911878,0.09685382322919964,40.106058693909645,-104.27510100388527,76.200527287817
2024-09-23 09:11:32.747087,42.67,8.938591,-0.0030344509719951677,-0.023778180888911878,0.09685382322919964,40.106058693909645,-104.27510100388527,84.22370748782159
2024-09-23 09:11:32.758806,42.67,8.938591,-0.0030344509719951677,-0.02397715620066169,0.09705279702197278,40.106058693909645,-104.27510100388527,84.22370748782159
2024-09-23 09:11:32.801881,42.67,8.938641,-0.003482159473966507,-0.02367869399252531,0.09705279702197278,40.106058693909645,-92.24360919585227,76.200527287817
2024-09-23 09:11:32.844419,42.71,8.938641,-0.003482159473966507,-0.02367869399252531,0.09705279702197278,32.08287849390507,-96.25519929585457,80.21211738781929
2024-09-23 09:11:32.856607,42.71,8.938692,-0.003382661564999035,-0.023579196463302005,0.09705279702197278,32.08287849390507,-96.25519929585457,80.21211738781929
2024-09-23 09:11:32.890988,42.71,8.938692,-0.003382661564999035,-0.023579196463302005,0.09650560086412653,32.08287849390507,-96.25519929585457,80.21211738781929
2024-09-23 09:11:32.902232,42.71,8.938743,-0.0030344509719951677,-0.023579196463302005,0.09650560086412653,32.08287849390507,-100.26678939585686,80.21211738781929
2024-09-23 09:11:32.945939,42.71,8.938743,-0.0030344509719951677,-0.02362894446842532,0.09745075675933246,36.09446859390736,-100.26678939585686,80.21211738781929
2024-09-23 09:11:32.958149,42.71,8.93883,-0.0030344509719951677,-0.02362894446842532,0.09745075675933246,36.09446859390736,-100.26678939585686,80.21211738781929
2024-09-23 09:11:32.991235,42.71,8.93883,-0.002785727465249955,-0.024026904205785005,0.09750050628343246,36.09446859390736,-100.26678939585686,80.21211738781929
2024-09-23 09:11:33.002785,42.71,8.93883,-0.002785727465249955,-0.024026904205785005,0.09750050628343246,32.08287849390507,-92.24360919585227,80.21211738781929
2024-09-23 09:11:33.044862,42.71,8.938881,-0.0037308827908396356,-0.023280723622328886,0.09685382322919964,36.09446859390736,-92.24360919585227,80.21211738781929
2024-09-23 09:11:33.087031,42.71,8.938932,-0.0037308827908396356,-0.023280723622328886,0.09685382322919964,36.09446859390736,-92.24360919585227,76.200527287817
2024-09-23 09:11:33.099177,42.71,8.938932,-0.0030344509719951677,-0.023230986250042305,0.09665483728461309,40.106058693909645,-92.24360919585227,76.200527287817
2024-09-23 09:11:33.142442,42.71,8.938983,-0.0030344509719951677,-0.023728432883788564,0.09675432418099966,40.106058693909645,-100.26678939585686,80.21211738781929
2024-09-23 09:11:33.185365,42.71,8.938983,-0.0030344509719951677,-0.023728432883788564,0.09675432418099966,36.09446859390736,-104.27510100388527,80.21211738781929
2024-09-23 09:11:33.237220,42.71,8.939033,-0.0030841997366068195,-0.02412639262114825,0.09705279702197278,36.09446859390736,-104.27510100388527,60.15744537978172
2024-09-23 09:11:33.249348,42.71,8.939033,-0.0030841997366068195,-0.02412639262114825,0.09705279702197278,40.106058693909645,-104.27510100388527,60.15744537978172
2024-09-23 09:11:33.282257,42.71,8.939033,-0.0030841997366068195,-0.02412639262114825,0.09705279702197278,40.106058693909645,-100.26678939585686,72.1922225099802
2024-09-23 09:11:33.293426,42.71,8.939084,-0.0030841997366068195,-0.02367869399252531,0.09715228999426605,40.106058693909645,-100.26678939585686,72.1922225099802
2024-09-23 09:11:33.336380,42.71,8.939171,-0.0036811340262279837,-0.02367869399252531,0.09715228999426605,40.106058693909645,-100.26678939585686,84.22370748782159
2024-09-23 09:11:33.348346,42.71,8.939171,-0.0036811340262279837,-0.023827930413011865,0.09715228999426605,40.106058693909645,-100.26678939585686,84.22370748782159
2024-09-23 09:11:33.381639,42.71,8.939171,-0.0036811340262279837,-0.023827930413011865,0.0973512698629459,36.09446859390736,-100.26678939585686,84.22370748782159
2024-09-23 09:11:33.393128,42.71,8.939222,-0.0033329230534799477,-0.023827930413011865,0.0973512698629459,36.09446859390736,-100.26678939585686,80.21211738781929
2024-09-23 09:11:33.436011,42.71,8.939273,-0.0033329230534799477,-0.023877669304275123,0.09690356060148622,36.09446859390736,-100.26678939585686,80.21211738781929
2024-09-23 09:11:33.478017,42.71,8.939273,-0.003233425524256645,-0.023280723622328886,0.0973015264147526,36.09446859390736,-100.26678939585686,80.21211738781929
2024-09-23 09:11:33.490203,42.71,8.939273,-0.003233425524256645,-0.023280723622328886,0.0973015264147526,40.106058693909645,-96.25519929585457,76.200527287817
2024-09-23 09:11:33.532885,42.71,8.939367,-0.0030841997366068195,-0.023429960042815445,0.09680407370509965,40.106058693909645,-100.26678939585686,76.200527287817
2024-09-23 09:11:33.575604,42.71,8.939418,-0.0030841997366068195,-0.023429960042815445,0.09680407370509965,40.106058693909645,-100.26678939585686,84.22370748782159
2024-09-23 09:11:33.587446,42.71,8.939418,-0.0030841997366068195,-0.023728432883788564,0.09720203344245934,40.106058693909645,-100.26678939585686,84.22370748782159
2024-09-23 09:11:33.630103,42.71,8.939469,-0.0034324103296106863,-0.02352945757203875,0.09764974270391902,40.106058693909645,-100.26678939585686,88.23529758782387
2024-09-23 09:11:33.672651,42.71,8.939469,-0.0034324103296106863,-0.02352945757203875,0.09764974270391902,36.09446859390736,-96.25519929585457,84.22370748782159
2024-09-23 09:11:33.683823,42.71,8.939519,-0.003382661564999035,-0.02352945757203875,0.09764974270391902,36.09446859390736,-96.25519929585457,84.22370748782159
2024-09-23 09:11:33.726964,42.71,8.93957,-0.0035318979854855937,-0.02352945757203875,0.09705279702197278,36.09446859390736,-104.27510100388527,80.21211738781929
2024-09-23 09:11:33.770467,42.71,8.93957,-0.0035318979854855937,-0.024325377046758124,0.09670458680871308,36.09446859390736,-104.27510100388527,80.21211738781929
2024-09-23 09:11:33.781628,42.71,8.939658,-0.0035318979854855937,-0.024325377046758124,0.09670458680871308,36.09446859390736,-100.26678939585686,80.21211738781929
2024-09-23 09:11:33.824261,42.71,8.939658,-0.0030841997366068195,-0.023479709566915436,0.09670458680871308,28.07457030097246,-100.26678939585686,80.21211738781929
2024-09-23 09:11:33.835290,42.71,8.939658,-0.0030841997366068195,-0.023479709566915436,0.09670458680871308,28.07457030097246,-92.24360919585227,80.21211738781929
2024-09-23 09:11:33.868858,42.98,8.93971,-0.0029349636958644295,-0.02367869399252531,0.09670458680871308,28.07457030097246,-92.24360919585227,80.21211738781929
2024-09-23 09:11:33.880470,42.98,8.93971,-0.0029349636958644295,-0.02367869399252531,0.0976994861521123,32.08287849390507,-104.27510100388527,80.21211738781929
2024-09-23 09:11:33.912647,42.98,8.93971,-0.0029349636958644295,-0.02367869399252531,0.0976994861521123,32.08287849390507,-104.27510100388527,80.21211738781929
2024-09-23 09:11:33.923732,42.98,8.939761,-0.0035816467500972456,-0.024076653729884996,0.0976994861521123,32.08287849390507,-104.27510100388527,80.21211738781929
2024-09-23 09:11:33.965389,42.98,8.939761,-0.0035816467500972456,-0.024076653729884996,0.09715228999426605,40.106058693909645,-96.25519929585457,80.21211738781929
2024-09-23 09:11:33.977657,42.98,8.939811,-0.0029349636958644295,-0.024076653729884996,0.09715228999426605,40.106058693909645,-96.25519929585457,76.200527287817
