Ayaan's Suite
Timestamp,Sample Rate (Hz),Time,Ax,Ay,Az,Gx,Gy,Gz
2024-09-23 14:01:16.245840,0,26.322387,-0.0029349636958644295,-0.023181236725942318,0.09710254654607277,40.106058693909645,-96.25519929585457,84.22370748782159
2024-09-23 14:01:16.257003,0,26.322437,-0.0027359787006383035,-0.023181236725942318,0.09710254654607277,40.106058693909645,-96.25519929585457,80.21211738781929
2024-09-23 14:01:16.299570,0,26.322488,-0.0027359787006383035,-0.023429960042815445,0.0973512698629459,40.106058693909645,-104.27510100388527,76.200527287817
2024-09-23 14:01:16.342324,0,26.322488,-0.0031836870127375577,-0.023280723622328886,0.0973512698629459,40.106058693909645,-104.27510100388527,76.200527287817
2024-09-23 14:01:16.353773,0,26.322488,-0.0031836870127375577,-0.023280723622328886,0.09665483728461309,32.08287849390507,-96.25519929585457,84.22370748782159
2024-09-23 14:01:16.396784,0,26.322539,-0.0031836870127375577,-0.0228827638849692,0.09715228999426605,40.106058693909645,-92.24360919585227,84.22370748782159
2024-09-23 14:01:16.439324,0,26.322626,-0.0031836870127375577,-0.0228827638849692,0.09715228999426605,40.106058693909645,-92.24360919585227,80.21211738781929
2024-09-23 14:01:16.451213,0,26.322626,-0.003482159473966507,-0.02268379009219606,0.0973512698629459,36.09446859390736,-92.24360919585227,80.21211738781929
2024-09-23 14:01:16.493949,0,26.322725,-0.0034324103296106863,-0.023230986250042305,0.0973512698629459,36.09446859390736,-92.24360919585227,76.200527287817
2024-09-23 14:01:16.506072,0,26.322725,-0.0034324103296106863,-0.023230986250042305,0.09710254654607277,36.09446859390736,-92.24360919585227,76.200527287817
2024-09-23 14:01:16.538346,0,26.322725,-0.0034324103296106863,-0.023230986250042305,0.09710254654607277,40.106058693909645,-96.25519929585457,76.200527287817
2024-09-23 14:01:16.549603,0,26.322776,-0.004079093383843503,-0.023181236725942318,0.09710254654607277,40.106058693909645,-96.25519929585457,80.21211738781929
2024-09-23 14:01:16.592128,0,26.322826,-0.004079093383843503,-0.023181236725942318,0.09680407370509965,36.09446859390736,-100.26678939585686,84.22370748782159
2024-09-23 14:01:16.604319,0,26.322826,-0.0030841997366068195,-0.023181236725942318,0.09680407370509965,36.09446859390736,-100.26678939585686,84.22370748782159
2024-09-23 14:01:16.637383,0,26.322826,-0.0030841997366068195,-0.023330473146428877,0.0973015264147526,36.09446859390736,-100.26678939585686,84.22370748782159
2024-09-23 14:01:16.650257,0,26.322918,-0.0030841997366068195,-0.023330473146428877,0.0973015264147526,36.09446859390736,-100.26678939585686,80.21211738781929
2024-09-23 14:01:16.683521,0,26.322918,-0.0036811340262279837,-0.02367869399252531,0.0973015264147526,36.09446859390736,-100.26678939585686,80.21211738781929
2024-09-23 14:01:16.694461,0,26.322918,-0.0036811340262279837,-0.02367869399252531,0.09725178296655933,28.07457030097246,-104.27510100388527,84.22370748782159
2024-09-23 14:01:16.736461,0,26.32297,-0.003482159473966507,-0.02238531725122294,0.09720203344245934,28.07457030097246,-104.27510100388527,84.22370748782159
2024-09-23 14:01:16.748490,0,26.32297,-0.003482159473966507,-0.02238531725122294,0.09720203344245934,28.07457030097246,-100.26678939585686,84.22370748782159
2024-09-23 14:01:16.782081,0,26.32302,-0.003482159473966507,-0.02238531725122294,0.09720203344245934,28.07457030097246,-100.26678939585686,84.22370748782159
2024-09-23 14:01:16.793143,0,26.32302,-0.0033329230534799477,-0.023479709566915436,0.09720203344245934,32.08287849390507,-100.26678939585686,84.22370748782159
2024-09-23 14:01:16.835770,0,26.323071,-0.0030344509719951677,-0.023330473146428877,0.09720203344245934,32.08287849390507,-96.25519929585457,76.200527287817
2024-09-23 14:01:16.877753,0,26.323071,-0.0030344509719951677,-0.023330473146428877,0.09680407370509965,32.08287849390507,-96.25519929585457,76.200527287817
2024-09-23 14:01:16.889770,0,26.323122,-0.0028354659767690416,-0.023330473146428877,0.09680407370509965,36.09446859390736,-96.25519929585457,88.23529758782387
2024-09-23 14:01:16.932240,0,26.323122,-0.0028354659767690416,-0.022982261414192504,0.09680407370509965,36.09446859390736,-96.25519929585457,88.23529758782387
2024-09-23 14:01:16.974811,0,26.323122,-0.0028354659767690416,-0.022982261414192504,0.09725178296655933,36.09446859390736,-96.25519929585457,88.23529758782387
2024-09-23 14:01:17.028592,0,26.323172,-0.0028354659767690416,-0.022982261414192504,0.09725178296655933,36.09446859390736,-96.25519929585457,84.22370748782159
2024-09-23 14:01:17.040742,0,26.323172,-0.0031339382481259063,-0.0228827638849692,0.09725178296655933,36.09446859390736,-96.25519929585457,84.22370748782159
2024-09-23 14:01:17.073791,0,26.323172,-0.0031339382481259063,-0.0228827638849692,0.09705279702197278,32.08287849390507,-96.25519929585457,84.22370748782159
2024-09-23 14:01:17.085023,0,26.32326,-0.0028354659767690416,-0.0228827638849692,0.09705279702197278,32.08287849390507,-96.25519929585457,80.21211738781929
2024-09-23 14:01:17.127522,0,26.32326,-0.0028354659767690416,-0.023181236725942318,0.09720203344245934,32.08287849390507,-104.27510100388527,84.22370748782159
2024-09-23 14:01:17.139457,0,26.323311,-0.0028354659767690416,-0.023181236725942318,0.09720203344245934,32.08287849390507,-104.27510100388527,84.22370748782159
2024-09-23 14:01:17.171400,0,26.323311,-0.0028354659767690416,-0.022982261414192504,0.09720203344245934,32.08287849390507,-104.27510100388527,84.22370748782159
2024-09-23 14:01:17.182814,0,26.323311,-0.0028354659767690416,-0.022982261414192504,0.0970030596496862,36.09446859390736,-104.27510100388527,84.22370748782159
2024-09-23 14:01:17.225884,43.01,26.323362,-0.003929857343101113,-0.022982261414192504,0.09685382322919964,36.09446859390736,-96.25519929585457,84.22370748782159
2024-09-23 14:01:17.269051,43.01,26.323504,-0.003929857343101113,-0.022982261414192504,0.09685382322919964,36.09446859390736,-96.25519929585457,84.22370748782159
2024-09-23 14:01:17.281131,43.01,26.323504,-0.0035318979854855937,-0.02303200030545576,0.0970030596496862,36.09446859390736,-96.25519929585457,84.22370748782159
2024-09-23 14:01:17.324716,43.01,26.323555,-0.0038801188315820256,-0.02303200030545576,0.0970030596496862,36.09446859390736,-104.27510100388527,76.200527287817
2024-09-23 14:01:17.367611,43.01,26.323555,-0.0038801188315820256,-0.02313149783467906,0.09715228999426605,36.09446859390736,-104.27510100388527,76.200527287817
2024-09-23 14:01:17.379325,43.01,26.323606,-0.0038801188315820256,-0.02313149783467906,0.09715228999426605,36.09446859390736,-96.25519929585457,76.200527287817
2024-09-23 14:01:17.422825,43.01,26.323606,-0.003482159473966507,-0.023230986250042305,0.09720203344245934,44.11764879391193,-96.25519929585457,84.22370748782159
2024-09-23 14:01:17.466348,43.01,26.323657,-0.0030841997366068195,-0.022982261414192504,0.09720203344245934,44.11764879391193,-96.25519929585457,84.22370748782159
2024-09-23 14:01:17.477641,43.01,26.323657,-0.0030841997366068195,-0.022982261414192504,0.09720203344245934,44.11764879391193,-96.25519929585457,84.22370748782159
2024-09-23 14:01:17.509966,43.01,26.323657,-0.0030841997366068195,-0.022982261414192504,0.09720203344245934,44.11764879391193,-96.25519929585457,84.22370748782159
2024-09-23 14:01:17.521465,43.01,26.323747,-0.002785727465249955,-0.0228827638849692,0.09710254654607277,40.106058693909645,-96.25519929585457,84.22370748782159
2024-09-23 14:01:17.563705,43.01,26.323798,-0.0035816467500972456,-0.0228827638849692,0.09710254654607277,40.106058693909645,-92.24360919585227,80.21211738781929
2024-09-23 14:01:17.575405,43.01,26.323798,-0.0035816467500972456,-0.02303200030545576,0.09685382322919964,40.106058693909645,-92.24360919585227,80.21211738781929
2024-09-23 14:01:17.607613,43.01,26.323798,-0.0035816467500972456,-0.02303200030545576,0.09685382322919964,36.09446859390736,-92.24360919585227,80.21211738781929
2024-09-23 14:01:17.618637,43.01,26.323849,-0.0035318979854855937,-0.023429960042815445,0.09685382322919964,36.09446859390736,-92.24360919585227,88.23529758782387
2024-09-23 14:01:17.662900,43.01,26.323849,-0.0035318979854855937,-0.023429960042815445,0.09720203344245934,32.08287849390507,-96.25519929585457,84.22370748782159
2024-09-23 14:01:17.674460,43.01,26.3239,-0.003482159473966507,-0.023429960042815445,0.09720203344245934,32.08287849390507,-96.25519929585457,84.22370748782159
2024-09-23 14:01:17.758196,43.01,26.3239,-0.003482159473966507,-0.023181236725942318,0.09710254654607277,40.106058693909645,-96.25519929585457,84.22370748782159
2024-09-23 14:01:17.770230,43.01,26.323991,-0.003482159473966507,-0.023181236725942318,0.09710254654607277,40.106058693909645,-88.23529758782387,84.22370748782159
2024-09-23 14:01:17.802637,43.01,26.323991,-0.0030841997366068195,-0.023181236725942318,0.09710254654607277,40.106058693909645,-88.23529758782387,84.22370748782159
2024-09-23 14:01:17.814079,43.01,26.323991,-0.0030841997366068195,-0.0228827638849692,0.0970030596496862,32.08287849390507,-92.24360919585227,84.22370748782159
2024-09-23 14:01:17.856873,43.01,26.324042,-0.0038801188315820256,-0.02362894446842532,0.09680407370509965,32.08287849390507,-92.24360919585227,84.22370748782159
2024-09-23 14:01:17.868746,43.01,26.324042,-0.0038801188315820256,-0.02362894446842532,0.09680407370509965,48.12595698684454,-92.24360919585227,84.22370748782159
2024-09-23 14:01:17.901722,43.01,26.324042,-0.0038801188315820256,-0.02362894446842532,0.09680407370509965,48.12595698684454,-92.24360919585227,80.21211738781929
2024-09-23 14:01:17.912987,43.01,26.324093,-0.0035816467500972456,-0.02313149783467906,0.0970030596496862,44.11764879391193,-92.24360919585227,80.21211738781929
2024-09-23 14:01:17.955404,43.01,26.324144,-0.003233425524256645,-0.02362894446842532,0.0970030596496862,44.11764879391193,-104.27510100388527,80.21211738781929
2024-09-23 14:01:17.967068,43.01,26.324144,-0.003233425524256645,-0.02362894446842532,0.09705279702197278,44.11764879391193,-104.27510100388527,80.21211738781929
2024-09-23 14:01:17.999487,43.01,26.324144,-0.003233425524256645,-0.02362894446842532,0.09705279702197278,36.09446859390736,-96.25519929585457,80.21211738781929
2024-09-23 14:01:18.011119,43.01,26.324237,-0.0028354659767690416,-0.023330473146428877,0.09705279702197278,36.09446859390736,-96.25519929585457,84.22370748782159
2024-09-23 14:01:18.053843,43.01,26.324287,-0.0028354659767690416,-0.023330473146428877,0.09675432418099966,36.09446859390736,-100.26678939585686,84.22370748782159
2024-09-23 14:01:18.065581,43.01,26.324287,-0.0031836870127375577,-0.023330473146428877,0.09675432418099966,36.09446859390736,-100.26678939585686,84.22370748782159
2024-09-23 14:01:18.149705,43.01,26.324287,-0.0031836870127375577,-0.02338022115155219,0.09705279702197278,32.08287849390507,-100.26678939585686,84.22370748782159
2024-09-23 14:01:18.161605,43.01,26.324381,-0.0031836870127375577,-0.02338022115155219,0.09705279702197278,32.08287849390507,-100.26678939585686,80.21211738781929
2024-09-23 14:01:18.195536,43.01,26.324381,-0.0031836870127375577,-0.02233556924609963,0.09705279702197278,32.08287849390507,-100.26678939585686,80.21211738781929
2024-09-23 14:01:18.207454,43.01,26.324381,-0.0031836870127375577,-0.02233556924609963,0.09705279702197278,32.08287849390507,-96.25519929585457,80.21211738781929
2024-09-23 14:01:18.249323,42.51,26.324432,-0.0035318979854855937,-0.02338022115155219,0.09750050628343246,40.106058693909645,-96.25519929585457,80.21211738781929
2024-09-23 14:01:18.291998,42.51,26.324483,-0.0035318979854855937,-0.02338022115155219,0.09750050628343246,40.106058693909645,-96.25519929585457,80.21211738781929
2024-09-23 14:01:18.304046,42.51,26.324483,-0.0035816467500972456,-0.023181236725942318,0.09740101331113918,40.106058693909645,-96.25519929585457,80.21211738781929
2024-09-23 14:01:18.347497,42.51,26.324534,-0.0034324103296106863,-0.023230986250042305,0.09740101331113918,40.106058693909645,-100.26678939585686,80.21211738781929
2024-09-23 14:01:18.389933,42.51,26.324534,-0.0034324103296106863,-0.023230986250042305,0.09774922960030558,36.09446859390736,-100.26678939585686,80.21211738781929
2024-09-23 14:01:18.401895,42.51,26.324627,-0.0031339382481259063,-0.023230986250042305,0.09774922960030558,36.09446859390736,-104.27510100388527,72.1922225099802
2024-09-23 14:01:18.445681,42.51,26.324677,-0.0031339382481259063,-0.023728432883788564,0.09680407370509965,40.106058693909645,-96.25519929585457,80.21211738781929
2024-09-23 14:01:18.489039,42.51,26.324677,-0.0030344509719951677,-0.023429960042815445,0.09695331012558621,40.106058693909645,-96.25519929585457,80.21211738781929
2024-09-23 14:01:18.500669,42.51,26.324677,-0.0030344509719951677,-0.023429960042815445,0.09695331012558621,32.08287849390507,-104.27510100388527,80.21211738781929
2024-09-23 14:01:18.543284,42.51,26.324771,-0.0031339382481259063,-0.023877669304275123,0.09740101331113918,40.106058693909645,-96.25519929585457,80.21211738781929
2024-09-23 14:01:18.586414,42.51,26.324823,-0.0030344509719951677,-0.023877669304275123,0.09740101331113918,40.106058693909645,-96.25519929585457,84.22370748782159
2024-09-23 14:01:18.597983,42.51,26.324823,-0.0030344509719951677,-0.02352945757203875,0.09740101331113918,40.106058693909645,-96.25519929585457,84.22370748782159
2024-09-23 14:01:18.640675,42.51,26.324873,-0.0031339382481259063,-0.023280723622328886,0.0973015264147526,40.106058693909645,-96.25519929585457,80.21211738781929
2024-09-23 14:01:18.682756,42.51,26.324873,-0.0031339382481259063,-0.023280723622328886,0.0973015264147526,40.106058693909645,-96.25519929585457,80.21211738781929
2024-09-23 14:01:18.694582,42.51,26.324924,-0.0026862297461545674,-0.02338022115155219,0.0973015264147526,40.106058693909645,-96.25519929585457,80.21211738781929
2024-09-23 14:01:18.737397,42.51,26.324975,-0.0035816467500972456,-0.02338022115155219,0.09750050628343246,20.05138839341998,-100.26678939585686,80.21211738781929
2024-09-23 14:01:18.779871,42.51,26.324975,-0.0035816467500972456,-0.02293251340906919,0.09705279702197278,20.05138839341998,-100.26678939585686,80.21211738781929
2024-09-23 14:01:18.791584,42.51,26.325063,-0.0035816467500972456,-0.02293251340906919,0.09705279702197278,28.07457030097246,-96.25519929585457,80.21211738781929
2024-09-23 14:01:18.834217,42.51,26.325063,-0.003482159473966507,-0.02293251340906919,0.09755024973162574,36.09446859390736,-104.27510100388527,80.21211738781929
2024-09-23 14:01:18.876889,42.51,26.325115,-0.0031836870127375577,-0.02293251340906919,0.09755024973162574,36.09446859390736,-104.27510100388527,80.21211738781929
2024-09-23 14:01:18.888276,42.51,26.325115,-0.0031836870127375577,-0.023330473146428877,0.09715228999426605,40.106058693909645,-108.28669110388756,80.21211738781929
2024-09-23 14:01:18.930220,42.51,26.325165,-0.0030841997366068195,-0.022584292562972758,0.09715228999426605,40.106058693909645,-108.28669110388756,80.21211738781929
2024-09-23 14:01:18.942157,42.51,26.325165,-0.0030841997366068195,-0.022584292562972758,0.09725178296655933,40.106058693909645,-108.28669110388756,80.21211738781929
2024-09-23 14:01:18.974928,42.51,26.325165,-0.0030841997366068195,-0.022584292562972758,0.09725178296655933,40.106058693909645,-100.26678939585686,80.21211738781929
2024-09-23 14:01:18.986026,42.51,26.325216,-0.0031836870127375577,-0.02338022115155219,0.09690356060148622,40.106058693909645,-100.26678939585686,80.21211738781929
2024-09-23 14:01:19.029140,42.51,26.325267,-0.003482159473966507,-0.02338022115155219,0.09690356060148622,36.09446859390736,-100.26678939585686,84.22370748782159
2024-09-23 14:01:19.040972,42.51,26.325267,-0.003482159473966507,-0.022733528983459317,0.09690356060148622,36.09446859390736,-100.26678939585686,84.22370748782159
2024-09-23 14:01:19.073405,42.51,26.325267,-0.003482159473966507,-0.022733528983459317,0.09710254654607277,40.106058693909645,-100.26678939585686,84.22370748782159
2024-09-23 14:01:19.084789,42.51,26.325317,-0.0034324103296106863,-0.022733528983459317,0.09710254654607277,40.106058693909645,-100.26678939585686,76.200527287817
2024-09-23 14:01:19.127072,42.51,26.325317,-0.0034324103296106863,-0.023181236725942318,0.09725178296655933,36.09446859390736,-100.26678939585686,84.22370748782159
2024-09-23 14:01:19.139094,42.51,26.325404,-0.0034324103296106863,-0.023181236725942318,0.09725178296655933,36.09446859390736,-100.26678939585686,84.22370748782159
2024-09-23 14:01:19.171850,42.51,26.325404,-0.0029847020175114316,-0.023728432883788564,0.0973512698629459,36.09446859390736,-100.26678939585686,84.22370748782159
2024-09-23 14:01:19.184087,42.51,26.325404,-0.0029847020175114316,-0.023728432883788564,0.0973512698629459,32.08287849390507,-96.25519929585457,80.21211738781929
2024-09-23 14:01:19.216315,42.51,26.325456,-0.0029847020175114316,-0.023728432883788564,0.0973512698629459,32.08287849390507,-96.25519929585457,80.21211738781929
2024-09-23 14:01:19.227835,42.51,26.325456,-0.0037308827908396356,-0.023181236725942318,0.09715228999426605,36.09446859390736,-104.27510100388527,80.21211738781929
2024-09-23 14:01:19.270041,42.38,26.325507,-0.0031836870127375577,-0.022982261414192504,0.09715228999426605,36.09446859390736,-104.27510100388527,76.200527287817
2024-09-23 14:01:19.281723,42.38,26.325507,-0.0031836870127375577,-0.022982261414192504,0.09725178296655933,36.09446859390736,-104.27510100388527,76.200527287817
2024-09-23 14:01:19.314676,42.38,26.325507,-0.0031836870127375577,-0.022982261414192504,0.09725178296655933,36.09446859390736,-108.28669110388756,76.200527287817
2024-09-23 14:01:19.368060,42.38,26.325557,-0.0031836870127375577,-0.02313149783467906,0.09725178296655933,36.09446859390736,-108.28669110388756,80.21211738781929
2024-09-23 14:01:19.380263,42.38,26.325557,-0.0031836870127375577,-0.02313149783467906,0.09725178296655933,36.09446859390736,-108.28669110388756,80.21211738781929
2024-09-23 14:01:19.413065,42.38,26.325557,-0.0031836870127375577,-0.02313149783467906,0.09725178296655933,32.08287849390507,-96.25519929585457,80.21211738781929
2024-09-23 14:01:19.466086,42.38,26.325608,-0.004029355252068585,-0.023280723622328886,0.09725178296655933,32.08287849390507,-96.25519929585457,80.21211738781929
2024-09-23 14:01:19.477633,42.38,26.325608,-0.004029355252068585,-0.023280723622328886,0.09695331012558621,36.09446859390736,-96.25519929585457,80.21211738781929
2024-09-23 14:01:19.511147,42.38,26.325608,-0.004029355252068585,-0.023280723622328886,0.09695331012558621,36.09446859390736,-96.25519929585457,84.22370748782159
2024-09-23 14:01:19.522254,42.38,26.325659,-0.003929857343101113,-0.02352945757203875,0.09720203344245934,36.09446859390736,-96.25519929585457,84.22370748782159
2024-09-23 14:01:19.565826,42.38,26.325746,-0.0035816467500972456,-0.023429960042815445,0.09720203344245934,40.106058693909645,-104.27510100388527,76.200527287817
2024-09-23 14:01:19.608123,42.38,26.325746,-0.0035816467500972456,-0.023429960042815445,0.09715228999426605,36.09446859390736,-104.27510100388527,76.200527287817
2024-09-23 14:01:19.619629,42.38,26.325797,-0.0038801188315820256,-0.023429960042815445,0.09715228999426605,36.09446859390736,-96.25519929585457,76.200527287817
2024-09-23 14:01:19.662541,42.38,26.325797,-0.0038801188315820256,-0.02412639262114825,0.09695331012558621,40.106058693909645,-100.26678939585686,80.21211738781929
2024-09-23 14:01:19.674933,42.38,26.325893,-0.0038801188315820256,-0.02412639262114825,0.09695331012558621,40.106058693909645,-100.26678939585686,80.21211738781929
2024-09-23 14:01:19.706909,42.38,26.325893,-0.003631395514708897,-0.02313149783467906,0.09695331012558621,40.106058693909645,-100.26678939585686,80.21211738781929
2024-09-23 14:01:19.718698,42.38,26.325893,-0.003631395514708897,-0.02313149783467906,0.0973015264147526,40.106058693909645,-92.24360919585227,72.1922225099802
2024-09-23 14:01:19.803189,42.38,26.32599,-0.003482159473966507,-0.02313149783467906,0.0973015264147526,40.106058693909645,-92.24360919585227,72.1922225099802
2024-09-23 14:01:19.814736,42.38,26.32599,-0.003482159473966507,-0.02352945757203875,0.09715228999426605,40.106058693909645,-104.27510100388527,72.1922225099802
2024-09-23 14:01:19.857173,42.38,26.326041,-0.0033329230534799477,-0.023230986250042305,0.09755024973162574,40.106058693909645,-104.27510100388527,84.22370748782159
2024-09-23 14:01:19.868901,42.38,26.326041,-0.0033329230534799477,-0.023230986250042305,0.09755024973162574,36.09446859390736,-104.27510100388527,84.22370748782159
2024-09-23 14:01:19.902564,42.38,26.326041,-0.0033329230534799477,-0.023230986250042305,0.09755024973162574,36.09446859390736,-100.26678939585686,76.200527287817
2024-09-23 14:01:19.913597,42.38,26.326092,-0.0038303700669703737,-0.023230986250042305,0.0973512698629459,36.09446859390736,-100.26678939585686,76.200527287817
2024-09-23 14:01:19.957393,42.38,26.326143,-0.0032831742888682963,-0.023230986250042305,0.0973512698629459,40.106058693909645,-100.26678939585686,80.21211738781929
2024-09-23 14:01:19.969422,42.38,26.326143,-0.0032831742888682963,-0.023429960042815445,0.0973512698629459,40.106058693909645,-100.26678939585686,80.21211738781929
2024-09-23 14:01:20.002692,42.38,26.326143,-0.0032831742888682963,-0.023429960042815445,0.0973512698629459,36.09446859390736,-100.26678939585686,80.21211738781929
2024-09-23 14:01:20.013634,42.38,26.326193,-0.0035816467500972456,-0.023429960042815445,0.0973512698629459,36.09446859390736,-100.26678939585686,80.21211738781929
2024-09-23 14:01:20.047374,42.38,26.326193,-0.0035816467500972456,-0.024076653729884996,0.09740101331113918,36.09446859390736,-100.26678939585686,80.21211738781929
2024-09-23 14:01:20.058811,42.38,26.326331,-0.0035816467500972456,-0.024076653729884996,0.09740101331113918,32.08287849390507,-96.25519929585457,80.21211738781929
2024-09-23 14:01:20.101793,42.38,26.326331,-0.0028852147413806935,-0.023230986250042305,0.09745075675933246,36.09446859390736,-96.25519929585457,80.21211738781929
2024-09-23 14:01:20.195107,42.38,26.326382,-0.0029349636958644295,-0.023280723622328886,0.09745075675933246,36.09446859390736,-96.25519929585457,80.21211738781929
2024-09-23 14:01:20.206599,42.38,26.326382,-0.0029349636958644295,-0.023280723622328886,0.09675432418099966,28.07457030097246,-92.24360919585227,80.21211738781929
2024-09-23 14:01:20.249180,42.38,26.326433,-0.003233425524256645,-0.023330473146428877,0.09720203344245934,16.039798293417693,-92.24360919585227,84.22370748782159
2024-09-23 14:01:20.343180,41.34,26.326484,-0.0031836870127375577,-0.023330473146428877,0.09720203344245934,16.039798293417693,-104.27510100388527,80.21211738781929
2024-09-23 14:01:20.355298,41.34,26.326484,-0.0031836870127375577,-0.023330473146428877,0.09705279702197278,16.039798293417693,-104.27510100388527,80.21211738781929
2024-09-23 14:01:20.388438,41.34,26.326484,-0.0031836870127375577,-0.023330473146428877,0.09705279702197278,28.07457030097246,-100.26678939585686,80.21211738781929
2024-09-23 14:01:20.400005,41.34,26.326534,-0.0030841997366068195,-0.02362894446842532,0.09705279702197278,28.07457030097246,-100.26678939585686,80.21211738781929
2024-09-23 14:01:20.442382,41.34,26.326585,-0.0030841997366068195,-0.02362894446842532,0.09755024973162574,40.106058693909645,-92.24360919585227,80.21211738781929
2024-09-23 14:01:20.454347,41.34,26.326585,-0.003382661564999035,-0.02362894446842532,0.09755024973162574,40.106058693909645,-92.24360919585227,80.21211738781929
2024-09-23 14:01:20.487300,41.34,26.326585,-0.003382661564999035,-0.02308174982955575,0.09710254654607277,40.106058693909645,-92.24360919585227,80.21211738781929
2024-09-23 14:01:20.499013,41.34,26.326721,-0.003382661564999035,-0.02308174982955575,0.09710254654607277,40.106058693909645,-96.25519929585457,80.21211738781929
2024-09-23 14:01:20.541075,41.34,26.326721,-0.003233425524256645,-0.023579196463302005,0.09710254654607277,36.09446859390736,-104.27510100388527,80.21211738781929
2024-09-23 14:01:20.583332,41.34,26.326819,-0.002586742470023829,-0.023579196463302005,0.09710254654607277,36.09446859390736,-104.27510100388527,80.21211738781929
2024-09-23 14:01:20.595442,41.34,26.326819,-0.002586742470023829,-0.02313149783467906,0.09690356060148622,40.106058693909645,-104.27510100388527,80.21211738781929
2024-09-23 14:01:20.639323,41.34,26.32687,-0.0034324103296106863,-0.023230986250042305,0.0973015264147526,44.11764879391193,-104.27510100388527,88.23529758782387
2024-09-23 14:01:20.682895,41.34,26.326921,-0.0034324103296106863,-0.023230986250042305,0.0973015264147526,44.11764879391193,-92.24360919585227,84.22370748782159
2024-09-23 14:01:20.694229,41.34,26.326921,-0.0035318979854855937,-0.023579196463302005,0.0970030596496862,44.11764879391193,-92.24360919585227,84.22370748782159
2024-09-23 14:01:20.737185,41.34,26.326971,-0.0036811340262279837,-0.023778180888911878,0.0970030596496862,32.08287849390507,-100.26678939585686,80.21211738781929
2024-09-23 14:01:20.831113,41.34,26.326971,-0.0036811340262279837,-0.023778180888911878,0.0973015264147526,32.08287849390507,-100.26678939585686,80.21211738781929
2024-09-23 14:01:20.874696,41.34,26.326971,-0.0036811340262279837,-0.023778180888911878,0.0973015264147526,32.08287849390507,-100.26678939585686,80.21211738781929
2024-09-23 14:01:20.885828,41.34,26.327022,-0.0030344509719951677,-0.022982261414192504,0.0973015264147526,32.08287849390507,-96.25519929585457,80.21211738781929
2024-09-23 14:01:20.927827,41.34,26.327022,-0.0030344509719951677,-0.022982261414192504,0.09690356060148622,28.07457030097246,-96.25519929585457,80.21211738781929
2024-09-23 14:01:20.939162,41.34,26.327111,-0.0031836870127375577,-0.022982261414192504,0.09690356060148622,28.07457030097246,-96.25519929585457,84.22370748782159
2024-09-23 14:01:20.971560,41.34,26.327111,-0.0031836870127375577,-0.02308174982955575,0.09690356060148622,28.07457030097246,-96.25519929585457,84.22370748782159
2024-09-23 14:01:20.982827,41.34,26.327162,-0.0031836870127375577,-0.02308174982955575,0.09710254654607277,28.07457030097246,-96.25519929585457,84.22370748782159
2024-09-23 14:01:21.025221,41.34,26.327162,-0.0029847020175114316,-0.023330473146428877,0.09710254654607277,28.07457030097246,-96.25519929585457,84.22370748782159
2024-09-23 14:01:21.036381,41.34,26.327162,-0.0029847020175114316,-0.023330473146428877,0.09710254654607277,36.09446859390736,-92.24360919585227,88.23529758782387
2024-09-23 14:01:21.068466,41.34,26.327213,-0.0029847020175114316,-0.023330473146428877,0.09710254654607277,36.09446859390736,-92.24360919585227,88.23529758782387
2024-09-23 14:01:21.081377,41.34,26.327213,-0.003780631555451287,-0.023429960042815445,0.09740101331113918,40.106058693909645,-92.24360919585227,88.23529758782387
2024-09-23 14:01:21.124785,41.34,26.327356,-0.003233425524256645,-0.02367869399252531,0.09745075675933246,40.106058693909645,-92.24360919585227,88.23529758782387
2024-09-23 14:01:21.136904,41.34,26.327356,-0.003233425524256645,-0.02367869399252531,0.09745075675933246,36.09446859390736,-92.24360919585227,88.23529758782387
2024-09-23 14:01:21.168455,41.34,26.327356,-0.003233425524256645,-0.02367869399252531,0.09745075675933246,36.09446859390736,-104.27510100388527,80.21211738781929
2024-09-23 14:01:21.179807,41.34,26.327407,-0.0033329230534799477,-0.02338022115155219,0.09650560086412653,36.09446859390736,-104.27510100388527,80.21211738781929
2024-09-23 14:01:21.223505,41.34,26.327457,-0.0033329230534799477,-0.02352945757203875,0.09650560086412653,36.09446859390736,-104.27510100388527,76.200527287817
2024-09-23 14:01:21.265332,41.34,26.327457,-0.0033329230534799477,-0.02352945757203875,0.09720203344245934,36.09446859390736,-104.27510100388527,76.200527287817
2024-09-23 14:01:21.369909,40.86,26.327508,-0.003780631555451287,-0.02352945757203875,0.09720203344245934,44.11764879391193,-100.26678939585686,80.21211738781929
2024-09-23 14:01:21.381700,40.86,26.327508,-0.003780631555451287,-0.02313149783467906,0.09720203344245934,44.11764879391193,-100.26678939585686,80.21211738781929
2024-09-23 14:01:21.413818,40.86,26.327508,-0.003780631555451287,-0.02313149783467906,0.0973015264147526,36.09446859390736,-100.26678939585686,80.21211738781929
2024-09-23 14:01:21.425617,40.86,26.327598,-0.0034324103296106863,-0.02313149783467906,0.0973015264147526,36.09446859390736,-100.26678939585686,80.21211738781929
2024-09-23 14:01:21.468475,40.86,26.32765,-0.0034324103296106863,-0.022584292562972758,0.09650560086412653,24.06297849342227,-104.27510100388527,76.200527287817
2024-09-23 14:01:21.511392,40.86,26.32765,-0.0033329230534799477,-0.02263404056809607,0.09755024973162574,24.06297849342227,-104.27510100388527,76.200527287817
2024-09-23 14:01:21.523470,40.86,26.32765,-0.0033329230534799477,-0.02263404056809607,0.09755024973162574,36.09446859390736,-92.24360919585227,80.21211738781929
2024-09-23 14:01:21.566753,40.86,26.3277,-0.0032831742888682963,-0.02338022115155219,0.09784872257259886,36.09446859390736,-96.25519929585457,80.21211738781929
2024-09-23 14:01:21.610162,40.86,26.327843,-0.0032831742888682963,-0.023330473146428877,0.09784872257259886,36.09446859390736,-96.25519929585457,80.21211738781929
2024-09-23 14:01:21.621641,40.86,26.327843,-0.0032831742888682963,-0.023330473146428877,0.09705279702197278,32.08287849390507,-96.25519929585457,80.21211738781929
2024-09-23 14:01:21.653893,40.86,26.327843,-0.0032831742888682963,-0.023330473146428877,0.09705279702197278,32.08287849390507,-100.26678939585686,80.21211738781929
2024-09-23 14:01:21.665435,40.86,26.327894,-0.003631395514708897,-0.022584292562972758,0.09715228999426605,32.08287849390507,-100.26678939585686,84.22370748782159
2024-09-23 14:01:21.707661,40.86,26.327945,-0.003631395514708897,-0.022584292562972758,0.09715228999426605,40.106058693909645,-100.26678939585686,80.21211738781929
2024-09-23 14:01:21.719046,40.86,26.327945,-0.0034324103296106863,-0.023330473146428877,0.09715228999426605,40.106058693909645,-100.26678939585686,80.21211738781929
2024-09-23 14:01:21.762037,40.86,26.327996,-0.0030344509719951677,-0.023330473146428877,0.09745075675933246,44.11764879391193,-96.25519929585457,80.21211738781929
2024-09-23 14:01:21.805008,40.86,26.327996,-0.0030344509719951677,-0.023579196463302005,0.09755024973162574,32.08287849390507,-104.27510100388527,80.21211738781929
2024-09-23 14:01:21.816415,40.86,26.328086,-0.0030344509719951677,-0.023579196463302005,0.09755024973162574,32.08287849390507,-104.27510100388527,76.200527287817
2024-09-23 14:01:21.849696,40.86,26.328086,-0.0030344509719951677,-0.023579196463302005,0.09755024973162574,32.08287849390507,-104.27510100388527,76.200527287817
2024-09-23 14:01:21.861034,40.86,26.328086,-0.0030344509719951677,-0.02338022115155219,0.0973015264147526,36.09446859390736,-96.25519929585457,84.22370748782159
2024-09-23 14:01:21.903181,40.86,26.328138,-0.0029349636958644295,-0.023429960042815445,0.09670458680871308,36.09446859390736,-96.25519929585457,84.22370748782159
2024-09-23 14:01:21.914672,40.86,26.328138,-0.0029349636958644295,-0.023429960042815445,0.09670458680871308,48.12595698684454,-92.24360919585227,84.22370748782159
2024-09-23 14:01:21.947670,40.86,26.328138,-0.0029349636958644295,-0.023429960042815445,0.09670458680871308,48.12595698684454,-92.24360919585227,80.21211738781929
2024-09-23 14:01:21.959571,40.86,26.328188,-0.0034324103296106863,-0.023181236725942318,0.09670458680871308,20.05138839341998,-92.24360919585227,80.21211738781929
2024-09-23 14:01:22.002391,40.86,26.328239,-0.0031836870127375577,-0.023330473146428877,0.09670458680871308,20.05138839341998,-104.27510100388527,80.21211738781929
2024-09-23 14:01:22.014466,40.86,26.328239,-0.0031836870127375577,-0.023330473146428877,0.09740101331113918,20.05138839341998,-104.27510100388527,80.21211738781929
2024-09-23 14:01:22.047057,40.86,26.328239,-0.0031836870127375577,-0.023330473146428877,0.09740101331113918,28.07457030097246,-104.27510100388527,76.200527287817
2024-09-23 14:01:22.058141,40.86,26.32829,-0.0030841997366068195,-0.02263404056809607,0.09740101331113918,28.07457030097246,-104.27510100388527,76.200527287817
2024-09-23 14:01:22.101199,40.86,26.328341,-0.0030344509719951677,-0.02263404056809607,0.09755024973162574,36.09446859390736,-100.26678939585686,68.18063240997792
2024-09-23 14:01:22.144496,40.86,26.328341,-0.0030344509719951677,-0.023280723622328886,0.0970030596496862,44.11764879391193,-100.26678939585686,68.18063240997792
2024-09-23 14:01:22.156735,40.86,26.328427,-0.0030344509719951677,-0.023280723622328886,0.0970030596496862,44.11764879391193,-100.26678939585686,76.200527287817
2024-09-23 14:01:22.200286,40.86,26.328427,-0.0026862297461545674,-0.02303200030545576,0.0973512698629459,36.09446859390736,-96.25519929585457,80.21211738781929
2024-09-23 14:01:22.242813,40.86,26.328479,-0.0031836870127375577,-0.023429960042815445,0.0973512698629459,36.09446859390736,-96.25519929585457,80.21211738781929
2024-09-23 14:01:22.295849,40.86,26.328529,-0.0029847020175114316,-0.023429960042815445,0.09720203344245934,36.09446859390736,-100.26678939585686,80.21211738781929
2024-09-23 14:01:22.390579,40.75,26.328529,-0.0029847020175114316,-0.02303200030545576,0.09715228999426605,36.09446859390736,-96.25519929585457,80.21211738781929
2024-09-23 14:01:22.401691,40.75,26.32858,-0.0029847020175114316,-0.02303200030545576,0.09715228999426605,36.09446859390736,-96.25519929585457,88.23529758782387
2024-09-23 14:01:22.434020,40.75,26.32858,-0.0031836870127375577,-0.02303200030545576,0.09715228999426605,36.09446859390736,-96.25519929585457,88.23529758782387
2024-09-23 14:01:22.445265,40.75,26.32858,-0.0031836870127375577,-0.023479709566915436,0.09690356060148622,44.11764879391193,-88.23529758782387,80.21211738781929
2024-09-23 14:01:22.488025,40.75,26.328631,-0.0036811340262279837,-0.02367869399252531,0.0966050877605131,44.11764879391193,-88.23529758782387,80.21211738781929
2024-09-23 14:01:22.499147,40.75,26.328631,-0.0036811340262279837,-0.02367869399252531,0.0966050877605131,28.07457030097246,-104.27510100388527,80.21211738781929
2024-09-23 14:01:22.532144,40.75,26.328631,-0.0036811340262279837,-0.02367869399252531,0.0966050877605131,28.07457030097246,-104.27510100388527,88.23529758782387
2024-09-23 14:01:22.543392,40.75,26.328681,-0.0031339382481259063,-0.0228827638849692,0.09750050628343246,40.106058693909645,-104.27510100388527,88.23529758782387
2024-09-23 14:01:22.587930,40.75,26.32877,-0.003631395514708897,-0.022733528983459317,0.09750050628343246,40.106058693909645,-100.26678939585686,76.200527287817
2024-09-23 14:01:22.599586,40.75,26.32877,-0.003631395514708897,-0.022733528983459317,0.09755024973162574,40.106058693909645,-100.26678939585686,76.200527287817
2024-09-23 14:01:22.631262,40.75,26.32877,-0.003631395514708897,-0.022733528983459317,0.09755024973162574,32.08287849390507,-96.25519929585457,76.200527287817
2024-09-23 14:01:22.642942,40.75,26.328868,-0.0030841997366068195,-0.023330473146428877,0.09755024973162574,32.08287849390507,-96.25519929585457,84.22370748782159
2024-09-23 14:01:22.685450,40.75,26.328919,-0.0031836870127375577,-0.023330473146428877,0.09670458680871308,40.106058693909645,-96.25519929585457,80.21211738781929
2024-09-23 14:01:22.728350,40.75,26.328919,-0.0031836870127375577,-0.0228827638849692,0.09695331012558621,40.106058693909645,-96.25519929585457,80.21211738781929
2024-09-23 14:01:22.739610,40.75,26.329012,-0.0031836870127375577,-0.0228827638849692,0.09695331012558621,40.106058693909645,-96.25519929585457,80.21211738781929
2024-09-23 14:01:22.781590,40.75,26.329012,-0.0031339382481259063,-0.023429960042815445,0.0973015264147526,28.07457030097246,-88.23529758782387,80.21211738781929
2024-09-23 14:01:22.793672,40.75,26.329012,-0.0031339382481259063,-0.023429960042815445,0.0973015264147526,28.07457030097246,-88.23529758782387,80.21211738781929
2024-09-23 14:01:22.826100,40.75,26.329064,-0.0036811340262279837,-0.023429960042815445,0.0973015264147526,28.07457030097246,-88.23529758782387,80.21211738781929
2024-09-23 14:01:22.838027,40.75,26.329064,-0.0036811340262279837,-0.022982261414192504,0.09789846602079214,28.07457030097246,-92.24360919585227,80.21211738781929
2024-09-23 14:01:22.881344,40.75,26.329114,-0.002636491424507565,-0.02352945757203875,0.0973512698629459,32.08287849390507,-92.24360919585227,80.21211738781929
2024-09-23 14:01:22.923194,40.75,26.329114,-0.002636491424507565,-0.02352945757203875,0.0973512698629459,32.08287849390507,-96.25519929585457,84.22370748782159
2024-09-23 14:01:22.934644,40.75,26.329165,-0.003233425524256645,-0.023330473146428877,0.09764974270391902,32.08287849390507,-96.25519929585457,84.22370748782159
2024-09-23 14:01:22.976729,40.75,26.329216,-0.0034324103296106863,-0.023330473146428877,0.09764974270391902,32.08287849390507,-92.24360919585227,80.21211738781929
2024-09-23 14:01:22.988437,40.75,26.329216,-0.0034324103296106863,-0.023330473146428877,0.09764974270391902,32.08287849390507,-92.24360919585227,80.21211738781929
2024-09-23 14:01:23.020722,40.75,26.329216,-0.0034324103296106863,-0.023330473146428877,0.09755024973162574,32.08287849390507,-92.24360919585227,80.21211738781929
2024-09-23 14:01:23.032364,40.75,26.329266,-0.0030841997366068195,-0.023330473146428877,0.09755024973162574,32.08287849390507,-96.25519929585457,72.1922225099802
2024-09-23 14:01:23.075003,40.75,26.329266,-0.0030841997366068195,-0.023728432883788564,0.09725178296655933,44.11764879391193,-96.25519929585457,80.21211738781929
2024-09-23 14:01:23.087371,40.75,26.329353,-0.0030841997366068195,-0.023728432883788564,0.09725178296655933,44.11764879391193,-96.25519929585457,80.21211738781929
2024-09-23 14:01:23.119071,40.75,26.329353,-0.003233425524256645,-0.02278327698858263,0.09725178296655933,44.11764879391193,-96.25519929585457,80.21211738781929
2024-09-23 14:01:23.130345,40.75,26.329353,-0.003233425524256645,-0.02278327698858263,0.09764974270391902,36.09446859390736,-104.27510100388527,76.200527287817
2024-09-23 14:01:23.172812,40.75,26.329405,-0.003780631555451287,-0.0228827638849692,0.0966050877605131,32.08287849390507,-104.27510100388527,76.200527287817
2024-09-23 14:01:23.184935,40.75,26.329405,-0.003780631555451287,-0.0228827638849692,0.0966050877605131,32.08287849390507,-96.25519929585457,76.200527287817
2024-09-23 14:01:23.217414,40.75,26.329456,-0.0030344509719951677,-0.0228827638849692,0.0966050877605131,32.08287849390507,-96.25519929585457,76.200527287817
2024-09-23 14:01:23.228524,40.75,26.329456,-0.0030344509719951677,-0.023728432883788564,0.09675432418099966,44.11764879391193,-96.25519929585457,76.200527287817
2024-09-23 14:01:23.271592,40.75,26.329506,-0.003780631555451287,-0.023330473146428877,0.09715228999426605,44.11764879391193,-92.24360919585227,76.200527287817
2024-09-23 14:01:23.313605,40.75,26.329506,-0.003780631555451287,-0.023330473146428877,0.09715228999426605,40.106058693909645,-96.25519929585457,76.200527287817
2024-09-23 14:01:23.325868,40.75,26.329557,-0.0030841997366068195,-0.023429960042815445,0.09715228999426605,40.106058693909645,-96.25519929585457,88.23529758782387
2024-09-23 14:01:23.410044,41.23,26.329557,-0.0030841997366068195,-0.023429960042815445,0.09665483728461309,40.106058693909645,-96.25519929585457,88.23529758782387
2024-09-23 14:01:23.421292,41.23,26.329608,-0.0032831742888682963,-0.023429960042815445,0.09665483728461309,32.08287849390507,-96.25519929585457,80.21211738781929
2024-09-23 14:01:23.465309,41.23,26.329608,-0.0032831742888682963,-0.023330473146428877,0.09685382322919964,28.07457030097246,-96.25519929585457,84.22370748782159
2024-09-23 14:01:23.476867,41.23,26.329695,-0.0032831742888682963,-0.023330473146428877,0.09685382322919964,28.07457030097246,-96.25519929585457,84.22370748782159
2024-09-23 14:01:23.508952,41.23,26.329695,-0.003382661564999035,-0.02293251340906919,0.09685382322919964,28.07457030097246,-96.25519929585457,84.22370748782159
2024-09-23 14:01:23.519940,41.23,26.329695,-0.003382661564999035,-0.02293251340906919,0.0973512698629459,16.039798293417693,-100.26678939585686,80.21211738781929
2024-09-23 14:01:23.562390,41.23,26.329746,-0.002586742470023829,-0.023579196463302005,0.09755024973162574,36.09446859390736,-100.26678939585686,80.21211738781929
2024-09-23 14:01:23.574315,41.23,26.329746,-0.002586742470023829,-0.023579196463302005,0.09755024973162574,36.09446859390736,-92.24360919585227,80.21211738781929
2024-09-23 14:01:23.607976,41.23,26.329797,-0.0034324103296106863,-0.023579196463302005,0.09755024973162574,36.09446859390736,-92.24360919585227,76.200527287817
2024-09-23 14:01:23.619196,41.23,26.329797,-0.0034324103296106863,-0.023877669304275123,0.09725178296655933,32.08287849390507,-92.24360919585227,76.200527287817
2024-09-23 14:01:23.661891,41.23,26.329891,-0.002785727465249955,-0.02362894446842532,0.09705279702197278,32.08287849390507,-92.24360919585227,80.21211738781929
2024-09-23 14:01:23.704962,41.23,26.329891,-0.002785727465249955,-0.02362894446842532,0.09705279702197278,32.08287849390507,-104.27510100388527,80.21211738781929
2024-09-23 14:01:23.716770,41.23,26.329942,-0.0035816467500972456,-0.0228827638849692,0.09705279702197278,32.08287849390507,-104.27510100388527,80.21211738781929
2024-09-23 14:01:23.760519,41.23,26.329993,-0.0030344509719951677,-0.0228827638849692,0.09725178296655933,32.08287849390507,-100.26678939585686,84.22370748782159
2024-09-23 14:01:23.802553,41.23,26.329993,-0.0030344509719951677,-0.023728432883788564,0.09670458680871308,36.09446859390736,-100.26678939585686,84.22370748782159
2024-09-23 14:01:23.814177,41.23,26.330085,-0.0030344509719951677,-0.023728432883788564,0.09670458680871308,36.09446859390736,-104.27510100388527,80.21211738781929
2024-09-23 14:01:23.857188,41.23,26.330085,-0.0038801188315820256,-0.023778180888911878,0.09755024973162574,32.08287849390507,-96.25519929585457,84.22370748782159
2024-09-23 14:01:23.899462,41.23,26.330136,-0.0034324103296106863,-0.02313149783467906,0.09755024973162574,32.08287849390507,-96.25519929585457,84.22370748782159
2024-09-23 14:01:23.910837,41.23,26.330136,-0.0034324103296106863,-0.02313149783467906,0.09764974270391902,44.11764879391193,-100.26678939585686,84.22370748782159
2024-09-23 14:01:23.953152,41.23,26.330187,-0.0031836870127375577,-0.02308174982955575,0.09695331012558621,32.08287849390507,-100.26678939585686,80.21211738781929
2024-09-23 14:01:23.995641,41.23,26.330187,-0.0031836870127375577,-0.02308174982955575,0.09695331012558621,32.08287849390507,-96.25519929585457,76.200527287817
2024-09-23 14:01:24.007059,41.23,26.330237,-0.0028354659767690416,-0.023230986250042305,0.09690356060148622,32.08287849390507,-96.25519929585457,76.200527287817
2024-09-23 14:01:24.049654,41.23,26.330288,-0.0032831742888682963,-0.023230986250042305,0.09690356060148622,32.08287849390507,-100.26678939585686,76.200527287817
2024-09-23 14:01:24.061443,41.23,26.330288,-0.0032831742888682963,-0.023330473146428877,0.09690356060148622,32.08287849390507,-100.26678939585686,76.200527287817
2024-09-23 14:01:24.093654,41.23,26.330288,-0.0032831742888682963,-0.023330473146428877,0.09764974270391902,32.08287849390507,-100.26678939585686,76.200527287817
2024-09-23 14:01:24.105628,41.23,26.330339,-0.0035816467500972456,-0.023330473146428877,0.09764974270391902,32.08287849390507,-96.25519929585457,84.22370748782159
2024-09-23 14:01:24.147528,41.23,26.330339,-0.0035816467500972456,-0.023181236725942318,0.09710254654607277,32.08287849390507,-96.25519929585457,80.21211738781929
2024-09-23 14:01:24.159200,41.23,26.330426,-0.0035816467500972456,-0.023181236725942318,0.09710254654607277,32.08287849390507,-96.25519929585457,80.21211738781929
2024-09-23 14:01:24.191174,41.23,26.330426,-0.0038801188315820256,-0.023330473146428877,0.09710254654607277,32.08287849390507,-96.25519929585457,80.21211738781929
2024-09-23 14:01:24.202466,41.23,26.330426,-0.0038801188315820256,-0.023330473146428877,0.09740101331113918,36.09446859390736,-96.25519929585457,80.21211738781929
2024-09-23 14:01:24.245808,41.23,26.330477,-0.003631395514708897,-0.023330473146428877,0.09725178296655933,32.08287849390507,-96.25519929585457,80.21211738781929
2024-09-23 14:01:24.287836,41.23,26.330528,-0.003631395514708897,-0.023330473146428877,0.09725178296655933,32.08287849390507,-96.25519929585457,80.21211738781929
2024-09-23 14:01:24.299695,41.23,26.330528,-0.0033329230534799477,-0.0228827638849692,0.0973015264147526,36.09446859390736,-96.25519929585457,80.21211738781929
2024-09-23 14:01:24.342308,41.23,26.330579,-0.0034324103296106863,-0.02362894446842532,0.0973015264147526,36.09446859390736,-96.25519929585457,76.200527287817
2024-09-23 14:01:24.353956,41.23,26.330579,-0.0034324103296106863,-0.02362894446842532,0.0973015264147526,36.09446859390736,-96.25519929585457,76.200527287817
2024-09-23 14:01:24.439165,41.3,26.330629,-0.0034324103296106863,-0.02362894446842532,0.0973015264147526,28.07457030097246,-96.25519929585457,88.23529758782387
2024-09-23 14:01:24.452128,41.3,26.330629,-0.003382661564999035,-0.022982261414192504,0.0973015264147526,28.07457030097246,-96.25519929585457,88.23529758782387
2024-09-23 14:01:24.483931,41.3,26.330629,-0.003382661564999035,-0.022982261414192504,0.09745075675933246,28.07457030097246,-96.25519929585457,88.23529758782387
2024-09-23 14:01:24.495415,41.3,26.33068,-0.0031339382481259063,-0.022982261414192504,0.09745075675933246,28.07457030097246,-104.27510100388527,84.22370748782159
2024-09-23 14:01:24.537789,41.3,26.33068,-0.0031339382481259063,-0.023181236725942318,0.09690356060148622,40.106058693909645,-92.24360919585227,80.21211738781929
2024-09-23 14:01:24.549978,41.3,26.330767,-0.0031339382481259063,-0.023181236725942318,0.09690356060148622,40.106058693909645,-92.24360919585227,80.21211738781929
2024-09-23 14:01:24.582614,41.3,26.330767,-0.003382661564999035,-0.023181236725942318,0.09690356060148622,40.106058693909645,-92.24360919585227,80.21211738781929
2024-09-23 14:01:24.636493,41.3,26.330819,-0.003382661564999035,-0.023280723622328886,0.09715228999426605,40.106058693909645,-100.26678939585686,80.21211738781929
2024-09-23 14:01:24.678572,41.3,26.330819,-0.0030841997366068195,-0.022833026512682618,0.09715228999426605,40.106058693909645,-100.26678939585686,80.21211738781929
2024-09-23 14:01:24.690679,41.3,26.330819,-0.0030841997366068195,-0.022833026512682618,0.09685382322919964,32.08287849390507,-100.26678939585686,76.200527287817
2024-09-23 14:01:24.734254,41.3,26.330914,-0.003482159473966507,-0.02362894446842532,0.0973512698629459,40.106058693909645,-96.25519929585457,76.200527287817
2024-09-23 14:01:24.827627,41.3,26.330965,-0.0030841997366068195,-0.02338022115155219,0.0973512698629459,40.106058693909645,-96.25519929585457,80.21211738781929
2024-09-23 14:01:24.841963,41.3,26.330965,-0.0030841997366068195,-0.02338022115155219,0.09725178296655933,36.09446859390736,-96.25519929585457,80.21211738781929
2024-09-23 14:01:24.876769,41.3,26.331016,-0.0030841997366068195,-0.02338022115155219,0.09725178296655933,36.09446859390736,-100.26678939585686,84.22370748782159
2024-09-23 14:01:24.888332,41.3,26.331016,-0.0033329230534799477,-0.0228827638849692,0.09645586349183995,36.09446859390736,-100.26678939585686,84.22370748782159
2024-09-23 14:01:24.920119,41.3,26.331016,-0.0033329230534799477,-0.0228827638849692,0.09645586349183995,40.106058693909645,-100.26678939585686,84.22370748782159
2024-09-23 14:01:24.972829,41.3,26.331016,-0.0033329230534799477,-0.0228827638849692,0.09645586349183995,40.106058693909645,-100.26678939585686,84.22370748782159
2024-09-23 14:01:25.026694,41.3,26.33111,-0.0032831742888682963,-0.023230986250042305,0.09720203344245934,40.106058693909645,-100.26678939585686,80.21211738781929
2024-09-23 14:01:25.070381,41.3,26.331161,-0.0032831742888682963,-0.023230986250042305,0.09720203344245934,40.106058693909645,-96.25519929585457,76.200527287817
2024-09-23 14:01:25.081689,41.3,26.331161,-0.003233425524256645,-0.02303200030545576,0.09755024973162574,40.106058693909645,-96.25519929585457,76.200527287817
2024-09-23 14:01:25.125387,41.3,26.331303,-0.0029349636958644295,-0.02313149783467906,0.09755024973162574,40.106058693909645,-100.26678939585686,76.200527287817
2024-09-23 14:01:25.167511,41.3,26.331303,-0.0029349636958644295,-0.02313149783467906,0.09710254654607277,40.106058693909645,-96.25519929585457,76.200527287817
2024-09-23 14:01:25.178900,41.3,26.331355,-0.003382661564999035,-0.02313149783467906,0.09710254654607277,40.106058693909645,-96.25519929585457,80.21211738781929
2024-09-23 14:01:25.221627,41.3,26.331498,-0.003382661564999035,-0.023330473146428877,0.09680407370509965,44.11764879391193,-92.24360919585227,80.21211738781929
2024-09-23 14:01:25.264303,41.3,26.331498,-0.0035318979854855937,-0.023230986250042305,0.09740101331113918,44.11764879391193,-92.24360919585227,80.21211738781929
2024-09-23 14:01:25.275733,41.3,26.331498,-0.0035318979854855937,-0.023230986250042305,0.09740101331113918,40.106058693909645,-96.25519929585457,80.21211738781929
2024-09-23 14:01:25.319138,41.3,26.33155,-0.0034324103296106863,-0.02313149783467906,0.09680407370509965,28.07457030097246,-100.26678939585686,80.21211738781929
2024-09-23 14:01:25.362546,41.3,26.3316,-0.0035318979854855937,-0.02313149783467906,0.09680407370509965,28.07457030097246,-100.26678939585686,84.22370748782159
2024-09-23 14:01:25.374302,41.3,26.3316,-0.0035318979854855937,-0.02338022115155219,0.09675432418099966,32.08287849390507,-100.26678939585686,84.22370748782159
2024-09-23 14:01:25.417598,41.3,26.331651,-0.0029847020175114316,-0.023728432883788564,0.09750050628343246,32.08287849390507,-96.25519929585457,84.22370748782159
2024-09-23 14:01:25.459524,40.85,26.331651,-0.0029847020175114316,-0.023728432883788564,0.09750050628343246,40.106058693909645,-96.25519929585457,76.200527287817
2024-09-23 14:01:25.470627,40.85,26.331702,-0.0029349636958644295,-0.02303200030545576,0.09750050628343246,40.106058693909645,-96.25519929585457,76.200527287817
2024-09-23 14:01:25.514338,40.85,26.331752,-0.0030841997366068195,-0.02303200030545576,0.09685382322919964,28.07457030097246,-96.25519929585457,80.21211738781929
2024-09-23 14:01:25.557035,40.85,26.331752,-0.0030841997366068195,-0.023479709566915436,0.09715228999426605,40.106058693909645,-96.25519929585457,80.21211738781929
2024-09-23 14:01:25.568232,40.85,26.33184,-0.0030841997366068195,-0.023479709566915436,0.09715228999426605,40.106058693909645,-104.27510100388527,80.21211738781929
2024-09-23 14:01:25.611900,40.85,26.33184,-0.0030841997366068195,-0.023280723622328886,0.09794820946898543,36.09446859390736,-92.24360919585227,84.22370748782159
2024-09-23 14:01:25.655611,40.85,26.331891,-0.0034324103296106863,-0.02338022115155219,0.09794820946898543,36.09446859390736,-92.24360919585227,84.22370748782159
2024-09-23 14:01:25.666827,40.85,26.331891,-0.0034324103296106863,-0.02338022115155219,0.09725178296655933,32.08287849390507,-100.26678939585686,84.22370748782159
2024-09-23 14:01:25.710184,40.85,26.331942,-0.0030841997366068195,-0.02313149783467906,0.09720203344245934,36.09446859390736,-100.26678939585686,80.21211738781929
2024-09-23 14:01:25.753196,40.85,26.331992,-0.0030841997366068195,-0.02313149783467906,0.09720203344245934,36.09446859390736,-100.26678939585686,80.21211738781929
2024-09-23 14:01:25.765951,40.85,26.331992,-0.0028852147413806935,-0.023479709566915436,0.09705279702197278,36.09446859390736,-100.26678939585686,80.21211738781929
2024-09-23 14:01:25.798628,40.85,26.331992,-0.0028852147413806935,-0.023479709566915436,0.09705279702197278,40.106058693909645,-100.26678939585686,80.21211738781929
2024-09-23 14:01:25.810406,40.85,26.332043,-0.003482159473966507,-0.023330473146428877,0.09705279702197278,40.106058693909645,-100.26678939585686,80.21211738781929
2024-09-23 14:01:25.853671,40.85,26.332094,-0.003482159473966507,-0.023330473146428877,0.09680407370509965,32.08287849390507,-104.27510100388527,84.22370748782159
2024-09-23 14:01:25.896547,40.85,26.332094,-0.003382661564999035,-0.023330473146428877,0.09680407370509965,32.08287849390507,-104.27510100388527,84.22370748782159
2024-09-23 14:01:25.948705,40.85,26.332094,-0.003382661564999035,-0.023778180888911878,0.09764974270391902,36.09446859390736,-104.27510100388527,84.22370748782159
2024-09-23 14:01:25.960362,40.85,26.332181,-0.003382661564999035,-0.023778180888911878,0.09764974270391902,36.09446859390736,-104.27510100388527,80.21211738781929
2024-09-23 14:01:25.993854,40.85,26.332181,-0.0028852147413806935,-0.023778180888911878,0.09764974270391902,36.09446859390736,-104.27510100388527,80.21211738781929
2024-09-23 14:01:26.005101,40.85,26.332181,-0.0028852147413806935,-0.023230986250042305,0.09695331012558621,44.11764879391193,-104.27510100388527,72.1922225099802
2024-09-23 14:01:26.048459,40.85,26.332232,-0.0038801188315820256,-0.023479709566915436,0.09695331012558621,36.09446859390736,-104.27510100388527,72.1922225099802
2024-09-23 14:01:26.060581,40.85,26.332232,-0.0038801188315820256,-0.023479709566915436,0.09695331012558621,36.09446859390736,-92.24360919585227,72.1922225099802
2024-09-23 14:01:26.094182,40.85,26.332283,-0.003631395514708897,-0.023479709566915436,0.09695331012558621,36.09446859390736,-92.24360919585227,76.200527287817
2024-09-23 14:01:26.105817,40.85,26.332283,-0.003631395514708897,-0.023479709566915436,0.09779897304849887,36.09446859390736,-92.24360919585227,76.200527287817
2024-09-23 14:01:26.148737,40.85,26.332334,-0.0029349636958644295,-0.023230986250042305,0.09720203344245934,36.09446859390736,-96.25519929585457,88.23529758782387
2024-09-23 14:01:26.191094,40.85,26.332334,-0.0029349636958644295,-0.023230986250042305,0.09720203344245934,28.07457030097246,-92.24360919585227,80.21211738781929
2024-09-23 14:01:26.202416,40.85,26.332427,-0.003382661564999035,-0.023280723622328886,0.09720203344245934,28.07457030097246,-92.24360919585227,80.21211738781929
2024-09-23 14:01:26.245463,40.85,26.332477,-0.003233425524256645,-0.023280723622328886,0.0973512698629459,24.06297849342227,-104.27510100388527,80.21211738781929
2024-09-23 14:01:26.287854,40.85,26.332477,-0.003233425524256645,-0.023479709566915436,0.09710254654607277,24.06297849342227,-104.27510100388527,80.21211738781929
2024-09-23 14:01:26.299691,40.85,26.332571,-0.003233425524256645,-0.023479709566915436,0.09710254654607277,40.106058693909645,-104.27510100388527,80.21211738781929
2024-09-23 14:01:26.342375,40.85,26.332571,-0.003382661564999035,-0.022982261414192504,0.09690356060148622,40.106058693909645,-104.27510100388527,76.200527287817
2024-09-23 14:01:26.384973,40.85,26.332622,-0.0031339382481259063,-0.022982261414192504,0.09690356060148622,40.106058693909645,-104.27510100388527,76.200527287817
2024-09-23 14:01:26.396444,40.85,26.332622,-0.0031339382481259063,-0.023230986250042305,0.09745075675933246,36.09446859390736,-104.27510100388527,76.200527287817
2024-09-23 14:01:26.438551,40.85,26.332673,-0.0030841997366068195,-0.023877669304275123,0.09640611396773996,36.09446859390736,-104.27510100388527,72.1922225099802
2024-09-23 14:01:26.450649,40.85,26.332673,-0.0030841997366068195,-0.023877669304275123,0.09640611396773996,36.09446859390736,-104.27510100388527,72.1922225099802
2024-09-23 14:01:26.484329,40.96,26.332724,-0.0030841997366068195,-0.023877669304275123,0.09640611396773996,36.09446859390736,-92.24360919585227,80.21211738781929
2024-09-23 14:01:26.495982,40.96,26.332724,-0.0031836870127375577,-0.023280723622328886,0.09759999317981902,36.09446859390736,-92.24360919585227,80.21211738781929
2024-09-23 14:01:26.538111,40.96,26.332724,-0.0031836870127375577,-0.023280723622328886,0.09759999317981902,32.08287849390507,-88.23529758782387,80.21211738781929
2024-09-23 14:01:26.580187,40.96,26.332774,-0.003233425524256645,-0.023280723622328886,0.09759999317981902,32.08287849390507,-88.23529758782387,84.22370748782159
2024-09-23 14:01:26.591961,40.96,26.332774,-0.003233425524256645,-0.023778180888911878,0.0973015264147526,32.08287849390507,-88.23529758782387,84.22370748782159
2024-09-23 14:01:26.635701,40.96,26.332825,-0.003631395514708897,-0.02313149783467906,0.09695331012558621,32.08287849390507,-104.27510100388527,80.21211738781929
2024-09-23 14:01:26.680187,40.96,26.332825,-0.003631395514708897,-0.02313149783467906,0.09695331012558621,40.106058693909645,-96.25519929585457,80.21211738781929
2024-09-23 14:01:26.691548,40.96,26.332912,-0.0031836870127375577,-0.023429960042815445,0.09695331012558621,40.106058693909645,-96.25519929585457,80.21211738781929
2024-09-23 14:01:26.723783,40.96,26.332912,-0.0031836870127375577,-0.023429960042815445,0.09665483728461309,40.106058693909645,-96.25519929585457,80.21211738781929
2024-09-23 14:01:26.735689,40.96,26.332964,-0.0033329230534799477,-0.023429960042815445,0.09665483728461309,36.09446859390736,-100.26678939585686,80.21211738781929
2024-09-23 14:01:26.778183,40.96,26.332964,-0.0033329230534799477,-0.023429960042815445,0.09755024973162574,32.08287849390507,-96.25519929585457,80.21211738781929
2024-09-23 14:01:26.789995,40.96,26.333014,-0.0033329230534799477,-0.023429960042815445,0.09755024973162574,32.08287849390507,-96.25519929585457,84.22370748782159
2024-09-23 14:01:26.823841,40.96,26.333014,-0.0035318979854855937,-0.023429960042815445,0.09755024973162574,32.08287849390507,-96.25519929585457,84.22370748782159
2024-09-23 14:01:26.836174,40.96,26.333014,-0.0035318979854855937,-0.023429960042815445,0.0970030596496862,32.08287849390507,-100.26678939585686,76.200527287817
2024-09-23 14:01:26.879296,40.96,26.333108,-0.0030344509719951677,-0.023479709566915436,0.09755024973162574,32.08287849390507,-96.25519929585457,76.200527287817
2024-09-23 14:01:26.922606,40.96,26.333159,-0.003382661564999035,-0.023479709566915436,0.09755024973162574,32.08287849390507,-96.25519929585457,80.21211738781929
2024-09-23 14:01:26.934343,40.96,26.333159,-0.003382661564999035,-0.023280723622328886,0.09680407370509965,32.08287849390507,-96.25519929585457,80.21211738781929
2024-09-23 14:01:26.978211,40.96,26.33321,-0.003631395514708897,-0.023280723622328886,0.09710254654607277,32.08287849390507,-92.24360919585227,88.23529758782387
2024-09-23 14:01:27.020203,40.96,26.33321,-0.003631395514708897,-0.023280723622328886,0.09710254654607277,36.09446859390736,-92.24360919585227,88.23529758782387
2024-09-23 14:01:27.032125,40.96,26.333261,-0.003233425524256645,-0.02293251340906919,0.09710254654607277,36.09446859390736,-92.24360919585227,84.22370748782159
2024-09-23 14:01:27.075103,40.96,26.333311,-0.0035816467500972456,-0.02293251340906919,0.09759999317981902,36.09446859390736,-96.25519929585457,84.22370748782159
2024-09-23 14:01:27.118903,40.96,26.333311,-0.0035816467500972456,-0.023280723622328886,0.09680407370509965,40.106058693909645,-104.27510100388527,84.22370748782159
2024-09-23 14:01:27.130112,40.96,26.3334,-0.0035816467500972456,-0.023280723622328886,0.09680407370509965,40.106058693909645,-104.27510100388527,80.21211738781929
2024-09-23 14:01:27.162269,40.96,26.3334,-0.0037308827908396356,-0.023280723622328886,0.09680407370509965,40.106058693909645,-104.27510100388527,80.21211738781929
2024-09-23 14:01:27.173740,40.96,26.3334,-0.0037308827908396356,-0.023330473146428877,0.09745075675933246,40.106058693909645,-100.26678939585686,80.21211738781929
2024-09-23 14:01:27.216313,40.96,26.333451,-0.0035318979854855937,-0.023280723622328886,0.0966050877605131,40.106058693909645,-100.26678939585686,80.21211738781929
2024-09-23 14:01:27.229908,40.96,26.333451,-0.0035318979854855937,-0.023280723622328886,0.0966050877605131,40.106058693909645,-92.24360919585227,80.21211738781929
2024-09-23 14:01:27.262205,40.96,26.333502,-0.0035318979854855937,-0.023280723622328886,0.0966050877605131,40.106058693909645,-92.24360919585227,80.21211738781929
2024-09-23 14:01:27.273204,40.96,26.333502,-0.0030344509719951677,-0.02338022115155219,0.09690356060148622,36.09446859390736,-92.24360919585227,80.21211738781929
2024-09-23 14:01:27.315643,40.96,26.333552,-0.0033329230534799477,-0.02303200030545576,0.09690356060148622,36.09446859390736,-100.26678939585686,80.21211738781929
2024-09-23 14:01:27.327488,40.96,26.333552,-0.0033329230534799477,-0.02303200030545576,0.09710254654607277,36.09446859390736,-100.26678939585686,80.21211738781929
2024-09-23 14:01:27.361000,40.96,26.333552,-0.0033329230534799477,-0.02303200030545576,0.09710254654607277,36.09446859390736,-104.27510100388527,80.21211738781929
2024-09-23 14:01:27.372680,40.96,26.333603,-0.0036811340262279837,-0.023479709566915436,0.09710254654607277,36.09446859390736,-104.27510100388527,80.21211738781929
2024-09-23 14:01:27.414530,40.96,26.333654,-0.003382661564999035,-0.023479709566915436,0.09695331012558621,40.106058693909645,-104.27510100388527,76.200527287817
2024-09-23 14:01:27.457147,40.96,26.333654,-0.003382661564999035,-0.02313149783467906,0.09670458680871308,40.106058693909645,-104.27510100388527,76.200527287817
2024-09-23 14:01:27.469533,40.96,26.333741,-0.003382661564999035,-0.02313149783467906,0.09670458680871308,36.09446859390736,-100.26678939585686,80.21211738781929
2024-09-23 14:01:27.512887,40.94,26.333741,-0.0037308827908396356,-0.023429960042815445,0.0976994861521123,32.08287849390507,-96.25519929585457,84.22370748782159
2024-09-23 14:01:27.554874,40.94,26.333792,-0.002785727465249955,-0.023429960042815445,0.0976994861521123,32.08287849390507,-96.25519929585457,84.22370748782159
2024-09-23 14:01:27.566389,40.94,26.333792,-0.002785727465249955,-0.02338022115155219,0.09695331012558621,40.106058693909645,-100.26678939585686,84.22370748782159
2024-09-23 14:01:27.609359,40.94,26.333843,-0.0031339382481259063,-0.02293251340906919,0.09759999317981902,44.11764879391193,-100.26678939585686,80.21211738781929
2024-09-23 14:01:27.652485,40.94,26.333843,-0.0031339382481259063,-0.02293251340906919,0.09759999317981902,44.11764879391193,-96.25519929585457,84.22370748782159
2024-09-23 14:01:27.663618,40.94,26.333894,-0.0033329230534799477,-0.023181236725942318,0.0973512698629459,44.11764879391193,-96.25519929585457,84.22370748782159
2024-09-23 14:01:27.706512,40.94,26.333944,-0.0033329230534799477,-0.023181236725942318,0.0973512698629459,32.08287849390507,-100.26678939585686,84.22370748782159
2024-09-23 14:01:27.719173,40.94,26.333944,-0.0033329230534799477,-0.023479709566915436,0.0973512698629459,32.08287849390507,-100.26678939585686,84.22370748782159
2024-09-23 14:01:27.752340,40.94,26.333944,-0.0033329230534799477,-0.023479709566915436,0.09705279702197278,24.06297849342227,-100.26678939585686,84.22370748782159
2024-09-23 14:01:27.764003,40.94,26.333995,-0.0031339382481259063,-0.023479709566915436,0.09705279702197278,24.06297849342227,-100.26678939585686,84.22370748782159
2024-09-23 14:01:27.795863,40.94,26.333995,-0.0031339382481259063,-0.023181236725942318,0.09705279702197278,24.06297849342227,-100.26678939585686,84.22370748782159
2024-09-23 14:01:27.807481,40.94,26.334082,-0.0031339382481259063,-0.023181236725942318,0.09710254654607277,32.08287849390507,-104.27510100388527,80.21211738781929
2024-09-23 14:01:27.849866,40.94,26.334082,-0.0031836870127375577,-0.023429960042815445,0.09690356060148622,36.09446859390736,-104.27510100388527,80.21211738781929
2024-09-23 14:01:27.861201,40.94,26.334082,-0.0031836870127375577,-0.023429960042815445,0.09690356060148622,36.09446859390736,-100.26678939585686,80.21211738781929
2024-09-23 14:01:27.903786,40.94,26.334134,-0.003979606107712764,-0.022733528983459317,0.0973015264147526,36.09446859390736,-100.26678939585686,80.21211738781929
2024-09-23 14:01:27.946591,40.94,26.334184,-0.0030841997366068195,-0.022733528983459317,0.0973015264147526,36.09446859390736,-100.26678939585686,84.22370748782159
2024-09-23 14:01:27.958361,40.94,26.334184,-0.0030841997366068195,-0.02338022115155219,0.09725178296655933,28.07457030097246,-100.26678939585686,84.22370748782159
2024-09-23 14:01:27.992463,40.94,26.334184,-0.0030841997366068195,-0.02338022115155219,0.09725178296655933,28.07457030097246,-100.26678939585686,84.22370748782159
2024-09-23 14:01:28.003650,40.94,26.334235,-0.0031836870127375577,-0.02313149783467906,0.09755024973162574,28.07457030097246,-100.26678939585686,84.22370748782159
2024-09-23 14:01:28.046412,40.94,26.334286,-0.0035318979854855937,-0.02313149783467906,0.09755024973162574,32.08287849390507,-100.26678939585686,88.23529758782387
2024-09-23 14:01:28.058200,40.94,26.334286,-0.0035318979854855937,-0.023230986250042305,0.09755024973162574,32.08287849390507,-100.26678939585686,88.23529758782387
2024-09-23 14:01:28.090944,40.94,26.334286,-0.0035318979854855937,-0.023230986250042305,0.09650560086412653,32.08287849390507,-100.26678939585686,88.23529758782387
2024-09-23 14:01:28.102501,40.94,26.334336,-0.0030344509719951677,-0.023230986250042305,0.09650560086412653,32.08287849390507,-92.24360919585227,88.23529758782387
2024-09-23 14:01:28.146014,40.94,26.334423,-0.0030344509719951677,-0.023280723622328886,0.09715228999426605,28.07457030097246,-96.25519929585457,84.22370748782159
2024-09-23 14:01:28.188355,40.94,26.334423,-0.0031836870127375577,-0.02278327698858263,0.09715228999426605,28.07457030097246,-96.25519929585457,84.22370748782159
2024-09-23 14:01:28.200593,40.94,26.334423,-0.0031836870127375577,-0.02278327698858263,0.09690356060148622,36.09446859390736,-100.26678939585686,80.21211738781929
2024-09-23 14:01:28.244003,40.94,26.334475,-0.003631395514708897,-0.02352945757203875,0.09695331012558621,36.09446859390736,-100.26678939585686,80.21211738781929
2024-09-23 14:01:28.286768,40.94,26.334526,-0.003631395514708897,-0.02352945757203875,0.09695331012558621,36.09446859390736,-100.26678939585686,80.21211738781929
2024-09-23 14:01:28.298549,40.94,26.334526,-0.0035816467500972456,-0.023181236725942318,0.09750050628343246,48.12595698684454,-100.26678939585686,80.21211738781929
2024-09-23 14:01:28.341468,40.94,26.334576,-0.003382661564999035,-0.02278327698858263,0.09715228999426605,48.12595698684454,-96.25519929585457,80.21211738781929
2024-09-23 14:01:28.383589,40.94,26.334576,-0.003382661564999035,-0.02278327698858263,0.09715228999426605,44.11764879391193,-88.23529758782387,80.21211738781929
2024-09-23 14:01:28.394853,40.94,26.334627,-0.003382661564999035,-0.023230986250042305,0.09715228999426605,44.11764879391193,-88.23529758782387,84.22370748782159
2024-09-23 14:01:28.438139,40.94,26.334678,-0.0034324103296106863,-0.023230986250042305,0.09725178296655933,36.09446859390736,-96.25519929585457,84.22370748782159
2024-09-23 14:01:28.532788,40.76,26.334678,-0.0034324103296106863,-0.02352945757203875,0.09740101331113918,28.07457030097246,-108.28669110388756,84.22370748782159
2024-09-23 14:01:28.544753,40.76,26.334678,-0.0034324103296106863,-0.02352945757203875,0.09740101331113918,28.07457030097246,-108.28669110388756,76.200527287817
2024-09-23 14:01:28.577988,40.76,26.334765,-0.0034324103296106863,-0.02352945757203875,0.09740101331113918,28.07457030097246,-108.28669110388756,76.200527287817
2024-09-23 14:01:28.589043,40.76,26.334765,-0.0027359787006383035,-0.023479709566915436,0.09690356060148622,32.08287849390507,-100.26678939585686,76.200527287817
2024-09-23 14:01:28.632304,40.76,26.334816,-0.003780631555451287,-0.02362894446842532,0.09750050628343246,32.08287849390507,-100.26678939585686,84.22370748782159
2024-09-23 14:01:28.644338,40.76,26.334816,-0.003780631555451287,-0.02362894446842532,0.09750050628343246,36.09446859390736,-100.26678939585686,84.22370748782159
2024-09-23 14:01:28.676301,40.76,26.334816,-0.003780631555451287,-0.02362894446842532,0.09750050628343246,36.09446859390736,-96.25519929585457,80.21211738781929
2024-09-23 14:01:28.688474,40.76,26.334867,-0.003780631555451287,-0.02352945757203875,0.09690356060148622,36.09446859390736,-96.25519929585457,80.21211738781929
2024-09-23 14:01:28.731776,40.76,26.334918,-0.003780631555451287,-0.02303200030545576,0.09690356060148622,32.08287849390507,-100.26678939585686,84.22370748782159
2024-09-23 14:01:28.775364,40.76,26.334918,-0.003780631555451287,-0.02303200030545576,0.09695331012558621,36.09446859390736,-92.24360919585227,84.22370748782159
2024-09-23 14:01:28.786599,40.76,26.335011,-0.0034324103296106863,-0.02303200030545576,0.09695331012558621,36.09446859390736,-92.24360919585227,84.22370748782159
2024-09-23 14:01:28.829330,40.76,26.335106,-0.0034324103296106863,-0.02308174982955575,0.0970030596496862,32.08287849390507,-92.24360919585227,88.23529758782387
2024-09-23 14:01:28.872683,40.76,26.335106,-0.0032831742888682963,-0.02338022115155219,0.09690356060148622,32.08287849390507,-92.24360919585227,88.23529758782387
2024-09-23 14:01:28.884069,40.76,26.335106,-0.0032831742888682963,-0.02338022115155219,0.09690356060148622,32.08287849390507,-96.25519929585457,80.21211738781929
2024-09-23 14:01:28.926602,40.76,26.335157,-0.003233425524256645,-0.023778180888911878,0.09710254654607277,36.09446859390736,-96.25519929585457,80.21211738781929
2024-09-23 14:01:28.970221,40.76,26.335208,-0.003482159473966507,-0.023778180888911878,0.09710254654607277,36.09446859390736,-96.25519929585457,80.21211738781929
2024-09-23 14:01:28.981915,40.76,26.335208,-0.003482159473966507,-0.022833026512682618,0.09725178296655933,40.106058693909645,-96.25519929585457,80.21211738781929
2024-09-23 14:01:29.024416,40.76,26.335259,-0.0031339382481259063,-0.02278327698858263,0.09685382322919964,40.106058693909645,-88.23529758782387,88.23529758782387
2024-09-23 14:01:29.067940,40.76,26.335259,-0.0031339382481259063,-0.02278327698858263,0.09685382322919964,40.106058693909645,-100.26678939585686,88.23529758782387
2024-09-23 14:01:29.079272,40.76,26.335309,-0.003382661564999035,-0.02308174982955575,0.09685382322919964,40.106058693909645,-100.26678939585686,88.23529758782387
2024-09-23 14:01:29.122291,40.76,26.335309,-0.003382661564999035,-0.02308174982955575,0.09705279702197278,36.09446859390736,-100.26678939585686,88.23529758782387
2024-09-23 14:01:29.166575,40.76,26.33536,-0.003382661564999035,-0.02308174982955575,0.09705279702197278,36.09446859390736,-100.26678939585686,80.21211738781929
2024-09-23 14:01:29.177860,40.76,26.33536,-0.0032831742888682963,-0.0228827638849692,0.0973015264147526,36.09446859390736,-100.26678939585686,80.21211738781929
2024-09-23 14:01:29.210265,40.76,26.33536,-0.0032831742888682963,-0.0228827638849692,0.0973015264147526,40.106058693909645,-100.26678939585686,80.21211738781929
2024-09-23 14:01:29.221397,40.76,26.335448,-0.003233425524256645,-0.02338022115155219,0.0973015264147526,40.106058693909645,-100.26678939585686,80.21211738781929
2024-09-23 14:01:29.263452,40.76,26.335448,-0.003233425524256645,-0.02338022115155219,0.09710254654607277,40.106058693909645,-100.26678939585686,76.200527287817
2024-09-23 14:01:29.275160,40.76,26.335499,-0.0029349636958644295,-0.02338022115155219,0.09710254654607277,40.106058693909645,-100.26678939585686,76.200527287817
2024-09-23 14:01:29.308197,40.76,26.335499,-0.0029349636958644295,-0.02367869399252531,0.09710254654607277,40.106058693909645,-100.26678939585686,76.200527287817
2024-09-23 14:01:29.319689,40.76,26.33555,-0.0029349636958644295,-0.02367869399252531,0.09759999317981902,40.106058693909645,-92.24360919585227,80.21211738781929
2024-09-23 14:01:29.362735,40.76,26.33555,-0.0032831742888682963,-0.0228827638849692,0.09720203344245934,24.06297849342227,-100.26678939585686,80.21211738781929
2024-09-23 14:01:29.374651,40.76,26.33555,-0.0032831742888682963,-0.0228827638849692,0.09720203344245934,24.06297849342227,-100.26678939585686,80.21211738781929
2024-09-23 14:01:29.407756,40.76,26.335643,-0.0032831742888682963,-0.0228827638849692,0.09720203344245934,24.06297849342227,-100.26678939585686,80.21211738781929
2024-09-23 14:01:29.419060,40.76,26.335643,-0.0032831742888682963,-0.02367869399252531,0.09740101331113918,40.106058693909645,-100.26678939585686,80.21211738781929
2024-09-23 14:01:29.462669,40.76,26.335694,-0.003482159473966507,-0.02308174982955575,0.0973512698629459,40.106058693909645,-100.26678939585686,84.22370748782159
2024-09-23 14:01:29.505827,40.76,26.335745,-0.003482159473966507,-0.02308174982955575,0.0973512698629459,40.106058693909645,-96.25519929585457,80.21211738781929
2024-09-23 14:01:29.516964,40.76,26.335745,-0.002586742470023829,-0.023429960042815445,0.09670458680871308,40.106058693909645,-96.25519929585457,80.21211738781929
2024-09-23 14:01:29.559433,40.83,26.335795,-0.0030841997366068195,-0.023479709566915436,0.09670458680871308,40.106058693909645,-100.26678939585686,80.21211738781929
2024-09-23 14:01:29.603694,40.83,26.335795,-0.0030841997366068195,-0.023479709566915436,0.09680407370509965,40.106058693909645,-96.25519929585457,80.21211738781929
2024-09-23 14:01:29.615485,40.83,26.335846,-0.0031339382481259063,-0.023479709566915436,0.09680407370509965,40.106058693909645,-96.25519929585457,80.21211738781929
2024-09-23 14:01:29.657705,40.83,26.335935,-0.0031339382481259063,-0.0228827638849692,0.09695331012558621,24.06297849342227,-96.25519929585457,76.200527287817
2024-09-23 14:01:29.750578,40.83,26.335935,-0.0033329230534799477,-0.02367869399252531,0.09705279702197278,40.106058693909645,-96.25519929585457,76.200527287817
2024-09-23 14:01:29.804478,40.83,26.335986,-0.003233425524256645,-0.02303200030545576,0.09755024973162574,40.106058693909645,-104.27510100388527,76.200527287817
2024-09-23 14:01:29.847294,40.83,26.335986,-0.003233425524256645,-0.02303200030545576,0.09755024973162574,40.106058693909645,-96.25519929585457,84.22370748782159
2024-09-23 14:01:29.859247,40.83,26.336037,-0.0036811340262279837,-0.023429960042815445,0.09755024973162574,40.106058693909645,-96.25519929585457,84.22370748782159
2024-09-23 14:01:29.902897,40.83,26.336088,-0.0034324103296106863,-0.023429960042815445,0.09720203344245934,36.09446859390736,-96.25519929585457,80.21211738781929
2024-09-23 14:01:29.945127,40.83,26.336088,-0.0034324103296106863,-0.02313149783467906,0.09764974270391902,48.12595698684454,-96.25519929585457,80.21211738781929
2024-09-23 14:01:29.956958,40.83,26.336138,-0.0034324103296106863,-0.02313149783467906,0.09764974270391902,48.12595698684454,-100.26678939585686,72.1922225099802
2024-09-23 14:01:30.001072,40.83,26.336138,-0.003929857343101113,-0.022584292562972758,0.09690356060148622,28.07457030097246,-92.24360919585227,84.22370748782159
2024-09-23 14:01:30.044336,40.83,26.336276,-0.0031836870127375577,-0.023280723622328886,0.09640611396773996,28.07457030097246,-92.24360919585227,84.22370748782159
2024-09-23 14:01:30.056213,40.83,26.336276,-0.0031836870127375577,-0.023280723622328886,0.09640611396773996,40.106058693909645,-92.24360919585227,84.22370748782159
2024-09-23 14:01:30.088652,40.83,26.336276,-0.0031836870127375577,-0.023280723622328886,0.09640611396773996,40.106058693909645,-92.24360919585227,80.21211738781929
2024-09-23 14:01:30.100121,40.83,26.336328,-0.0031836870127375577,-0.023181236725942318,0.09710254654607277,40.106058693909645,-92.24360919585227,80.21211738781929
2024-09-23 14:01:30.142669,40.83,26.336378,-0.0032831742888682963,-0.023230986250042305,0.09710254654607277,40.106058693909645,-92.24360919585227,72.1922225099802
2024-09-23 14:01:30.154698,40.83,26.336378,-0.0032831742888682963,-0.023230986250042305,0.09695331012558621,40.106058693909645,-92.24360919585227,72.1922225099802
2024-09-23 14:01:30.187792,40.83,26.336378,-0.0032831742888682963,-0.023230986250042305,0.09695331012558621,32.08287849390507,-92.24360919585227,72.1922225099802
2024-09-23 14:01:30.198811,40.83,26.336429,-0.0035816467500972456,-0.02338022115155219,0.09695331012558621,32.08287849390507,-92.24360919585227,80.21211738781929
2024-09-23 14:01:30.240977,40.83,26.33648,-0.0035816467500972456,-0.02338022115155219,0.09789846602079214,36.09446859390736,-100.26678939585686,80.21211738781929
2024-09-23 14:01:30.253343,40.83,26.33648,-0.003780631555451287,-0.02338022115155219,0.09789846602079214,36.09446859390736,-100.26678939585686,80.21211738781929
2024-09-23 14:01:30.286590,40.83,26.33648,-0.003780631555451287,-0.023778180888911878,0.0970030596496862,48.12595698684454,-100.26678939585686,80.21211738781929
2024-09-23 14:01:30.298033,40.83,26.336568,-0.003780631555451287,-0.023778180888911878,0.0970030596496862,48.12595698684454,-92.24360919585227,80.21211738781929
2024-09-23 14:01:30.340563,40.83,26.336568,-0.003631395514708897,-0.023181236725942318,0.09675432418099966,24.06297849342227,-96.25519929585457,84.22370748782159
2024-09-23 14:01:30.383320,40.83,26.33662,-0.0030344509719951677,-0.023181236725942318,0.09675432418099966,24.06297849342227,-96.25519929585457,84.22370748782159
2024-09-23 14:01:30.396305,40.83,26.33662,-0.0030344509719951677,-0.02308174982955575,0.09695331012558621,32.08287849390507,-96.25519929585457,84.22370748782159
2024-09-23 14:01:30.428724,40.83,26.33662,-0.0030344509719951677,-0.02308174982955575,0.09695331012558621,32.08287849390507,-96.25519929585457,80.21211738781929
2024-09-23 14:01:30.439971,40.83,26.336671,-0.003382661564999035,-0.023280723622328886,0.09759999317981902,44.11764879391193,-96.25519929585457,80.21211738781929
2024-09-23 14:01:30.482932,40.83,26.336721,-0.0036811340262279837,-0.023280723622328886,0.09759999317981902,44.11764879391193,-104.27510100388527,72.1922225099802
2024-09-23 14:01:30.494558,40.83,26.336721,-0.0036811340262279837,-0.023181236725942318,0.09670458680871308,44.11764879391193,-104.27510100388527,72.1922225099802
2024-09-23 14:01:30.527194,40.83,26.336721,-0.0036811340262279837,-0.023181236725942318,0.09670458680871308,44.11764879391193,-104.27510100388527,72.1922225099802
2024-09-23 14:01:30.538811,40.83,26.336772,-0.0035318979854855937,-0.022733528983459317,0.09670458680871308,44.11764879391193,-104.27510100388527,80.21211738781929
2024-09-23 14:01:30.581287,41.02,26.336823,-0.0035318979854855937,-0.022733528983459317,0.09740101331113918,32.08287849390507,-100.26678939585686,84.22370748782159
2024-09-23 14:01:30.593072,41.02,26.336823,-0.003631395514708897,-0.022733528983459317,0.09740101331113918,32.08287849390507,-100.26678939585686,84.22370748782159
2024-09-23 14:01:30.626480,41.02,26.336823,-0.003631395514708897,-0.023181236725942318,0.09715228999426605,32.08287849390507,-100.26678939585686,84.22370748782159
2024-09-23 14:01:30.637877,41.02,26.33691,-0.003631395514708897,-0.023181236725942318,0.09715228999426605,40.106058693909645,-96.25519929585457,72.1922225099802
2024-09-23 14:01:30.680273,41.02,26.33691,-0.003382661564999035,-0.02338022115155219,0.0970030596496862,40.106058693909645,-100.26678939585686,76.200527287817
2024-09-23 14:01:30.723203,41.02,26.336962,-0.0033329230534799477,-0.02338022115155219,0.0970030596496862,40.106058693909645,-100.26678939585686,76.200527287817
2024-09-23 14:01:30.734535,41.02,26.336962,-0.0033329230534799477,-0.02293251340906919,0.09655535038822652,32.08287849390507,-96.25519929585457,76.200527287817
2024-09-23 14:01:30.777416,41.02,26.337013,-0.0031836870127375577,-0.023181236725942318,0.09715228999426605,32.08287849390507,-96.25519929585457,84.22370748782159
2024-09-23 14:01:30.789952,41.02,26.337013,-0.0031836870127375577,-0.023181236725942318,0.09715228999426605,32.08287849390507,-96.25519929585457,84.22370748782159
2024-09-23 14:01:30.823068,41.02,26.337063,-0.0031836870127375577,-0.023181236725942318,0.09715228999426605,32.08287849390507,-96.25519929585457,84.22370748782159
2024-09-23 14:01:30.834255,41.02,26.337063,-0.0038303700669703737,-0.023728432883788564,0.09690356060148622,32.08287849390507,-96.25519929585457,84.22370748782159
2024-09-23 14:01:30.876716,41.02,26.337114,-0.003482159473966507,-0.02278327698858263,0.09690356060148622,36.09446859390736,-100.26678939585686,84.22370748782159
2024-09-23 14:01:30.920038,41.02,26.337114,-0.003482159473966507,-0.02278327698858263,0.09759999317981902,32.08287849390507,-96.25519929585457,84.22370748782159
2024-09-23 14:01:30.931537,41.02,26.337165,-0.0033329230534799477,-0.02278327698858263,0.09759999317981902,32.08287849390507,-96.25519929585457,84.22370748782159
2024-09-23 14:01:30.974189,41.02,26.337251,-0.0033329230534799477,-0.022982261414192504,0.09695331012558621,28.07457030097246,-100.26678939585686,80.21211738781929
2024-09-23 14:01:31.067797,41.02,26.337251,-0.0027359787006383035,-0.023181236725942318,0.09774922960030558,36.09446859390736,-100.26678939585686,80.21211738781929
2024-09-23 14:01:31.079851,41.02,26.337251,-0.0027359787006383035,-0.023181236725942318,0.09774922960030558,36.09446859390736,-96.25519929585457,80.21211738781929
2024-09-23 14:01:31.113202,41.02,26.337302,-0.003780631555451287,-0.023181236725942318,0.09774922960030558,36.09446859390736,-96.25519929585457,80.21211738781929
2024-09-23 14:01:31.124267,41.02,26.337302,-0.003780631555451287,-0.02352945757203875,0.09710254654607277,40.106058693909645,-96.25519929585457,80.21211738781929
2024-09-23 14:01:31.167274,41.02,26.337353,-0.0037308827908396356,-0.022982261414192504,0.09680407370509965,40.106058693909645,-96.25519929585457,84.22370748782159
2024-09-23 14:01:31.179315,41.02,26.337353,-0.0037308827908396356,-0.022982261414192504,0.09680407370509965,32.08287849390507,-96.25519929585457,84.22370748782159
2024-09-23 14:01:31.212103,41.02,26.337353,-0.0037308827908396356,-0.022982261414192504,0.09680407370509965,32.08287849390507,-96.25519929585457,84.22370748782159
2024-09-23 14:01:31.223105,41.02,26.337404,-0.0031339382481259063,-0.023230986250042305,0.09715228999426605,32.08287849390507,-96.25519929585457,84.22370748782159
2024-09-23 14:01:31.265770,41.02,26.337454,-0.0034324103296106863,-0.023230986250042305,0.09715228999426605,40.106058693909645,-96.25519929585457,80.21211738781929
2024-09-23 14:01:31.277362,41.02,26.337454,-0.0034324103296106863,-0.023330473146428877,0.09715228999426605,40.106058693909645,-96.25519929585457,80.21211738781929
2024-09-23 14:01:31.310597,41.02,26.337454,-0.0034324103296106863,-0.023330473146428877,0.09755024973162574,36.09446859390736,-96.25519929585457,80.21211738781929
2024-09-23 14:01:31.322746,41.02,26.337546,-0.003382661564999035,-0.023330473146428877,0.09755024973162574,36.09446859390736,-96.25519929585457,80.21211738781929
2024-09-23 14:01:31.355071,41.02,26.337546,-0.003382661564999035,-0.023330473146428877,0.09755024973162574,36.09446859390736,-96.25519929585457,80.21211738781929
2024-09-23 14:01:31.366271,41.02,26.337641,-0.003382661564999035,-0.023330473146428877,0.09725178296655933,36.09446859390736,-96.25519929585457,72.1922225099802
2024-09-23 14:01:31.408922,41.02,26.337641,-0.0034324103296106863,-0.022733528983459317,0.09740101331113918,36.09446859390736,-96.25519929585457,72.1922225099802
2024-09-23 14:01:31.420514,41.02,26.337641,-0.0034324103296106863,-0.022733528983459317,0.09740101331113918,36.09446859390736,-108.28669110388756,80.21211738781929
2024-09-23 14:01:31.452287,41.02,26.337692,-0.0034324103296106863,-0.022733528983459317,0.09740101331113918,36.09446859390736,-108.28669110388756,80.21211738781929
2024-09-23 14:01:31.463727,41.02,26.337692,-0.0029349636958644295,-0.02338022115155219,0.09680407370509965,36.09446859390736,-100.26678939585686,80.21211738781929
2024-09-23 14:01:31.505982,41.02,26.337743,-0.0035816467500972456,-0.02293251340906919,0.09680407370509965,36.09446859390736,-100.26678939585686,80.21211738781929
2024-09-23 14:01:31.517316,41.02,26.337743,-0.0035816467500972456,-0.02293251340906919,0.09705279702197278,36.09446859390736,-100.26678939585686,80.21211738781929
2024-09-23 14:01:31.560440,41.02,26.337794,-0.0029847020175114316,-0.02303200030545576,0.09725178296655933,36.09446859390736,-96.25519929585457,84.22370748782159
2024-09-23 14:01:31.603746,41.43,26.337844,-0.0029847020175114316,-0.02303200030545576,0.09725178296655933,36.09446859390736,-104.27510100388527,80.21211738781929
2024-09-23 14:01:31.615187,41.43,26.337844,-0.0031339382481259063,-0.023181236725942318,0.09725178296655933,36.09446859390736,-104.27510100388527,80.21211738781929
2024-09-23 14:01:31.647156,41.43,26.337844,-0.0031339382481259063,-0.023181236725942318,0.09680407370509965,36.09446859390736,-104.27510100388527,80.21211738781929
2024-09-23 14:01:31.658993,41.43,26.337895,-0.0031339382481259063,-0.023181236725942318,0.09680407370509965,36.09446859390736,-104.27510100388527,80.21211738781929
2024-09-23 14:01:31.701699,41.43,26.337895,-0.0033329230534799477,-0.023230986250042305,0.0973015264147526,36.09446859390736,-104.27510100388527,80.21211738781929
2024-09-23 14:01:31.713935,41.43,26.337895,-0.0033329230534799477,-0.023230986250042305,0.0973015264147526,40.106058693909645,-96.25519929585457,84.22370748782159
2024-09-23 14:01:31.746592,41.43,26.337982,-0.0033329230534799477,-0.023230986250042305,0.0973015264147526,40.106058693909645,-96.25519929585457,84.22370748782159
2024-09-23 14:01:31.757867,41.43,26.337982,-0.0038801188315820256,-0.02352945757203875,0.09690356060148622,36.09446859390736,-100.26678939585686,84.22370748782159
2024-09-23 14:01:31.800589,41.43,26.338034,-0.0034324103296106863,-0.0228827638849692,0.09690356060148622,36.09446859390736,-100.26678939585686,80.21211738781929
2024-09-23 14:01:31.812494,41.43,26.338034,-0.0034324103296106863,-0.0228827638849692,0.0973512698629459,36.09446859390736,-100.26678939585686,80.21211738781929
2024-09-23 14:01:31.844630,41.43,26.338034,-0.0034324103296106863,-0.0228827638849692,0.0973512698629459,36.09446859390736,-92.24360919585227,84.22370748782159
2024-09-23 14:01:31.856189,41.43,26.338084,-0.0034324103296106863,-0.023280723622328886,0.09685382322919964,36.09446859390736,-92.24360919585227,84.22370748782159
2024-09-23 14:01:31.899283,41.43,26.338135,-0.002785727465249955,-0.023479709566915436,0.09685382322919964,32.08287849390507,-100.26678939585686,80.21211738781929
2024-09-23 14:01:31.941891,41.43,26.338135,-0.002785727465249955,-0.023479709566915436,0.0973015264147526,44.11764879391193,-100.26678939585686,80.21211738781929
2024-09-23 14:01:31.953380,41.43,26.338186,-0.003233425524256645,-0.023479709566915436,0.0973015264147526,44.11764879391193,-100.26678939585686,84.22370748782159
2024-09-23 14:01:31.996639,41.43,26.338275,-0.003233425524256645,-0.02367869399252531,0.0973512698629459,36.09446859390736,-96.25519929585457,76.200527287817
2024-09-23 14:01:32.041033,41.43,26.338275,-0.0033329230534799477,-0.022833026512682618,0.0973512698629459,36.09446859390736,-96.25519929585457,76.200527287817
2024-09-23 14:01:32.052114,41.43,26.338275,-0.0033329230534799477,-0.022833026512682618,0.0973512698629459,36.09446859390736,-100.26678939585686,80.21211738781929
2024-09-23 14:01:32.095587,41.43,26.338326,-0.003482159473966507,-0.022733528983459317,0.09720203344245934,36.09446859390736,-92.24360919585227,80.21211738781929
2024-09-23 14:01:32.138581,41.43,26.338377,-0.003482159473966507,-0.022733528983459317,0.09720203344245934,36.09446859390736,-92.24360919585227,80.21211738781929
2024-09-23 14:01:32.150273,41.43,26.338377,-0.003482159473966507,-0.023429960042815445,0.09745075675933246,40.106058693909645,-92.24360919585227,80.21211738781929
2024-09-23 14:01:32.193047,41.43,26.338428,-0.003233425524256645,-0.02308174982955575,0.09794820946898543,40.106058693909645,-100.26678939585686,80.21211738781929
2024-09-23 14:01:32.235571,41.43,26.338428,-0.003233425524256645,-0.02308174982955575,0.09794820946898543,28.07457030097246,-96.25519929585457,76.200527287817
2024-09-23 14:01:32.246566,41.43,26.338478,-0.003631395514708897,-0.02362894446842532,0.09794820946898543,28.07457030097246,-96.25519929585457,76.200527287817
2024-09-23 14:01:32.288951,41.43,26.338529,-0.003631395514708897,-0.02362894446842532,0.0973512698629459,24.06297849342227,-96.25519929585457,84.22370748782159
2024-09-23 14:01:32.300751,41.43,26.338529,-0.003233425524256645,-0.02362894446842532,0.0973512698629459,24.06297849342227,-96.25519929585457,84.22370748782159
2024-09-23 14:01:32.333336,41.43,26.338529,-0.003233425524256645,-0.023579196463302005,0.09764974270391902,40.106058693909645,-96.25519929585457,84.22370748782159
2024-09-23 14:01:32.344512,41.43,26.338616,-0.003233425524256645,-0.023579196463302005,0.09764974270391902,40.106058693909645,-92.24360919585227,84.22370748782159
2024-09-23 14:01:32.386905,41.43,26.338616,-0.0031836870127375577,-0.02352945757203875,0.09725178296655933,44.11764879391193,-104.27510100388527,76.200527287817
2024-09-23 14:01:32.429146,41.43,26.338667,-0.0032831742888682963,-0.02352945757203875,0.09725178296655933,44.11764879391193,-104.27510100388527,76.200527287817
2024-09-23 14:01:32.441453,41.43,26.338667,-0.0032831742888682963,-0.023230986250042305,0.0973512698629459,36.09446859390736,-108.28669110388756,76.200527287817
2024-09-23 14:01:32.483955,41.43,26.338718,-0.0035318979854855937,-0.02308174982955575,0.0970030596496862,36.09446859390736,-108.28669110388756,80.21211738781929
2024-09-23 14:01:32.495646,41.43,26.338718,-0.0035318979854855937,-0.02308174982955575,0.0970030596496862,36.09446859390736,-108.28669110388756,80.21211738781929
2024-09-23 14:01:32.527396,41.43,26.338718,-0.0035318979854855937,-0.02308174982955575,0.0970030596496862,36.09446859390736,-100.26678939585686,84.22370748782159
2024-09-23 14:01:32.539199,41.43,26.338769,-0.0036811340262279837,-0.023181236725942318,0.09715228999426605,36.09446859390736,-100.26678939585686,84.22370748782159
2024-09-23 14:01:32.581903,41.43,26.338819,-0.003929857343101113,-0.02362894446842532,0.09715228999426605,36.09446859390736,-100.26678939585686,84.22370748782159
2024-09-23 14:01:32.623922,41.72,26.338819,-0.003929857343101113,-0.02362894446842532,0.09740101331113918,28.07457030097246,-100.26678939585686,84.22370748782159
2024-09-23 14:01:32.635972,41.72,26.33887,-0.0037308827908396356,-0.02362894446842532,0.09740101331113918,28.07457030097246,-104.27510100388527,84.22370748782159
2024-09-23 14:01:32.677818,41.72,26.33887,-0.0037308827908396356,-0.023429960042815445,0.09740101331113918,36.09446859390736,-92.24360919585227,80.21211738781929
2024-09-23 14:01:32.689746,41.72,26.338957,-0.0037308827908396356,-0.023429960042815445,0.09740101331113918,36.09446859390736,-92.24360919585227,80.21211738781929
2024-09-23 14:01:32.721916,41.72,26.338957,-0.003929857343101113,-0.022733528983459317,0.09740101331113918,36.09446859390736,-92.24360919585227,80.21211738781929
2024-09-23 14:01:32.733564,41.72,26.338957,-0.003929857343101113,-0.022733528983459317,0.09710254654607277,36.09446859390736,-96.25519929585457,84.22370748782159
2024-09-23 14:01:32.776301,41.72,26.339009,-0.0028852147413806935,-0.02313149783467906,0.09715228999426605,32.08287849390507,-96.25519929585457,84.22370748782159
2024-09-23 14:01:32.788211,41.72,26.339009,-0.0028852147413806935,-0.02313149783467906,0.09715228999426605,32.08287849390507,-96.25519929585457,84.22370748782159
2024-09-23 14:01:32.821224,41.72,26.339059,-0.0029847020175114316,-0.02313149783467906,0.09715228999426605,32.08287849390507,-96.25519929585457,80.21211738781929
2024-09-23 14:01:32.832944,41.72,26.339059,-0.0029847020175114316,-0.022982261414192504,0.09725178296655933,40.106058693909645,-96.25519929585457,80.21211738781929
2024-09-23 14:01:32.876039,41.72,26.33911,-0.0032831742888682963,-0.023230986250042305,0.09725178296655933,40.106058693909645,-100.26678939585686,80.21211738781929
2024-09-23 14:01:32.917984,41.72,26.33911,-0.0032831742888682963,-0.023230986250042305,0.09755024973162574,44.11764879391193,-104.27510100388527,80.21211738781929
2024-09-23 14:01:32.929448,41.72,26.339161,-0.0035816467500972456,-0.023230986250042305,0.09755024973162574,44.11764879391193,-104.27510100388527,76.200527287817
2024-09-23 14:01:32.974250,41.72,26.339161,-0.0035816467500972456,-0.023230986250042305,0.09725178296655933,32.08287849390507,-100.26678939585686,80.21211738781929
2024-09-23 14:01:32.985773,41.72,26.339211,-0.0035816467500972456,-0.023230986250042305,0.09725178296655933,32.08287849390507,-100.26678939585686,80.21211738781929
2024-09-23 14:01:33.018162,41.72,26.339211,-0.0035318979854855937,-0.023579196463302005,0.09710254654607277,28.07457030097246,-100.26678939585686,80.21211738781929
2024-09-23 14:01:33.029921,41.72,26.339211,-0.0035318979854855937,-0.023579196463302005,0.09710254654607277,28.07457030097246,-100.26678939585686,84.22370748782159
2024-09-23 14:01:33.064613,41.72,26.339298,-0.0030344509719951677,-0.023579196463302005,0.09710254654607277,28.07457030097246,-100.26678939585686,84.22370748782159
2024-09-23 14:01:33.076205,41.72,26.339298,-0.0030344509719951677,-0.023230986250042305,0.09695331012558621,28.07457030097246,-108.28669110388756,84.22370748782159
2024-09-23 14:01:33.118986,41.72,26.33935,-0.0030841997366068195,-0.02313149783467906,0.09715228999426605,32.08287849390507,-108.28669110388756,76.200527287817
2024-09-23 14:01:33.160967,41.72,26.33935,-0.0030841997366068195,-0.02313149783467906,0.09715228999426605,32.08287849390507,-96.25519929585457,76.200527287817
2024-09-23 14:01:33.173243,41.72,26.3394,-0.0037308827908396356,-0.023230986250042305,0.0970030596496862,32.08287849390507,-96.25519929585457,76.200527287817
2024-09-23 14:01:33.216467,41.72,26.339451,-0.003233425524256645,-0.022982261414192504,0.0970030596496862,28.07457030097246,-100.26678939585686,80.21211738781929
2024-09-23 14:01:33.261173,41.72,26.339451,-0.003233425524256645,-0.022982261414192504,0.0973512698629459,12.031489246711136,-104.27510100388527,80.21211738781929
2024-09-23 14:01:33.272745,41.72,26.339502,-0.0033329230534799477,-0.022982261414192504,0.0973512698629459,12.031489246711136,-104.27510100388527,84.22370748782159
2024-09-23 14:01:33.304910,41.72,26.339502,-0.0033329230534799477,-0.02313149783467906,0.0973512698629459,12.031489246711136,-104.27510100388527,84.22370748782159
2024-09-23 14:01:33.316535,41.72,26.339591,-0.0033329230534799477,-0.02313149783467906,0.0983959187304451,60.15744537978172,-92.24360919585227,80.21211738781929
2024-09-23 14:01:33.358235,41.72,26.339591,-0.0034324103296106863,-0.02352945757203875,0.09695331012558621,60.15744537978172,-92.24360919585227,80.21211738781929
2024-09-23 14:01:33.369938,41.72,26.339591,-0.0034324103296106863,-0.02352945757203875,0.09695331012558621,44.11764879391193,-92.24360919585227,84.22370748782159
2024-09-23 14:01:33.412349,41.72,26.339642,-0.0036811340262279837,-0.02313149783467906,0.09710254654607277,60.15744537978172,-96.25519929585457,84.22370748782159
2024-09-23 14:01:33.456075,41.72,26.339693,-0.0032831742888682963,-0.02308174982955575,0.09710254654607277,60.15744537978172,-96.25519929585457,72.1922225099802
2024-09-23 14:01:33.467080,41.72,26.339693,-0.0032831742888682963,-0.02308174982955575,0.09695331012558621,48.12595698684454,-96.25519929585457,72.1922225099802
2024-09-23 14:01:33.509872,41.72,26.339744,-0.0033329230534799477,-0.023330473146428877,0.09755024973162574,48.12595698684454,-96.25519929585457,76.200527287817
2024-09-23 14:01:33.604136,41.72,26.339794,-0.0038801188315820256,-0.023330473146428877,0.09755024973162574,36.09446859390736,-100.26678939585686,76.200527287817
2024-09-23 14:01:33.616937,41.72,26.339794,-0.0038801188315820256,-0.02293251340906919,0.09755024973162574,36.09446859390736,-100.26678939585686,76.200527287817
2024-09-23 14:01:33.649911,41.5,26.339794,-0.0038801188315820256,-0.02293251340906919,0.09720203344245934,52.137550501942634,-92.24360919585227,76.200527287817
2024-09-23 14:01:33.661628,41.5,26.339845,-0.003233425524256645,-0.02293251340906919,0.09720203344245934,52.137550501942634,-92.24360919585227,76.200527287817
2024-09-23 14:01:33.704091,41.5,26.339932,-0.003233425524256645,-0.02278327698858263,0.09750050628343246,32.08287849390507,-100.26678939585686,80.21211738781929
2024-09-23 14:01:33.747261,41.5,26.339932,-0.0030841997366068195,-0.02308174982955575,0.09685382322919964,32.08287849390507,-100.26678939585686,80.21211738781929
2024-09-23 14:01:33.758827,41.5,26.339932,-0.0030841997366068195,-0.02308174982955575,0.09685382322919964,36.09446859390736,-96.25519929585457,80.21211738781929
2024-09-23 14:01:33.801858,41.5,26.339984,-0.003382661564999035,-0.02362894446842532,0.09710254654607277,36.09446859390736,-96.25519929585457,80.21211738781929
2024-09-23 14:01:33.844590,41.5,26.340079,-0.0034324103296106863,-0.02362894446842532,0.09710254654607277,36.09446859390736,-96.25519929585457,84.22370748782159
2024-09-23 14:01:33.855687,41.5,26.340079,-0.0034324103296106863,-0.023230986250042305,0.09740101331113918,40.106058693909645,-96.25519929585457,84.22370748782159
2024-09-23 14:01:33.899195,41.5,26.340131,-0.0030841997366068195,-0.023181236725942318,0.09784872257259886,40.106058693909645,-96.25519929585457,80.21211738781929
2024-09-23 14:01:33.941137,41.5,26.340131,-0.0030841997366068195,-0.023181236725942318,0.09784872257259886,36.09446859390736,-104.27510100388527,80.21211738781929
2024-09-23 14:01:33.952323,41.5,26.340181,-0.003780631555451287,-0.0228827638849692,0.09784872257259886,36.09446859390736,-104.27510100388527,80.21211738781929
2024-09-23 14:01:33.994802,41.5,26.340232,-0.003780631555451287,-0.0228827638849692,0.09695331012558621,36.09446859390736,-92.24360919585227,92.24360919585227
2024-09-23 14:01:34.006797,41.5,26.340232,-0.0031836870127375577,-0.0228827638849692,0.09695331012558621,36.09446859390736,-92.24360919585227,92.24360919585227
2024-09-23 14:01:34.040485,41.5,26.340232,-0.0031836870127375577,-0.02352945757203875,0.09695331012558621,44.11764879391193,-92.24360919585227,92.24360919585227
2024-09-23 14:01:34.051654,41.5,26.340322,-0.0031836870127375577,-0.02352945757203875,0.09695331012558621,44.11764879391193,-96.25519929585457,80.21211738781929
2024-09-23 14:01:34.094459,41.5,26.340322,-0.0031836870127375577,-0.023579196463302005,0.09655535038822652,32.08287849390507,-96.25519929585457,80.21211738781929
2024-09-23 14:01:34.137656,41.5,26.340374,-0.0030841997366068195,-0.023579196463302005,0.09655535038822652,32.08287849390507,-96.25519929585457,80.21211738781929
2024-09-23 14:01:34.149367,41.5,26.340374,-0.0030841997366068195,-0.02338022115155219,0.09725178296655933,32.08287849390507,-92.24360919585227,80.21211738781929
2024-09-23 14:01:34.192566,41.5,26.340424,-0.003631395514708897,-0.02338022115155219,0.09685382322919964,36.09446859390736,-92.24360919585227,80.21211738781929
2024-09-23 14:01:34.234407,41.5,26.340475,-0.003631395514708897,-0.02338022115155219,0.09685382322919964,36.09446859390736,-100.26678939585686,80.21211738781929
2024-09-23 14:01:34.245742,41.5,26.340475,-0.0035318979854855937,-0.02352945757203875,0.09665483728461309,36.09446859390736,-100.26678939585686,80.21211738781929
2024-09-23 14:01:34.289268,41.5,26.340526,-0.0033329230534799477,-0.023280723622328886,0.09665483728461309,28.07457030097246,-100.26678939585686,80.21211738781929
2024-09-23 14:01:34.331902,41.5,26.340526,-0.0033329230534799477,-0.023280723622328886,0.0970030596496862,44.11764879391193,-100.26678939585686,80.21211738781929
2024-09-23 14:01:34.343464,41.5,26.340576,-0.003482159473966507,-0.023280723622328886,0.0970030596496862,44.11764879391193,-100.26678939585686,76.200527287817
2024-09-23 14:01:34.386977,41.5,26.340663,-0.003482159473966507,-0.02308174982955575,0.09650560086412653,44.11764879391193,-100.26678939585686,84.22370748782159
2024-09-23 14:01:34.429850,41.5,26.340663,-0.0032831742888682963,-0.023479709566915436,0.0973015264147526,44.11764879391193,-100.26678939585686,84.22370748782159
2024-09-23 14:01:34.441442,41.5,26.340663,-0.0032831742888682963,-0.023479709566915436,0.0973015264147526,32.08287849390507,-100.26678939585686,84.22370748782159
2024-09-23 14:01:34.484122,41.5,26.340715,-0.0033329230534799477,-0.023230986250042305,0.09720203344245934,40.106058693909645,-96.25519929585457,84.22370748782159
2024-09-23 14:01:34.526912,41.5,26.340766,-0.0031339382481259063,-0.023230986250042305,0.09720203344245934,40.106058693909645,-96.25519929585457,76.200527287817
2024-09-23 14:01:34.538888,41.5,26.340766,-0.0031339382481259063,-0.02338022115155219,0.09690356060148622,32.08287849390507,-96.25519929585457,76.200527287817
2024-09-23 14:01:34.581421,41.5,26.340816,-0.0038303700669703737,-0.023181236725942318,0.0976994861521123,32.08287849390507,-96.25519929585457,76.200527287817
2024-09-23 14:01:34.623467,41.5,26.340816,-0.0038303700669703737,-0.023181236725942318,0.0976994861521123,40.106058693909645,-100.26678939585686,76.200527287817
2024-09-23 14:01:34.635440,41.5,26.340867,-0.0036811340262279837,-0.023429960042815445,0.0976994861521123,40.106058693909645,-100.26678939585686,76.200527287817
2024-09-23 14:01:34.679076,41.31,26.340918,-0.0028354659767690416,-0.023429960042815445,0.0970030596496862,32.08287849390507,-92.24360919585227,80.21211738781929
2024-09-23 14:01:34.722140,41.31,26.340918,-0.0028354659767690416,-0.023479709566915436,0.09695331012558621,32.08287849390507,-92.24360919585227,80.21211738781929
2024-09-23 14:01:34.733173,41.31,26.341005,-0.0028354659767690416,-0.023479709566915436,0.09695331012558621,32.08287849390507,-92.24360919585227,80.21211738781929
2024-09-23 14:01:34.776360,41.31,26.341005,-0.003780631555451287,-0.023181236725942318,0.09740101331113918,32.08287849390507,-100.26678939585686,84.22370748782159
2024-09-23 14:01:34.820189,41.31,26.341056,-0.003233425524256645,-0.02313149783467906,0.09740101331113918,32.08287849390507,-100.26678939585686,84.22370748782159
2024-09-23 14:01:34.831312,41.31,26.341056,-0.003233425524256645,-0.02313149783467906,0.09690356060148622,36.09446859390736,-96.25519929585457,84.22370748782159
2024-09-23 14:01:34.874328,41.31,26.341107,-0.0030344509719951677,-0.022833026512682618,0.0973512698629459,40.106058693909645,-96.25519929585457,80.21211738781929
2024-09-23 14:01:34.916344,41.31,26.341107,-0.0030344509719951677,-0.022833026512682618,0.0973512698629459,40.106058693909645,-96.25519929585457,84.22370748782159
2024-09-23 14:01:34.927810,41.31,26.341158,-0.0034324103296106863,-0.023429960042815445,0.09710254654607277,40.106058693909645,-96.25519929585457,84.22370748782159
2024-09-23 14:01:34.970777,41.31,26.341208,-0.0038303700669703737,-0.023429960042815445,0.09710254654607277,36.09446859390736,-100.26678939585686,80.21211738781929
2024-09-23 14:01:34.982229,41.31,26.341208,-0.0038303700669703737,-0.023280723622328886,0.09710254654607277,36.09446859390736,-100.26678939585686,80.21211738781929
2024-09-23 14:01:35.014998,41.31,26.341208,-0.0038303700669703737,-0.023280723622328886,0.09680407370509965,28.07457030097246,-96.25519929585457,80.21211738781929
2024-09-23 14:01:35.026460,41.31,26.341259,-0.0035318979854855937,-0.023280723622328886,0.09680407370509965,28.07457030097246,-96.25519929585457,80.21211738781929
2024-09-23 14:01:35.070151,41.31,26.341346,-0.0035318979854855937,-0.023429960042815445,0.09750050628343246,40.106058693909645,-92.24360919585227,76.200527287817
2024-09-23 14:01:35.112764,41.31,26.341346,-0.0031339382481259063,-0.023181236725942318,0.09755024973162574,40.106058693909645,-92.24360919585227,76.200527287817
2024-09-23 14:01:35.124151,41.31,26.341346,-0.0031339382481259063,-0.023181236725942318,0.09755024973162574,36.09446859390736,-100.26678939585686,72.1922225099802
2024-09-23 14:01:35.158694,41.31,26.341397,-0.0031339382481259063,-0.023181236725942318,0.09755024973162574,36.09446859390736,-100.26678939585686,72.1922225099802
2024-09-23 14:01:35.173943,41.31,26.341397,-0.0030841997366068195,-0.02293251340906919,0.09685382322919964,32.08287849390507,-100.26678939585686,72.1922225099802
2024-09-23 14:01:35.206190,41.31,26.341397,-0.0030841997366068195,-0.02293251340906919,0.09685382322919964,32.08287849390507,-100.26678939585686,80.21211738781929
2024-09-23 14:01:35.217670,41.31,26.341448,-0.0028354659767690416,-0.02278327698858263,0.09695331012558621,36.09446859390736,-100.26678939585686,80.21211738781929
2024-09-23 14:01:35.260699,41.31,26.341499,-0.003631395514708897,-0.02278327698858263,0.09695331012558621,36.09446859390736,-100.26678939585686,80.21211738781929
2024-09-23 14:01:35.277901,41.31,26.341499,-0.003631395514708897,-0.02352945757203875,0.09685382322919964,36.09446859390736,-100.26678939585686,80.21211738781929
2024-09-23 14:01:35.310492,41.31,26.341549,-0.0029349636958644295,-0.02352945757203875,0.09685382322919964,32.08287849390507,-104.27510100388527,76.200527287817
2024-09-23 14:01:35.322386,41.31,26.341549,-0.0029349636958644295,-0.023181236725942318,0.09685382322919964,32.08287849390507,-104.27510100388527,76.200527287817
2024-09-23 14:01:35.354389,41.31,26.341549,-0.0029349636958644295,-0.023181236725942318,0.09715228999426605,36.09446859390736,-104.27510100388527,76.200527287817
2024-09-23 14:01:35.365772,41.31,26.3416,-0.003382661564999035,-0.023181236725942318,0.09715228999426605,36.09446859390736,-100.26678939585686,76.200527287817
2024-09-23 14:01:35.408966,41.31,26.3416,-0.003382661564999035,-0.02308174982955575,0.09710254654607277,44.11764879391193,-96.25519929585457,80.21211738781929
2024-09-23 14:01:35.420980,41.31,26.341687,-0.003382661564999035,-0.02308174982955575,0.09710254654607277,44.11764879391193,-96.25519929585457,80.21211738781929
2024-09-23 14:01:35.452915,41.31,26.341687,-0.0035816467500972456,-0.023728432883788564,0.09695331012558621,44.11764879391193,-96.25519929585457,80.21211738781929
2024-09-23 14:01:35.464293,41.31,26.341687,-0.0035816467500972456,-0.023728432883788564,0.09695331012558621,44.11764879391193,-92.24360919585227,80.21211738781929
2024-09-23 14:01:35.506547,41.31,26.341739,-0.0032831742888682963,-0.02308174982955575,0.0973512698629459,36.09446859390736,-96.25519929585457,80.21211738781929
2024-09-23 14:01:35.550394,41.31,26.341789,-0.0028354659767690416,-0.02308174982955575,0.0973512698629459,36.09446859390736,-96.25519929585457,84.22370748782159
2024-09-23 14:01:35.562135,41.31,26.341789,-0.0028354659767690416,-0.02293251340906919,0.0970030596496862,32.08287849390507,-96.25519929585457,84.22370748782159
2024-09-23 14:01:35.605141,41.31,26.34184,-0.0028852147413806935,-0.023181236725942318,0.09720203344245934,32.08287849390507,-100.26678939585686,80.21211738781929
2024-09-23 14:01:35.647864,41.31,26.34184,-0.0028852147413806935,-0.023181236725942318,0.09720203344245934,52.137550501942634,-96.25519929585457,76.200527287817
2024-09-23 14:01:35.660201,41.31,26.341891,-0.0032831742888682963,-0.022833026512682618,0.09720203344245934,52.137550501942634,-96.25519929585457,76.200527287817
2024-09-23 14:01:35.702969,41.88,26.341941,-0.0030841997366068195,-0.022833026512682618,0.09695331012558621,40.106058693909645,-96.25519929585457,84.22370748782159
2024-09-23 14:01:35.744791,41.88,26.341941,-0.0030841997366068195,-0.02313149783467906,0.09695331012558621,40.106058693909645,-96.25519929585457,84.22370748782159
2024-09-23 14:01:35.755861,41.88,26.342028,-0.0030841997366068195,-0.02313149783467906,0.09695331012558621,32.08287849390507,-96.25519929585457,80.21211738781929
2024-09-23 14:01:35.799999,41.88,26.342028,-0.0035318979854855937,-0.02293251340906919,0.0966050877605131,44.11764879391193,-96.25519929585457,76.200527287817
2024-09-23 14:01:35.843022,41.88,26.34208,-0.0028354659767690416,-0.023479709566915436,0.0966050877605131,44.11764879391193,-96.25519929585457,76.200527287817
2024-09-23 14:01:35.854109,41.88,26.34208,-0.0028354659767690416,-0.023479709566915436,0.09720203344245934,40.106058693909645,-100.26678939585686,76.200527287817
2024-09-23 14:01:35.896714,41.88,26.342131,-0.0029349636958644295,-0.02293251340906919,0.09695331012558621,28.07457030097246,-100.26678939585686,80.21211738781929
2024-09-23 14:01:35.939672,41.88,26.342131,-0.0029349636958644295,-0.02293251340906919,0.09695331012558621,28.07457030097246,-104.27510100388527,88.23529758782387
2024-09-23 14:01:35.950658,41.88,26.342181,-0.0038801188315820256,-0.023181236725942318,0.09774922960030558,28.07457030097246,-104.27510100388527,88.23529758782387
2024-09-23 14:01:35.993075,41.88,26.342232,-0.0038801188315820256,-0.023181236725942318,0.09774922960030558,36.09446859390736,-100.26678939585686,80.21211738781929
2024-09-23 14:01:36.004739,41.88,26.342232,-0.003631395514708897,-0.023429960042815445,0.09774922960030558,36.09446859390736,-100.26678939585686,80.21211738781929
2024-09-23 14:01:36.037375,41.88,26.342232,-0.003631395514708897,-0.023429960042815445,0.09720203344245934,36.09446859390736,-100.26678939585686,80.21211738781929
2024-09-23 14:01:36.048788,41.88,26.342283,-0.0029847020175114316,-0.023429960042815445,0.09720203344245934,36.09446859390736,-96.25519929585457,84.22370748782159
2024-09-23 14:01:36.091726,41.88,26.342283,-0.0029847020175114316,-0.022982261414192504,0.09665483728461309,40.106058693909645,-96.25519929585457,80.21211738781929
2024-09-23 14:01:36.104180,41.88,26.34237,-0.0029847020175114316,-0.022982261414192504,0.09665483728461309,40.106058693909645,-96.25519929585457,80.21211738781929
2024-09-23 14:01:36.136220,41.88,26.34237,-0.0035318979854855937,-0.02278327698858263,0.09745075675933246,40.106058693909645,-96.25519929585457,80.21211738781929
2024-09-23 14:01:36.148074,41.88,26.34237,-0.0035318979854855937,-0.02278327698858263,0.09745075675933246,40.106058693909645,-92.24360919585227,84.22370748782159
2024-09-23 14:01:36.191259,41.88,26.342421,-0.003780631555451287,-0.023479709566915436,0.09710254654607277,32.08287849390507,-100.26678939585686,84.22370748782159
2024-09-23 14:01:36.234335,41.88,26.342472,-0.0030841997366068195,-0.023479709566915436,0.09710254654607277,32.08287849390507,-100.26678939585686,80.21211738781929
2024-09-23 14:01:36.245895,41.88,26.342472,-0.0030841997366068195,-0.02397715620066169,0.09740101331113918,32.08287849390507,-100.26678939585686,80.21211738781929
2024-09-23 14:01:36.278496,41.88,26.342472,-0.0030841997366068195,-0.02397715620066169,0.09740101331113918,32.08287849390507,-92.24360919585227,80.21211738781929
2024-09-23 14:01:36.290023,41.88,26.342523,-0.0031836870127375577,-0.023181236725942318,0.0970030596496862,32.08287849390507,-92.24360919585227,84.22370748782159
2024-09-23 14:01:36.331947,41.88,26.342573,-0.0031836870127375577,-0.023181236725942318,0.0970030596496862,36.09446859390736,-92.24360919585227,80.21211738781929
2024-09-23 14:01:36.343633,41.88,26.342573,-0.0037308827908396356,-0.02278327698858263,0.0970030596496862,36.09446859390736,-92.24360919585227,80.21211738781929
2024-09-23 14:01:36.386197,41.88,26.342624,-0.0034324103296106863,-0.02278327698858263,0.09695331012558621,40.106058693909645,-100.26678939585686,76.200527287817
2024-09-23 14:01:36.429373,41.88,26.342624,-0.0034324103296106863,-0.023330473146428877,0.0970030596496862,36.09446859390736,-100.26678939585686,76.200527287817
2024-09-23 14:01:36.441303,41.88,26.342711,-0.0034324103296106863,-0.023330473146428877,0.0970030596496862,36.09446859390736,-96.25519929585457,80.21211738781929
2024-09-23 14:01:36.473169,41.88,26.342711,-0.0032831742888682963,-0.023330473146428877,0.0970030596496862,36.09446859390736,-96.25519929585457,80.21211738781929
2024-09-23 14:01:36.485778,41.88,26.342711,-0.0032831742888682963,-0.02293251340906919,0.0973512698629459,36.09446859390736,-100.26678939585686,76.200527287817
2024-09-23 14:01:36.527589,41.88,26.342762,-0.0030344509719951677,-0.02293251340906919,0.0970030596496862,36.09446859390736,-100.26678939585686,76.200527287817
2024-09-23 14:01:36.541965,41.88,26.342762,-0.0030344509719951677,-0.02293251340906919,0.0970030596496862,36.09446859390736,-96.25519929585457,76.200527287817
2024-09-23 14:01:36.574019,41.88,26.342813,-0.0029847020175114316,-0.02293251340906919,0.0970030596496862,36.09446859390736,-96.25519929585457,76.200527287817
2024-09-23 14:01:36.585320,41.88,26.342813,-0.0029847020175114316,-0.02352945757203875,0.09695331012558621,40.106058693909645,-96.25519929585457,76.200527287817
2024-09-23 14:01:36.627761,41.88,26.342864,-0.0028354659767690416,-0.02362894446842532,0.09695331012558621,40.106058693909645,-96.25519929585457,76.200527287817
2024-09-23 14:01:36.670751,41.88,26.342864,-0.0028354659767690416,-0.02362894446842532,0.0966050877605131,40.106058693909645,-96.25519929585457,76.200527287817
2024-09-23 14:01:36.682966,41.88,26.342914,-0.003482159473966507,-0.02362894446842532,0.0966050877605131,40.106058693909645,-92.24360919585227,80.21211738781929
2024-09-23 14:01:36.726616,41.98,26.342965,-0.003482159473966507,-0.02303200030545576,0.09705279702197278,40.106058693909645,-96.25519929585457,84.22370748782159
2024-09-23 14:01:36.769362,41.98,26.342965,-0.003233425524256645,-0.02313149783467906,0.09705279702197278,40.106058693909645,-96.25519929585457,84.22370748782159
2024-09-23 14:01:36.780274,41.98,26.342965,-0.003233425524256645,-0.02313149783467906,0.0973015264147526,40.106058693909645,-92.24360919585227,88.23529758782387
2024-09-23 14:01:36.824141,41.98,26.343052,-0.0028354659767690416,-0.023429960042815445,0.09685382322919964,32.08287849390507,-92.24360919585227,88.23529758782387
2024-09-23 14:01:36.867395,41.98,26.343104,-0.003482159473966507,-0.023429960042815445,0.09685382322919964,32.08287849390507,-92.24360919585227,80.21211738781929
2024-09-23 14:01:36.878713,41.98,26.343104,-0.003482159473966507,-0.023280723622328886,0.09705279702197278,32.08287849390507,-92.24360919585227,80.21211738781929
2024-09-23 14:01:36.920703,41.98,26.343154,-0.0031836870127375577,-0.023230986250042305,0.09690356060148622,32.08287849390507,-100.26678939585686,84.22370748782159
2024-09-23 14:01:36.963288,41.98,26.343154,-0.0031836870127375577,-0.023230986250042305,0.09690356060148622,28.07457030097246,-100.26678939585686,84.22370748782159
2024-09-23 14:01:36.974468,41.98,26.343205,-0.003482159473966507,-0.023230986250042305,0.09690356060148622,28.07457030097246,-100.26678939585686,84.22370748782159
2024-09-23 14:01:37.017002,41.98,26.343205,-0.003482159473966507,-0.023230986250042305,0.09690356060148622,40.106058693909645,-96.25519929585457,76.200527287817
2024-09-23 14:01:37.029367,41.98,26.343256,-0.0031339382481259063,-0.023230986250042305,0.09690356060148622,40.106058693909645,-96.25519929585457,76.200527287817
2024-09-23 14:01:37.063274,41.98,26.343256,-0.0031339382481259063,-0.02303200030545576,0.09764974270391902,32.08287849390507,-96.25519929585457,76.200527287817
2024-09-23 14:01:37.074289,41.98,26.343345,-0.0031339382481259063,-0.02303200030545576,0.09764974270391902,32.08287849390507,-96.25519929585457,80.21211738781929
2024-09-23 14:01:37.116512,41.98,26.343345,-0.003382661564999035,-0.023579196463302005,0.09665483728461309,36.09446859390736,-108.28669110388756,76.200527287817
2024-09-23 14:01:37.158513,41.98,26.343396,-0.0031339382481259063,-0.023579196463302005,0.09665483728461309,36.09446859390736,-108.28669110388756,76.200527287817
2024-09-23 14:01:37.170450,41.98,26.343396,-0.0031339382481259063,-0.02308174982955575,0.09720203344245934,32.08287849390507,-100.26678939585686,76.200527287817
2024-09-23 14:01:37.214018,41.98,26.343447,-0.003233425524256645,-0.023230986250042305,0.09690356060148622,36.09446859390736,-100.26678939585686,84.22370748782159
2024-09-23 14:01:37.256505,41.98,26.343447,-0.003233425524256645,-0.023230986250042305,0.09690356060148622,36.09446859390736,-100.26678939585686,80.21211738781929
2024-09-23 14:01:37.308934,41.98,26.343498,-0.0029349636958644295,-0.023330473146428877,0.09680407370509965,36.09446859390736,-100.26678939585686,80.21211738781929
2024-09-23 14:01:37.321740,41.98,26.343498,-0.0029349636958644295,-0.023330473146428877,0.09680407370509965,40.106058693909645,-92.24360919585227,80.21211738781929
2024-09-23 14:01:37.354186,41.98,26.343548,-0.0029349636958644295,-0.023330473146428877,0.09680407370509965,40.106058693909645,-92.24360919585227,80.21211738781929
2024-09-23 14:01:37.365339,41.98,26.343548,-0.0030344509719951677,-0.023429960042815445,0.09705279702197278,32.08287849390507,-92.24360919585227,80.21211738781929
2024-09-23 14:01:37.408770,41.98,26.343599,-0.0034324103296106863,-0.02352945757203875,0.0970030596496862,32.08287849390507,-92.24360919585227,80.21211738781929
2024-09-23 14:01:37.450952,41.98,26.343599,-0.0034324103296106863,-0.02352945757203875,0.0970030596496862,32.08287849390507,-100.26678939585686,80.21211738781929
2024-09-23 14:01:37.462613,41.98,26.343686,-0.003382661564999035,-0.023429960042815445,0.0970030596496862,32.08287849390507,-100.26678939585686,76.200527287817
2024-09-23 14:01:37.505416,41.98,26.343737,-0.0030841997366068195,-0.023429960042815445,0.09755024973162574,40.106058693909645,-96.25519929585457,88.23529758782387
2024-09-23 14:01:37.548380,41.98,26.343737,-0.0030841997366068195,-0.02367869399252531,0.09774922960030558,40.106058693909645,-96.25519929585457,88.23529758782387
2024-09-23 14:01:37.559856,41.98,26.343832,-0.0030841997366068195,-0.02367869399252531,0.09774922960030558,36.09446859390736,-96.25519929585457,72.1922225099802
2024-09-23 14:01:37.602724,41.98,26.343832,-0.0028354659767690416,-0.023330473146428877,0.09715228999426605,36.09446859390736,-100.26678939585686,84.22370748782159
2024-09-23 14:01:37.645408,41.98,26.343884,-0.003929857343101113,-0.023330473146428877,0.09715228999426605,36.09446859390736,-100.26678939585686,84.22370748782159
2024-09-23 14:01:37.656626,41.98,26.343884,-0.003929857343101113,-0.023330473146428877,0.09720203344245934,40.106058693909645,-96.25519929585457,84.22370748782159
2024-09-23 14:01:37.698641,41.98,26.343934,-0.003631395514708897,-0.023280723622328886,0.09705279702197278,40.106058693909645,-96.25519929585457,76.200527287817
2024-09-23 14:01:37.710611,41.98,26.343934,-0.003631395514708897,-0.023280723622328886,0.09705279702197278,28.07457030097246,-96.25519929585457,76.200527287817
2024-09-23 14:01:37.742873,41.74,26.343934,-0.003631395514708897,-0.023280723622328886,0.09705279702197278,28.07457030097246,-104.27510100388527,80.21211738781929
2024-09-23 14:01:37.754237,41.74,26.343985,-0.003233425524256645,-0.023728432883788564,0.0973015264147526,28.07457030097246,-104.27510100388527,80.21211738781929
2024-09-23 14:01:37.796969,41.74,26.344036,-0.0030344509719951677,-0.023728432883788564,0.0973015264147526,28.07457030097246,-100.26678939585686,80.21211738781929
2024-09-23 14:01:37.809200,41.74,26.344036,-0.0030344509719951677,-0.02313149783467906,0.0973015264147526,28.07457030097246,-100.26678939585686,80.21211738781929
2024-09-23 14:01:37.842744,41.74,26.344036,-0.0030344509719951677,-0.02313149783467906,0.09670458680871308,44.11764879391193,-104.27510100388527,80.21211738781929
2024-09-23 14:01:37.854176,41.74,26.344086,-0.003482159473966507,-0.02313149783467906,0.09670458680871308,44.11764879391193,-104.27510100388527,72.1922225099802
2024-09-23 14:01:37.897097,41.74,26.344086,-0.003482159473966507,-0.022833026512682618,0.09710254654607277,32.08287849390507,-96.25519929585457,72.1922225099802
2024-09-23 14:01:37.939157,41.74,26.344173,-0.0031836870127375577,-0.022833026512682618,0.09710254654607277,32.08287849390507,-96.25519929585457,80.21211738781929
2024-09-23 14:01:37.950484,41.74,26.344173,-0.0031836870127375577,-0.023230986250042305,0.09755024973162574,36.09446859390736,-96.25519929585457,80.21211738781929
2024-09-23 14:01:37.994248,41.74,26.344225,-0.003233425524256645,-0.02263404056809607,0.09715228999426605,36.09446859390736,-100.26678939585686,80.21211738781929
2024-09-23 14:01:38.037877,41.74,26.344225,-0.003233425524256645,-0.02263404056809607,0.09715228999426605,40.106058693909645,-104.27510100388527,80.21211738781929
2024-09-23 14:01:38.049273,41.74,26.344276,-0.003631395514708897,-0.023181236725942318,0.09715228999426605,40.106058693909645,-104.27510100388527,80.21211738781929
2024-09-23 14:01:38.082487,41.74,26.344276,-0.003631395514708897,-0.023181236725942318,0.09675432418099966,40.106058693909645,-104.27510100388527,80.21211738781929
