Ayaan's Suite
Timestamp,Sample Rate (Hz),Time,Ax,Ay,Az,Gx,Gy,Gz
2024-09-23 01:57:52.696680,0,8.495724,-0.011890927646745842,0.023415901913676908,1.0148762927507406,0.29747979092085736,-1.0937195433642715,-1.4087318225037306
2024-09-23 01:57:52.708158,0,8.495724,-0.015000815177668611,0.01975718684395762,1.014022554947817,0.29747979092085736,-1.0937195433642715,-1.4087318225037306
2024-09-23 01:57:52.751728,0,8.495775,-0.009939551474972724,0.02048899031317319,1.014022554947817,0.3456082558686845,-1.1812102424908428,-1.404320052330941
2024-09-23 01:57:52.794838,0,8.495775,-0.009939551474972724,0.02048899031317319,1.0136566395424191,0.28871353347133843,-1.1287272635858505,-1.404320052330941
2024-09-23 01:57:52.806344,0,8.495826,-0.01396421992450679,0.02048899031317319,1.0136566395424191,0.28871353347133843,-1.1287272635858505,-1.43932777255252
2024-09-23 01:57:52.849996,0,8.495877,-0.01396421992450679,0.019879204721382753,1.0153031616522024,0.3193667930966243,-1.1156065722204744,-1.4087318225037306
2024-09-23 01:57:52.893559,0,8.495877,-0.012073802565215924,0.022318348607521174,1.0134736818397203,0.3193667930966243,-1.1156065722204744,-1.4087318225037306
2024-09-23 01:57:52.905146,0,8.495877,-0.012073802565215924,0.022318348607521174,1.0134736818397203,0.3193667930966243,-1.0762442846808582,-1.3824903330512346
2024-09-23 01:57:52.938403,0,8.495968,-0.012073802565215924,0.022318348607521174,1.0134736818397203,0.3193667930966243,-1.0762442846808582,-1.3824903330512346
2024-09-23 01:57:52.950581,0,8.495968,-0.009512741813601339,0.02048899031317319,1.0119492611510794,0.38932495064372197,-1.1156065722204744,-1.3824903330512346
2024-09-23 01:57:52.993267,0,8.496019,-0.01256167205101853,0.020610907938137694,1.01231507934197,0.38932495064372197,-1.1156065722204744,-1.4087318225037306
2024-09-23 01:57:53.005429,0,8.496019,-0.01256167205101853,0.020610907938137694,1.01231507934197,0.27994727602181957,-1.1156065722204744,-1.4087318225037306
2024-09-23 01:57:53.038171,0,8.49607,-0.01256167205101853,0.020610907938137694,1.01231507934197,0.27994727602181957,-1.1111946953259408,-1.3737241022821516
2024-09-23 01:57:53.049244,0,8.49607,-0.01341539238571027,0.019452293288574063,1.0095710054450078,0.27994727602181957,-1.1111946953259408,-1.3737241022821516
2024-09-23 01:57:53.092923,0,8.49612,-0.014574005516297226,0.02122069352992813,1.0095710054450078,0.223109849860752,-1.1199610328167677,-1.461214801408723
2024-09-23 01:57:53.135873,0,8.49612,-0.014574005516297226,0.02122069352992813,1.0120102146471432,0.3411964856958948,-1.203097164625302,-1.461214801408723
2024-09-23 01:57:53.147327,0,8.496171,-0.012622630104012445,0.02122069352992813,1.0120102146471432,0.3411964856958948,-1.203097164625302,-1.3956111311383546
2024-09-23 01:57:53.189850,0,8.49626,-0.012622630104012445,0.015183792627064338,1.015973941752427,0.29306802074806765,-1.15932321363464,-1.3606034109167755
2024-09-23 01:57:53.233412,0,8.49626,-0.01481783924724956,0.018293680157987106,1.0120712653577144,0.29306802074806765,-1.15932321363464,-1.3606034109167755
2024-09-23 01:57:53.245442,0,8.49626,-0.01481783924724956,0.018293680157987106,1.0120712653577144,0.3018342781975865,-1.2293386540777982,-1.43932777255252
2024-09-23 01:57:53.287913,0,8.496311,-0.016586237969626952,0.020001120827370582,1.0126809947473678,0.3849704900474288,-1.1768557818945498,-1.43932777255252
2024-09-23 01:57:53.330467,0,8.496362,-0.012439653414105056,0.020001120827370582,1.0126809947473678,0.3849704900474288,-1.1768557818945498,-1.434973311956227
2024-09-23 01:57:53.341845,0,8.496362,-0.012439653414105056,0.02067186599113161,1.0148762927507406,0.37184974532118065,-1.1768557818945498,-1.434973311956227
2024-09-23 01:57:53.384766,0,8.496413,-0.014756881194255646,0.020062078880364497,1.0121322188537785,0.37184974532118065,-1.0718325145080685,-1.4174980532728136
2024-09-23 01:57:53.427694,0,8.496413,-0.014756881194255646,0.020062078880364497,1.0121322188537785,0.3368419984191656,-1.1024857741333545,-1.404320052330941
2024-09-23 01:57:53.439158,0,8.496463,-0.01182986782231462,0.020001120827370582,1.0121322188537785,0.3368419984191656,-1.1024857741333545,-1.404320052330941
2024-09-23 01:57:53.482547,0,8.496514,-0.01146401621393715,0.020001120827370582,1.012742045457939,0.3499627431454137,-1.0805987452771515,-1.426207081187144
2024-09-23 01:57:53.525681,0,8.496514,-0.01146401621393715,0.02048899031317319,1.0139006479556893,0.3193667930966243,-1.0805987452771515,-1.426207081187144
2024-09-23 01:57:53.537275,0,8.496601,-0.01146401621393715,0.02048899031317319,1.0139006479556893,0.3193667930966243,-1.1637349838074296,-1.4218526205908506
2024-09-23 01:57:53.580107,0,8.496601,-0.011281142054955407,0.021159735476934217,1.011034569852092,0.3368419984191656,-1.2205724233087152,-1.404320052330941
2024-09-23 01:57:53.622979,0,8.496652,-0.012500713238536278,0.019086441680196593,1.011034569852092,0.3368419984191656,-1.2205724233087152,-1.404320052330941
2024-09-23 01:57:53.634009,0,8.496652,-0.012500713238536278,0.019086441680196593,1.0150592504534395,0.3456082558686845,-1.216217962712422,-1.404320052330941
2024-09-23 01:57:53.677482,40.04,8.496703,-0.011586034850850625,0.019818144896951533,1.0108517093639005,0.3237212803733535,-1.216217962712422,-1.4174980532728136
2024-09-23 01:57:53.721142,40.04,8.496754,-0.011586034850850625,0.019818144896951533,1.0108517093639005,0.3237212803733535,-1.216217962712422,-1.434973311956227
2024-09-23 01:57:53.732608,40.04,8.496754,-0.013293374508285133,0.019086441680196593,1.0134736818397203,0.3237212803733535,-1.216217962712422,-1.434973311956227
2024-09-23 01:57:53.775708,40.04,8.496805,-0.012012843752733671,0.02189143717471248,1.0134736818397203,0.3062460483703762,-1.0849533125951887,-1.3956111311383546
2024-09-23 01:57:53.818579,40.04,8.496805,-0.012012843752733671,0.02189143717471248,1.0146933350480416,0.41121195281948897,-1.2118635021161288,-1.3956111311383546
2024-09-23 01:57:53.830051,40.04,8.496855,-0.01256167205101853,0.02189143717471248,1.0146933350480416,0.41121195281948897,-1.2118635021161288,-1.3430708426568656
2024-09-23 01:57:53.873710,40.04,8.496942,-0.01256167205101853,0.019452293288574063,1.0132908213515286,0.31060053564710544,-1.1680894444037229,-1.4568603408124299
2024-09-23 01:57:53.915312,40.04,8.496942,-0.01341539238571027,0.0173180429578192,1.0167666288447792,0.31060053564710544,-1.1680894444037229,-1.4568603408124299
2024-09-23 01:57:53.927435,40.04,8.496942,-0.01341539238571027,0.0173180429578192,1.0167666288447792,0.39809120809324083,-1.1680894444037229,-1.4437395427253097
2024-09-23 01:57:53.970014,40.04,8.496994,-0.01408613603049462,0.020610907938137694,1.012498037044669,0.3237212803733535,-1.0937195433642715,-1.4437395427253097
2024-09-23 01:57:54.013010,40.04,8.497045,-0.011524974266931064,0.020610907938137694,1.012498037044669,0.3237212803733535,-1.0937195433642715,-1.434973311956227
2024-09-23 01:57:54.024066,40.04,8.497045,-0.011524974266931064,0.017927828549609635,1.0115833457456815,0.3324875378228724,-1.0937195433642715,-1.434973311956227
2024-09-23 01:57:54.066416,40.04,8.497045,-0.011524974266931064,0.017927828549609635,1.0115833457456815,0.3324875378228724,-1.0980740039605648,-1.434973311956227
2024-09-23 01:57:54.108317,40.04,8.497045,-0.011524974266931064,0.017927828549609635,1.0115833457456815,0.3324875378228724,-1.0980740039605648,-1.4524485706396402
2024-09-23 01:57:54.119944,40.04,8.497095,-0.014512945691866003,0.024147706901869154,1.0084734536578288,0.2362305812467821,-1.0980740039605648,-1.4524485706396402
2024-09-23 01:57:54.162754,40.04,8.497146,-0.010549337066763158,0.024147706901869154,1.0084734536578288,0.2362305812467821,-1.1024857741333545,-1.461214801408723
2024-09-23 01:57:54.175247,40.04,8.497146,-0.010549337066763158,0.017805912443621806,1.01426646614658,0.2362305812467821,-1.1024857741333545,-1.461214801408723
2024-09-23 01:57:54.207493,40.04,8.497146,-0.010549337066763158,0.017805912443621806,1.01426646614658,0.3280757409696467,-1.1330817241821438,-1.461214801408723
2024-09-23 01:57:54.218588,40.04,8.497197,-0.01256167205101853,0.019574312684975875,1.01426646614658,0.3280757409696467,-1.1330817241821438,-1.3124748926080763
2024-09-23 01:57:54.262236,40.04,8.497283,-0.012988480952901577,0.019574312684975875,1.0109126628599643,0.3630834878716618,-1.0674780539117754,-1.4524485706396402
2024-09-23 01:57:54.305892,40.04,8.497283,-0.012988480952901577,0.01926931735815501,1.0148762927507406,0.3062460483703762,-1.0674780539117754,-1.4524485706396402
2024-09-23 01:57:54.317318,40.04,8.497334,-0.012988480952901577,0.01926931735815501,1.0148762927507406,0.3062460483703762,-1.1506142924420535,-1.4524485706396402
2024-09-23 01:57:54.360282,40.04,8.497334,-0.011890927646745842,0.02018409827676631,1.0117053499523165,0.3149550229238346,-1.0718325145080685,-1.3868447936475277
2024-09-23 01:57:54.403698,40.04,8.49743,-0.01408613603049462,0.02164760496273682,1.0117053499523165,0.3149550229238346,-1.0718325145080685,-1.3868447936475277
2024-09-23 01:57:54.415053,40.04,8.49743,-0.01408613603049462,0.02164760496273682,1.0123761300525411,0.3368419984191656,-1.1330817241821438,-1.3868447936475277
2024-09-23 01:57:54.457144,40.04,8.497481,-0.00792721725020569,0.02018409827676631,1.01231507934197,0.3368419984191656,-1.1330817241821438,-1.3999655917346479
2024-09-23 01:57:54.469395,40.04,8.497481,-0.00792721725020569,0.02018409827676631,1.01231507934197,0.3193667930966243,-1.1330817241821438,-1.3999655917346479
2024-09-23 01:57:54.502090,40.04,8.497532,-0.00792721725020569,0.02018409827676631,1.01231507934197,0.3193667930966243,-1.0937195433642715,-1.539996472620964
2024-09-23 01:57:54.513896,40.04,8.497532,-0.01408613603049462,0.021586543619328925,1.012742045457939,0.3193667930966243,-1.0937195433642715,-1.539996472620964
2024-09-23 01:57:54.546246,40.04,8.497532,-0.01408613603049462,0.021586543619328925,1.012742045457939,0.31060053564710544,-1.0937195433642715,-1.539996472620964
2024-09-23 01:57:54.557453,40.04,8.497583,-0.008963914274804818,0.019818144896951533,1.012742045457939,0.31060053564710544,-1.1549687530383468,-1.4524485706396402
2024-09-23 01:57:54.599778,40.04,8.497583,-0.008963914274804818,0.019818144896951533,1.0153641151482662,0.3149550229238346,-1.2293386540777982,-1.434973311956227
2024-09-23 01:57:54.613253,40.04,8.497634,-0.014147094083488534,0.019818144896951533,1.0153641151482662,0.3149550229238346,-1.2293386540777982,-1.434973311956227
2024-09-23 01:57:54.645200,40.04,8.497634,-0.014147094083488534,0.018781549643789714,1.012802998954003,0.3149550229238346,-1.2293386540777982,-1.434973311956227
2024-09-23 01:57:54.656796,40.04,8.497722,-0.014147094083488534,0.018781549643789714,1.012802998954003,0.3456082558686845,-1.0849533125951887,-1.496222521630302
2024-09-23 01:57:54.699301,41.06,8.497722,-0.011037206552565765,0.020245056329760223,1.0114614387535539,0.3411964856958948,-1.1330817241821438,-1.496222521630302
2024-09-23 01:57:54.711424,41.06,8.497722,-0.011037206552565765,0.020245056329760223,1.0114614387535539,0.3411964856958948,-1.1330817241821438,-1.474335492774099
2024-09-23 01:57:54.744934,41.06,8.497774,-0.016281345933220073,0.022684200215898644,1.0114614387535539,0.3411964856958948,-1.1330817241821438,-1.474335492774099
2024-09-23 01:57:54.756508,41.06,8.497774,-0.016281345933220073,0.022684200215898644,1.0114003880429827,0.3237212803733535,-1.0980740039605648,-1.474335492774099
2024-09-23 01:57:54.798774,41.06,8.497824,-0.011220081471035847,0.02189143717471248,1.015608026347029,0.24935132597303017,-1.0980740039605648,-1.3868447936475277
2024-09-23 01:57:54.841406,41.06,8.497875,-0.011220081471035847,0.02189143717471248,1.015608026347029,0.24935132597303017,-1.207451731943339,-1.4087318225037306
2024-09-23 01:57:54.853733,41.06,8.497875,-0.013293374508285133,0.02262324216290473,1.0119492611510794,0.24935132597303017,-1.207451731943339,-1.4087318225037306
2024-09-23 01:57:54.896447,41.06,8.497926,-0.015549642716465131,0.02237930666051509,1.0119492611510794,0.2668265312955715,-1.1330817241821438,-1.4174980532728136
2024-09-23 01:57:54.939512,41.06,8.497926,-0.015549642716465131,0.02237930666051509,1.0151202039495033,0.3674952580444515,-1.216217962712422,-1.4174980532728136
2024-09-23 01:57:54.950988,41.06,8.497976,-0.01268358815700636,0.02237930666051509,1.0151202039495033,0.3674952580444515,-1.216217962712422,-1.4655692620050162
2024-09-23 01:57:54.994655,41.06,8.498064,-0.01268358815700636,0.023842813346485598,1.0131688171448936,0.39809120809324083,-1.207451731943339,-1.3956111311383546
2024-09-23 01:57:55.037594,41.06,8.498064,-0.010000509527966639,0.019696228790963704,1.0131688171448936,0.39809120809324083,-1.207451731943339,-1.3956111311383546
2024-09-23 01:57:55.049003,41.06,8.498064,-0.010000509527966639,0.019696228790963704,1.010668654446694,0.3149550229238346,-1.1637349838074296,-1.2905878637518733
2024-09-23 01:57:55.091599,41.06,8.498115,-0.013293374508285133,0.02067186599113161,1.0146322843374704,0.3062460483703762,-1.1024857741333545,-1.2905878637518733
2024-09-23 01:57:55.134724,41.06,8.498166,-0.009939551474972724,0.02067186599113161,1.0146322843374704,0.3062460483703762,-1.1024857741333545,-1.3649578715130686
2024-09-23 01:57:55.146325,41.06,8.498166,-0.009939551474972724,0.02201345505213762,1.0160348952484908,0.3062460483703762,-1.1024857741333545,-1.3649578715130686
2024-09-23 01:57:55.189276,41.06,8.498216,-0.014756881194255646,0.01914740125216718,1.0160348952484908,0.20122284768498502,-1.1680894444037229,-1.4874562908612192
2024-09-23 01:57:55.231476,41.06,8.498216,-0.014756881194255646,0.01914740125216718,1.0153641151482662,0.3062460483703762,-1.0543573625463993,-1.4874562908612192
2024-09-23 01:57:55.245898,41.06,8.498267,-0.012500713238536278,0.01914740125216718,1.0153641151482662,0.3062460483703762,-1.0543573625463993,-1.4524485706396402
2024-09-23 01:57:55.278520,41.06,8.498267,-0.012500713238536278,0.019879204721382753,1.0115833457456815,0.3062460483703762,-1.0543573625463993,-1.4524485706396402
2024-09-23 01:57:55.289471,41.06,8.498318,-0.012500713238536278,0.019879204721382753,1.0115833457456815,0.3018342781975865,-1.0762442846808582,-1.3649578715130686
2024-09-23 01:57:55.331357,41.06,8.498318,-0.01219582044264106,0.020062078880364497,1.0153031616522024,0.28871353347133843,-1.0762442846808582,-1.3649578715130686
2024-09-23 01:57:55.342903,41.06,8.498318,-0.01219582044264106,0.020062078880364497,1.0153031616522024,0.28871353347133843,-1.2643463742993772,-1.474335492774099
2024-09-23 01:57:55.376400,41.06,8.498404,-0.01146401621393715,0.020062078880364497,1.0153031616522024,0.28871353347133843,-1.2643463742993772,-1.474335492774099
2024-09-23 01:57:55.388048,41.06,8.498404,-0.01146401621393715,0.023476961738108128,1.0162788064472537,0.2537058132497594,-1.2731127117902041,-1.474335492774099
2024-09-23 01:57:55.430945,41.06,8.498456,-0.011890927646745842,0.018964423802771455,1.01542506864433,0.3018342781975865,-1.2731127117902041,-1.5355847024481744
2024-09-23 01:57:55.474466,41.06,8.498456,-0.011890927646745842,0.018964423802771455,1.01542506864433,0.3018342781975865,-1.1068402347296475,-1.4787472629468887
2024-09-23 01:57:55.486092,41.06,8.498507,-0.013903160100075569,0.021708563015730736,1.0158518403312846,0.3018342781975865,-1.1068402347296475,-1.4787472629468887
2024-09-23 01:57:55.528246,41.06,8.498558,-0.01146401621393715,0.021708563015730736,1.0158518403312846,0.35872900059493257,-1.1680894444037229,-1.4524485706396402
2024-09-23 01:57:55.540316,41.06,8.498558,-0.01146401621393715,0.01890346574977754,1.0158518403312846,0.35872900059493257,-1.1680894444037229,-1.4524485706396402
2024-09-23 01:57:55.573439,41.06,8.498558,-0.01146401621393715,0.01890346574977754,1.0146933350480416,0.3456082558686845,-1.1943309338562191,-1.4524485706396402
2024-09-23 01:57:55.585254,41.06,8.498608,-0.01182986782231462,0.01890346574977754,1.0146933350480416,0.3456082558686845,-1.1943309338562191,-1.4306188513599336
2024-09-23 01:57:55.618334,41.06,8.498608,-0.01182986782231462,0.021281651582922046,1.0146933350480416,0.3456082558686845,-1.1943309338562191,-1.4306188513599336
2024-09-23 01:57:55.629978,41.06,8.498697,-0.01182986782231462,0.021281651582922046,1.0144494238492787,0.2668265312955715,-1.1943309338562191,-1.3606034109167755
2024-09-23 01:57:55.673621,41.06,8.498697,-0.015305708733052167,0.017927828549609635,1.01542506864433,0.29306802074806765,-1.203097164625302,-1.3606034109167755
2024-09-23 01:57:55.685327,41.06,8.498697,-0.015305708733052167,0.017927828549609635,1.01542506864433,0.29306802074806765,-1.203097164625302,-1.4218526205908506
2024-09-23 01:57:55.717479,41.78,8.498749,-0.015305708733052167,0.017927828549609635,1.01542506864433,0.29306802074806765,-1.203097164625302,-1.4218526205908506
2024-09-23 01:57:55.729578,41.78,8.498749,-0.014634963569291141,0.020549948366167105,1.0120102146471432,0.3062460483703762,-1.1330817241821438,-1.4218526205908506
2024-09-23 01:57:55.772991,41.78,8.498799,-0.015305708733052167,0.021281651582922046,1.0120712653577144,0.3062460483703762,-1.1330817241821438,-1.3824903330512346
2024-09-23 01:57:55.815595,41.78,8.498799,-0.015305708733052167,0.021281651582922046,1.0120712653577144,0.2405850685235113,-1.1330817241821438,-1.3824903330512346
2024-09-23 01:57:55.827197,41.78,8.49885,-0.010793271809664462,0.02213537267710212,1.0120712653577144,0.2405850685235113,-1.2687009416174144,-1.404320052330941
2024-09-23 01:57:55.870786,41.78,8.498901,-0.010793271809664462,0.02213537267710212,1.0131078636488298,0.3674952580444515,-1.1462025222692638,-1.3649578715130686
2024-09-23 01:57:55.882120,41.78,8.498901,-0.014269113479890346,0.02213537267710212,1.0131078636488298,0.3674952580444515,-1.1462025222692638,-1.3649578715130686
2024-09-23 01:57:55.914217,41.78,8.498901,-0.014269113479890346,0.019940162774376668,1.0159129882563631,0.28871353347133843,-1.1462025222692638,-1.3649578715130686
2024-09-23 01:57:55.925354,41.78,8.498951,-0.014269113479890346,0.019940162774376668,1.0159129882563631,0.28871353347133843,-1.1549687530383468,-1.43932777255252
2024-09-23 01:57:55.967773,41.78,8.498951,-0.011220081471035847,0.018171764051999276,1.0134736818397203,0.24935132597303017,-1.1199610328167677,-1.404320052330941
2024-09-23 01:57:56.011735,41.78,8.499038,-0.01219582044264106,0.01963527073796979,1.0134736818397203,0.24935132597303017,-1.1199610328167677,-1.404320052330941
2024-09-23 01:57:56.022810,41.78,8.499038,-0.01219582044264106,0.01963527073796979,1.0161568022406187,0.3411964856958948,-1.0762442846808582,-1.404320052330941
2024-09-23 01:57:56.065101,41.78,8.49909,-0.010183486217874026,0.020549948366167105,1.0149982969573756,0.3849704900474288,-1.0762442846808582,-1.474335492774099
2024-09-23 01:57:56.107814,41.78,8.49909,-0.010183486217874026,0.020549948366167105,1.0149982969573756,0.3849704900474288,-1.0674780539117754,-1.474335492774099
2024-09-23 01:57:56.119283,41.78,8.499141,-0.01219582044264106,0.020245056329760223,1.0140835084438808,0.3849704900474288,-1.0674780539117754,-1.474335492774099
2024-09-23 01:57:56.162114,41.78,8.499191,-0.010549337066763158,0.020245056329760223,1.0140835084438808,0.2186980663477443,-1.216217962712422,-1.4874562908612192
2024-09-23 01:57:56.174109,41.78,8.499191,-0.010549337066763158,0.019879204721382753,1.0140835084438808,0.2186980663477443,-1.216217962712422,-1.4874562908612192
2024-09-23 01:57:56.205795,41.78,8.499191,-0.010549337066763158,0.019879204721382753,1.012498037044669,0.3018342781975865,-1.216217962712422,-1.4874562908612192
2024-09-23 01:57:56.217002,41.78,8.499242,-0.01219582044264106,0.019879204721382753,1.012498037044669,0.3018342781975865,-1.2118635021161288,-1.518109550486505
2024-09-23 01:57:56.259699,41.78,8.499242,-0.01219582044264106,0.01853761414140007,1.0135956860463553,0.20122284768498502,-1.1287272635858505,-1.3212411233771593
2024-09-23 01:57:56.271581,41.78,8.499331,-0.01219582044264106,0.01853761414140007,1.0135956860463553,0.20122284768498502,-1.1287272635858505,-1.3212411233771593
2024-09-23 01:57:56.303150,41.78,8.499331,-0.00969561673207142,0.020062078880364497,1.0135956860463553,0.20122284768498502,-1.1287272635858505,-1.3212411233771593
2024-09-23 01:57:56.314699,41.78,8.499331,-0.00969561673207142,0.020062078880364497,1.015546975636458,0.2843590461946093,-1.203097164625302,-1.3999655917346479
2024-09-23 01:57:56.357975,41.78,8.499382,-0.01585453627184869,0.01975718684395762,1.013778546534547,0.3456082558686845,-1.1330817241821438,-1.3999655917346479
2024-09-23 01:57:56.400674,41.78,8.499433,-0.01585453627184869,0.01975718684395762,1.013778546534547,0.3456082558686845,-1.1330817241821438,-1.3911993609655648
2024-09-23 01:57:56.411620,41.78,8.499433,-0.014269113479890346,0.022440264713509,1.0167666288447792,0.27559278874509036,-1.1330817241821438,-1.3911993609655648
2024-09-23 01:57:56.453608,41.78,8.499484,-0.016037512202267738,0.021281651582922046,1.0167666288447792,0.27559278874509036,-1.1680894444037229,-1.426207081187144
2024-09-23 01:57:56.465186,41.78,8.499484,-0.016037512202267738,0.021281651582922046,1.0122541258459061,0.27559278874509036,-1.1680894444037229,-1.426207081187144
2024-09-23 01:57:56.498401,41.78,8.499484,-0.016037512202267738,0.021281651582922046,1.0122541258459061,0.27994727602181957,-1.1899764732599258,-1.426207081187144
2024-09-23 01:57:56.509454,41.78,8.499535,-0.012256778495634975,0.022928134199311608,1.0122541258459061,0.27994727602181957,-1.1899764732599258,-1.434973311956227
2024-09-23 01:57:56.551713,41.78,8.499585,-0.012256778495634975,0.022928134199311608,1.0120102146471432,0.38061600277069957,-1.1111946953259408,-1.3737241022821516
2024-09-23 01:57:56.563293,41.78,8.499585,-0.010488379013769245,0.022928134199311608,1.0120102146471432,0.38061600277069957,-1.1111946953259408,-1.3737241022821516
2024-09-23 01:57:56.595663,41.78,8.499585,-0.010488379013769245,0.019452293288574063,1.0152421109416312,0.38061600277069957,-1.1111946953259408,-1.3737241022821516
2024-09-23 01:57:56.607663,41.78,8.499672,-0.010488379013769245,0.019452293288574063,1.0152421109416312,0.26247207069927825,-1.0718325145080685,-1.4174980532728136
2024-09-23 01:57:56.649739,41.78,8.499672,-0.013049540777332799,0.020245056329760223,1.0098759673543418,0.27559278874509036,-1.0587118231426924,-1.413086283100024
2024-09-23 01:57:56.693106,41.78,8.499724,-0.014025177977500705,0.020245056329760223,1.0098759673543418,0.27559278874509036,-1.0587118231426924,-1.413086283100024
2024-09-23 01:57:56.704593,41.78,8.499724,-0.014025177977500705,0.019940162774376668,1.0103028362558035,0.35872900059493257,-1.1418479549512268,-1.413086283100024
2024-09-23 01:57:56.746789,42.51,8.499774,-0.013476350438704184,0.019330377182586234,1.0103028362558035,0.35872900059493257,-1.1418479549512268,-1.4437395427253097
2024-09-23 01:57:56.758401,42.51,8.499774,-0.013476350438704184,0.019330377182586234,1.0125589905407328,0.41997821026900783,-1.1418479549512268,-1.4437395427253097
2024-09-23 01:57:56.791211,42.51,8.499774,-0.013476350438704184,0.019330377182586234,1.0125589905407328,0.41997821026900783,-1.0762442846808582,-1.4437395427253097
2024-09-23 01:57:56.802985,42.51,8.499825,-0.01219582044264106,0.020062078880364497,1.0125589905407328,0.41997821026900783,-1.0762442846808582,-1.4437395427253097
2024-09-23 01:57:56.846334,42.51,8.499876,-0.014512945691866003,0.020062078880364497,1.014022554947817,0.3456082558686845,-1.1374934943549335,-1.404320052330941
2024-09-23 01:57:56.890018,42.51,8.499876,-0.014512945691866003,0.020793883868556746,1.014022554947817,0.37184974532118065,-1.1374934943549335,-1.404320052330941
2024-09-23 01:57:56.901439,42.51,8.499927,-0.014512945691866003,0.020793883868556746,1.014022554947817,0.37184974532118065,-1.15932321363464,-1.434973311956227
2024-09-23 01:57:56.944871,42.51,8.499927,-0.01146401621393715,0.01890346574977754,1.0136566395424191,0.3368419984191656,-1.1812102424908428,-1.4218526205908506
2024-09-23 01:57:56.987174,42.51,8.500013,-0.014878899071680782,0.020793883868556746,1.0136566395424191,0.3368419984191656,-1.1812102424908428,-1.4218526205908506
2024-09-23 01:57:56.998759,42.51,8.500013,-0.014878899071680782,0.020793883868556746,1.0152421109416312,0.3411964856958948,-1.1156065722204744,-1.4218526205908506
2024-09-23 01:57:57.041562,42.51,8.500065,-0.012866564846913748,0.01963527073796979,1.0120712653577144,0.2274643237972632,-1.1156065722204744,-1.5005769822265953
2024-09-23 01:57:57.085294,42.51,8.500116,-0.012866564846913748,0.01963527073796979,1.0120712653577144,0.2274643237972632,-1.2424594521649182,-1.3956111311383546
2024-09-23 01:57:57.097052,42.51,8.500116,-0.01408613603049462,0.022501222766502915,1.0129859566567019,0.2274643237972632,-1.2424594521649182,-1.3956111311383546
2024-09-23 01:57:57.129628,42.51,8.500116,-0.01408613603049462,0.022501222766502915,1.0129859566567019,0.40685746554275976,-1.2424594521649182,-1.3956111311383546
2024-09-23 01:57:57.141344,42.51,8.500166,-0.014756881194255646,0.021830479121718566,1.0129859566567019,0.40685746554275976,-1.1243154934130608,-1.483101830264926
2024-09-23 01:57:57.183379,42.51,8.500166,-0.014756881194255646,0.021830479121718566,1.015668979843093,0.37620423259790986,-1.1943309338562191,-1.509343212995678
2024-09-23 01:57:57.194902,42.51,8.500217,-0.01341539238571027,0.021830479121718566,1.015668979843093,0.37620423259790986,-1.1943309338562191,-1.509343212995678
2024-09-23 01:57:57.226981,42.51,8.500217,-0.01341539238571027,0.020915799974544576,1.015668979843093,0.37620423259790986,-1.1943309338562191,-1.509343212995678
2024-09-23 01:57:57.239195,42.51,8.500306,-0.01341539238571027,0.020915799974544576,1.0135347325502915,0.3149550229238346,-1.0412365644592791,-1.4524485706396402
2024-09-23 01:57:57.282503,42.51,8.500306,-0.01365932788809991,0.020245056329760223,1.0146933350480416,0.38061600277069957,-1.0980740039605648,-1.4524485706396402
2024-09-23 01:57:57.294331,42.51,8.500306,-0.01365932788809991,0.020245056329760223,1.0146933350480416,0.38061600277069957,-1.0980740039605648,-1.4655692620050162
2024-09-23 01:57:57.326828,42.51,8.500358,-0.01182986782231462,0.020245056329760223,1.0146933350480416,0.38061600277069957,-1.0980740039605648,-1.4655692620050162
2024-09-23 01:57:57.338466,42.51,8.500358,-0.01182986782231462,0.02085484192155066,1.0140835084438808,0.3630834878716618,-1.0805987452771515,-1.4655692620050162
2024-09-23 01:57:57.381248,42.51,8.500409,-0.01396421992450679,0.020366972435748053,1.0146322843374704,0.24499683869630098,-1.0805987452771515,-1.434973311956227
2024-09-23 01:57:57.423776,42.51,8.500409,-0.01396421992450679,0.020366972435748053,1.0146322843374704,0.24499683869630098,-1.0849533125951887,-1.4524485706396402
2024-09-23 01:57:57.435692,42.51,8.500459,-0.012317737308117227,0.018598572194393984,1.0143883731387076,0.24499683869630098,-1.0849533125951887,-1.4524485706396402
2024-09-23 01:57:57.478393,42.51,8.50051,-0.012073802565215924,0.018598572194393984,1.0143883731387076,0.31060053564710544,-1.1943309338562191,-1.43932777255252
2024-09-23 01:57:57.490526,42.51,8.50051,-0.012073802565215924,0.02097675802753849,1.0143883731387076,0.31060053564710544,-1.1943309338562191,-1.43932777255252
2024-09-23 01:57:57.523436,42.51,8.50051,-0.012073802565215924,0.02097675802753849,1.0132298678554648,0.3543172304221429,-1.1287272635858505,-1.43932777255252
2024-09-23 01:57:57.535153,42.51,8.500561,-0.012866564846913748,0.02097675802753849,1.0132298678554648,0.3543172304221429,-1.1287272635858505,-1.3299501512914895
2024-09-23 01:57:57.578860,42.51,8.500647,-0.012866564846913748,0.02164760496273682,1.0151202039495033,0.38932495064372197,-1.2205724233087152,-1.3956111311383546
2024-09-23 01:57:57.621377,42.51,8.500647,-0.014756881194255646,0.019879204721382753,1.0143883731387076,0.38932495064372197,-1.2205724233087152,-1.3956111311383546
2024-09-23 01:57:57.632357,42.51,8.500647,-0.014756881194255646,0.019879204721382753,1.0143883731387076,0.37184974532118065,-1.1768557818945498,-1.3911993609655648
2024-09-23 01:57:57.675188,42.51,8.500699,-0.013720285941093825,0.02067186599113161,1.012925003160638,0.26247207069927825,-1.2205724233087152,-1.3911993609655648
2024-09-23 01:57:57.718333,42.51,8.500749,-0.010061467580960552,0.02067186599113161,1.012925003160638,0.26247207069927825,-1.2205724233087152,-1.3693696416858583
2024-09-23 01:57:57.772435,42.39,8.5008,-0.010061467580960552,0.020915799974544576,1.011217527554791,0.35872900059493257,-1.1680894444037229,-1.4787472629468887
2024-09-23 01:57:57.815956,42.39,8.5008,-0.015488684663471218,0.019696228790963704,1.0168275823408433,0.35872900059493257,-1.1680894444037229,-1.4787472629468887
2024-09-23 01:57:57.827784,42.39,8.5008,-0.015488684663471218,0.019696228790963704,1.0168275823408433,0.3499627431454137,-1.1680894444037229,-1.4787472629468887
2024-09-23 01:57:57.871266,42.39,8.500851,-0.01445198763887209,0.019330377182586234,1.012802998954003,0.3499627431454137,-1.2512256829340012,-1.43932777255252
2024-09-23 01:57:57.913974,42.39,8.500851,-0.01445198763887209,0.019330377182586234,1.012802998954003,0.35872900059493257,-1.0893650827679784,-1.474335492774099
2024-09-23 01:57:57.925669,42.39,8.500902,-0.010366361136344109,0.021159735476934217,1.012802998954003,0.35872900059493257,-1.0893650827679784,-1.474335492774099
2024-09-23 01:57:57.967765,42.39,8.500988,-0.013537308491698099,0.021159735476934217,1.0130469101527657,0.27559278874509036,-1.0762442846808582,-1.4218526205908506
2024-09-23 01:57:58.011050,42.39,8.500988,-0.013537308491698099,0.02140366946034718,1.0148152420401695,0.27559278874509036,-1.0762442846808582,-1.4218526205908506
2024-09-23 01:57:58.023076,42.39,8.50104,-0.013537308491698099,0.02140366946034718,1.0148152420401695,0.3280757409696467,-1.1068402347296475,-1.3606034109167755
2024-09-23 01:57:58.065228,42.39,8.50104,-0.010549337066763158,0.02274515826889256,1.0117664006628877,0.223109849860752,-1.0499454856518655,-1.4087318225037306
2024-09-23 01:57:58.108718,42.39,8.501135,-0.012988480952901577,0.018842507696783625,1.0117664006628877,0.223109849860752,-1.0499454856518655,-1.4087318225037306
2024-09-23 01:57:58.120312,42.39,8.501135,-0.012988480952901577,0.018842507696783625,1.014144559154452,0.3237212803733535,-1.1899764732599258,-1.4087318225037306
2024-09-23 01:57:58.163413,42.39,8.501187,-0.01396421992450679,0.021281651582922046,1.0128639524500669,0.35872900059493257,-1.1899764732599258,-1.43932777255252
2024-09-23 01:57:58.205753,42.39,8.501187,-0.01396421992450679,0.021281651582922046,1.0128639524500669,0.35872900059493257,-1.1637349838074296,-1.4874562908612192
2024-09-23 01:57:58.216777,42.39,8.501237,-0.016525279916633037,0.020793883868556746,1.0145713308414066,0.35872900059493257,-1.1637349838074296,-1.4874562908612192
2024-09-23 01:57:58.261091,42.39,8.501288,-0.010183486217874026,0.020549948366167105,1.0145713308414066,0.3411964856958948,-1.1637349838074296,-1.3999655917346479
2024-09-23 01:57:58.303182,42.39,8.501288,-0.010183486217874026,0.020549948366167105,1.012620041251304,0.3062460483703762,-1.0499454856518655,-1.3999655917346479
2024-09-23 01:57:58.314615,42.39,8.501339,-0.01445198763887209,0.020549948366167105,1.012620041251304,0.3062460483703762,-1.0499454856518655,-1.3693696416858583
2024-09-23 01:57:58.357635,42.39,8.501427,-0.01445198763887209,0.017744852619190586,1.0123761300525411,0.28871353347133843,-1.0499454856518655,-1.4174980532728136
2024-09-23 01:57:58.400868,42.39,8.501427,-0.012622630104012445,0.022684200215898644,1.0120102146471432,0.28871353347133843,-1.0499454856518655,-1.4174980532728136
2024-09-23 01:57:58.412126,42.39,8.501427,-0.012622630104012445,0.022684200215898644,1.0120102146471432,0.29747979092085736,-1.0980740039605648,-1.4087318225037306
2024-09-23 01:57:58.454634,42.39,8.501479,-0.013842202047081654,0.019879204721382753,1.0160958487445546,0.3018342781975865,-1.216217962712422,-1.4087318225037306
2024-09-23 01:57:58.496854,42.39,8.501529,-0.013842202047081654,0.019879204721382753,1.0160958487445546,0.3018342781975865,-1.216217962712422,-1.469981032177806
2024-09-23 01:57:58.509138,42.39,8.501529,-0.01664729931303485,0.019696228790963704,1.0157299333391567,0.2581175834225491,-1.216217962712422,-1.469981032177806
2024-09-23 01:57:58.551948,42.39,8.50158,-0.012927522899907663,0.02134260963591596,1.0174374089450038,0.2581175834225491,-1.1418479549512268,-1.4174980532728136
2024-09-23 01:57:58.593969,42.39,8.50158,-0.012927522899907663,0.02134260963591596,1.0174374089450038,0.3324875378228724,-1.0587118231426924,-1.4174980532728136
2024-09-23 01:57:58.605662,42.39,8.501631,-0.016464321863639123,0.01853761414140007,1.0174374089450038,0.3324875378228724,-1.0587118231426924,-1.469981032177806
2024-09-23 01:57:58.648633,42.39,8.501682,-0.015000815177668611,0.01853761414140007,1.020364440544665,0.3630834878716618,-1.1418479549512268,-1.3255955839734523
2024-09-23 01:57:58.691138,42.39,8.501682,-0.015000815177668611,0.020793883868556746,1.0150592504534395,0.3630834878716618,-1.1418479549512268,-1.3255955839734523
2024-09-23 01:57:58.703183,42.39,8.501768,-0.015000815177668611,0.020793883868556746,1.0150592504534395,0.37620423259790986,-1.1068402347296475,-1.4174980532728136
2024-09-23 01:57:58.744960,42.39,8.501768,-0.010305402323861856,0.023903771399479513,1.0093270942462451,0.3368419984191656,-1.1462025222692638,-1.4174980532728136
2024-09-23 01:57:58.757040,42.39,8.501768,-0.010305402323861856,0.023903771399479513,1.0093270942462451,0.3368419984191656,-1.1462025222692638,-1.4218526205908506
2024-09-23 01:57:58.841394,41.56,8.50182,-0.014695923141261731,0.019513251341567978,1.0093270942462451,0.3368419984191656,-1.1462025222692638,-1.4218526205908506
2024-09-23 01:57:58.853079,41.56,8.50182,-0.014695923141261731,0.019513251341567978,1.0143883731387076,0.35872900059493257,-1.0193495356030762,-1.4218526205908506
2024-09-23 01:57:58.886038,41.56,8.50182,-0.014695923141261731,0.019513251341567978,1.0143883731387076,0.35872900059493257,-1.0193495356030762,-1.3868447936475277
2024-09-23 01:57:58.897297,41.56,8.501871,-0.010854230622146716,0.019574312684975875,1.0131688171448936,0.27994727602181957,-1.0193495356030762,-1.3868447936475277
2024-09-23 01:57:58.942350,41.56,8.501921,-0.015061773230662524,0.019330377182586234,1.0134127283436565,0.27994727602181957,-1.0980740039605648,-1.4437395427253097
2024-09-23 01:57:58.985927,41.56,8.501921,-0.015061773230662524,0.019330377182586234,1.0134127283436565,0.3324875378228724,-1.1855647030871361,-1.3956111311383546
2024-09-23 01:57:58.997388,41.56,8.501972,-0.01536666678604608,0.019513251341567978,1.0134127283436565,0.3324875378228724,-1.1855647030871361,-1.3956111311383546
2024-09-23 01:57:59.040859,41.56,8.501972,-0.01536666678604608,0.019513251341567978,1.0143274196426437,0.3324875378228724,-1.1855647030871361,-1.3956111311383546
2024-09-23 01:57:59.083798,41.56,8.501972,-0.01536666678604608,0.019513251341567978,1.0143274196426437,0.2405850685235113,-1.203097164625302,-1.4174980532728136
2024-09-23 01:57:59.095144,41.56,8.502023,-0.011951885699739756,0.021098777423940302,1.0143274196426437,0.2405850685235113,-1.203097164625302,-1.4174980532728136
2024-09-23 01:57:59.138127,41.56,8.502023,-0.011951885699739756,0.021098777423940302,1.0160958487445546,0.37184974532118065,-1.1506142924420535,-1.4087318225037306
2024-09-23 01:57:59.181313,41.56,8.502158,-0.014208053655459124,0.019940162774376668,1.0160958487445546,0.37184974532118065,-1.1506142924420535,-1.4087318225037306
2024-09-23 01:57:59.192697,41.56,8.502158,-0.014208053655459124,0.019940162774376668,1.0162788064472537,0.3018342781975865,-1.1680894444037229,-1.4087318225037306
2024-09-23 01:57:59.235242,41.56,8.50221,-0.014208053655459124,0.019940162774376668,1.0162788064472537,0.3018342781975865,-1.1680894444037229,-1.3824903330512346
2024-09-23 01:57:59.278402,41.56,8.50221,-0.012439653414105056,0.022867176146317694,1.0114003880429827,0.3018342781975865,-1.1680894444037229,-1.3824903330512346
2024-09-23 01:57:59.290088,41.56,8.50221,-0.012439653414105056,0.022867176146317694,1.0114003880429827,0.3499627431454137,-1.1506142924420535,-1.3956111311383546
2024-09-23 01:57:59.332749,41.56,8.502261,-0.010366361136344109,0.016830173472016593,1.0152421109416312,0.3543172304221429,-1.1330817241821438,-1.3956111311383546
2024-09-23 01:57:59.375888,41.56,8.502355,-0.012866564846913748,0.016830173472016593,1.0152421109416312,0.3543172304221429,-1.1330817241821438,-1.3737241022821516
2024-09-23 01:57:59.387602,41.56,8.502355,-0.012866564846913748,0.019330377182586234,1.014205512650516,0.27123832814879717,-1.1330817241821438,-1.3737241022821516
2024-09-23 01:57:59.430716,41.56,8.502405,-0.014574005516297226,0.018049744655597465,1.01231507934197,0.27123832814879717,-1.1156065722204744,-1.3956111311383546
2024-09-23 01:57:59.473451,41.56,8.502405,-0.014574005516297226,0.018049744655597465,1.01231507934197,0.4155664400962181,-1.1068402347296475,-1.3868447936475277
2024-09-23 01:57:59.484582,41.56,8.5025,-0.012134760618209839,0.020915799974544576,1.01231507934197,0.4155664400962181,-1.1068402347296475,-1.3868447936475277
2024-09-23 01:57:59.528053,41.56,8.502551,-0.011342100107949322,0.020915799974544576,1.014022554947817,0.39373674749694765,-1.207451731943339,-1.5705924226697534
2024-09-23 01:57:59.570407,41.56,8.502551,-0.011342100107949322,0.020793883868556746,1.015546975636458,0.29747979092085736,-1.207451731943339,-1.5705924226697534
2024-09-23 01:57:59.581394,41.56,8.502646,-0.011342100107949322,0.020793883868556746,1.015546975636458,0.29747979092085736,-1.1724439050000162,-1.434973311956227
2024-09-23 01:57:59.623765,41.56,8.502646,-0.013354434332716355,0.019513251341567978,1.014205512650516,0.3149550229238346,-1.1549687530383468,-1.3255955839734523
2024-09-23 01:57:59.666814,41.56,8.502697,-0.011281142054955407,0.019513251341567978,1.014205512650516,0.3149550229238346,-1.1549687530383468,-1.3255955839734523
2024-09-23 01:57:59.678056,41.56,8.502697,-0.011281142054955407,0.017074107455429557,1.012742045457939,0.2843590461946093,-1.2774671723864972,-1.3255955839734523
2024-09-23 01:57:59.719945,41.56,8.502748,-0.012073802565215924,0.022562284109910815,1.0135956860463553,0.2843590461946093,-1.2774671723864972,-1.4568603408124299
2024-09-23 01:57:59.731539,41.56,8.502748,-0.012073802565215924,0.022562284109910815,1.0135956860463553,0.3456082558686845,-1.2774671723864972,-1.4568603408124299
2024-09-23 01:57:59.763919,41.56,8.502748,-0.012073802565215924,0.022562284109910815,1.0135956860463553,0.3456082558686845,-1.1724439050000162,-1.531230241851881
2024-09-23 01:57:59.775630,41.56,8.502799,-0.012378695361111141,0.019086441680196593,1.0123761300525411,0.3456082558686845,-1.1724439050000162,-1.531230241851881
2024-09-23 01:57:59.818204,41.56,8.50285,-0.014208053655459124,0.019086441680196593,1.0123761300525411,0.37184974532118065,-1.1506142924420535,-1.4218526205908506
2024-09-23 01:57:59.830195,41.56,8.50285,-0.014208053655459124,0.01939133523558015,1.0123761300525411,0.37184974532118065,-1.1506142924420535,-1.4218526205908506
2024-09-23 01:57:59.862618,41.5,8.50285,-0.014208053655459124,0.01939133523558015,1.0124370835486052,0.3193667930966243,-1.1506142924420535,-1.4218526205908506
2024-09-23 01:57:59.916144,41.5,8.5029,-0.012988480952901577,0.022440264713509,1.0124370835486052,0.3193667930966243,-1.1812102424908428,-1.3824903330512346
2024-09-23 01:57:59.927843,41.5,8.5029,-0.012988480952901577,0.022440264713509,1.012498037044669,0.3193667930966243,-1.1812102424908428,-1.3824903330512346
2024-09-23 01:57:59.959364,41.5,8.5029,-0.012988480952901577,0.022440264713509,1.012498037044669,0.31060053564710544,-1.1287272635858505,-1.3824903330512346
2024-09-23 01:57:59.970545,41.5,8.502987,-0.014939857124674697,0.019574312684975875,1.012498037044669,0.31060053564710544,-1.1287272635858505,-1.3649578715130686
2024-09-23 01:58:00.013278,41.5,8.503039,-0.014939857124674697,0.019574312684975875,1.0144494238492787,0.29306802074806765,-1.1680894444037229,-1.3999655917346479
2024-09-23 01:58:00.025484,41.5,8.503039,-0.014634963569291141,0.019574312684975875,1.0144494238492787,0.29306802074806765,-1.1680894444037229,-1.3999655917346479
2024-09-23 01:58:00.058043,41.5,8.503039,-0.014634963569291141,0.02134260963591596,1.0160958487445546,0.3456082558686845,-1.1680894444037229,-1.3999655917346479
2024-09-23 01:58:00.069752,41.5,8.503089,-0.014634963569291141,0.02134260963591596,1.0160958487445546,0.3456082558686845,-1.1199610328167677,-1.3649578715130686
2024-09-23 01:58:00.112313,41.5,8.503089,-0.01164699290384454,0.02274515826889256,1.0117664006628877,0.3324875378228724,-1.1899764732599258,-1.4306188513599336
2024-09-23 01:58:00.155809,41.5,8.503183,-0.01445198763887209,0.020793883868556746,1.0117664006628877,0.3324875378228724,-1.1899764732599258,-1.4306188513599336
2024-09-23 01:58:00.167315,41.5,8.503183,-0.01445198763887209,0.020793883868556746,1.0162788064472537,0.3280757409696467,-1.15932321363464,-1.4306188513599336
2024-09-23 01:58:00.210042,41.5,8.503234,-0.01536666678604608,0.020245056329760223,1.0149372462468045,0.3324875378228724,-1.15932321363464,-1.461214801408723
2024-09-23 01:58:00.252132,41.5,8.503234,-0.01536666678604608,0.020245056329760223,1.0149372462468045,0.3324875378228724,-1.1812102424908428,-1.3606034109167755
2024-09-23 01:58:00.265323,41.5,8.503285,-0.010732313756670548,0.022867176146317694,1.011095523348156,0.3324875378228724,-1.1812102424908428,-1.3606034109167755
2024-09-23 01:58:00.308047,41.5,8.503336,-0.010732313756670548,0.022867176146317694,1.011095523348156,0.2318188110739924,-1.1287272635858505,-1.3562488435987383
2024-09-23 01:58:00.350868,41.5,8.503336,-0.013232416455291218,0.022562284109910815,1.0145713308414066,0.2318188110739924,-1.1287272635858505,-1.3562488435987383
2024-09-23 01:58:00.362670,41.5,8.503336,-0.013232416455291218,0.022562284109910815,1.0145713308414066,0.3149550229238346,-1.0980740039605648,-1.3430708426568656
2024-09-23 01:58:00.406308,41.5,8.503386,-0.010793271809664462,0.02018409827676631,1.014022554947817,0.3193667930966243,-1.1549687530383468,-1.3430708426568656
2024-09-23 01:58:00.448087,41.5,8.503475,-0.012744546969488612,0.02018409827676631,1.014022554947817,0.3193667930966243,-1.1549687530383468,-1.3956111311383546
2024-09-23 01:58:00.459416,41.5,8.503475,-0.012744546969488612,0.020062078880364497,1.0132298678554648,0.28871353347133843,-1.1549687530383468,-1.3956111311383546
2024-09-23 01:58:00.502665,41.5,8.503526,-0.013598266544692013,0.01963527073796979,1.0145103773453428,0.28871353347133843,-1.1199610328167677,-1.496222521630302
2024-09-23 01:58:00.546276,41.5,8.503526,-0.013598266544692013,0.01963527073796979,1.0145103773453428,0.3411964856958948,-1.0543573625463993,-1.4655692620050162
2024-09-23 01:58:00.557794,41.5,8.503577,-0.012927522899907663,0.019940162774376668,1.0145103773453428,0.3411964856958948,-1.0543573625463993,-1.4655692620050162
2024-09-23 01:58:00.600575,41.5,8.503628,-0.014269113479890346,0.019940162774376668,1.0160348952484908,0.3411964856958948,-1.1156065722204744,-1.4655692620050162
2024-09-23 01:58:00.643273,41.5,8.503628,-0.014269113479890346,0.02018409827676631,1.0118273541589518,0.3411964856958948,-1.1156065722204744,-1.4655692620050162
2024-09-23 01:58:00.655237,41.5,8.503718,-0.014269113479890346,0.02018409827676631,1.0118273541589518,0.3237212803733535,-1.2336931146740913,-1.4568603408124299
2024-09-23 01:58:00.698470,41.5,8.503718,-0.010854230622146716,0.019025483627202678,1.0153031616522024,0.37620423259790986,-1.1855647030871361,-1.3911993609655648
2024-09-23 01:58:00.740883,41.5,8.50377,-0.012134760618209839,0.01768389456619667,1.0153031616522024,0.37620423259790986,-1.1855647030871361,-1.3911993609655648
2024-09-23 01:58:00.751809,41.5,8.50377,-0.012134760618209839,0.01768389456619667,1.0132298678554648,0.28871353347133843,-1.1243154934130608,-1.3911993609655648
2024-09-23 01:58:00.794515,41.5,8.503821,-0.012988480952901577,0.02012303845233509,1.0116442992417454,0.28871353347133843,-1.1243154934130608,-1.4437395427253097
2024-09-23 01:58:00.805953,41.5,8.503821,-0.012988480952901577,0.02012303845233509,1.0116442992417454,0.31060053564710544,-1.1243154934130608,-1.4437395427253097
2024-09-23 01:58:00.838513,41.5,8.503871,-0.012988480952901577,0.02012303845233509,1.0116442992417454,0.31060053564710544,-1.1812102424908428,-1.4218526205908506
2024-09-23 01:58:00.849970,41.5,8.503871,-0.011586034850850625,0.02122069352992813,1.0151811574455674,0.31060053564710544,-1.1812102424908428,-1.4218526205908506
2024-09-23 01:58:00.893297,41.41,8.503922,-0.014208053655459124,0.02207441310513153,1.0151811574455674,0.3193667930966243,-1.1812102424908428,-1.4787472629468887
2024-09-23 01:58:00.937820,41.41,8.503922,-0.014208053655459124,0.02207441310513153,1.0148762927507406,0.3411964856958948,-1.2643463742993772,-1.413086283100024
2024-09-23 01:58:00.949362,41.41,8.503973,-0.01256167205101853,0.02207441310513153,1.0148762927507406,0.3411964856958948,-1.2643463742993772,-1.413086283100024
2024-09-23 01:58:00.982973,41.41,8.503973,-0.01256167205101853,0.022928134199311608,1.0148762927507406,0.3411964856958948,-1.2643463742993772,-1.413086283100024
2024-09-23 01:58:00.994807,41.41,8.50406,-0.01256167205101853,0.022928134199311608,1.0129859566567019,0.37620423259790986,-1.1418479549512268,-1.469981032177806
2024-09-23 01:58:01.037956,41.41,8.50406,-0.01182986782231462,0.020366972435748053,1.0149372462468045,0.3849704900474288,-1.0718325145080685,-1.491868061034009
2024-09-23 01:58:01.080652,41.41,8.504111,-0.011890927646745842,0.020366972435748053,1.0149372462468045,0.3849704900474288,-1.0718325145080685,-1.491868061034009
2024-09-23 01:58:01.092457,41.41,8.504111,-0.011890927646745842,0.018842507696783625,1.0145713308414066,0.37620423259790986,-1.0893650827679784,-1.491868061034009
2024-09-23 01:58:01.135205,41.41,8.504162,-0.017013149402435646,0.01811080599900536,1.0124370835486052,0.3193667930966243,-1.0893650827679784,-1.3430708426568656
2024-09-23 01:58:01.177660,41.41,8.504162,-0.017013149402435646,0.01811080599900536,1.0124370835486052,0.3193667930966243,-1.0412365644592791,-1.4218526205908506
2024-09-23 01:58:01.189411,41.41,8.504213,-0.015183792627064338,0.01823272210499319,1.0129859566567019,0.3193667930966243,-1.0412365644592791,-1.4218526205908506
2024-09-23 01:58:01.232187,41.41,8.504263,-0.014695923141261731,0.01823272210499319,1.0129859566567019,0.38061600277069957,-1.0805987452771515,-1.4437395427253097
2024-09-23 01:58:01.244109,41.41,8.504263,-0.014695923141261731,0.02048899031317319,1.0129859566567019,0.38061600277069957,-1.0805987452771515,-1.4437395427253097
2024-09-23 01:58:01.276559,41.41,8.504263,-0.014695923141261731,0.02048899031317319,1.012498037044669,0.29747979092085736,-1.0805987452771515,-1.4437395427253097
2024-09-23 01:58:01.288201,41.41,8.504263,-0.014695923141261731,0.02048899031317319,1.012498037044669,0.29747979092085736,-1.2512256829340012,-1.4437395427253097
2024-09-23 01:58:01.330499,41.41,8.504314,-0.013232416455291218,0.02262324216290473,1.0120712653577144,0.3062460483703762,-1.2512256829340012,-1.426207081187144
2024-09-23 01:58:01.372326,41.41,8.504314,-0.013232416455291218,0.02262324216290473,1.0120712653577144,0.3062460483703762,-1.1243154934130608,-1.4174980532728136
2024-09-23 01:58:01.384500,41.41,8.504401,-0.012134760618209839,0.020427930488741967,1.0129859566567019,0.3062460483703762,-1.1243154934130608,-1.4174980532728136
2024-09-23 01:58:01.427477,41.41,8.504452,-0.00987859342197881,0.020427930488741967,1.0129859566567019,0.3237212803733535,-1.0849533125951887,-1.3737241022821516
2024-09-23 01:58:01.439137,41.41,8.504452,-0.00987859342197881,0.02189143717471248,1.0129859566567019,0.3237212803733535,-1.0849533125951887,-1.3737241022821516
2024-09-23 01:58:01.471872,41.41,8.504452,-0.00987859342197881,0.02189143717471248,1.008229542459066,0.29306802074806765,-1.15932321363464,-1.3737241022821516
2024-09-23 01:58:01.483667,41.41,8.504503,-0.011342100107949322,0.02189143717471248,1.008229542459066,0.29306802074806765,-1.15932321363464,-1.3780785628784449
2024-09-23 01:58:01.526871,41.41,8.504503,-0.011342100107949322,0.02122069352992813,1.008229542459066,0.29306802074806765,-1.15932321363464,-1.3780785628784449
2024-09-23 01:58:01.569744,41.41,8.504503,-0.011342100107949322,0.02122069352992813,1.0144494238492787,0.37184974532118065,-1.15932321363464,-1.3780785628784449
2024-09-23 01:58:01.580774,41.41,8.504554,-0.011951885699739756,0.02122069352992813,1.0144494238492787,0.37184974532118065,-1.1199610328167677,-1.3299501512914895
2024-09-23 01:58:01.623791,41.41,8.504645,-0.011951885699739756,0.020915799974544576,1.015546975636458,0.27559278874509036,-1.1068402347296475,-1.448094003321603
2024-09-23 01:58:01.667379,41.41,8.504645,-0.01146401621393715,0.01823272210499319,1.0140835084438808,0.27559278874509036,-1.1068402347296475,-1.448094003321603
2024-09-23 01:58:01.678783,41.41,8.504645,-0.01146401621393715,0.01823272210499319,1.0140835084438808,0.3193667930966243,-1.1812102424908428,-1.3474826128296553
2024-09-23 01:58:01.721371,41.41,8.504697,-0.011159123418041933,0.020001120827370582,1.0130469101527657,0.2362305812467821,-1.1330817241821438,-1.3474826128296553
2024-09-23 01:58:01.765072,41.41,8.504747,-0.012866564846913748,0.020001120827370582,1.0130469101527657,0.2362305812467821,-1.1330817241821438,-1.3868447936475277
2024-09-23 01:58:01.777292,41.41,8.504747,-0.012866564846913748,0.020427930488741967,1.0132298678554648,0.27123832814879717,-1.1330817241821438,-1.3868447936475277
2024-09-23 01:58:01.814009,41.41,8.504841,-0.012866564846913748,0.020427930488741967,1.0132298678554648,0.27123832814879717,-1.1024857741333545,-1.4787472629468887
2024-09-23 01:58:01.825334,41.41,8.504841,-0.013049540777332799,0.019513251341567978,1.0129859566567019,0.27123832814879717,-1.1024857741333545,-1.4787472629468887
2024-09-23 01:58:01.868816,41.41,8.504892,-0.013720285941093825,0.02213537267710212,1.0129859566567019,0.27559278874509036,-1.1287272635858505,-1.4655692620050162
2024-09-23 01:58:01.911550,41.5,8.504892,-0.013720285941093825,0.02213537267710212,1.012742045457939,0.3674952580444515,-1.1287272635858505,-1.4655692620050162
2024-09-23 01:58:01.964968,41.5,8.504943,-0.011098165365048018,0.021098777423940302,1.014144559154452,0.3674952580444515,-1.224984193481505,-1.4437395427253097
2024-09-23 01:58:02.008930,41.5,8.504943,-0.011098165365048018,0.021098777423940302,1.014144559154452,0.3411964856958948,-1.2205724233087152,-1.448094003321603
2024-09-23 01:58:02.020787,41.5,8.505035,-0.014208053655459124,0.021830479121718566,1.014144559154452,0.3411964856958948,-1.2205724233087152,-1.448094003321603
2024-09-23 01:58:02.053358,41.5,8.505035,-0.014208053655459124,0.021830479121718566,1.0160348952484908,0.3411964856958948,-1.2205724233087152,-1.448094003321603
2024-09-23 01:58:02.065147,41.5,8.505086,-0.011707950956838454,0.021830479121718566,1.0160348952484908,0.29747979092085736,-1.1199610328167677,-1.504988752399385
2024-09-23 01:58:02.159326,41.5,8.505086,-0.011707950956838454,0.02097675802753849,1.0168886330514144,0.29747979092085736,-1.1199610328167677,-1.504988752399385
2024-09-23 01:58:02.202203,41.5,8.505086,-0.011707950956838454,0.02097675802753849,1.0168886330514144,0.2668265312955715,-1.1330817241821438,-1.504988752399385
2024-09-23 01:58:02.214186,41.5,8.505137,-0.016769215419022678,0.01811080599900536,1.0168886330514144,0.2668265312955715,-1.1330817241821438,-1.4568603408124299
2024-09-23 01:58:02.257104,41.5,8.50523,-0.01396421992450679,0.01811080599900536,1.0158518403312846,0.41997821026900783,-1.1680894444037229,-1.4524485706396402
2024-09-23 01:58:02.301797,41.5,8.50523,-0.01396421992450679,0.02213537267710212,1.0104247432479314,0.37620423259790986,-1.1680894444037229,-1.4524485706396402
2024-09-23 01:58:02.313604,41.5,8.505282,-0.01396421992450679,0.02213537267710212,1.0104247432479314,0.37620423259790986,-1.2118635021161288,-1.4568603408124299
2024-09-23 01:58:02.346068,41.5,8.505282,-0.010854230622146716,0.02213537267710212,1.0104247432479314,0.37620423259790986,-1.2118635021161288,-1.4568603408124299
2024-09-23 01:58:02.357350,41.5,8.505282,-0.010854230622146716,0.020062078880364497,1.0146933350480416,0.41121195281948897,-1.1506142924420535,-1.3343619214642792
2024-09-23 01:58:02.399526,41.5,8.505332,-0.011586034850850625,0.021037716080532405,1.0117053499523165,0.41121195281948897,-1.1506142924420535,-1.3343619214642792
2024-09-23 01:58:02.410983,41.5,8.505332,-0.011586034850850625,0.021037716080532405,1.0117053499523165,0.3193667930966243,-1.1680894444037229,-1.3343619214642792
2024-09-23 01:58:02.443481,41.5,8.505332,-0.011586034850850625,0.021037716080532405,1.0117053499523165,0.3193667930966243,-1.1680894444037229,-1.4437395427253097
2024-09-23 01:58:02.454882,41.5,8.505475,-0.01396421992450679,0.023050050305299438,1.0146322843374704,0.42433269754573705,-1.1680894444037229,-1.4437395427253097
2024-09-23 01:58:02.496717,41.5,8.505526,-0.010488379013769245,0.023050050305299438,1.0146322843374704,0.42433269754573705,-0.9843418153814971,-1.4087318225037306
2024-09-23 01:58:02.507653,41.5,8.505526,-0.010488379013769245,0.019696228790963704,1.0182300960373563,0.42433269754573705,-0.9843418153814971,-1.4087318225037306
2024-09-23 01:58:02.551285,41.5,8.505576,-0.013537308491698099,0.020001120827370582,1.0182300960373563,0.37184974532118065,-1.0587118231426924,-1.3911993609655648
2024-09-23 01:58:02.594804,41.5,8.505576,-0.013537308491698099,0.020001120827370582,1.0121322188537785,0.39373674749694765,-1.0499454856518655,-1.3911993609655648
2024-09-23 01:58:02.606206,41.5,8.505627,-0.012744546969488612,0.020001120827370582,1.0121322188537785,0.39373674749694765,-1.0499454856518655,-1.4524485706396402
2024-09-23 01:58:02.639197,41.5,8.505627,-0.012744546969488612,0.02213537267710212,1.0121322188537785,0.39373674749694765,-1.0499454856518655,-1.4524485706396402
2024-09-23 01:58:02.650342,41.5,8.505717,-0.012744546969488612,0.02213537267710212,1.0126809947473678,0.3543172304221429,-1.1287272635858505,-1.4655692620050162
2024-09-23 01:58:02.693222,41.5,8.505717,-0.015549642716465131,0.021586543619328925,1.0105467474545664,0.3411964856958948,-1.1287272635858505,-1.4655692620050162
2024-09-23 01:58:02.704927,41.5,8.505717,-0.015549642716465131,0.021586543619328925,1.0105467474545664,0.3411964856958948,-1.0849533125951887,-1.474335492774099
2024-09-23 01:58:02.738067,41.5,8.505769,-0.015305708733052167,0.021586543619328925,1.0105467474545664,0.3411964856958948,-1.0849533125951887,-1.474335492774099
2024-09-23 01:58:02.749037,41.5,8.505769,-0.015305708733052167,0.018964423802771455,1.0129859566567019,0.37184974532118065,-1.1330817241821438,-1.474335492774099
2024-09-23 01:58:02.790968,41.5,8.505819,-0.014878899071680782,0.022196330730096036,1.0129859566567019,0.37184974532118065,-1.1330817241821438,-1.404320052330941
2024-09-23 01:58:02.802139,41.5,8.505819,-0.014878899071680782,0.022196330730096036,1.0114003880429827,0.27994727602181957,-1.1330817241821438,-1.404320052330941
2024-09-23 01:58:02.834582,41.5,8.505819,-0.014878899071680782,0.022196330730096036,1.0114003880429827,0.27994727602181957,-1.0587118231426924,-1.404320052330941
2024-09-23 01:58:02.846153,41.5,8.50587,-0.00957370062608359,0.02140366946034718,1.011034569852092,0.27994727602181957,-1.0587118231426924,-1.3868447936475277
2024-09-23 01:58:02.888487,41.5,8.505921,-0.010854230622146716,0.02140366946034718,1.011034569852092,0.2843590461946093,-1.1156065722204744,-1.434973311956227
2024-09-23 01:58:02.900522,41.5,8.505921,-0.010854230622146716,0.02262324216290473,1.011034569852092,0.2843590461946093,-1.1156065722204744,-1.434973311956227
2024-09-23 01:58:02.932495,41.46,8.505921,-0.010854230622146716,0.02262324216290473,1.0130469101527657,0.2843590461946093,-1.1156065722204744,-1.434973311956227
2024-09-23 01:58:02.987024,41.46,8.505972,-0.010671253932239326,0.02262324216290473,1.0130469101527657,0.37184974532118065,-1.1156065722204744,-1.404320052330941
2024-09-23 01:58:02.998591,41.46,8.505972,-0.010671253932239326,0.019086441680196593,1.0130469101527657,0.37184974532118065,-1.1156065722204744,-1.404320052330941
2024-09-23 01:58:03.030724,41.46,8.505972,-0.010671253932239326,0.019086441680196593,1.0145713308414066,0.3411964856958948,-1.1156065722204744,-1.404320052330941
2024-09-23 01:58:03.041913,41.46,8.506058,-0.014269113479890346,0.019086441680196593,1.0145713308414066,0.3411964856958948,-1.0805987452771515,-1.3562488435987383
2024-09-23 01:58:03.085951,41.46,8.50611,-0.014269113479890346,0.019452293288574063,1.012802998954003,0.35872900059493257,-1.0718325145080685,-1.4306188513599336
2024-09-23 01:58:03.128173,41.46,8.50611,-0.010061467580960552,0.02189143717471248,1.012802998954003,0.35872900059493257,-1.0718325145080685,-1.4306188513599336
2024-09-23 01:58:03.139876,41.46,8.50611,-0.010061467580960552,0.02189143717471248,1.0120102146471432,0.4287444677185267,-1.1111946953259408,-1.474335492774099
2024-09-23 01:58:03.182850,41.46,8.506161,-0.01219582044264106,0.02140366946034718,1.0107297051572652,0.3062460483703762,-1.0805987452771515,-1.474335492774099
2024-09-23 01:58:03.225476,41.46,8.506255,-0.01219582044264106,0.02140366946034718,1.0107297051572652,0.3062460483703762,-1.0805987452771515,-1.434973311956227
2024-09-23 01:58:03.236765,41.46,8.506255,-0.014634963569291141,0.020245056329760223,1.0146933350480416,0.29747979092085736,-1.0805987452771515,-1.434973311956227
2024-09-23 01:58:03.279163,41.46,8.506306,-0.014695923141261731,0.018476656088406155,1.0146933350480416,0.29747979092085736,-1.15932321363464,-1.4787472629468887
2024-09-23 01:58:03.291495,41.46,8.506306,-0.014695923141261731,0.018476656088406155,1.0134736818397203,0.29747979092085736,-1.15932321363464,-1.4787472629468887
2024-09-23 01:58:03.324059,41.46,8.506306,-0.014695923141261731,0.018476656088406155,1.0134736818397203,0.2405850685235113,-1.216217962712422,-1.4218526205908506
2024-09-23 01:58:03.335865,41.46,8.506356,-0.013232416455291218,0.020427930488741967,1.0134736818397203,0.2405850685235113,-1.216217962712422,-1.4218526205908506
2024-09-23 01:58:03.377862,41.46,8.506407,-0.011159123418041933,0.020427930488741967,1.014022554947817,0.40685746554275976,-1.0587118231426924,-1.4087318225037306
2024-09-23 01:58:03.420590,41.46,8.506407,-0.011159123418041933,0.02274515826889256,1.015608026347029,0.40685746554275976,-1.0587118231426924,-1.4087318225037306
2024-09-23 01:58:03.431846,41.46,8.506497,-0.011159123418041933,0.02274515826889256,1.015608026347029,0.3543172304221429,-1.1199610328167677,-1.491868061034009
2024-09-23 01:58:03.474068,41.46,8.506497,-0.010915188675140628,0.020062078880364497,1.0126809947473678,0.3456082558686845,-1.1243154934130608,-1.491868061034009
2024-09-23 01:58:03.486170,41.46,8.506497,-0.010915188675140628,0.020062078880364497,1.0126809947473678,0.3456082558686845,-1.1243154934130608,-1.3999655917346479
2024-09-23 01:58:03.519405,41.46,8.506549,-0.012622630104012445,0.021586543619328925,1.0126809947473678,0.3456082558686845,-1.1243154934130608,-1.3999655917346479
2024-09-23 01:58:03.531097,41.46,8.506549,-0.012622630104012445,0.021586543619328925,1.0121931723498423,0.3456082558686845,-1.0543573625463993,-1.3999655917346479
2024-09-23 01:58:03.573776,41.46,8.506599,-0.01664729931303485,0.02280611632188647,1.0123761300525411,0.3368419984191656,-1.0543573625463993,-1.448094003321603
2024-09-23 01:58:03.615673,41.46,8.506599,-0.01664729931303485,0.02280611632188647,1.0123761300525411,0.3368419984191656,-1.1330817241821438,-1.4218526205908506
2024-09-23 01:58:03.627596,41.46,8.50665,-0.014391029585878175,0.02274515826889256,1.0146322843374704,0.3368419984191656,-1.1330817241821438,-1.4218526205908506
2024-09-23 01:58:03.669432,41.46,8.506701,-0.01256167205101853,0.02274515826889256,1.0146322843374704,0.3630834878716618,-1.1637349838074296,-1.4655692620050162
2024-09-23 01:58:03.681646,41.46,8.506701,-0.01256167205101853,0.019086441680196593,1.0146322843374704,0.3630834878716618,-1.1637349838074296,-1.4655692620050162
2024-09-23 01:58:03.714232,41.46,8.506701,-0.01256167205101853,0.019086441680196593,1.0158518403312846,0.3237212803733535,-0.993108152872324,-1.4655692620050162
2024-09-23 01:58:03.725342,41.46,8.506752,-0.013232416455291218,0.019086441680196593,1.0158518403312846,0.3237212803733535,-0.993108152872324,-1.3999655917346479
2024-09-23 01:58:03.767716,41.46,8.506838,-0.013232416455291218,0.02207441310513153,1.0157908868352208,0.28871353347133843,-1.1724439050000162,-1.483101830264926
2024-09-23 01:58:03.810346,41.46,8.506838,-0.01182986782231462,0.02176952106872465,1.0157908868352208,0.28871353347133843,-1.1724439050000162,-1.483101830264926
2024-09-23 01:58:03.822080,41.46,8.506838,-0.01182986782231462,0.02176952106872465,1.014144559154452,0.2668265312955715,-1.014995075006783,-1.404320052330941
2024-09-23 01:58:03.864371,41.46,8.50689,-0.012073802565215924,0.01926931735815501,1.0150592504534395,0.3849704900474288,-1.014995075006783,-1.404320052330941
2024-09-23 01:58:03.876380,41.46,8.50689,-0.012073802565215924,0.01926931735815501,1.0150592504534395,0.3849704900474288,-1.2118635021161288,-1.404320052330941
2024-09-23 01:58:03.908066,41.46,8.506941,-0.012073802565215924,0.01926931735815501,1.0150592504534395,0.3849704900474288,-1.2118635021161288,-1.4306188513599336
2024-09-23 01:58:03.919746,41.46,8.506941,-0.013537308491698099,0.021586543619328925,1.0099979715609768,0.3368419984191656,-1.2118635021161288,-1.4306188513599336
2024-09-23 01:58:03.964229,41.82,8.506941,-0.013537308491698099,0.021586543619328925,1.0099979715609768,0.3368419984191656,-1.1637349838074296,-1.4306188513599336
2024-09-23 01:58:04.006154,41.82,8.506991,-0.01219582044264106,0.021586543619328925,1.0099979715609768,0.3368419984191656,-1.1637349838074296,-1.4568603408124299
2024-09-23 01:58:04.017745,41.82,8.506991,-0.01219582044264106,0.02311100987727003,1.0166446246381442,0.3368419984191656,-1.1637349838074296,-1.4568603408124299
2024-09-23 01:58:04.061142,41.82,8.507042,-0.012500713238536278,0.01890346574977754,1.0166446246381442,0.3280757409696467,-1.15932321363464,-1.4437395427253097
2024-09-23 01:58:04.104335,41.82,8.507042,-0.012500713238536278,0.01890346574977754,1.0105467474545664,0.2668265312955715,-1.15932321363464,-1.4437395427253097
2024-09-23 01:58:04.116230,41.82,8.507093,-0.012744546969488612,0.01890346574977754,1.0105467474545664,0.2668265312955715,-1.1024857741333545,-1.3956111311383546
2024-09-23 01:58:04.159219,41.82,8.50718,-0.012744546969488612,0.02134260963591596,1.0145713308414066,0.27123832814879717,-1.0630662837389857,-1.3343619214642792
2024-09-23 01:58:04.201833,41.82,8.50718,-0.011768909009832369,0.021159735476934217,1.0122541258459061,0.27123832814879717,-1.0630662837389857,-1.3343619214642792
2024-09-23 01:58:04.213811,41.82,8.50718,-0.011768909009832369,0.021159735476934217,1.0122541258459061,0.223109849860752,-1.207451731943339,-1.4655692620050162
2024-09-23 01:58:04.258204,41.82,8.507277,-0.013354434332716355,0.02280611632188647,1.0149372462468045,0.3499627431454137,-1.1549687530383468,-1.4655692620050162
2024-09-23 01:58:04.301666,41.82,8.507329,-0.010488379013769245,0.02311100987727003,1.0149372462468045,0.3499627431454137,-1.1549687530383468,-1.426207081187144
2024-09-23 01:58:04.313459,41.82,8.507329,-0.010488379013769245,0.02311100987727003,1.012620041251304,0.3630834878716618,-1.1549687530383468,-1.426207081187144
2024-09-23 01:58:04.347247,41.82,8.507329,-0.010488379013769245,0.02311100987727003,1.012620041251304,0.3630834878716618,-1.1068402347296475,-1.2993542012427002
2024-09-23 01:58:04.358249,41.82,8.507379,-0.010122528164880112,0.017379001010813116,1.0137175930384832,0.3630834878716618,-1.1068402347296475,-1.2993542012427002
2024-09-23 01:58:04.400118,41.82,8.50743,-0.010122528164880112,0.017379001010813116,1.0137175930384832,0.2581175834225491,-1.0849533125951887,-1.448094003321603
2024-09-23 01:58:04.411228,41.82,8.50743,-0.012317737308117227,0.021586543619328925,1.0137175930384832,0.2581175834225491,-1.0849533125951887,-1.448094003321603
2024-09-23 01:58:04.443365,41.82,8.50743,-0.012317737308117227,0.021586543619328925,1.0131688171448936,0.2581175834225491,-1.0849533125951887,-1.448094003321603
2024-09-23 01:58:04.455404,41.82,8.507481,-0.01341539238571027,0.021586543619328925,1.0131688171448936,0.26247207069927825,-1.0587118231426924,-1.448094003321603
2024-09-23 01:58:04.498068,41.82,8.507481,-0.01341539238571027,0.02152558556633501,1.0164616669354454,0.3193667930966243,-1.0674780539117754,-1.3693696416858583
2024-09-23 01:58:04.510049,41.82,8.50757,-0.01341539238571027,0.02152558556633501,1.0164616669354454,0.3193667930966243,-1.0674780539117754,-1.3693696416858583
2024-09-23 01:58:04.542597,41.82,8.50757,-0.01268358815700636,0.02048899031317319,1.0139006479556893,0.3193667930966243,-1.0674780539117754,-1.3693696416858583
2024-09-23 01:58:04.553974,41.82,8.50757,-0.01268358815700636,0.02048899031317319,1.0139006479556893,0.39373674749694765,-1.0630662837389857,-1.469981032177806
2024-09-23 01:58:04.597564,41.82,8.507621,-0.010305402323861856,0.021098777423940302,1.0159129882563631,0.3237212803733535,-1.0805987452771515,-1.469981032177806
2024-09-23 01:58:04.640615,41.82,8.507672,-0.0173180429578192,0.021098777423940302,1.0159129882563631,0.3237212803733535,-1.0805987452771515,-1.434973311956227
2024-09-23 01:58:04.652242,41.82,8.507672,-0.0173180429578192,0.020001120827370582,1.0131688171448936,0.3237212803733535,-1.0805987452771515,-1.434973311956227
2024-09-23 01:58:04.694914,41.82,8.507723,-0.014147094083488534,0.02225739055452726,1.0131688171448936,0.40685746554275976,-1.1724439050000162,-1.483101830264926
2024-09-23 01:58:04.739725,41.82,8.507723,-0.014147094083488534,0.02225739055452726,1.012620041251304,0.37620423259790986,-1.0805987452771515,-1.483101830264926
2024-09-23 01:58:04.751091,41.82,8.507773,-0.012988480952901577,0.02225739055452726,1.012620041251304,0.37620423259790986,-1.0805987452771515,-1.43932777255252
2024-09-23 01:58:04.783581,41.82,8.507773,-0.012988480952901577,0.019940162774376668,1.012620041251304,0.37620423259790986,-1.0805987452771515,-1.43932777255252
2024-09-23 01:58:04.794746,41.82,8.507824,-0.012988480952901577,0.019940162774376668,1.0139006479556893,0.3149550229238346,-1.0805987452771515,-1.4087318225037306
2024-09-23 01:58:04.836985,41.82,8.507824,-0.013293374508285133,0.021708563015730736,1.0165836711420804,0.26247207069927825,-1.0805987452771515,-1.4087318225037306
2024-09-23 01:58:04.848720,41.82,8.507824,-0.013293374508285133,0.021708563015730736,1.0165836711420804,0.26247207069927825,-1.0805987452771515,-1.4437395427253097
2024-09-23 01:58:04.880829,41.82,8.507911,-0.013293374508285133,0.021708563015730736,1.0165836711420804,0.26247207069927825,-1.0805987452771515,-1.4437395427253097
2024-09-23 01:58:04.892154,41.82,8.507911,-0.012500713238536278,0.022196330730096036,1.0128639524500669,0.31060053564710544,-1.2818216329827905,-1.4437395427253097
2024-09-23 01:58:04.935491,41.82,8.507962,-0.01256167205101853,0.018659531766364576,1.0128639524500669,0.31060053564710544,-1.2818216329827905,-1.434973311956227
2024-09-23 01:58:04.946798,41.82,8.507962,-0.01256167205101853,0.018659531766364576,1.0150592504534395,0.35872900059493257,-1.2818216329827905,-1.434973311956227
2024-09-23 01:58:05.030404,41.74,8.508013,-0.01256167205101853,0.018659531766364576,1.0150592504534395,0.35872900059493257,-1.1768557818945498,-1.3518370734259486
2024-09-23 01:58:05.041686,41.74,8.508013,-0.012439653414105056,0.017561976941232165,1.0146933350480416,0.35872900059493257,-1.1768557818945498,-1.3518370734259486
2024-09-23 01:58:05.084994,41.74,8.508064,-0.011890927646745842,0.022867176146317694,1.0146933350480416,0.3674952580444515,-1.2205724233087152,-1.3911993609655648
2024-09-23 01:58:05.128393,41.74,8.508064,-0.011890927646745842,0.022867176146317694,1.0085344071538926,0.3849704900474288,-1.203097164625302,-1.3911993609655648
2024-09-23 01:58:05.140141,41.74,8.508115,-0.010610295879245411,0.022867176146317694,1.0085344071538926,0.3849704900474288,-1.203097164625302,-1.3956111311383546
2024-09-23 01:58:05.182434,41.74,8.508203,-0.010610295879245411,0.019574312684975875,1.0130469101527657,0.39373674749694765,-1.1462025222692638,-1.539996472620964
2024-09-23 01:58:05.225178,41.74,8.508203,-0.013903160100075569,0.019574312684975875,1.015608026347029,0.39373674749694765,-1.1462025222692638,-1.539996472620964
2024-09-23 01:58:05.237478,41.74,8.508203,-0.013903160100075569,0.019574312684975875,1.015608026347029,0.39809120809324083,-1.1506142924420535,-1.5268184716790913
2024-09-23 01:58:05.280982,41.74,8.508301,-0.011890927646745842,0.02085484192155066,1.0174983624410678,0.3411964856958948,-1.0543573625463993,-1.5268184716790913
2024-09-23 01:58:05.324569,41.74,8.508353,-0.014391029585878175,0.02085484192155066,1.0174983624410678,0.3411964856958948,-1.0543573625463993,-1.426207081187144
2024-09-23 01:58:05.336329,41.74,8.508353,-0.014391029585878175,0.018842507696783625,1.0147542885441054,0.31060053564710544,-1.0543573625463993,-1.426207081187144
2024-09-23 01:58:05.369880,41.74,8.508353,-0.014391029585878175,0.018842507696783625,1.0147542885441054,0.31060053564710544,-1.1024857741333545,-1.426207081187144
2024-09-23 01:58:05.381776,41.74,8.508404,-0.01536666678604608,0.022440264713509,1.0134736818397203,0.31060053564710544,-1.1024857741333545,-1.4087318225037306
2024-09-23 01:58:05.425063,41.74,8.508454,-0.010671253932239326,0.022440264713509,1.0134736818397203,0.3456082558686845,-1.207451731943339,-1.434973311956227
2024-09-23 01:58:05.437082,41.74,8.508454,-0.010671253932239326,0.019879204721382753,1.0134736818397203,0.3456082558686845,-1.207451731943339,-1.434973311956227
2024-09-23 01:58:05.470553,41.74,8.508454,-0.010671253932239326,0.019879204721382753,1.017254451242305,0.2668265312955715,-1.2336931146740913,-1.434973311956227
2024-09-23 01:58:05.482085,41.74,8.508505,-0.012927522899907663,0.019879204721382753,1.017254451242305,0.2668265312955715,-1.2336931146740913,-1.3956111311383546
2024-09-23 01:58:05.514209,41.74,8.508505,-0.012927522899907663,0.021037716080532405,1.017254451242305,0.2668265312955715,-1.2336931146740913,-1.3956111311383546
2024-09-23 01:58:05.525664,41.74,8.508594,-0.012927522899907663,0.021037716080532405,1.01542506864433,0.3018342781975865,-1.1899764732599258,-1.491868061034009
2024-09-23 01:58:05.568759,41.74,8.508594,-0.013049540777332799,0.019452293288574063,1.0149982969573756,0.3499627431454137,-1.1899764732599258,-1.491868061034009
2024-09-23 01:58:05.580798,41.74,8.508594,-0.013049540777332799,0.019452293288574063,1.0149982969573756,0.3499627431454137,-1.1330817241821438,-1.491868061034009
2024-09-23 01:58:05.613871,41.74,8.508645,-0.013049540777332799,0.019452293288574063,1.0149982969573756,0.3499627431454137,-1.1330817241821438,-1.491868061034009
2024-09-23 01:58:05.625619,41.74,8.508645,-0.013476350438704184,0.019879204721382753,1.014144559154452,0.26247207069927825,-1.1287272635858505,-1.491868061034009
2024-09-23 01:58:05.668352,41.74,8.508696,-0.01268358815700636,0.02048899031317319,1.0126809947473678,0.3630834878716618,-1.1287272635858505,-1.448094003321603
2024-09-23 01:58:05.712045,41.74,8.508696,-0.01268358815700636,0.02048899031317319,1.0126809947473678,0.3630834878716618,-1.2293386540777982,-1.3911993609655648
2024-09-23 01:58:05.723768,41.74,8.508746,-0.015793578218854774,0.02134260963591596,1.015486022140394,0.3630834878716618,-1.2293386540777982,-1.3911993609655648
2024-09-23 01:58:05.767427,41.74,8.508797,-0.014208053655459124,0.020245056329760223,1.015486022140394,0.3543172304221429,-1.1549687530383468,-1.4655692620050162
2024-09-23 01:58:05.810873,41.74,8.508797,-0.014208053655459124,0.020245056329760223,1.0117053499523165,0.28871353347133843,-1.203097164625302,-1.4655692620050162
2024-09-23 01:58:05.822509,41.74,8.508848,-0.010183486217874026,0.020245056329760223,1.0117053499523165,0.28871353347133843,-1.203097164625302,-1.5005769822265953
2024-09-23 01:58:05.906477,41.74,8.508848,-0.010183486217874026,0.022501222766502915,1.0117053499523165,0.28871353347133843,-1.203097164625302,-1.5005769822265953
2024-09-23 01:58:05.918123,41.74,8.508935,-0.010183486217874026,0.022501222766502915,1.0117053499523165,0.29747979092085736,-1.1287272635858505,-1.4218526205908506
2024-09-23 01:58:05.960537,41.74,8.508935,-0.008719979531903514,0.016525279916633037,1.0149372462468045,0.3456082558686845,-1.1068402347296475,-1.4218526205908506
2024-09-23 01:58:05.972615,41.74,8.508935,-0.008719979531903514,0.016525279916633037,1.0149372462468045,0.3456082558686845,-1.1068402347296475,-1.413086283100024
2024-09-23 01:58:06.004714,41.74,8.508986,-0.015122834574070423,0.016525279916633037,1.0149372462468045,0.3456082558686845,-1.1068402347296475,-1.413086283100024
2024-09-23 01:58:06.016086,41.74,8.508986,-0.015122834574070423,0.02085484192155066,1.0145103773453428,0.3193667930966243,-1.1462025222692638,-1.413086283100024
2024-09-23 01:58:06.059969,41.59,8.509037,-0.013903160100075569,0.019940162774376668,1.0133517748475924,0.2668265312955715,-1.1462025222692638,-1.404320052330941
2024-09-23 01:58:06.102101,41.59,8.509037,-0.013903160100075569,0.019940162774376668,1.0133517748475924,0.2668265312955715,-1.0893650827679784,-1.43932777255252
2024-09-23 01:58:06.114053,41.59,8.509088,-0.013598266544692013,0.018964423802771455,1.011034569852092,0.2668265312955715,-1.0893650827679784,-1.43932777255252
2024-09-23 01:58:06.157667,41.59,8.509181,-0.01396421992450679,0.01963527073796979,1.011034569852092,0.40244569536997005,-1.1156065722204744,-1.3911993609655648
2024-09-23 01:58:06.199691,41.59,8.509181,-0.01396421992450679,0.01963527073796979,1.0147542885441054,0.40685746554275976,-1.1156065722204744,-1.3911993609655648
2024-09-23 01:58:06.211657,41.59,8.509231,-0.012805606793919833,0.01963527073796979,1.0147542885441054,0.40685746554275976,-1.1768557818945498,-1.4655692620050162
2024-09-23 01:58:06.254589,41.59,8.509231,-0.012805606793919833,0.020062078880364497,1.0164616669354454,0.29306802074806765,-1.0937195433642715,-1.469981032177806
2024-09-23 01:58:06.265983,41.59,8.509325,-0.012805606793919833,0.020062078880364497,1.0164616669354454,0.29306802074806765,-1.0937195433642715,-1.469981032177806
2024-09-23 01:58:06.298240,41.59,8.509325,-0.011768909009832369,0.020062078880364497,1.0148152420401695,0.29306802074806765,-1.0937195433642715,-1.469981032177806
2024-09-23 01:58:06.309586,41.59,8.509325,-0.011768909009832369,0.020062078880364497,1.0148152420401695,0.29747979092085736,-1.1330817241821438,-1.4655692620050162
2024-09-23 01:58:06.352442,41.59,8.509376,-0.012378695361111141,0.020793883868556746,1.0115223922496177,0.3280757409696467,-1.1330817241821438,-1.4655692620050162
2024-09-23 01:58:06.364738,41.59,8.509376,-0.012378695361111141,0.020793883868556746,1.0115223922496177,0.3280757409696467,-1.1855647030871361,-1.4655692620050162
2024-09-23 01:58:06.397668,41.59,8.509427,-0.010976248499571852,0.019818144896951533,1.0115223922496177,0.3280757409696467,-1.1855647030871361,-1.4087318225037306
2024-09-23 01:58:06.409298,41.59,8.509427,-0.010976248499571852,0.019818144896951533,1.0135956860463553,0.3499627431454137,-1.1855647030871361,-1.4087318225037306
2024-09-23 01:58:06.443126,41.59,8.509427,-0.010976248499571852,0.019818144896951533,1.0135956860463553,0.3499627431454137,-1.2293386540777982,-1.3911993609655648
2024-09-23 01:58:06.454660,41.59,8.509478,-0.01182986782231462,0.021098777423940302,1.0104247432479314,0.3499627431454137,-1.2293386540777982,-1.3911993609655648
2024-09-23 01:58:06.498445,41.59,8.509528,-0.013476350438704184,0.02012303845233509,1.0104247432479314,0.2668265312955715,-1.1330817241821438,-1.3693696416858583
2024-09-23 01:58:06.540554,41.59,8.509528,-0.013476350438704184,0.02012303845233509,1.0104247432479314,0.3062460483703762,-1.1330817241821438,-1.3693696416858583
2024-09-23 01:58:06.551865,41.59,8.509579,-0.011768909009832369,0.02012303845233509,1.0104247432479314,0.3062460483703762,-1.1768557818945498,-1.4218526205908506
2024-09-23 01:58:06.594220,41.59,8.509579,-0.011768909009832369,0.021708563015730736,1.014022554947817,0.35872900059493257,-1.1024857741333545,-1.3956111311383546
2024-09-23 01:58:06.609982,41.59,8.509666,-0.011768909009832369,0.021708563015730736,1.014022554947817,0.35872900059493257,-1.1024857741333545,-1.3956111311383546
2024-09-23 01:58:06.643305,41.59,8.509666,-0.01378124399408774,0.019696228790963704,1.0104856967439952,0.3674952580444515,-1.207451731943339,-1.3956111311383546
2024-09-23 01:58:06.655201,41.59,8.509666,-0.01378124399408774,0.019696228790963704,1.0104856967439952,0.3674952580444515,-1.207451731943339,-1.3956111311383546
2024-09-23 01:58:06.686884,41.59,8.509718,-0.013171458402297304,0.019696228790963704,1.0104856967439952,0.3674952580444515,-1.207451731943339,-1.3956111311383546
2024-09-23 01:58:06.698562,41.59,8.509718,-0.013171458402297304,0.0187205915907958,1.0130469101527657,0.2318188110739924,-1.1024857741333545,-1.3956111311383546
2024-09-23 01:58:06.741386,41.59,8.509768,-0.012317737308117227,0.019208359305161096,1.0124370835486052,0.2668265312955715,-1.1024857741333545,-1.4087318225037306
2024-09-23 01:58:06.784453,41.59,8.509768,-0.012317737308117227,0.019208359305161096,1.0124370835486052,0.2668265312955715,-1.0455910250555724,-1.3430708426568656
2024-09-23 01:58:06.795814,41.59,8.509819,-0.010732313756670548,0.020732824044125523,1.0147542885441054,0.2668265312955715,-1.0455910250555724,-1.3430708426568656
2024-09-23 01:58:06.838818,41.59,8.50987,-0.01182986782231462,0.02085484192155066,1.0147542885441054,0.3062460483703762,-1.259991913703084,-1.448094003321603
2024-09-23 01:58:06.881167,41.59,8.50987,-0.01182986782231462,0.02085484192155066,1.014144559154452,0.3324875378228724,-1.259991913703084,-1.448094003321603
2024-09-23 01:58:06.892662,41.59,8.50992,-0.01164699290384454,0.02085484192155066,1.014144559154452,0.3324875378228724,-1.224984193481505,-1.3562488435987383
2024-09-23 01:58:06.934672,41.59,8.50992,-0.01164699290384454,0.02317206970170125,1.0087173648565917,0.3368419984191656,-1.1506142924420535,-1.3562488435987383
2024-09-23 01:58:06.947448,41.59,8.510007,-0.01164699290384454,0.02317206970170125,1.0087173648565917,0.3368419984191656,-1.1506142924420535,-1.3824903330512346
2024-09-23 01:58:06.980381,41.59,8.510007,-0.011586034850850625,0.020366972435748053,1.0087173648565917,0.3368419984191656,-1.1506142924420535,-1.3824903330512346
2024-09-23 01:58:06.991877,41.59,8.510007,-0.011586034850850625,0.020366972435748053,1.0119492611510794,0.3193667930966243,-1.0455910250555724,-1.3474826128296553
2024-09-23 01:58:07.034096,41.59,8.510059,-0.012439653414105056,0.02189143717471248,1.01426646614658,0.3456082558686845,-1.0368247942864894,-1.3474826128296553
2024-09-23 01:58:07.076606,41.45,8.51011,-0.012439653414105056,0.02189143717471248,1.01426646614658,0.3456082558686845,-1.0368247942864894,-1.4874562908612192
2024-09-23 01:58:07.087854,41.45,8.51011,-0.012988480952901577,0.021830479121718566,1.011095523348156,0.3237212803733535,-1.0368247942864894,-1.4874562908612192
2024-09-23 01:58:07.130515,41.45,8.51016,-0.01042742096077533,0.021830479121718566,1.011095523348156,0.3237212803733535,-1.1199610328167677,-1.461214801408723
2024-09-23 01:58:07.141649,41.45,8.51016,-0.01042742096077533,0.017439959063807027,1.0147542885441054,0.3237212803733535,-1.1199610328167677,-1.461214801408723
2024-09-23 01:58:07.174259,41.45,8.51016,-0.01042742096077533,0.017439959063807027,1.0147542885441054,0.37620423259790986,-1.1812102424908428,-1.461214801408723
2024-09-23 01:58:07.185320,41.45,8.510211,-0.010549337066763158,0.019818144896951533,1.0147542885441054,0.37620423259790986,-1.1812102424908428,-1.3999655917346479
2024-09-23 01:58:07.228732,41.45,8.510262,-0.010244444270867941,0.019818144896951533,1.012498037044669,0.37620423259790986,-1.224984193481505,-1.434973311956227
2024-09-23 01:58:07.271177,41.45,8.510262,-0.010244444270867941,0.02311100987727003,1.0107906586533293,0.37620423259790986,-1.224984193481505,-1.434973311956227
2024-09-23 01:58:07.282822,41.45,8.510348,-0.010244444270867941,0.02311100987727003,1.0107906586533293,0.28871353347133843,-1.1156065722204744,-1.4437395427253097
2024-09-23 01:58:07.325457,41.45,8.510348,-0.014878899071680782,0.016159429827232244,1.0145713308414066,0.3456082558686845,-1.014995075006783,-1.4437395427253097
2024-09-23 01:58:07.337745,41.45,8.510348,-0.014878899071680782,0.016159429827232244,1.0145713308414066,0.3456082558686845,-1.014995075006783,-1.3168293532043696
2024-09-23 01:58:07.369876,41.45,8.5104,-0.012866564846913748,0.016159429827232244,1.0145713308414066,0.3456082558686845,-1.014995075006783,-1.3168293532043696
2024-09-23 01:58:07.381433,41.45,8.5104,-0.012866564846913748,0.020245056329760223,1.0122541258459061,0.4374534422719851,-1.216217962712422,-1.3168293532043696
2024-09-23 01:58:07.425737,41.45,8.510451,-0.01341539238571027,0.020366972435748053,1.0103028362558035,0.37620423259790986,-1.216217962712422,-1.4787472629468887
2024-09-23 01:58:07.470357,41.45,8.510502,-0.012317737308117227,0.020366972435748053,1.0103028362558035,0.37620423259790986,-1.1637349838074296,-1.461214801408723
2024-09-23 01:58:07.482167,41.45,8.510502,-0.012317737308117227,0.020001120827370582,1.0148152420401695,0.37620423259790986,-1.1637349838074296,-1.461214801408723
2024-09-23 01:58:07.514732,41.45,8.510502,-0.012317737308117227,0.020001120827370582,1.0148152420401695,0.3018342781975865,-1.1637349838074296,-1.461214801408723
2024-09-23 01:58:07.526349,41.45,8.510552,-0.010366361136344109,0.023842813346485598,1.0148152420401695,0.3018342781975865,-1.1418479549512268,-1.43932777255252
2024-09-23 01:58:07.569351,41.45,8.510603,-0.010366361136344109,0.023842813346485598,1.0111565740587272,0.3237212803733535,-1.0893650827679784,-1.3824903330512346
2024-09-23 01:58:07.581550,41.45,8.510603,-0.013049540777332799,0.023842813346485598,1.0111565740587272,0.3237212803733535,-1.0893650827679784,-1.3824903330512346
2024-09-23 01:58:07.613738,41.45,8.510603,-0.013049540777332799,0.018781549643789714,1.0136566395424191,0.38061600277069957,-1.0893650827679784,-1.3824903330512346
2024-09-23 01:58:07.624920,41.45,8.51069,-0.013049540777332799,0.018781549643789714,1.0136566395424191,0.38061600277069957,-1.0630662837389857,-1.4655692620050162
2024-09-23 01:58:07.667785,41.45,8.51069,-0.01341539238571027,0.019696228790963704,1.0107297051572652,0.3543172304221429,-1.0937195433642715,-1.3956111311383546
2024-09-23 01:58:07.710925,41.45,8.510741,-0.010061467580960552,0.019696228790963704,1.0107297051572652,0.3543172304221429,-1.0937195433642715,-1.3956111311383546
2024-09-23 01:58:07.722416,41.45,8.510741,-0.010061467580960552,0.02018409827676631,1.0114614387535539,0.3193667930966243,-1.1374934943549335,-1.3956111311383546
2024-09-23 01:58:07.766311,41.45,8.510792,-0.011768909009832369,0.020001120827370582,1.0114614387535539,0.3193667930966243,-1.1374934943549335,-1.3999655917346479
2024-09-23 01:58:07.778380,41.45,8.510792,-0.011768909009832369,0.020001120827370582,1.0157299333391567,0.3411964856958948,-1.1374934943549335,-1.3999655917346479
2024-09-23 01:58:07.810063,41.45,8.510843,-0.011768909009832369,0.020001120827370582,1.0157299333391567,0.3411964856958948,-1.1549687530383468,-1.3999655917346479
2024-09-23 01:58:07.821379,41.45,8.510843,-0.012744546969488612,0.02012303845233509,1.0131688171448936,0.3411964856958948,-1.1549687530383468,-1.3999655917346479
2024-09-23 01:58:07.864103,41.45,8.510894,-0.013232416455291218,0.020610907938137694,1.0131688171448936,0.29747979092085736,-1.1637349838074296,-1.259991913703084
2024-09-23 01:58:07.906761,41.45,8.510894,-0.013232416455291218,0.020610907938137694,1.0122541258459061,0.37184974532118065,-1.1899764732599258,-1.259991913703084
2024-09-23 01:58:07.917890,41.45,8.510945,-0.01182986782231462,0.020610907938137694,1.0122541258459061,0.37184974532118065,-1.1899764732599258,-1.3430708426568656
2024-09-23 01:58:07.960235,41.45,8.510945,-0.01182986782231462,0.020245056329760223,1.0153641151482662,0.35872900059493257,-1.1724439050000162,-1.448094003321603
2024-09-23 01:58:07.972512,41.45,8.511031,-0.01182986782231462,0.020245056329760223,1.0153641151482662,0.35872900059493257,-1.1724439050000162,-1.448094003321603
2024-09-23 01:58:08.004560,41.45,8.511031,-0.01182986782231462,0.01975718684395762,1.0121931723498423,0.35872900059493257,-1.1724439050000162,-1.448094003321603
2024-09-23 01:58:08.016157,41.45,8.511031,-0.01182986782231462,0.01975718684395762,1.0121931723498423,0.3149550229238346,-1.1330817241821438,-1.3780785628784449
2024-09-23 01:58:08.058986,41.45,8.511083,-0.009512741813601339,0.024330682832288206,1.0082904959551298,0.29306802074806765,-1.1287272635858505,-1.3780785628784449
2024-09-23 01:58:08.102045,41.65,8.511133,-0.013354434332716355,0.024330682832288206,1.0082904959551298,0.29306802074806765,-1.1287272635858505,-1.3780785628784449
2024-09-23 01:58:08.114171,41.65,8.511133,-0.013354434332716355,0.022562284109910815,1.0082904959551298,0.29306802074806765,-1.1287272635858505,-1.3780785628784449
2024-09-23 01:58:08.157381,41.65,8.511184,-0.01408613603049462,0.022562284109910815,1.016705578134208,0.29306802074806765,-1.0849533125951887,-1.3430708426568656
2024-09-23 01:58:08.199837,41.65,8.511184,-0.01408613603049462,0.020366972435748053,1.0113394345469187,0.37620423259790986,-1.0849533125951887,-1.3430708426568656
2024-09-23 01:58:08.211162,41.65,8.511235,-0.01408613603049462,0.020366972435748053,1.0113394345469187,0.37620423259790986,-1.1899764732599258,-1.3124748926080763
2024-09-23 01:58:08.254056,41.65,8.511235,-0.012317737308117227,0.01914740125216718,1.0143274196426437,0.29306802074806765,-1.2774671723864972,-1.4218526205908506
2024-09-23 01:58:08.297290,41.65,8.511285,-0.012988480952901577,0.019940162774376668,1.0143274196426437,0.29306802074806765,-1.2774671723864972,-1.4218526205908506
2024-09-23 01:58:08.309272,41.65,8.511285,-0.012988480952901577,0.019940162774376668,1.015973941752427,0.3456082558686845,-1.1287272635858505,-1.4218526205908506
2024-09-23 01:58:08.352648,41.65,8.511372,-0.010732313756670548,0.020610907938137694,1.0146322843374704,0.3280757409696467,-1.1287272635858505,-1.461214801408723
2024-09-23 01:58:08.396473,41.65,8.511424,-0.011342100107949322,0.020610907938137694,1.0146322843374704,0.3280757409696467,-1.0893650827679784,-1.259991913703084
2024-09-23 01:58:08.408314,41.65,8.511424,-0.011342100107949322,0.020366972435748053,1.0140835084438808,0.3280757409696467,-1.0893650827679784,-1.259991913703084
2024-09-23 01:58:08.440382,41.65,8.511424,-0.011342100107949322,0.020366972435748053,1.0140835084438808,0.3456082558686845,-1.0893650827679784,-1.259991913703084
2024-09-23 01:58:08.492834,41.65,8.511475,-0.014147094083488534,0.020366972435748053,1.0140835084438808,0.3456082558686845,-1.0937195433642715,-1.404320052330941
2024-09-23 01:58:08.504612,41.65,8.511475,-0.014147094083488534,0.02213537267710212,1.015486022140394,0.3456082558686845,-1.0937195433642715,-1.404320052330941
2024-09-23 01:58:08.536806,41.65,8.511475,-0.014147094083488534,0.02213537267710212,1.015486022140394,0.26247207069927825,-1.0937195433642715,-1.404320052330941
2024-09-23 01:58:08.548158,41.65,8.511525,-0.012988480952901577,0.02201345505213762,1.015486022140394,0.26247207069927825,-1.2336931146740913,-1.3299501512914895
2024-09-23 01:58:08.591275,41.65,8.511525,-0.012988480952901577,0.02201345505213762,1.0143883731387076,0.3280757409696467,-1.1418479549512268,-1.3299501512914895
2024-09-23 01:58:08.602299,41.65,8.511616,-0.012988480952901577,0.02201345505213762,1.0143883731387076,0.3280757409696467,-1.1418479549512268,-1.3299501512914895
2024-09-23 01:58:08.635965,41.65,8.511616,-0.012988480952901577,0.019330377182586234,1.0143883731387076,0.3280757409696467,-1.1418479549512268,-1.3299501512914895
2024-09-23 01:58:08.647555,41.65,8.511668,-0.012988480952901577,0.019330377182586234,1.01231507934197,0.3018342781975865,-1.0324703336901964,-1.4306188513599336
2024-09-23 01:58:08.690253,41.65,8.511668,-0.011890927646745842,0.02164760496273682,1.0130469101527657,0.27559278874509036,-1.1812102424908428,-1.4306188513599336
2024-09-23 01:58:08.701875,41.65,8.511668,-0.011890927646745842,0.02164760496273682,1.0130469101527657,0.27559278874509036,-1.1812102424908428,-1.404320052330941
2024-09-23 01:58:08.734321,41.65,8.511763,-0.012988480952901577,0.02164760496273682,1.0130469101527657,0.27559278874509036,-1.1812102424908428,-1.404320052330941
2024-09-23 01:58:08.746473,41.65,8.511763,-0.012988480952901577,0.02134260963591596,1.0114003880429827,0.4155664400962181,-1.259991913703084,-1.404320052330941
2024-09-23 01:58:08.790190,41.65,8.511814,-0.01146401621393715,0.020915799974544576,1.0148152420401695,0.3543172304221429,-1.259991913703084,-1.4087318225037306
2024-09-23 01:58:08.832240,41.65,8.511814,-0.01146401621393715,0.020915799974544576,1.0148152420401695,0.3543172304221429,-1.1111946953259408,-1.3474826128296553
2024-09-23 01:58:08.843683,41.65,8.511865,-0.015244750680058252,0.021281651582922046,1.0152421109416312,0.3543172304221429,-1.1111946953259408,-1.3474826128296553
2024-09-23 01:58:08.886696,41.65,8.511916,-0.016037512202267738,0.02201345505213762,1.0152421109416312,0.28871353347133843,-1.0893650827679784,-1.5443510399390012
2024-09-23 01:58:08.928708,41.65,8.511916,-0.016037512202267738,0.02201345505213762,1.0194497492456776,0.3543172304221429,-1.0893650827679784,-1.5443510399390012
2024-09-23 01:58:08.940710,41.65,8.511966,-0.012073802565215924,0.02201345505213762,1.0194497492456776,0.3543172304221429,-1.1899764732599258,-1.4306188513599336
2024-09-23 01:58:08.983492,41.65,8.511966,-0.012073802565215924,0.021098777423940302,1.0148762927507406,0.2581175834225491,-1.1506142924420535,-1.3824903330512346
2024-09-23 01:58:08.995614,41.65,8.512055,-0.012073802565215924,0.021098777423940302,1.0148762927507406,0.2581175834225491,-1.1506142924420535,-1.3824903330512346
2024-09-23 01:58:09.027745,41.65,8.512055,-0.012073802565215924,0.017805912443621806,1.0148762927507406,0.2581175834225491,-1.1506142924420535,-1.3824903330512346
2024-09-23 01:58:09.039200,41.65,8.512055,-0.012073802565215924,0.017805912443621806,1.0147542885441054,0.38061600277069957,-1.1855647030871361,-1.3606034109167755
2024-09-23 01:58:09.081228,41.65,8.512106,-0.010000509527966639,0.01890346574977754,1.01231507934197,0.3411964856958948,-1.1330817241821438,-1.3606034109167755
2024-09-23 01:58:09.123643,42.12,8.512106,-0.010000509527966639,0.01890346574977754,1.01231507934197,0.3411964856958948,-1.1330817241821438,-1.413086283100024
2024-09-23 01:58:09.176413,42.12,8.512157,-0.014634963569291141,0.02048899031317319,1.0121322188537785,0.3411964856958948,-1.1330817241821438,-1.413086283100024
2024-09-23 01:58:09.188648,42.12,8.512157,-0.014634963569291141,0.02048899031317319,1.0121322188537785,0.3368419984191656,-1.1330817241821438,-1.413086283100024
2024-09-23 01:58:09.221415,42.12,8.512157,-0.014634963569291141,0.02048899031317319,1.0121322188537785,0.3368419984191656,-1.0893650827679784,-1.474335492774099
2024-09-23 01:58:09.232740,42.12,8.512208,-0.011403058160943235,0.023354943860682993,1.0164616669354454,0.3368419984191656,-1.0893650827679784,-1.474335492774099
2024-09-23 01:58:09.277097,42.12,8.512259,-0.013720285941093825,0.020427930488741967,1.0164616669354454,0.3674952580444515,-1.0543573625463993,-1.518109550486505
2024-09-23 01:58:09.319473,42.12,8.512259,-0.013720285941093825,0.020427930488741967,1.0140835084438808,0.2581175834225491,-1.0543573625463993,-1.518109550486505
2024-09-23 01:58:09.330980,42.12,8.512309,-0.011281142054955407,0.020427930488741967,1.0140835084438808,0.2581175834225491,-1.1943309338562191,-1.3474826128296553
2024-09-23 01:58:09.373574,42.12,8.512309,-0.011281142054955407,0.020062078880364497,1.0119492611510794,0.31060053564710544,-1.1637349838074296,-1.5224640110827983
2024-09-23 01:58:09.385861,42.12,8.512396,-0.011281142054955407,0.020062078880364497,1.0119492611510794,0.31060053564710544,-1.1637349838074296,-1.5224640110827983
2024-09-23 01:58:09.419770,42.12,8.512396,-0.012988480952901577,0.020610907938137694,1.0099979715609768,0.31060053564710544,-1.1637349838074296,-1.5224640110827983
2024-09-23 01:58:09.431326,42.12,8.512396,-0.012988480952901577,0.020610907938137694,1.0099979715609768,0.31060053564710544,-1.1418479549512268,-1.496222521630302
2024-09-23 01:58:09.463453,42.12,8.512494,-0.012988480952901577,0.020610907938137694,1.0099979715609768,0.31060053564710544,-1.1418479549512268,-1.496222521630302
2024-09-23 01:58:09.475136,42.12,8.512494,-0.012500713238536278,0.021830479121718566,1.0129859566567019,0.3018342781975865,-1.1199610328167677,-1.496222521630302
2024-09-23 01:58:09.518471,42.12,8.512546,-0.013232416455291218,0.02225739055452726,1.0116442992417454,0.3018342781975865,-1.1199610328167677,-1.434973311956227
2024-09-23 01:58:09.530526,42.12,8.512546,-0.013232416455291218,0.02225739055452726,1.0116442992417454,0.3018342781975865,-1.1199610328167677,-1.434973311956227
2024-09-23 01:58:09.562414,42.12,8.512546,-0.013232416455291218,0.02225739055452726,1.0116442992417454,0.3018342781975865,-1.1287272635858505,-1.448094003321603
2024-09-23 01:58:09.574011,42.12,8.512596,-0.013232416455291218,0.02225739055452726,1.0116442992417454,0.3018342781975865,-1.1287272635858505,-1.448094003321603
2024-09-23 01:58:09.615977,42.12,8.512596,-0.015183792627064338,0.02012303845233509,1.012498037044669,0.2581175834225491,-1.1199610328167677,-1.448094003321603
2024-09-23 01:58:09.628198,42.12,8.512596,-0.015183792627064338,0.02012303845233509,1.012498037044669,0.2581175834225491,-1.1199610328167677,-1.3343619214642792
2024-09-23 01:58:09.660145,42.12,8.512647,-0.012378695361111141,0.02012303845233509,1.012498037044669,0.2581175834225491,-1.1199610328167677,-1.3343619214642792
2024-09-23 01:58:09.671358,42.12,8.512647,-0.012378695361111141,0.020245056329760223,1.0131078636488298,0.29747979092085736,-1.1549687530383468,-1.3343619214642792
2024-09-23 01:58:09.713834,42.12,8.512698,-0.014939857124674697,0.019513251341567978,1.0131078636488298,0.29747979092085736,-1.1549687530383468,-1.3911993609655648
2024-09-23 01:58:09.726184,42.12,8.512698,-0.014939857124674697,0.019513251341567978,1.0139616014517532,0.2537058132497594,-1.1549687530383468,-1.3911993609655648
2024-09-23 01:58:09.758636,42.12,8.512698,-0.014939857124674697,0.019513251341567978,1.0139616014517532,0.2537058132497594,-1.1943309338562191,-1.4437395427253097
2024-09-23 01:58:09.770027,42.12,8.512786,-0.014574005516297226,0.01963527073796979,1.0147542885441054,0.2537058132497594,-1.1943309338562191,-1.4437395427253097
2024-09-23 01:58:09.812626,42.12,8.512837,-0.012622630104012445,0.01975718684395762,1.0147542885441054,0.3368419984191656,-1.028115873093903,-1.5136977803137153
2024-09-23 01:58:09.855465,42.12,8.512837,-0.012622630104012445,0.01975718684395762,1.01426646614658,0.3630834878716618,-1.028115873093903,-1.5136977803137153
2024-09-23 01:58:09.867331,42.12,8.512888,-0.014208053655459124,0.01975718684395762,1.01426646614658,0.3630834878716618,-1.0849533125951887,-1.404320052330941
2024-09-23 01:58:09.909772,42.12,8.512888,-0.014208053655459124,0.018293680157987106,1.0139006479556893,0.29747979092085736,-1.15932321363464,-1.434973311956227
2024-09-23 01:58:09.921421,42.12,8.512981,-0.014208053655459124,0.018293680157987106,1.0139006479556893,0.29747979092085736,-1.15932321363464,-1.434973311956227
2024-09-23 01:58:09.953218,42.12,8.512981,-0.011890927646745842,0.02213537267710212,1.0139006479556893,0.29747979092085736,-1.15932321363464,-1.434973311956227
2024-09-23 01:58:09.965189,42.12,8.512981,-0.011890927646745842,0.02213537267710212,1.0135347325502915,0.39373674749694765,-1.2774671723864972,-1.4437395427253097
2024-09-23 01:58:10.009179,42.12,8.513033,-0.011403058160943235,0.016281345933220073,1.0096319589410718,0.31060053564710544,-1.224984193481505,-1.4437395427253097
2024-09-23 01:58:10.051104,42.12,8.513083,-0.011403058160943235,0.016281345933220073,1.0096319589410718,0.31060053564710544,-1.224984193481505,-1.434973311956227
2024-09-23 01:58:10.062100,42.12,8.513083,-0.01182986782231462,0.019086441680196593,1.0163397599433175,0.27123832814879717,-1.224984193481505,-1.434973311956227
2024-09-23 01:58:10.104751,42.12,8.513134,-0.012622630104012445,0.021098777423940302,1.0163397599433175,0.27123832814879717,-1.0937195433642715,-1.426207081187144
2024-09-23 01:58:10.117226,42.12,8.513134,-0.012622630104012445,0.021098777423940302,1.0128639524500669,0.27123832814879717,-1.0937195433642715,-1.426207081187144
2024-09-23 01:58:10.201194,42.36,8.513185,-0.012622630104012445,0.021098777423940302,1.0128639524500669,0.27994727602181957,-1.0499454856518655,-1.413086283100024
2024-09-23 01:58:10.243748,42.36,8.513185,-0.011768909009832369,0.021098777423940302,1.0128639524500669,0.27994727602181957,-1.0499454856518655,-1.413086283100024
2024-09-23 01:58:10.256285,42.36,8.513185,-0.011768909009832369,0.01926931735815501,1.012925003160638,0.3368419984191656,-1.1287272635858505,-1.404320052330941
2024-09-23 01:58:10.299030,42.36,8.513235,-0.01182986782231462,0.021281651582922046,1.0120102146471432,0.3368419984191656,-1.1287272635858505,-1.404320052330941
2024-09-23 01:58:10.311736,42.36,8.513235,-0.01182986782231462,0.021281651582922046,1.0120102146471432,0.35872900059493257,-1.1111946953259408,-1.404320052330941
2024-09-23 01:58:10.343621,42.36,8.513322,-0.01182986782231462,0.021281651582922046,1.0120102146471432,0.35872900059493257,-1.1111946953259408,-1.3343619214642792
2024-09-23 01:58:10.354808,42.36,8.513322,-0.012927522899907663,0.018476656088406155,1.0118273541589518,0.37184974532118065,-1.1111946953259408,-1.3343619214642792
2024-09-23 01:58:10.397857,42.36,8.513374,-0.01146401621393715,0.017744852619190586,1.0118273541589518,0.37184974532118065,-1.207451731943339,-1.3518370734259486
2024-09-23 01:58:10.409751,42.36,8.513374,-0.01146401621393715,0.017744852619190586,1.0132298678554648,0.37184974532118065,-1.207451731943339,-1.3518370734259486
2024-09-23 01:58:10.441201,42.36,8.513374,-0.01146401621393715,0.017744852619190586,1.0132298678554648,0.26247207069927825,-1.1724439050000162,-1.4087318225037306
2024-09-23 01:58:10.452320,42.36,8.51347,-0.01378124399408774,0.017744852619190586,1.0132298678554648,0.26247207069927825,-1.1724439050000162,-1.4087318225037306
2024-09-23 01:58:10.494940,42.36,8.513521,-0.01378124399408774,0.017744852619190586,1.0148152420401695,0.3062460483703762,-1.1506142924420535,-1.4218526205908506
2024-09-23 01:58:10.506775,42.36,8.513521,-0.009268807070700035,0.017744852619190586,1.0148152420401695,0.3062460483703762,-1.1506142924420535,-1.4218526205908506
2024-09-23 01:58:10.539742,42.36,8.513521,-0.009268807070700035,0.020549948366167105,1.012742045457939,0.3193667930966243,-1.1506142924420535,-1.4218526205908506
2024-09-23 01:58:10.551164,42.36,8.513615,-0.009268807070700035,0.020549948366167105,1.012742045457939,0.3193667930966243,-1.1156065722204744,-1.3606034109167755
2024-09-23 01:58:10.594976,42.36,8.513615,-0.01268358815700636,0.023842813346485598,1.0137175930384832,0.29747979092085736,-1.1899764732599258,-1.4655692620050162
2024-09-23 01:58:10.638551,42.36,8.513666,-0.01433007153288426,0.017927828549609635,1.0137175930384832,0.29747979092085736,-1.1899764732599258,-1.4655692620050162
2024-09-23 01:58:10.650112,42.36,8.513666,-0.01433007153288426,0.017927828549609635,1.01426646614658,0.26247207069927825,-1.1156065722204744,-1.4655692620050162
2024-09-23 01:58:10.682096,42.36,8.513666,-0.01433007153288426,0.017927828549609635,1.01426646614658,0.26247207069927825,-1.1156065722204744,-1.4218526205908506
2024-09-23 01:58:10.693851,42.36,8.513717,-0.009939551474972724,0.019574312684975875,1.0145103773453428,0.2537058132497594,-1.1156065722204744,-1.4218526205908506
2024-09-23 01:58:10.735710,42.36,8.513768,-0.013293374508285133,0.019574312684975875,1.0145103773453428,0.2537058132497594,-1.216217962712422,-1.3387163820605725
2024-09-23 01:58:10.747252,42.36,8.513768,-0.013293374508285133,0.019574312684975875,1.0137175930384832,0.2537058132497594,-1.216217962712422,-1.3387163820605725
2024-09-23 01:58:10.779578,42.36,8.513768,-0.013293374508285133,0.019574312684975875,1.0137175930384832,0.3411964856958948,-1.216217962712422,-1.3387163820605725
2024-09-23 01:58:10.791090,42.36,8.513819,-0.01182986782231462,0.017257084904825287,1.0137175930384832,0.3411964856958948,-1.0630662837389857,-1.413086283100024
2024-09-23 01:58:10.833319,42.36,8.513819,-0.01182986782231462,0.017257084904825287,1.0129859566567019,0.24499683869630098,-1.15932321363464,-1.3780785628784449
2024-09-23 01:58:10.844851,42.36,8.513869,-0.013354434332716355,0.017257084904825287,1.0129859566567019,0.24499683869630098,-1.15932321363464,-1.3780785628784449
2024-09-23 01:58:10.876646,42.36,8.513869,-0.013354434332716355,0.021952496999143704,1.0129859566567019,0.24499683869630098,-1.15932321363464,-1.3780785628784449
2024-09-23 01:58:10.888230,42.36,8.513956,-0.013354434332716355,0.021952496999143704,1.015546975636458,0.37620423259790986,-1.1330817241821438,-1.434973311956227
2024-09-23 01:58:10.930580,42.36,8.513956,-0.01256167205101853,0.020306014382754138,1.01426646614658,0.37620423259790986,-1.1330817241821438,-1.434973311956227
2024-09-23 01:58:10.941723,42.36,8.513956,-0.01256167205101853,0.020306014382754138,1.01426646614658,0.3324875378228724,-1.1680894444037229,-1.518109550486505
2024-09-23 01:58:10.984111,42.36,8.514008,-0.010793271809664462,0.02067186599113161,1.0133517748475924,0.28871353347133843,-1.0630662837389857,-1.518109550486505
2024-09-23 01:58:11.027153,42.36,8.514058,-0.013110498830326714,0.02067186599113161,1.0133517748475924,0.28871353347133843,-1.0630662837389857,-1.3562488435987383
2024-09-23 01:58:11.038703,42.36,8.514058,-0.013110498830326714,0.019208359305161096,1.0157908868352208,0.31060053564710544,-1.0630662837389857,-1.3562488435987383
2024-09-23 01:58:11.081369,42.36,8.514109,-0.010244444270867941,0.018781549643789714,1.012498037044669,0.31060053564710544,-1.2118635021161288,-1.3518370734259486
2024-09-23 01:58:11.125306,42.36,8.514109,-0.010244444270867941,0.018781549643789714,1.012498037044669,0.35872900059493257,-1.2293386540777982,-1.3693696416858583
2024-09-23 01:58:11.137755,42.36,8.51416,-0.012805606793919833,0.02122069352992813,1.012498037044669,0.35872900059493257,-1.2293386540777982,-1.3693696416858583
2024-09-23 01:58:11.169412,42.36,8.51416,-0.012805606793919833,0.02122069352992813,1.014022554947817,0.35872900059493257,-1.2293386540777982,-1.3693696416858583
2024-09-23 01:58:11.180724,42.36,8.51421,-0.009512741813601339,0.02122069352992813,1.014022554947817,0.37184974532118065,-1.1199610328167677,-1.3956111311383546
2024-09-23 01:58:11.223514,42.79,8.51421,-0.009512741813601339,0.02152558556633501,1.0139616014517532,0.3411964856958948,-1.1199610328167677,-1.3956111311383546
2024-09-23 01:58:11.235251,42.79,8.514298,-0.009512741813601339,0.02152558556633501,1.0139616014517532,0.3411964856958948,-1.1812102424908428,-1.43932777255252
2024-09-23 01:58:11.267488,42.79,8.514298,-0.012134760618209839,0.02152558556633501,1.0139616014517532,0.3411964856958948,-1.1812102424908428,-1.43932777255252
2024-09-23 01:58:11.278820,42.79,8.514298,-0.012134760618209839,0.018659531766364576,1.0138396944596255,0.3674952580444515,-1.1724439050000162,-1.4568603408124299
2024-09-23 01:58:11.321384,42.79,8.514349,-0.014574005516297226,0.019818144896951533,1.0109126628599643,0.3674952580444515,-1.1724439050000162,-1.4568603408124299
2024-09-23 01:58:11.333294,42.79,8.514349,-0.014574005516297226,0.019818144896951533,1.0109126628599643,0.2362305812467821,-1.0805987452771515,-1.4568603408124299
2024-09-23 01:58:11.366103,42.79,8.514349,-0.014574005516297226,0.019818144896951533,1.0109126628599643,0.2362305812467821,-1.0805987452771515,-1.3824903330512346
2024-09-23 01:58:11.378015,42.79,8.5144,-0.014269113479890346,0.020610907938137694,1.0135347325502915,0.3237212803733535,-1.0805987452771515,-1.3824903330512346
2024-09-23 01:58:11.420352,42.79,8.51445,-0.00969561673207142,0.018415698035412244,1.0135347325502915,0.3237212803733535,-1.1899764732599258,-1.3999655917346479
2024-09-23 01:58:11.431984,42.79,8.51445,-0.00969561673207142,0.018415698035412244,1.01231507934197,0.3237212803733535,-1.1899764732599258,-1.3999655917346479
2024-09-23 01:58:11.464429,42.79,8.51445,-0.00969561673207142,0.018415698035412244,1.01231507934197,0.3149550229238346,-1.0937195433642715,-1.3999655917346479
2024-09-23 01:58:11.475427,42.79,8.514501,-0.013476350438704184,0.018293680157987106,1.01231507934197,0.3149550229238346,-1.0937195433642715,-1.3868447936475277
2024-09-23 01:58:11.519046,42.79,8.514552,-0.013232416455291218,0.018293680157987106,1.0157908868352208,0.3193667930966243,-1.0324703336901964,-1.3780785628784449
2024-09-23 01:58:11.561343,42.79,8.514552,-0.013232416455291218,0.023598879363072634,1.0137175930384832,0.3193667930966243,-1.0324703336901964,-1.3780785628784449
2024-09-23 01:58:11.572975,42.79,8.514639,-0.013232416455291218,0.023598879363072634,1.0137175930384832,0.3499627431454137,-1.1943309338562191,-1.469981032177806
2024-09-23 01:58:11.615057,42.79,8.514639,-0.016159429827232244,0.02274515826889256,1.0148762927507406,0.2843590461946093,-1.207451731943339,-1.469981032177806
2024-09-23 01:58:11.627383,42.79,8.514639,-0.016159429827232244,0.02274515826889256,1.0148762927507406,0.2843590461946093,-1.207451731943339,-1.4174980532728136
2024-09-23 01:58:11.659936,42.79,8.51469,-0.013720285941093825,0.018659531766364576,1.0148762927507406,0.2843590461946093,-1.207451731943339,-1.4174980532728136
2024-09-23 01:58:11.671212,42.79,8.51469,-0.013720285941093825,0.018659531766364576,1.011034569852092,0.3368419984191656,-1.1243154934130608,-1.4174980532728136
2024-09-23 01:58:11.714084,42.79,8.514741,-0.01341539238571027,0.021586543619328925,1.012802998954003,0.3368419984191656,-1.1243154934130608,-1.483101830264926
2024-09-23 01:58:11.725893,42.79,8.514741,-0.01341539238571027,0.021586543619328925,1.012802998954003,0.2581175834225491,-1.1243154934130608,-1.483101830264926
2024-09-23 01:58:11.758365,42.79,8.514792,-0.01341539238571027,0.021586543619328925,1.012802998954003,0.2581175834225491,-1.1243154934130608,-1.3474826128296553
2024-09-23 01:58:11.769907,42.79,8.514792,-0.010793271809664462,0.021708563015730736,1.0131688171448936,0.2581175834225491,-1.1243154934130608,-1.3474826128296553
2024-09-23 01:58:11.812416,42.79,8.514842,-0.015122834574070423,0.02048899031317319,1.0131688171448936,0.29306802074806765,-1.15932321363464,-1.3868447936475277
2024-09-23 01:58:11.855137,42.79,8.514842,-0.015122834574070423,0.02048899031317319,1.0149982969573756,0.3149550229238346,-1.0980740039605648,-1.3868447936475277
2024-09-23 01:58:11.867314,42.79,8.514893,-0.013537308491698099,0.02048899031317319,1.0149982969573756,0.3149550229238346,-1.0980740039605648,-1.3956111311383546
2024-09-23 01:58:11.910492,42.79,8.51498,-0.013537308491698099,0.020610907938137694,1.014022554947817,0.28871353347133843,-1.1899764732599258,-1.43932777255252
2024-09-23 01:58:11.953097,42.79,8.51498,-0.012073802565215924,0.019879204721382753,1.0134127283436565,0.28871353347133843,-1.1899764732599258,-1.43932777255252
2024-09-23 01:58:11.964752,42.79,8.51498,-0.012073802565215924,0.019879204721382753,1.0134127283436565,0.3062460483703762,-1.2118635021161288,-1.4655692620050162
2024-09-23 01:58:12.007696,42.79,8.515031,-0.012988480952901577,0.01963527073796979,1.0148152420401695,0.3456082558686845,-1.207451731943339,-1.4655692620050162
2024-09-23 01:58:12.049626,42.79,8.515082,-0.012988480952901577,0.01963527073796979,1.0148152420401695,0.3456082558686845,-1.207451731943339,-1.483101830264926
2024-09-23 01:58:12.061633,42.79,8.515082,-0.014025177977500705,0.019086441680196593,1.0152421109416312,0.3456082558686845,-1.207451731943339,-1.483101830264926
2024-09-23 01:58:12.104809,42.79,8.515133,-0.010976248499571852,0.020549948366167105,1.0153641151482662,0.3456082558686845,-1.0980740039605648,-1.3518370734259486
2024-09-23 01:58:12.147492,42.79,8.515133,-0.010976248499571852,0.020549948366167105,1.0153641151482662,0.40685746554275976,-1.1287272635858505,-1.3518370734259486
2024-09-23 01:58:12.159348,42.79,8.515184,-0.013110498830326714,0.019696228790963704,1.0153641151482662,0.40685746554275976,-1.1287272635858505,-1.474335492774099
2024-09-23 01:58:12.202354,42.79,8.515184,-0.013110498830326714,0.019696228790963704,1.0097540603622142,0.3324875378228724,-1.1287272635858505,-1.474335492774099
2024-09-23 01:58:12.245046,42.87,8.515184,-0.013110498830326714,0.019696228790963704,1.0097540603622142,0.3324875378228724,-1.1680894444037229,-1.5136977803137153
2024-09-23 01:58:12.298721,42.87,8.515234,-0.013110498830326714,0.019696228790963704,1.0097540603622142,0.3324875378228724,-1.1680894444037229,-1.5136977803137153
2024-09-23 01:58:12.340659,42.87,8.515234,-0.013476350438704184,0.019696228790963704,1.0097540603622142,0.3324875378228724,-1.1680894444037229,-1.5136977803137153
2024-09-23 01:58:12.351837,42.87,8.515234,-0.013476350438704184,0.01853761414140007,1.0128639524500669,0.38932495064372197,-1.1024857741333545,-1.4787472629468887
2024-09-23 01:58:12.395103,42.87,8.515321,-0.012927522899907663,0.02189143717471248,1.016705578134208,0.38932495064372197,-1.1024857741333545,-1.4787472629468887
2024-09-23 01:58:12.407123,42.87,8.515321,-0.012927522899907663,0.02189143717471248,1.016705578134208,0.37620423259790986,-1.0893650827679784,-1.4787472629468887
2024-09-23 01:58:12.438631,42.87,8.515373,-0.012927522899907663,0.02189143717471248,1.016705578134208,0.37620423259790986,-1.0893650827679784,-1.483101830264926
2024-09-23 01:58:12.450247,42.87,8.515373,-0.012622630104012445,0.02140366946034718,1.0130469101527657,0.27123832814879717,-1.0893650827679784,-1.483101830264926
2024-09-23 01:58:12.492278,42.87,8.515423,-0.013354434332716355,0.019574312684975875,1.0130469101527657,0.27123832814879717,-1.1724439050000162,-1.3999655917346479
2024-09-23 01:58:12.508406,42.87,8.515423,-0.013354434332716355,0.019574312684975875,1.014022554947817,0.27123832814879717,-1.1724439050000162,-1.3999655917346479
2024-09-23 01:58:12.540629,42.87,8.515517,-0.013354434332716355,0.019574312684975875,1.014022554947817,0.27123832814879717,-1.1330817241821438,-1.4174980532728136
2024-09-23 01:58:12.552398,42.87,8.515517,-0.013354434332716355,0.021037716080532405,1.014022554947817,0.27123832814879717,-1.1330817241821438,-1.4174980532728136
2024-09-23 01:58:12.584289,42.87,8.515517,-0.013354434332716355,0.021037716080532405,1.012620041251304,0.27123832814879717,-1.1330817241821438,-1.4174980532728136
2024-09-23 01:58:12.595115,42.87,8.515616,-0.014208053655459124,0.021037716080532405,1.012620041251304,0.29747979092085736,-1.1768557818945498,-1.5136977803137153
2024-09-23 01:58:12.638341,42.87,8.515616,-0.014208053655459124,0.018598572194393984,1.0176202694331955,0.3237212803733535,-1.1506142924420535,-1.4087318225037306
2024-09-23 01:58:12.650256,42.87,8.515711,-0.014208053655459124,0.018598572194393984,1.0176202694331955,0.3237212803733535,-1.1506142924420535,-1.4087318225037306
2024-09-23 01:58:12.683355,42.87,8.515711,-0.015305708733052167,0.020793883868556746,1.0176202694331955,0.3237212803733535,-1.1506142924420535,-1.4087318225037306
2024-09-23 01:58:12.694584,42.87,8.515711,-0.015305708733052167,0.020793883868556746,1.0099979715609768,0.27994727602181957,-1.0543573625463993,-1.3868447936475277
2024-09-23 01:58:12.737760,42.87,8.515763,-0.011159123418041933,0.01890346574977754,1.0120102146471432,0.2537058132497594,-1.1680894444037229,-1.3868447936475277
2024-09-23 01:58:12.779938,42.87,8.515813,-0.011159123418041933,0.01890346574977754,1.0120102146471432,0.2537058132497594,-1.1680894444037229,-1.3824903330512346
2024-09-23 01:58:12.790936,42.87,8.515813,-0.011707950956838454,0.021708563015730736,1.0138396944596255,0.2668265312955715,-1.1680894444037229,-1.3824903330512346
2024-09-23 01:58:12.833476,42.87,8.515864,-0.012378695361111141,0.01823272210499319,1.0138396944596255,0.2668265312955715,-1.207451731943339,-1.3911993609655648
2024-09-23 01:58:12.845816,42.87,8.515864,-0.012378695361111141,0.01823272210499319,1.0144494238492787,0.2668265312955715,-1.207451731943339,-1.3911993609655648
2024-09-23 01:58:12.878537,42.87,8.515864,-0.012378695361111141,0.01823272210499319,1.0144494238492787,0.24499683869630098,-1.207451731943339,-1.3911993609655648
2024-09-23 01:58:12.931166,42.87,8.515915,-0.013903160100075569,0.01823272210499319,1.0144494238492787,0.24499683869630098,-1.1330817241821438,-1.3606034109167755
2024-09-23 01:58:12.942581,42.87,8.515915,-0.013903160100075569,0.02152558556633501,1.0158518403312846,0.24499683869630098,-1.1330817241821438,-1.3606034109167755
2024-09-23 01:58:12.975201,42.87,8.515915,-0.013903160100075569,0.02152558556633501,1.0158518403312846,0.40685746554275976,-1.1330817241821438,-1.3606034109167755
2024-09-23 01:58:12.986709,42.87,8.515966,-0.012988480952901577,0.022684200215898644,1.0158518403312846,0.40685746554275976,-1.1724439050000162,-1.3562488435987383
2024-09-23 01:58:13.030100,42.87,8.516052,-0.012988480952901577,0.022684200215898644,1.015546975636458,0.3193667930966243,-1.15932321363464,-1.3868447936475277
2024-09-23 01:58:13.041894,42.87,8.516052,-0.013537308491698099,0.022684200215898644,1.015546975636458,0.3193667930966243,-1.15932321363464,-1.3868447936475277
2024-09-23 01:58:13.074137,42.87,8.516052,-0.013537308491698099,0.021952496999143704,1.0126809947473678,0.39373674749694765,-1.15932321363464,-1.3868447936475277
2024-09-23 01:58:13.085180,42.87,8.516104,-0.013537308491698099,0.021952496999143704,1.0126809947473678,0.39373674749694765,-1.1506142924420535,-1.3649578715130686
2024-09-23 01:58:13.128600,42.87,8.516104,-0.014025177977500705,0.020427930488741967,1.0104856967439952,0.39373674749694765,-1.15932321363464,-1.461214801408723
2024-09-23 01:58:13.170477,42.87,8.516199,-0.012378695361111141,0.020427930488741967,1.0104856967439952,0.39373674749694765,-1.15932321363464,-1.461214801408723
2024-09-23 01:58:13.182153,42.87,8.516199,-0.012378695361111141,0.022867176146317694,1.015608026347029,0.4505741869982332,-1.1024857741333545,-1.461214801408723
2024-09-23 01:58:13.224847,42.87,8.516251,-0.013903160100075569,0.020366972435748053,1.007863627053668,0.40244569536997005,-1.1024857741333545,-1.504988752399385
2024-09-23 01:58:13.269707,43.15,8.516301,-0.013903160100075569,0.020366972435748053,1.007863627053668,0.40244569536997005,-1.0805987452771515,-1.4874562908612192
2024-09-23 01:58:13.281592,43.15,8.516301,-0.012439653414105056,0.019574312684975875,1.007863627053668,0.40244569536997005,-1.0805987452771515,-1.4874562908612192
2024-09-23 01:58:13.323875,43.15,8.516352,-0.009268807070700035,0.019574312684975875,1.0111565740587272,0.29306802074806765,-1.1462025222692638,-1.3824903330512346
2024-09-23 01:58:13.366785,43.15,8.516352,-0.009268807070700035,0.022440264713509,1.014022554947817,0.29306802074806765,-1.1462025222692638,-1.3824903330512346
2024-09-23 01:58:13.378555,43.15,8.516403,-0.009268807070700035,0.022440264713509,1.014022554947817,0.3324875378228724,-1.1068402347296475,-1.404320052330941
2024-09-23 01:58:13.421370,43.15,8.516403,-0.017013149402435646,0.02207441310513153,1.0119492611510794,0.29747979092085736,-1.0762442846808582,-1.3343619214642792
2024-09-23 01:58:13.464069,43.15,8.516491,-0.013842202047081654,0.02164760496273682,1.0119492611510794,0.29747979092085736,-1.0762442846808582,-1.3343619214642792
2024-09-23 01:58:13.475166,43.15,8.516491,-0.013842202047081654,0.02164760496273682,1.0143274196426437,0.35872900059493257,-1.1899764732599258,-1.3343619214642792
2024-09-23 01:58:13.518032,43.15,8.516543,-0.010183486217874026,0.01853761414140007,1.0122541258459061,0.3237212803733535,-1.1899764732599258,-1.483101830264926
2024-09-23 01:58:13.559802,43.15,8.516543,-0.010183486217874026,0.01853761414140007,1.0122541258459061,0.3237212803733535,-1.1287272635858505,-1.3999655917346479
2024-09-23 01:58:13.571632,43.15,8.516594,-0.012866564846913748,0.02207441310513153,1.0129859566567019,0.3237212803733535,-1.1287272635858505,-1.3999655917346479
2024-09-23 01:58:13.613773,43.15,8.516645,-0.012866564846913748,0.02207441310513153,1.0129859566567019,0.3849704900474288,-1.1549687530383468,-1.461214801408723
2024-09-23 01:58:13.626433,43.15,8.516645,-0.014147094083488534,0.02048899031317319,1.0129859566567019,0.3849704900474288,-1.1549687530383468,-1.461214801408723
2024-09-23 01:58:13.659096,43.15,8.516645,-0.014147094083488534,0.02048899031317319,1.0164007134393813,0.39373674749694765,-1.0805987452771515,-1.461214801408723
2024-09-23 01:58:13.670267,43.15,8.516695,-0.012073802565215924,0.02048899031317319,1.0164007134393813,0.39373674749694765,-1.0805987452771515,-1.413086283100024
2024-09-23 01:58:13.712461,43.15,8.516784,-0.012073802565215924,0.019879204721382753,1.0162788064472537,0.3062460483703762,-1.1462025222692638,-1.4787472629468887
2024-09-23 01:58:13.754655,43.15,8.516784,-0.009634658679077505,0.021281651582922046,1.0162788064472537,0.3062460483703762,-1.1462025222692638,-1.4787472629468887
2024-09-23 01:58:13.766609,43.15,8.516784,-0.009634658679077505,0.021281651582922046,1.011034569852092,0.37620423259790986,-1.2118635021161288,-1.518109550486505
2024-09-23 01:58:13.809649,43.15,8.516835,-0.011037206552565765,0.01975718684395762,1.0114614387535539,0.3193667930966243,-1.1287272635858505,-1.518109550486505
2024-09-23 01:58:13.853065,43.15,8.516886,-0.011037206552565765,0.01975718684395762,1.0114614387535539,0.3193667930966243,-1.1287272635858505,-1.434973311956227
2024-09-23 01:58:13.864878,43.15,8.516886,-0.012317737308117227,0.02164760496273682,1.0143883731387076,0.24935132597303017,-1.1287272635858505,-1.434973311956227
2024-09-23 01:58:13.908401,43.15,8.516937,-0.009329765883182288,0.01975718684395762,1.0143883731387076,0.24935132597303017,-1.0587118231426924,-1.3649578715130686
2024-09-23 01:58:13.920058,43.15,8.516937,-0.009329765883182288,0.01975718684395762,1.0143883731387076,0.24935132597303017,-1.0587118231426924,-1.3649578715130686
2024-09-23 01:58:13.952351,43.15,8.516937,-0.009329765883182288,0.01975718684395762,1.0143883731387076,0.29747979092085736,-1.0849533125951887,-1.3387163820605725
2024-09-23 01:58:13.964057,43.15,8.516987,-0.012012843752733671,0.018842507696783625,1.0143883731387076,0.29747979092085736,-1.0849533125951887,-1.3387163820605725
2024-09-23 01:58:14.006197,43.15,8.517038,-0.011159123418041933,0.018842507696783625,1.0135347325502915,0.3674952580444515,-1.1549687530383468,-1.404320052330941
2024-09-23 01:58:14.048906,43.15,8.517038,-0.011159123418041933,0.020245056329760223,1.0151811574455674,0.3193667930966243,-1.1549687530383468,-1.404320052330941
2024-09-23 01:58:14.060630,43.15,8.517125,-0.011159123418041933,0.020245056329760223,1.0151811574455674,0.3193667930966243,-1.1680894444037229,-1.4655692620050162
2024-09-23 01:58:14.103850,43.15,8.517125,-0.010366361136344109,0.01939133523558015,1.0121322188537785,0.37184974532118065,-1.0587118231426924,-1.5487055005352943
2024-09-23 01:58:14.146392,43.15,8.517176,-0.011098165365048018,0.01939133523558015,1.0121322188537785,0.37184974532118065,-1.0587118231426924,-1.5487055005352943
