Ayaan's Suite
Timestamp,Sample Rate (Hz),Time,Ax,Ay,Az,Gx,Gy,Gz
2024-09-23 22:34:22.642049,0,57.109534,0.0006466830067647949,-0.0224350561424862,0.09745075675933246,40.106058693909645,-92.24360919585227,80.21211738781929
2024-09-23 22:34:22.674712,0,57.109534,0.0005969341946851222,-0.0224350561424862,0.09745075675933246,40.106058693909645,-92.24360919585227,80.21211738781929
2024-09-23 22:34:22.686342,0,57.109534,0.0005969341946851222,-0.022833026512682618,0.0973015264147526,40.106058693909645,-96.25519929585457,72.1922225099802
2024-09-23 22:34:22.728433,0,57.109625,0.0013431148730772837,-0.02268379009219606,0.0973015264147526,40.106058693909645,-96.25519929585457,72.1922225099802
2024-09-23 22:34:22.740256,0,57.109625,0.0013431148730772837,-0.02268379009219606,0.09799795899308542,52.137550501942634,-92.24360919585227,72.1922225099802
2024-09-23 22:34:22.771917,0,57.109625,0.0013431148730772837,-0.02268379009219606,0.09799795899308542,52.137550501942634,-92.24360919585227,72.1922225099802
2024-09-23 22:34:22.783522,0,57.109677,0.0005471957306340564,-0.0228827638849692,0.09774922960030558,44.11764879391193,-92.24360919585227,72.1922225099802
2024-09-23 22:34:22.826373,0,57.109727,0.0005471957306340564,-0.0228827638849692,0.09774922960030558,44.11764879391193,-96.25519929585457,72.1922225099802
2024-09-23 22:34:22.878638,0,57.109727,0.0006964318663124887,-0.02263404056809607,0.0973512698629459,48.12595698684454,-96.25519929585457,76.200527287817
2024-09-23 22:34:22.920626,0,57.109778,0.0007461703303635545,-0.02263404056809607,0.0973512698629459,48.12595698684454,-96.25519929585457,76.200527287817
2024-09-23 22:34:22.932044,0,57.109778,0.0007461703303635545,-0.022484804147609512,0.09779897304849887,44.11764879391193,-92.24360919585227,76.200527287817
2024-09-23 22:34:22.974394,0,57.109829,0.000845657606494293,-0.02313149783467906,0.09715228999426605,44.11764879391193,-92.24360919585227,76.200527287817
2024-09-23 22:34:22.986440,0,57.109829,0.000845657606494293,-0.02313149783467906,0.09715228999426605,44.11764879391193,-92.24360919585227,76.200527287817
2024-09-23 22:34:23.018153,0,57.109829,0.000845657606494293,-0.02313149783467906,0.09715228999426605,44.11764879391193,-104.27510100388527,76.200527287817
2024-09-23 22:34:23.029378,0,57.109917,0.0006466830067647949,-0.02263404056809607,0.09779897304849887,44.11764879391193,-104.27510100388527,76.200527287817
2024-09-23 22:34:23.072913,0,57.109969,0.0006964318663124887,-0.02263404056809607,0.09779897304849887,48.12595698684454,-92.24360919585227,76.200527287817
2024-09-23 22:34:23.084416,0,57.109969,0.0006964318663124887,-0.02268379009219606,0.09779897304849887,48.12595698684454,-92.24360919585227,76.200527287817
2024-09-23 22:34:23.116928,0,57.109969,0.0006964318663124887,-0.02268379009219606,0.09779897304849887,44.11764879391193,-88.23529758782387,76.200527287817
2024-09-23 22:34:23.127887,0,57.110019,0.0004974468710863627,-0.02268379009219606,0.09779897304849887,44.11764879391193,-88.23529758782387,72.1922225099802
2024-09-23 22:34:23.170335,0,57.110112,0.0004974468710863627,-0.023230986250042305,0.09789846602079214,40.106058693909645,-100.26678939585686,76.200527287817
2024-09-23 22:34:23.212798,0,57.110112,0.000845657606494293,-0.0225345536717095,0.09789846602079214,40.106058693909645,-100.26678939585686,76.200527287817
2024-09-23 22:34:23.224080,0,57.110112,0.000845657606494293,-0.0225345536717095,0.0973015264147526,40.106058693909645,-96.25519929585457,76.200527287817
2024-09-23 22:34:23.266313,0,57.110164,0.0007461703303635545,-0.02313149783467906,0.09715228999426605,40.106058693909645,-96.25519929585457,76.200527287817
2024-09-23 22:34:23.278987,0,57.110164,0.0007461703303635545,-0.02313149783467906,0.09715228999426605,40.106058693909645,-92.24360919585227,76.200527287817
2024-09-23 22:34:23.311713,0,57.110214,0.0007461703303635545,-0.02313149783467906,0.09715228999426605,40.106058693909645,-92.24360919585227,80.21211738781929
2024-09-23 22:34:23.322956,0,57.110214,0.00044769805900669,-0.023330473146428877,0.09750050628343246,44.11764879391193,-92.24360919585227,80.21211738781929
2024-09-23 22:34:23.365657,0,57.110265,0.0005969341946851222,-0.022733528983459317,0.0976994861521123,44.11764879391193,-96.25519929585457,76.200527287817
2024-09-23 22:34:23.407849,0,57.110265,0.0005969341946851222,-0.022733528983459317,0.0976994861521123,40.106058693909645,-96.25519929585457,76.200527287817
2024-09-23 22:34:23.419757,0,57.110316,0.001442602149208022,-0.02268379009219606,0.0976994861521123,40.106058693909645,-96.25519929585457,84.22370748782159
2024-09-23 22:34:23.462559,0,57.110366,0.001442602149208022,-0.02268379009219606,0.09789846602079214,44.11764879391193,-96.25519929585457,76.200527287817
2024-09-23 22:34:23.474753,0,57.110366,0.0009948937421727254,-0.02268379009219606,0.09789846602079214,44.11764879391193,-96.25519929585457,76.200527287817
2024-09-23 22:34:23.506612,0,57.110366,0.0009948937421727254,-0.02303200030545576,0.09755024973162574,44.11764879391193,-96.25519929585457,76.200527287817
2024-09-23 22:34:23.517697,0,57.110454,0.0009948937421727254,-0.02303200030545576,0.09755024973162574,32.08287849390507,-92.24360919585227,76.200527287817
2024-09-23 22:34:23.560307,0,57.110454,0.0007959191899112484,-0.023579196463302005,0.09779897304849887,40.106058693909645,-92.24360919585227,76.200527287817
2024-09-23 22:34:23.602910,0,57.110505,0.0005969341946851222,-0.023579196463302005,0.09779897304849887,40.106058693909645,-92.24360919585227,76.200527287817
2024-09-23 22:34:23.614556,0,57.110505,0.0005969341946851222,-0.02338022115155219,0.09720203344245934,36.09446859390736,-96.25519929585457,76.200527287817
2024-09-23 22:34:23.657298,43.83,57.110556,0.0011441298778511575,-0.022982261414192504,0.09750050628343246,40.106058693909645,-96.25519929585457,76.200527287817
2024-09-23 22:34:23.700564,43.83,57.110556,0.0011441298778511575,-0.022982261414192504,0.09750050628343246,40.106058693909645,-96.25519929585457,76.200527287817
2024-09-23 22:34:23.711716,43.83,57.110606,0.0005969341946851222,-0.02268379009219606,0.09764974270391902,40.106058693909645,-96.25519929585457,76.200527287817
2024-09-23 22:34:23.754350,43.83,57.110657,0.000845657606494293,-0.02268379009219606,0.09764974270391902,36.09446859390736,-100.26678939585686,76.200527287817
2024-09-23 22:34:23.766425,43.83,57.110657,0.000845657606494293,-0.023230986250042305,0.09764974270391902,36.09446859390736,-100.26678939585686,76.200527287817
2024-09-23 22:34:23.798587,43.83,57.110657,0.000845657606494293,-0.023230986250042305,0.09774922960030558,36.09446859390736,-100.26678939585686,76.200527287817
2024-09-23 22:34:23.810100,43.83,57.110708,0.0007461703303635545,-0.023230986250042305,0.09774922960030558,36.09446859390736,-92.24360919585227,72.1922225099802
2024-09-23 22:34:23.853039,43.83,57.110708,0.0007461703303635545,-0.02268379009219606,0.09759999317981902,44.11764879391193,-92.24360919585227,72.1922225099802
2024-09-23 22:34:23.896238,43.83,57.110708,0.0007461703303635545,-0.02268379009219606,0.09759999317981902,44.11764879391193,-92.24360919585227,76.200527287817
2024-09-23 22:34:23.908117,43.83,57.110795,0.0009948937421727254,-0.0228827638849692,0.09750050628343246,44.11764879391193,-92.24360919585227,76.200527287817
2024-09-23 22:34:23.951272,43.83,57.110846,0.0004974468710863627,-0.022584292562972758,0.09750050628343246,44.11764879391193,-92.24360919585227,72.1922225099802
2024-09-23 22:34:23.993637,43.83,57.110846,0.0004974468710863627,-0.022584292562972758,0.09809744588947199,48.12595698684454,-92.24360919585227,72.1922225099802
2024-09-23 22:34:24.005561,43.83,57.110897,0.0008954064660419869,-0.022584292562972758,0.09809744588947199,48.12595698684454,-88.23529758782387,72.1922225099802
2024-09-23 22:34:24.048909,43.83,57.110948,0.0008954064660419869,-0.023429960042815445,0.09784872257259886,32.08287849390507,-96.25519929585457,80.21211738781929
2024-09-23 22:34:24.092257,43.83,57.110948,0.0005471957306340564,-0.02308174982955575,0.09759999317981902,32.08287849390507,-96.25519929585457,80.21211738781929
2024-09-23 22:34:24.103783,43.83,57.110948,0.0005471957306340564,-0.02308174982955575,0.09759999317981902,44.11764879391193,-92.24360919585227,80.21211738781929
2024-09-23 22:34:24.146380,43.83,57.111039,0.0007461703303635545,-0.02303200030545576,0.09690356060148622,52.137550501942634,-92.24360919585227,80.21211738781929
2024-09-23 22:34:24.190066,43.83,57.11109,0.0006466830067647949,-0.02303200030545576,0.09690356060148622,52.137550501942634,-92.24360919585227,80.21211738781929
2024-09-23 22:34:24.201593,43.83,57.11109,0.0006466830067647949,-0.023330473146428877,0.09809744588947199,40.106058693909645,-92.24360919585227,80.21211738781929
2024-09-23 22:34:24.244275,43.83,57.111141,0.0006466830067647949,-0.0228827638849692,0.09725178296655933,40.106058693909645,-100.26678939585686,76.200527287817
2024-09-23 22:34:24.287094,43.83,57.111141,0.0006466830067647949,-0.0228827638849692,0.09725178296655933,48.12595698684454,-84.22370748782159,76.200527287817
2024-09-23 22:34:24.299411,43.83,57.111192,0.0007461703303635545,-0.023429960042815445,0.09725178296655933,48.12595698684454,-84.22370748782159,80.21211738781929
2024-09-23 22:34:24.331908,43.83,57.111192,0.0007461703303635545,-0.023429960042815445,0.09725178296655933,48.12595698684454,-84.22370748782159,80.21211738781929
2024-09-23 22:34:24.343530,43.83,57.111242,0.0006466830067647949,-0.023429960042815445,0.09725178296655933,48.12595698684454,-96.25519929585457,72.1922225099802
2024-09-23 22:34:24.386564,43.83,57.111242,0.0006466830067647949,-0.02268379009219606,0.09764974270391902,40.106058693909645,-96.25519929585457,72.1922225099802
2024-09-23 22:34:24.397569,43.83,57.111331,0.0006466830067647949,-0.02268379009219606,0.09764974270391902,40.106058693909645,-96.25519929585457,76.200527287817
2024-09-23 22:34:24.429775,43.83,57.111331,0.001044642601720419,-0.02268379009219606,0.09764974270391902,40.106058693909645,-96.25519929585457,76.200527287817
2024-09-23 22:34:24.441002,43.83,57.111331,0.001044642601720419,-0.02308174982955575,0.09774922960030558,44.11764879391193,-104.27510100388527,72.1922225099802
2024-09-23 22:34:24.483281,43.83,57.111383,0.0005471957306340564,-0.022833026512682618,0.09759999317981902,44.11764879391193,-104.27510100388527,72.1922225099802
2024-09-23 22:34:24.494666,43.83,57.111383,0.0005471957306340564,-0.022833026512682618,0.09759999317981902,40.106058693909645,-92.24360919585227,72.1922225099802
2024-09-23 22:34:24.536914,43.83,57.111433,0.0005471957306340564,-0.02293251340906919,0.09784872257259886,56.14914060194492,-92.24360919585227,80.21211738781929
2024-09-23 22:34:24.580183,43.83,57.111433,0.0005471957306340564,-0.02293251340906919,0.09784872257259886,56.14914060194492,-92.24360919585227,76.200527287817
2024-09-23 22:34:24.591522,43.83,57.111484,0.0005969341946851222,-0.023280723622328886,0.0973015264147526,56.14914060194492,-92.24360919585227,76.200527287817
2024-09-23 22:34:24.633879,43.83,57.111535,0.0005969341946851222,-0.023181236725942318,0.0973015264147526,56.14914060194492,-92.24360919585227,72.1922225099802
2024-09-23 22:34:24.675739,42.53,57.111535,0.0005969341946851222,-0.023181236725942318,0.0973015264147526,40.106058693909645,-92.24360919585227,72.1922225099802
2024-09-23 22:34:24.687539,42.53,57.111585,0.0007959191899112484,-0.023181236725942318,0.0973015264147526,40.106058693909645,-96.25519929585457,72.1922225099802
2024-09-23 22:34:24.729723,42.53,57.111672,0.0007959191899112484,-0.02303200030545576,0.09799795899308542,44.11764879391193,-92.24360919585227,76.200527287817
2024-09-23 22:34:24.772183,42.53,57.111672,0.0005471957306340564,-0.02303200030545576,0.09799795899308542,44.11764879391193,-92.24360919585227,76.200527287817
2024-09-23 22:34:24.783252,42.53,57.111672,0.0005471957306340564,-0.02303200030545576,0.098047696365372,36.09446859390736,-100.26678939585686,80.21211738781929
2024-09-23 22:34:24.826227,42.53,57.111724,0.0005969341946851222,-0.02308174982955575,0.0976994861521123,44.11764879391193,-100.26678939585686,80.21211738781929
2024-09-23 22:34:24.838050,42.53,57.111724,0.0005969341946851222,-0.02308174982955575,0.0976994861521123,44.11764879391193,-92.24360919585227,80.21211738781929
2024-09-23 22:34:24.870531,42.53,57.111774,0.0005969341946851222,-0.02308174982955575,0.0976994861521123,44.11764879391193,-92.24360919585227,76.200527287817
2024-09-23 22:34:24.882116,42.53,57.111774,0.0008954064660419869,-0.02303200030545576,0.0976994861521123,44.11764879391193,-92.24360919585227,76.200527287817
2024-09-23 22:34:24.924923,42.53,57.111825,0.0008954064660419869,-0.02303200030545576,0.09789846602079214,48.12595698684454,-84.22370748782159,72.1922225099802
2024-09-23 22:34:24.937212,42.53,57.111825,0.0007959191899112484,-0.02303200030545576,0.09789846602079214,48.12595698684454,-84.22370748782159,72.1922225099802
2024-09-23 22:34:24.970289,42.53,57.111825,0.0007959191899112484,-0.022982261414192504,0.09745075675933246,48.12595698684454,-84.22370748782159,72.1922225099802
2024-09-23 22:34:24.982261,42.53,57.111876,0.0007959191899112484,-0.022982261414192504,0.09745075675933246,48.12595698684454,-88.23529758782387,72.1922225099802
2024-09-23 22:34:25.025177,42.53,57.111876,0.00014922575204880957,-0.02268379009219606,0.0973015264147526,44.11764879391193,-92.24360919585227,72.1922225099802
2024-09-23 22:34:25.067388,42.53,57.111926,0.0009948937421727254,-0.022733528983459317,0.0973015264147526,44.11764879391193,-92.24360919585227,72.1922225099802
2024-09-23 22:34:25.078820,42.53,57.111926,0.0009948937421727254,-0.022733528983459317,0.09695331012558621,40.106058693909645,-88.23529758782387,72.1922225099802
2024-09-23 22:34:25.121281,42.53,57.112014,0.0012436275969465451,-0.02268379009219606,0.09764974270391902,36.09446859390736,-88.23529758782387,72.1922225099802
2024-09-23 22:34:25.164573,42.53,57.112065,0.0012436275969465451,-0.02268379009219606,0.09764974270391902,36.09446859390736,-96.25519929585457,72.1922225099802
2024-09-23 22:34:25.176156,42.53,57.112065,0.0005969341946851222,-0.02303200030545576,0.09799795899308542,36.09446859390736,-96.25519929585457,72.1922225099802
2024-09-23 22:34:25.219236,42.53,57.112116,0.0013928637326249774,-0.02313149783467906,0.09799795899308542,44.11764879391193,-92.24360919585227,76.200527287817
2024-09-23 22:34:25.262504,42.53,57.112116,0.0013928637326249774,-0.02313149783467906,0.09750050628343246,48.12595698684454,-88.23529758782387,76.200527287817
2024-09-23 22:34:25.273940,42.53,57.112166,0.00034821073540793035,-0.02313149783467906,0.09750050628343246,48.12595698684454,-88.23529758782387,68.18063240997792
2024-09-23 22:34:25.316376,42.53,57.112257,0.00034821073540793035,-0.02293251340906919,0.09764974270391902,40.106058693909645,-92.24360919585227,80.21211738781929
2024-09-23 22:34:25.359537,42.53,57.112257,0.0005969341946851222,-0.022982261414192504,0.09809744588947199,40.106058693909645,-92.24360919585227,80.21211738781929
2024-09-23 22:34:25.370568,42.53,57.112257,0.0005969341946851222,-0.022982261414192504,0.09809744588947199,36.09446859390736,-108.28669110388756,72.1922225099802
2024-09-23 22:34:25.412814,42.53,57.112309,0.0003979595949556242,-0.0225345536717095,0.09720203344245934,40.106058693909645,-96.25519929585457,72.1922225099802
2024-09-23 22:34:25.454909,42.53,57.112359,0.0003979595949556242,-0.0225345536717095,0.09720203344245934,40.106058693909645,-96.25519929585457,72.1922225099802
2024-09-23 22:34:25.466956,42.53,57.112359,0.001044642601720419,-0.0225345536717095,0.09720203344245934,40.106058693909645,-96.25519929585457,72.1922225099802
2024-09-23 22:34:25.509404,42.53,57.112359,0.001044642601720419,-0.02352945757203875,0.09740101331113918,44.11764879391193,-100.26678939585686,72.1922225099802
2024-09-23 22:34:25.521595,42.53,57.11241,0.001044642601720419,-0.02352945757203875,0.09740101331113918,44.11764879391193,-100.26678939585686,72.1922225099802
2024-09-23 22:34:25.554956,42.53,57.11241,0.0009451553255896806,-0.023280723622328886,0.09784872257259886,44.11764879391193,-100.26678939585686,72.1922225099802
2024-09-23 22:34:25.566231,42.53,57.11241,0.0009451553255896806,-0.023280723622328886,0.09784872257259886,48.12595698684454,-96.25519929585457,76.200527287817
2024-09-23 22:34:25.609901,42.53,57.112461,0.0005471957306340564,-0.023330473146428877,0.09799795899308542,56.14914060194492,-92.24360919585227,76.200527287817
2024-09-23 22:34:25.652006,42.53,57.112512,0.000845657606494293,-0.023330473146428877,0.09799795899308542,56.14914060194492,-92.24360919585227,72.1922225099802
2024-09-23 22:34:25.663681,42.53,57.112512,0.000845657606494293,-0.0228827638849692,0.09764974270391902,32.08287849390507,-92.24360919585227,72.1922225099802
2024-09-23 22:34:25.705407,42.28,57.112598,0.00044769805900669,-0.02293251340906919,0.0973512698629459,32.08287849390507,-92.24360919585227,80.21211738781929
2024-09-23 22:34:25.747791,42.28,57.112598,0.00044769805900669,-0.02293251340906919,0.0973512698629459,36.09446859390736,-96.25519929585457,80.21211738781929
2024-09-23 22:34:25.759389,42.28,57.11265,0.0008954064660419869,-0.023330473146428877,0.0973512698629459,36.09446859390736,-96.25519929585457,80.21211738781929
2024-09-23 22:34:25.801792,42.28,57.112701,0.0008954064660419869,-0.023330473146428877,0.09809744588947199,40.106058693909645,-92.24360919585227,72.1922225099802
2024-09-23 22:34:25.813906,42.28,57.112701,0.000845657606494293,-0.023330473146428877,0.09809744588947199,40.106058693909645,-92.24360919585227,72.1922225099802
2024-09-23 22:34:25.847774,42.28,57.112701,0.000845657606494293,-0.02268379009219606,0.09740101331113918,40.106058693909645,-92.24360919585227,72.1922225099802
2024-09-23 22:34:25.859864,42.28,57.112794,0.000845657606494293,-0.02268379009219606,0.09740101331113918,40.106058693909645,-96.25519929585457,76.200527287817
2024-09-23 22:34:25.891871,42.28,57.112794,0.00044769805900669,-0.02268379009219606,0.09740101331113918,40.106058693909645,-96.25519929585457,76.200527287817
2024-09-23 22:34:25.903385,42.28,57.112794,0.00044769805900669,-0.023230986250042305,0.09755024973162574,40.106058693909645,-96.25519929585457,76.200527287817
2024-09-23 22:34:25.945782,42.28,57.112845,0.0012436275969465451,-0.023230986250042305,0.09755024973162574,40.106058693909645,-96.25519929585457,84.22370748782159
2024-09-23 22:34:25.957331,42.28,57.112845,0.0012436275969465451,-0.02303200030545576,0.09814718933766527,40.106058693909645,-96.25519929585457,84.22370748782159
2024-09-23 22:34:25.990542,42.28,57.112845,0.0012436275969465451,-0.02303200030545576,0.09814718933766527,40.106058693909645,-96.25519929585457,84.22370748782159
2024-09-23 22:34:26.001764,42.28,57.112896,0.0009948937421727254,-0.02278327698858263,0.09814718933766527,40.106058693909645,-92.24360919585227,76.200527287817
2024-09-23 22:34:26.044037,42.28,57.112896,0.0009948937421727254,-0.02278327698858263,0.09794820946898543,48.12595698684454,-96.25519929585457,72.1922225099802
2024-09-23 22:34:26.055141,42.28,57.112946,0.0005969341946851222,-0.02278327698858263,0.09794820946898543,48.12595698684454,-96.25519929585457,72.1922225099802
2024-09-23 22:34:26.090128,42.28,57.112946,0.0005969341946851222,-0.022484804147609512,0.09824668230995855,48.12595698684454,-96.25519929585457,72.1922225099802
2024-09-23 22:34:26.101627,42.28,57.112997,0.0005969341946851222,-0.022484804147609512,0.09824668230995855,48.12595698684454,-96.25519929585457,72.1922225099802
2024-09-23 22:34:26.144793,42.28,57.112997,0.0011441298778511575,-0.022982261414192504,0.09764974270391902,36.09446859390736,-88.23529758782387,84.22370748782159
2024-09-23 22:34:26.187941,42.28,57.113087,0.000845657606494293,-0.02303200030545576,0.09764974270391902,36.09446859390736,-88.23529758782387,84.22370748782159
2024-09-23 22:34:26.200039,42.28,57.113087,0.000845657606494293,-0.02303200030545576,0.09725178296655933,40.106058693909645,-96.25519929585457,84.22370748782159
2024-09-23 22:34:26.242648,42.28,57.113138,0.0008954064660419869,-0.023280723622328886,0.09750050628343246,44.11764879391193,-96.25519929585457,72.1922225099802
2024-09-23 22:34:26.285092,42.28,57.113138,0.0008954064660419869,-0.023280723622328886,0.09750050628343246,44.11764879391193,-92.24360919585227,72.1922225099802
2024-09-23 22:34:26.296796,42.28,57.113189,0.0009451553255896806,-0.02303200030545576,0.09715228999426605,44.11764879391193,-92.24360919585227,72.1922225099802
2024-09-23 22:34:26.340357,42.28,57.113239,0.0007461703303635545,-0.02303200030545576,0.09715228999426605,44.11764879391193,-92.24360919585227,80.21211738781929
2024-09-23 22:34:26.383328,42.28,57.113239,0.0007461703303635545,-0.02303200030545576,0.0973512698629459,44.11764879391193,-92.24360919585227,80.21211738781929
2024-09-23 22:34:26.395176,42.28,57.11329,0.00044769805900669,-0.02303200030545576,0.0973512698629459,44.11764879391193,-92.24360919585227,72.1922225099802
2024-09-23 22:34:26.437684,42.28,57.113379,0.00044769805900669,-0.02268379009219606,0.09715228999426605,44.11764879391193,-96.25519929585457,76.200527287817
2024-09-23 22:34:26.480887,42.28,57.113379,0.0007461703303635545,-0.022484804147609512,0.09740101331113918,44.11764879391193,-96.25519929585457,76.200527287817
2024-09-23 22:34:26.492116,42.28,57.113379,0.0007461703303635545,-0.022484804147609512,0.09740101331113918,44.11764879391193,-100.26678939585686,80.21211738781929
2024-09-23 22:34:26.533982,42.28,57.11343,-4.973845218406054e-05,-0.02303200030545576,0.09779897304849887,44.11764879391193,-96.25519929585457,80.21211738781929
2024-09-23 22:34:26.576428,42.28,57.113481,-4.973845218406054e-05,-0.02303200030545576,0.09779897304849887,44.11764879391193,-96.25519929585457,80.21211738781929
2024-09-23 22:34:26.588630,42.28,57.113481,0.0010943914612681128,-0.022982261414192504,0.09759999317981902,40.106058693909645,-96.25519929585457,80.21211738781929
2024-09-23 22:34:26.631200,42.28,57.113531,0.00024872343554318134,-0.02303200030545576,0.09759999317981902,40.106058693909645,-92.24360919585227,80.21211738781929
2024-09-23 22:34:26.642917,42.28,57.113531,0.00024872343554318134,-0.02303200030545576,0.09750050628343246,40.106058693909645,-92.24360919585227,80.21211738781929
2024-09-23 22:34:26.676161,42.28,57.113531,0.00024872343554318134,-0.02303200030545576,0.09750050628343246,36.09446859390736,-92.24360919585227,80.21211738781929
2024-09-23 22:34:26.687954,42.28,57.113582,0.00024872343554318134,-0.02303200030545576,0.09750050628343246,36.09446859390736,-92.24360919585227,80.21211738781929
2024-09-23 22:34:26.720709,42.79,57.113582,0.0006466830067647949,-0.02303200030545576,0.09750050628343246,36.09446859390736,-92.24360919585227,80.21211738781929
2024-09-23 22:34:26.732262,42.79,57.113582,0.0006466830067647949,-0.022833026512682618,0.0973512698629459,44.11764879391193,-92.24360919585227,80.21211738781929
2024-09-23 22:34:26.776127,42.79,57.113633,0.0009451553255896806,-0.02308174982955575,0.0973512698629459,36.09446859390736,-92.24360919585227,80.21211738781929
2024-09-23 22:34:26.787807,42.79,57.113633,0.0009451553255896806,-0.02308174982955575,0.0973512698629459,36.09446859390736,-96.25519929585457,80.21211738781929
2024-09-23 22:34:26.820075,42.79,57.113633,0.0009451553255896806,-0.02308174982955575,0.0973512698629459,36.09446859390736,-96.25519929585457,80.21211738781929
2024-09-23 22:34:26.833866,42.79,57.11372,0.0005969341946851222,-0.02303200030545576,0.09685382322919964,44.11764879391193,-96.25519929585457,80.21211738781929
2024-09-23 22:34:26.877318,42.79,57.113771,0.0008954064660419869,-0.022584292562972758,0.0973015264147526,44.11764879391193,-88.23529758782387,76.200527287817
2024-09-23 22:34:26.919736,42.79,57.113771,0.0008954064660419869,-0.022584292562972758,0.0973015264147526,48.12595698684454,-96.25519929585457,76.200527287817
2024-09-23 22:34:26.931306,42.79,57.113822,0.0007959191899112484,-0.022584292562972758,0.0973015264147526,48.12595698684454,-96.25519929585457,76.200527287817
2024-09-23 22:34:26.974974,42.79,57.113873,0.0007959191899112484,-0.02293251340906919,0.09755024973162574,52.137550501942634,-100.26678939585686,76.200527287817
2024-09-23 22:34:27.017562,42.79,57.113873,0.0006466830067647949,-0.022982261414192504,0.09740101331113918,52.137550501942634,-100.26678939585686,76.200527287817
2024-09-23 22:34:27.029161,42.79,57.113873,0.0006466830067647949,-0.022982261414192504,0.09740101331113918,40.106058693909645,-100.26678939585686,72.1922225099802
2024-09-23 22:34:27.071414,42.79,57.113964,0.000845657606494293,-0.0224350561424862,0.09764974270391902,40.106058693909645,-100.26678939585686,72.1922225099802
2024-09-23 22:34:27.115052,42.79,57.113964,0.000845657606494293,-0.0224350561424862,0.09764974270391902,48.12595698684454,-100.26678939585686,76.200527287817
2024-09-23 22:34:27.126337,42.79,57.114016,0.0007461703303635545,-0.023230986250042305,0.09764974270391902,48.12595698684454,-100.26678939585686,76.200527287817
2024-09-23 22:34:27.168954,42.79,57.114066,0.0006964318663124887,-0.023230986250042305,0.09720203344245934,52.137550501942634,-92.24360919585227,80.21211738781929
2024-09-23 22:34:27.212682,42.79,57.114066,0.0006964318663124887,-0.023280723622328886,0.09725178296655933,40.106058693909645,-92.24360919585227,80.21211738781929
2024-09-23 22:34:27.224956,42.79,57.114117,0.0006964318663124887,-0.023280723622328886,0.09725178296655933,40.106058693909645,-92.24360919585227,80.21211738781929
2024-09-23 22:34:27.257345,42.79,57.114117,0.0007959191899112484,-0.023280723622328886,0.09725178296655933,40.106058693909645,-92.24360919585227,80.21211738781929
2024-09-23 22:34:27.268625,42.79,57.114117,0.0007959191899112484,-0.02303200030545576,0.0973512698629459,40.106058693909645,-100.26678939585686,80.21211738781929
2024-09-23 22:34:27.310969,42.79,57.114168,0.0005471957306340564,-0.02308174982955575,0.09690356060148622,40.106058693909645,-100.26678939585686,80.21211738781929
2024-09-23 22:34:27.322191,42.79,57.114168,0.0005471957306340564,-0.02308174982955575,0.09690356060148622,48.12595698684454,-96.25519929585457,80.21211738781929
2024-09-23 22:34:27.354636,42.79,57.114168,0.0005471957306340564,-0.02308174982955575,0.09690356060148622,48.12595698684454,-96.25519929585457,76.200527287817
2024-09-23 22:34:27.365935,42.79,57.114257,0.0011441298778511575,-0.02338022115155219,0.09690356060148622,52.137550501942634,-96.25519929585457,76.200527287817
2024-09-23 22:34:27.408848,42.79,57.114308,0.0005471957306340564,-0.02338022115155219,0.09690356060148622,52.137550501942634,-88.23529758782387,76.200527287817
2024-09-23 22:34:27.420858,42.79,57.114308,0.0005471957306340564,-0.02303200030545576,0.09750050628343246,52.137550501942634,-88.23529758782387,76.200527287817
2024-09-23 22:34:27.454916,42.79,57.114308,0.0005471957306340564,-0.02303200030545576,0.09750050628343246,44.11764879391193,-88.23529758782387,76.200527287817
2024-09-23 22:34:27.466610,42.79,57.114359,0.0005471957306340564,-0.023479709566915436,0.09750050628343246,44.11764879391193,-88.23529758782387,84.22370748782159
2024-09-23 22:34:27.508682,42.79,57.11441,0.0005471957306340564,-0.023479709566915436,0.09784872257259886,40.106058693909645,-92.24360919585227,80.21211738781929
2024-09-23 22:34:27.520415,42.79,57.11441,0.0012933660135295898,-0.023479709566915436,0.09784872257259886,40.106058693909645,-92.24360919585227,80.21211738781929
2024-09-23 22:34:27.552073,42.79,57.11441,0.0012933660135295898,-0.023230986250042305,0.0973015264147526,40.106058693909645,-92.24360919585227,80.21211738781929
2024-09-23 22:34:27.563506,42.79,57.1145,0.0012933660135295898,-0.023230986250042305,0.0973015264147526,44.11764879391193,-92.24360919585227,72.1922225099802
2024-09-23 22:34:27.608439,42.79,57.1145,0.0007461703303635545,-0.023181236725942318,0.09774922960030558,40.106058693909645,-92.24360919585227,80.21211738781929
2024-09-23 22:34:27.652564,42.79,57.114551,0.0006964318663124887,-0.023330473146428877,0.09715228999426605,40.106058693909645,-92.24360919585227,80.21211738781929
2024-09-23 22:34:27.664610,42.79,57.114551,0.0006964318663124887,-0.023330473146428877,0.09715228999426605,44.11764879391193,-96.25519929585457,80.21211738781929
2024-09-23 22:34:27.698253,42.79,57.114602,0.0006964318663124887,-0.023330473146428877,0.09715228999426605,44.11764879391193,-96.25519929585457,80.21211738781929
2024-09-23 22:34:27.709702,42.79,57.114602,0.000845657606494293,-0.02313149783467906,0.09794820946898543,48.12595698684454,-96.25519929585457,80.21211738781929
2024-09-23 22:34:27.752949,42.95,57.114653,0.00029846189959424716,-0.02313149783467906,0.09779897304849887,48.12595698684454,-96.25519929585457,68.18063240997792
2024-09-23 22:34:27.796146,42.95,57.114653,0.00029846189959424716,-0.02313149783467906,0.09779897304849887,36.09446859390736,-96.25519929585457,68.18063240997792
2024-09-23 22:34:27.808337,42.95,57.114703,0.0007959191899112484,-0.02303200030545576,0.09779897304849887,36.09446859390736,-96.25519929585457,80.21211738781929
2024-09-23 22:34:27.851489,42.95,57.114754,0.001044642601720419,-0.02303200030545576,0.09720203344245934,40.106058693909645,-92.24360919585227,80.21211738781929
2024-09-23 22:34:27.894855,42.95,57.114754,0.001044642601720419,-0.023479709566915436,0.09695331012558621,44.11764879391193,-92.24360919585227,80.21211738781929
2024-09-23 22:34:27.906341,42.95,57.114841,0.001044642601720419,-0.023479709566915436,0.09695331012558621,44.11764879391193,-92.24360919585227,80.21211738781929
2024-09-23 22:34:27.949133,42.95,57.114841,0.0005969341946851222,-0.02278327698858263,0.09809744588947199,44.11764879391193,-100.26678939585686,76.200527287817
2024-09-23 22:34:27.991653,42.95,57.114893,0.0006964318663124887,-0.023728432883788564,0.09809744588947199,44.11764879391193,-100.26678939585686,76.200527287817
2024-09-23 22:34:28.002944,42.95,57.114893,0.0006964318663124887,-0.023728432883788564,0.09750050628343246,40.106058693909645,-92.24360919585227,76.200527287817
2024-09-23 22:34:28.046612,42.95,57.114943,0.0006964318663124887,-0.023330473146428877,0.09705279702197278,52.137550501942634,-92.24360919585227,72.1922225099802
2024-09-23 22:34:28.089771,42.95,57.114994,0.0006964318663124887,-0.023330473146428877,0.09705279702197278,52.137550501942634,-92.24360919585227,72.1922225099802
2024-09-23 22:34:28.101060,42.95,57.114994,0.0006964318663124887,-0.022733528983459317,0.09794820946898543,52.137550501942634,-92.24360919585227,72.1922225099802
2024-09-23 22:34:28.143921,42.95,57.115045,0.0014923510087557158,-0.02303200030545576,0.09794820946898543,40.106058693909645,-88.23529758782387,80.21211738781929
2024-09-23 22:34:28.186785,42.95,57.115045,0.0014923510087557158,-0.02303200030545576,0.09799795899308542,48.12595698684454,-88.23529758782387,80.21211738781929
2024-09-23 22:34:28.199033,42.95,57.115095,0.0008954064660419869,-0.02303200030545576,0.09799795899308542,48.12595698684454,-88.23529758782387,80.21211738781929
2024-09-23 22:34:28.241407,42.95,57.115182,0.0008954064660419869,-0.023230986250042305,0.09755024973162574,44.11764879391193,-92.24360919585227,68.18063240997792
2024-09-23 22:34:28.284805,42.95,57.115182,0.0011441298778511575,-0.02303200030545576,0.09779897304849887,44.11764879391193,-92.24360919585227,68.18063240997792
2024-09-23 22:34:28.296241,42.95,57.115182,0.0011441298778511575,-0.02303200030545576,0.09779897304849887,44.11764879391193,-92.24360919585227,72.1922225099802
2024-09-23 22:34:28.339533,42.95,57.115234,0.0006466830067647949,-0.023181236725942318,0.0976994861521123,44.11764879391193,-96.25519929585457,72.1922225099802
2024-09-23 22:34:28.382189,42.95,57.115285,0.0011441298778511575,-0.023181236725942318,0.0976994861521123,44.11764879391193,-96.25519929585457,72.1922225099802
2024-09-23 22:34:28.393662,42.95,57.115285,0.0011441298778511575,-0.02263404056809607,0.09755024973162574,40.106058693909645,-96.25519929585457,72.1922225099802
2024-09-23 22:34:28.436428,42.95,57.115335,0.0005969341946851222,-0.02338022115155219,0.09764974270391902,40.106058693909645,-92.24360919585227,72.1922225099802
2024-09-23 22:34:28.479921,42.95,57.115335,0.0005969341946851222,-0.02338022115155219,0.09764974270391902,40.106058693909645,-88.23529758782387,76.200527287817
2024-09-23 22:34:28.491231,42.95,57.115386,0.0001989745997294981,-0.022833026512682618,0.09764974270391902,40.106058693909645,-88.23529758782387,76.200527287817
2024-09-23 22:34:28.533948,42.95,57.115436,0.0001989745997294981,-0.022833026512682618,0.09759999317981902,36.09446859390736,-88.23529758782387,80.21211738781929
2024-09-23 22:34:28.545359,42.95,57.115436,0.0007959191899112484,-0.022833026512682618,0.09759999317981902,36.09446859390736,-88.23529758782387,80.21211738781929
2024-09-23 22:34:28.578550,42.95,57.115436,0.0007959191899112484,-0.02313149783467906,0.09755024973162574,40.106058693909645,-88.23529758782387,80.21211738781929
2024-09-23 22:34:28.589654,42.95,57.115524,0.0007959191899112484,-0.02313149783467906,0.09755024973162574,40.106058693909645,-92.24360919585227,72.1922225099802
2024-09-23 22:34:28.622153,42.95,57.115524,0.00024872343554318134,-0.02313149783467906,0.09755024973162574,40.106058693909645,-92.24360919585227,72.1922225099802
2024-09-23 22:34:28.633713,42.95,57.115524,0.00024872343554318134,-0.023181236725942318,0.09799795899308542,36.09446859390736,-96.25519929585457,76.200527287817
2024-09-23 22:34:28.675560,42.95,57.115575,0.000845657606494293,-0.023230986250042305,0.09799795899308542,36.09446859390736,-96.25519929585457,76.200527287817
2024-09-23 22:34:28.686781,42.95,57.115575,0.000845657606494293,-0.023230986250042305,0.09759999317981902,32.08287849390507,-84.22370748782159,76.200527287817
2024-09-23 22:34:28.730904,42.95,57.115626,0.00044769805900669,-0.02338022115155219,0.09779897304849887,32.08287849390507,-84.22370748782159,84.22370748782159
2024-09-23 22:34:28.773053,42.49,57.115676,0.0007461703303635545,-0.02338022115155219,0.09779897304849887,32.08287849390507,-88.23529758782387,80.21211738781929
2024-09-23 22:34:28.784974,42.49,57.115676,0.0007461703303635545,-0.023181236725942318,0.09715228999426605,32.08287849390507,-88.23529758782387,80.21211738781929
2024-09-23 22:34:28.816805,42.49,57.115676,0.0007461703303635545,-0.023181236725942318,0.09715228999426605,40.106058693909645,-88.23529758782387,80.21211738781929
2024-09-23 22:34:28.828207,42.49,57.115727,0.0005969341946851222,-0.023280723622328886,0.09715228999426605,40.106058693909645,-96.25519929585457,76.200527287817
2024-09-23 22:34:28.921908,42.49,57.115778,0.0005969341946851222,-0.023280723622328886,0.09715228999426605,48.12595698684454,-96.25519929585457,80.21211738781929
2024-09-23 22:34:28.934115,42.49,57.115778,0.0007959191899112484,-0.023280723622328886,0.09715228999426605,48.12595698684454,-96.25519929585457,80.21211738781929
2024-09-23 22:34:28.966462,42.49,57.115778,0.0007959191899112484,-0.02338022115155219,0.09779897304849887,48.12595698684454,-96.25519929585457,80.21211738781929
2024-09-23 22:34:28.978094,42.49,57.115865,0.0007959191899112484,-0.02338022115155219,0.09779897304849887,40.106058693909645,-96.25519929585457,80.21211738781929
2024-09-23 22:34:29.021330,42.49,57.115865,0.00044769805900669,-0.023230986250042305,0.0970030596496862,44.11764879391193,-88.23529758782387,80.21211738781929
2024-09-23 22:34:29.064189,42.49,57.115917,0.0003979595949556242,-0.023181236725942318,0.0970030596496862,44.11764879391193,-88.23529758782387,80.21211738781929
2024-09-23 22:34:29.076551,42.49,57.115917,0.0003979595949556242,-0.023181236725942318,0.098047696365372,44.11764879391193,-88.23529758782387,80.21211738781929
2024-09-23 22:34:29.119194,42.49,57.115967,0.0005471957306340564,-0.02293251340906919,0.09789846602079214,44.11764879391193,-88.23529758782387,72.1922225099802
2024-09-23 22:34:29.160940,42.49,57.115967,0.0005471957306340564,-0.02293251340906919,0.09789846602079214,44.11764879391193,-96.25519929585457,80.21211738781929
2024-09-23 22:34:29.172336,42.49,57.116062,0.0006466830067647949,-0.023280723622328886,0.09779897304849887,44.11764879391193,-96.25519929585457,80.21211738781929
2024-09-23 22:34:29.215303,42.49,57.116112,0.0007959191899112484,-0.022833026512682618,0.09779897304849887,44.11764879391193,-96.25519929585457,84.22370748782159
2024-09-23 22:34:29.258338,42.49,57.116112,0.0007959191899112484,-0.022833026512682618,0.09740101331113918,44.11764879391193,-96.25519929585457,84.22370748782159
2024-09-23 22:34:29.269328,42.49,57.116163,0.0009451553255896806,-0.022833026512682618,0.09740101331113918,44.11764879391193,-92.24360919585227,72.1922225099802
2024-09-23 22:34:29.311926,42.49,57.116163,0.0009451553255896806,-0.02278327698858263,0.0970030596496862,44.11764879391193,-84.22370748782159,80.21211738781929
2024-09-23 22:34:29.329200,42.49,57.116255,0.0009451553255896806,-0.02278327698858263,0.0970030596496862,44.11764879391193,-84.22370748782159,80.21211738781929
2024-09-23 22:34:29.362282,42.49,57.116255,0.0007461703303635545,-0.02303200030545576,0.09750050628343246,52.137550501942634,-92.24360919585227,72.1922225099802
2024-09-23 22:34:29.404460,42.49,57.116306,0.0009451553255896806,-0.02303200030545576,0.09750050628343246,52.137550501942634,-92.24360919585227,72.1922225099802
2024-09-23 22:34:29.416418,42.49,57.116306,0.0009451553255896806,-0.02313149783467906,0.09789846602079214,36.09446859390736,-100.26678939585686,72.1922225099802
2024-09-23 22:34:29.459642,42.49,57.116357,0.00044769805900669,-0.023280723622328886,0.09759999317981902,36.09446859390736,-100.26678939585686,72.1922225099802
2024-09-23 22:34:29.471112,42.49,57.116357,0.00044769805900669,-0.023280723622328886,0.09759999317981902,48.12595698684454,-100.26678939585686,72.1922225099802
2024-09-23 22:34:29.503517,42.49,57.116408,0.00044769805900669,-0.023280723622328886,0.09759999317981902,48.12595698684454,-100.26678939585686,72.1922225099802
2024-09-23 22:34:29.515097,42.49,57.116408,0.0006466830067647949,-0.02233556924609963,0.0973015264147526,48.12595698684454,-100.26678939585686,72.1922225099802
2024-09-23 22:34:29.558470,42.49,57.116458,0.00034821073540793035,-0.02303200030545576,0.0973015264147526,40.106058693909645,-96.25519929585457,76.200527287817
2024-09-23 22:34:29.601375,42.49,57.116458,0.00034821073540793035,-0.02303200030545576,0.09745075675933246,40.106058693909645,-92.24360919585227,76.200527287817
2024-09-23 22:34:29.612562,42.49,57.116509,0.0011441298778511575,-0.02303200030545576,0.09745075675933246,40.106058693909645,-92.24360919585227,80.21211738781929
2024-09-23 22:34:29.655107,42.49,57.116596,0.0011441298778511575,-0.022982261414192504,0.09740101331113918,36.09446859390736,-96.25519929585457,76.200527287817
2024-09-23 22:34:29.697132,42.49,57.116596,0.0007461703303635545,-0.02308174982955575,0.09740101331113918,36.09446859390736,-96.25519929585457,76.200527287817
2024-09-23 22:34:29.709056,42.49,57.116596,0.0007461703303635545,-0.02308174982955575,0.09794820946898543,40.106058693909645,-104.27510100388527,72.1922225099802
2024-09-23 22:34:29.752588,42.49,57.116648,0.0007959191899112484,-0.02308174982955575,0.09720203344245934,32.08287849390507,-96.25519929585457,72.1922225099802
2024-09-23 22:34:29.795817,42.15,57.116698,0.0005471957306340564,-0.02308174982955575,0.09720203344245934,32.08287849390507,-96.25519929585457,72.1922225099802
2024-09-23 22:34:29.807705,42.15,57.116698,0.0005471957306340564,-0.023429960042815445,0.09690356060148622,48.12595698684454,-96.25519929585457,72.1922225099802
2024-09-23 22:34:29.851109,42.15,57.116749,0.0007461703303635545,-0.02293251340906919,0.09695331012558621,48.12595698684454,-92.24360919585227,72.1922225099802
2024-09-23 22:34:29.945034,42.15,57.1168,0.0012436275969465451,-0.02293251340906919,0.09695331012558621,40.106058693909645,-96.25519929585457,80.21211738781929
2024-09-23 22:34:29.957286,42.15,57.1168,0.0012436275969465451,-0.02238531725122294,0.09695331012558621,40.106058693909645,-96.25519929585457,80.21211738781929
2024-09-23 22:34:29.990382,42.15,57.1168,0.0012436275969465451,-0.02238531725122294,0.09789846602079214,40.106058693909645,-96.25519929585457,80.21211738781929
2024-09-23 22:34:30.001843,42.15,57.11685,0.0010943914612681128,-0.02238531725122294,0.09789846602079214,40.106058693909645,-96.25519929585457,80.21211738781929
2024-09-23 22:34:30.044693,42.15,57.11685,0.0010943914612681128,-0.023280723622328886,0.0976994861521123,40.106058693909645,-92.24360919585227,76.200527287817
2024-09-23 22:34:30.056869,42.15,57.116937,0.0010943914612681128,-0.023280723622328886,0.0976994861521123,40.106058693909645,-92.24360919585227,76.200527287817
2024-09-23 22:34:30.089998,42.15,57.116937,0.0004974468710863627,-0.02278327698858263,0.09725178296655933,44.11764879391193,-92.24360919585227,76.200527287817
2024-09-23 22:34:30.102741,42.15,57.116937,0.0004974468710863627,-0.02278327698858263,0.09725178296655933,44.11764879391193,-96.25519929585457,72.1922225099802
2024-09-23 22:34:30.134410,42.15,57.116989,0.0004974468710863627,-0.02278327698858263,0.09725178296655933,44.11764879391193,-96.25519929585457,72.1922225099802
2024-09-23 22:34:30.145387,42.15,57.116989,0.0009948937421727254,-0.02293251340906919,0.09759999317981902,44.11764879391193,-92.24360919585227,72.1922225099802
2024-09-23 22:34:30.187862,42.15,57.117085,0.0010943914612681128,-0.022833026512682618,0.09759999317981902,44.11764879391193,-92.24360919585227,76.200527287817
2024-09-23 22:34:30.199870,42.15,57.117085,0.0010943914612681128,-0.022833026512682618,0.0976994861521123,44.11764879391193,-92.24360919585227,76.200527287817
2024-09-23 22:34:30.232538,42.15,57.117085,0.0010943914612681128,-0.022833026512682618,0.0976994861521123,44.11764879391193,-96.25519929585457,76.200527287817
2024-09-23 22:34:30.244094,42.15,57.117136,0.0006964318663124887,-0.02303200030545576,0.09789846602079214,44.11764879391193,-96.25519929585457,80.21211738781929
2024-09-23 22:34:30.286100,42.15,57.117186,0.0006964318663124887,-0.02303200030545576,0.09789846602079214,40.106058693909645,-100.26678939585686,80.21211738781929
2024-09-23 22:34:30.298920,42.15,57.117186,0.001044642601720419,-0.02263404056809607,0.09789846602079214,40.106058693909645,-100.26678939585686,80.21211738781929
2024-09-23 22:34:30.331206,42.15,57.117186,0.001044642601720419,-0.02263404056809607,0.09789846602079214,44.11764879391193,-100.26678939585686,80.21211738781929
2024-09-23 22:34:30.342644,42.15,57.117237,0.0009451553255896806,-0.02263404056809607,0.09789846602079214,44.11764879391193,-96.25519929585457,72.1922225099802
2024-09-23 22:34:30.386118,42.15,57.117327,0.0009451553255896806,-0.02293251340906919,0.09750050628343246,52.137550501942634,-100.26678939585686,76.200527287817
2024-09-23 22:34:30.428652,42.15,57.117327,0.0003979595949556242,-0.02308174982955575,0.09750050628343246,52.137550501942634,-100.26678939585686,76.200527287817
2024-09-23 22:34:30.440583,42.15,57.117327,0.0003979595949556242,-0.02308174982955575,0.0973015264147526,48.12595698684454,-96.25519929585457,76.200527287817
2024-09-23 22:34:30.483954,42.15,57.117379,0.0012933660135295898,-0.02263404056809607,0.0973015264147526,48.12595698684454,-96.25519929585457,76.200527287817
2024-09-23 22:34:30.526542,42.15,57.11743,0.0012933660135295898,-0.02263404056809607,0.0973015264147526,48.12595698684454,-96.25519929585457,76.200527287817
2024-09-23 22:34:30.579776,42.15,57.11743,0.0006964318663124887,-0.023230986250042305,0.09750050628343246,44.11764879391193,-96.25519929585457,76.200527287817
2024-09-23 22:34:30.591885,42.15,57.11743,0.0006964318663124887,-0.023230986250042305,0.09750050628343246,44.11764879391193,-96.25519929585457,72.1922225099802
2024-09-23 22:34:30.623742,42.15,57.11748,0.0009451553255896806,-0.023230986250042305,0.09750050628343246,44.11764879391193,-96.25519929585457,72.1922225099802
2024-09-23 22:34:30.635320,42.15,57.11748,0.0009451553255896806,-0.02278327698858263,0.09759999317981902,44.11764879391193,-100.26678939585686,72.1922225099802
2024-09-23 22:34:30.677340,42.15,57.117531,0.0007461703303635545,-0.0228827638849692,0.0976994861521123,44.11764879391193,-100.26678939585686,68.18063240997792
2024-09-23 22:34:30.689547,42.15,57.117531,0.0007461703303635545,-0.0228827638849692,0.0976994861521123,44.11764879391193,-100.26678939585686,68.18063240997792
2024-09-23 22:34:30.722907,42.15,57.117582,0.0007461703303635545,-0.0228827638849692,0.0976994861521123,44.11764879391193,-92.24360919585227,72.1922225099802
2024-09-23 22:34:30.734010,42.15,57.117582,0.0009948937421727254,-0.023181236725942318,0.09809744588947199,44.11764879391193,-92.24360919585227,72.1922225099802
2024-09-23 22:34:30.777034,42.15,57.117669,0.0011938787373988514,-0.02263404056809607,0.09809744588947199,48.12595698684454,-96.25519929585457,76.200527287817
2024-09-23 22:34:30.820064,42.13,57.117669,0.0011938787373988514,-0.02263404056809607,0.0976994861521123,36.09446859390736,-92.24360919585227,76.200527287817
2024-09-23 22:34:30.832209,42.13,57.11772,0.000845657606494293,-0.02263404056809607,0.0976994861521123,36.09446859390736,-92.24360919585227,76.200527287817
2024-09-23 22:34:30.865577,42.13,57.11772,0.000845657606494293,-0.022833026512682618,0.0976994861521123,36.09446859390736,-92.24360919585227,76.200527287817
2024-09-23 22:34:30.877350,42.13,57.117815,0.000845657606494293,-0.022833026512682618,0.09764974270391902,36.09446859390736,-100.26678939585686,76.200527287817
2024-09-23 22:34:30.971359,42.13,57.117815,0.0007461703303635545,-0.022982261414192504,0.09715228999426605,44.11764879391193,-96.25519929585457,76.200527287817
2024-09-23 22:34:31.014918,42.13,57.117866,0.0006466830067647949,-0.02308174982955575,0.09715228999426605,44.11764879391193,-96.25519929585457,76.200527287817
2024-09-23 22:34:31.026282,42.13,57.117866,0.0006466830067647949,-0.02308174982955575,0.09809744588947199,44.11764879391193,-96.25519929585457,76.200527287817
2024-09-23 22:34:31.069072,42.13,57.117917,0.0,-0.023181236725942318,0.09695331012558621,52.137550501942634,-96.25519929585457,72.1922225099802
2024-09-23 22:34:31.111755,42.13,57.117968,0.0,-0.023181236725942318,0.09695331012558621,52.137550501942634,-92.24360919585227,68.18063240997792
2024-09-23 22:34:31.123748,42.13,57.117968,0.0009948937421727254,-0.023429960042815445,0.09764974270391902,52.137550501942634,-92.24360919585227,68.18063240997792
2024-09-23 22:34:31.166093,42.13,57.118018,0.0006964318663124887,-0.0228827638849692,0.09764974270391902,44.11764879391193,-88.23529758782387,80.21211738781929
2024-09-23 22:34:31.209470,42.13,57.118018,0.0006964318663124887,-0.0228827638849692,0.09794820946898543,36.09446859390736,-92.24360919585227,80.21211738781929
2024-09-23 22:34:31.221060,42.13,57.11811,0.001044642601720419,-0.0228827638849692,0.09794820946898543,36.09446859390736,-92.24360919585227,76.200527287817
2024-09-23 22:34:31.264207,42.13,57.118205,0.001044642601720419,-0.022733528983459317,0.09799795899308542,40.106058693909645,-92.24360919585227,72.1922225099802
2024-09-23 22:34:31.307276,42.13,57.118205,0.0005969341946851222,-0.023280723622328886,0.09695331012558621,40.106058693909645,-92.24360919585227,72.1922225099802
2024-09-23 22:34:31.318807,42.13,57.118205,0.0005969341946851222,-0.023280723622328886,0.09695331012558621,56.14914060194492,-88.23529758782387,68.18063240997792
2024-09-23 22:34:31.361202,42.13,57.118256,0.000845657606494293,-0.023280723622328886,0.09710254654607277,52.137550501942634,-92.24360919585227,68.18063240997792
2024-09-23 22:34:31.404450,42.13,57.118307,0.000845657606494293,-0.023280723622328886,0.09710254654607277,52.137550501942634,-92.24360919585227,68.18063240997792
2024-09-23 22:34:31.415797,42.13,57.118307,0.0007461703303635545,-0.023330473146428877,0.09725178296655933,48.12595698684454,-92.24360919585227,68.18063240997792
2024-09-23 22:34:31.458437,42.13,57.118358,0.0006466830067647949,-0.022584292562972758,0.09784872257259886,48.12595698684454,-96.25519929585457,76.200527287817
2024-09-23 22:34:31.500626,42.13,57.118358,0.0006466830067647949,-0.022584292562972758,0.09784872257259886,36.09446859390736,-92.24360919585227,76.200527287817
2024-09-23 22:34:31.512208,42.13,57.118409,0.000845657606494293,-0.0228827638849692,0.09784872257259886,36.09446859390736,-92.24360919585227,72.1922225099802
2024-09-23 22:34:31.554800,42.13,57.11846,0.000845657606494293,-0.0228827638849692,0.09740101331113918,32.08287849390507,-96.25519929585457,80.21211738781929
2024-09-23 22:34:31.566539,42.13,57.11846,0.0009451553255896806,-0.0228827638849692,0.09740101331113918,32.08287849390507,-96.25519929585457,80.21211738781929
2024-09-23 22:34:31.599759,42.13,57.11846,0.0009451553255896806,-0.0228827638849692,0.09740101331113918,40.106058693909645,-96.25519929585457,80.21211738781929
2024-09-23 22:34:31.610740,42.13,57.118546,0.0009451553255896806,-0.0228827638849692,0.09740101331113918,40.106058693909645,-96.25519929585457,72.1922225099802
2024-09-23 22:34:31.653775,42.13,57.118546,0.0010943914612681128,-0.023230986250042305,0.09715228999426605,40.106058693909645,-96.25519929585457,72.1922225099802
2024-09-23 22:34:31.695776,42.13,57.118598,0.0012436275969465451,-0.023230986250042305,0.09715228999426605,40.106058693909645,-96.25519929585457,72.1922225099802
2024-09-23 22:34:31.706754,42.13,57.118598,0.0012436275969465451,-0.023181236725942318,0.09759999317981902,44.11764879391193,-96.25519929585457,72.1922225099802
2024-09-23 22:34:31.749440,42.13,57.118648,0.0007461703303635545,-0.02308174982955575,0.09809744588947199,44.11764879391193,-96.25519929585457,76.200527287817
2024-09-23 22:34:31.761608,42.13,57.118648,0.0007461703303635545,-0.02308174982955575,0.09809744588947199,44.11764879391193,-96.25519929585457,76.200527287817
2024-09-23 22:34:31.794569,42.13,57.118699,0.0007461703303635545,-0.02308174982955575,0.09809744588947199,44.11764879391193,-96.25519929585457,76.200527287817
2024-09-23 22:34:31.805741,42.13,57.118699,0.0006964318663124887,-0.0228827638849692,0.09750050628343246,44.11764879391193,-96.25519929585457,76.200527287817
2024-09-23 22:34:31.848682,41.87,57.11875,0.00044769805900669,-0.023827930413011865,0.09750050628343246,44.11764879391193,-92.24360919585227,76.200527287817
2024-09-23 22:34:31.890619,41.87,57.11875,0.00044769805900669,-0.023827930413011865,0.09750050628343246,44.11764879391193,-92.24360919585227,76.200527287817
2024-09-23 22:34:31.902502,41.87,57.1188,0.00034821073540793035,-0.023827930413011865,0.09750050628343246,44.11764879391193,-92.24360919585227,72.1922225099802
2024-09-23 22:34:31.986083,41.87,57.1188,0.00034821073540793035,-0.02268379009219606,0.09750050628343246,44.11764879391193,-92.24360919585227,72.1922225099802
2024-09-23 22:34:31.997484,41.87,57.118887,0.00034821073540793035,-0.02268379009219606,0.09784872257259886,36.09446859390736,-96.25519929585457,76.200527287817
2024-09-23 22:34:32.040181,41.87,57.118887,0.00024872343554318134,-0.022833026512682618,0.09745075675933246,48.12595698684454,-96.25519929585457,76.200527287817
2024-09-23 22:34:32.052128,41.87,57.118887,0.00024872343554318134,-0.022833026512682618,0.09745075675933246,48.12595698684454,-88.23529758782387,76.200527287817
2024-09-23 22:34:32.085636,41.87,57.118939,0.0006466830067647949,-0.022833026512682618,0.09745075675933246,48.12595698684454,-88.23529758782387,76.200527287817
2024-09-23 22:34:32.096924,41.87,57.118939,0.0006466830067647949,-0.022733528983459317,0.09715228999426605,40.106058693909645,-88.23529758782387,76.200527287817
2024-09-23 22:34:32.140240,41.87,57.11899,0.0006964318663124887,-0.02278327698858263,0.09720203344245934,40.106058693909645,-88.23529758782387,76.200527287817
2024-09-23 22:34:32.152296,41.87,57.11899,0.0006964318663124887,-0.02278327698858263,0.09720203344245934,44.11764879391193,-88.23529758782387,76.200527287817
2024-09-23 22:34:32.184360,41.87,57.11904,0.0006964318663124887,-0.02278327698858263,0.09720203344245934,44.11764879391193,-92.24360919585227,72.1922225099802
2024-09-23 22:34:32.195647,41.87,57.11904,0.0006466830067647949,-0.022833026512682618,0.09794820946898543,44.11764879391193,-92.24360919585227,72.1922225099802
2024-09-23 22:34:32.237469,41.87,57.119133,0.00034821073540793035,-0.023280723622328886,0.09794820946898543,36.09446859390736,-88.23529758782387,76.200527287817
2024-09-23 22:34:32.281103,41.87,57.119133,0.00034821073540793035,-0.023280723622328886,0.09720203344245934,40.106058693909645,-88.23529758782387,76.200527287817
2024-09-23 22:34:32.292607,41.87,57.119184,0.0008954064660419869,-0.023280723622328886,0.09720203344245934,40.106058693909645,-88.23529758782387,76.200527287817
2024-09-23 22:34:32.334706,41.87,57.119184,0.0008954064660419869,-0.02338022115155219,0.09745075675933246,48.12595698684454,-96.25519929585457,76.200527287817
2024-09-23 22:34:32.346546,41.87,57.119277,0.0008954064660419869,-0.02338022115155219,0.09745075675933246,48.12595698684454,-96.25519929585457,76.200527287817
2024-09-23 22:34:32.378912,41.87,57.119277,0.0006466830067647949,-0.023230986250042305,0.09745075675933246,48.12595698684454,-96.25519929585457,76.200527287817
2024-09-23 22:34:32.390669,41.87,57.119277,0.0006466830067647949,-0.023230986250042305,0.0973512698629459,44.11764879391193,-88.23529758782387,76.200527287817
2024-09-23 22:34:32.433943,41.87,57.119329,0.0004974468710863627,-0.02303200030545576,0.09764974270391902,44.11764879391193,-88.23529758782387,76.200527287817
2024-09-23 22:34:32.445934,41.87,57.119329,0.0004974468710863627,-0.02303200030545576,0.09764974270391902,48.12595698684454,-88.23529758782387,76.200527287817
2024-09-23 22:34:32.477633,41.87,57.11938,0.0004974468710863627,-0.02303200030545576,0.09764974270391902,48.12595698684454,-88.23529758782387,72.1922225099802
2024-09-23 22:34:32.489184,41.87,57.11938,0.0005471957306340564,-0.023181236725942318,0.09759999317981902,48.12595698684454,-88.23529758782387,72.1922225099802
2024-09-23 22:34:32.531833,41.87,57.11943,0.0007959191899112484,-0.02263404056809607,0.09759999317981902,48.12595698684454,-88.23529758782387,64.16903547978401
2024-09-23 22:34:32.574393,41.87,57.11943,0.0007959191899112484,-0.02263404056809607,0.0973512698629459,36.09446859390736,-92.24360919585227,64.16903547978401
2024-09-23 22:34:32.585362,41.87,57.119481,0.0009948937421727254,-0.02263404056809607,0.0973512698629459,36.09446859390736,-92.24360919585227,80.21211738781929
2024-09-23 22:34:32.628745,41.87,57.119532,0.0009948937421727254,-0.02268379009219606,0.09695331012558621,36.09446859390736,-96.25519929585457,80.21211738781929
2024-09-23 22:34:32.671588,41.87,57.119532,0.001044642601720419,-0.02338022115155219,0.09685382322919964,36.09446859390736,-96.25519929585457,80.21211738781929
2024-09-23 22:34:32.683087,41.87,57.119532,0.001044642601720419,-0.02338022115155219,0.09685382322919964,36.09446859390736,-96.25519929585457,84.22370748782159
2024-09-23 22:34:32.725790,41.87,57.119619,0.001044642601720419,-0.0228827638849692,0.098047696365372,44.11764879391193,-96.25519929585457,84.22370748782159
2024-09-23 22:34:32.737274,41.87,57.119619,0.001044642601720419,-0.0228827638849692,0.098047696365372,44.11764879391193,-92.24360919585227,84.22370748782159
2024-09-23 22:34:32.768809,41.87,57.119671,0.001044642601720419,-0.0228827638849692,0.098047696365372,44.11764879391193,-92.24360919585227,68.18063240997792
2024-09-23 22:34:32.780615,41.87,57.119671,0.0009451553255896806,-0.0228827638849692,0.09740101331113918,48.12595698684454,-92.24360919585227,68.18063240997792
2024-09-23 22:34:32.824073,41.87,57.119721,0.0005471957306340564,-0.02338022115155219,0.0976994861521123,48.12595698684454,-92.24360919585227,76.200527287817
2024-09-23 22:34:32.866127,41.91,57.119721,0.0005471957306340564,-0.02338022115155219,0.0976994861521123,36.09446859390736,-92.24360919585227,76.200527287817
2024-09-23 22:34:32.877871,41.91,57.119772,0.0009451553255896806,-0.023230986250042305,0.0976994861521123,36.09446859390736,-92.24360919585227,80.21211738781929
2024-09-23 22:34:32.919733,41.91,57.119823,0.0009451553255896806,-0.023230986250042305,0.098047696365372,48.12595698684454,-88.23529758782387,76.200527287817
2024-09-23 22:34:32.932570,41.91,57.119823,0.0007959191899112484,-0.023230986250042305,0.098047696365372,48.12595698684454,-88.23529758782387,76.200527287817
2024-09-23 22:34:33.017211,41.91,57.119823,0.0007959191899112484,-0.02263404056809607,0.09745075675933246,44.11764879391193,-92.24360919585227,76.200527287817
2024-09-23 22:34:33.028941,41.91,57.119911,0.0007959191899112484,-0.02263404056809607,0.09745075675933246,44.11764879391193,-92.24360919585227,76.200527287817
2024-09-23 22:34:33.061370,41.91,57.119911,0.0007959191899112484,-0.02278327698858263,0.09745075675933246,44.11764879391193,-92.24360919585227,76.200527287817
2024-09-23 22:34:33.115149,41.91,57.119963,0.0007959191899112484,-0.02278327698858263,0.09755024973162574,44.11764879391193,-88.23529758782387,72.1922225099802
2024-09-23 22:34:33.127051,41.91,57.119963,0.001044642601720419,-0.02278327698858263,0.09755024973162574,44.11764879391193,-88.23529758782387,72.1922225099802
2024-09-23 22:34:33.159127,41.91,57.119963,0.001044642601720419,-0.023230986250042305,0.0973015264147526,40.106058693909645,-88.23529758782387,72.1922225099802
2024-09-23 22:34:33.171396,41.91,57.120013,0.001044642601720419,-0.023230986250042305,0.0973015264147526,40.106058693909645,-84.22370748782159,76.200527287817
2024-09-23 22:34:33.213988,41.91,57.120013,0.00044769805900669,-0.02293251340906919,0.09779897304849887,48.12595698684454,-92.24360919585227,72.1922225099802
2024-09-23 22:34:33.257076,41.91,57.120064,0.0007959191899112484,-0.023330473146428877,0.09779897304849887,48.12595698684454,-92.24360919585227,72.1922225099802
2024-09-23 22:34:33.268622,41.91,57.120064,0.0007959191899112484,-0.023330473146428877,0.09779897304849887,40.106058693909645,-96.25519929585457,72.1922225099802
2024-09-23 22:34:33.311966,41.91,57.120157,0.00029846189959424716,-0.0228827638849692,0.09680407370509965,40.106058693909645,-96.25519929585457,80.21211738781929
2024-09-23 22:34:33.354047,41.91,57.120254,0.00029846189959424716,-0.0228827638849692,0.09680407370509965,40.106058693909645,-88.23529758782387,76.200527287817
2024-09-23 22:34:33.365422,41.91,57.120254,0.0003979595949556242,-0.023280723622328886,0.09794820946898543,40.106058693909645,-88.23529758782387,76.200527287817
2024-09-23 22:34:33.407308,41.91,57.120305,0.0007959191899112484,-0.023280723622328886,0.09794820946898543,48.12595698684454,-96.25519929585457,76.200527287817
2024-09-23 22:34:33.419348,41.91,57.120305,0.0007959191899112484,-0.02313149783467906,0.09794820946898543,48.12595698684454,-96.25519929585457,76.200527287817
2024-09-23 22:34:33.452201,41.91,57.120305,0.0007959191899112484,-0.02313149783467906,0.09720203344245934,48.12595698684454,-96.25519929585457,76.200527287817
2024-09-23 22:34:33.463826,41.91,57.120355,0.0008954064660419869,-0.02313149783467906,0.09720203344245934,48.12595698684454,-96.25519929585457,72.1922225099802
2024-09-23 22:34:33.506348,41.91,57.120447,0.0008954064660419869,-0.02313149783467906,0.09740101331113918,40.106058693909645,-92.24360919585227,72.1922225099802
2024-09-23 22:34:33.548327,41.91,57.120447,0.001044642601720419,-0.0228827638849692,0.09740101331113918,40.106058693909645,-92.24360919585227,72.1922225099802
2024-09-23 22:34:33.560083,41.91,57.120447,0.001044642601720419,-0.0228827638849692,0.09789846602079214,40.106058693909645,-92.24360919585227,72.1922225099802
2024-09-23 22:34:33.602417,41.91,57.120499,0.00044769805900669,-0.023181236725942318,0.09740101331113918,40.106058693909645,-92.24360919585227,72.1922225099802
2024-09-23 22:34:33.697647,41.91,57.12055,0.0010943914612681128,-0.023181236725942318,0.09740101331113918,40.106058693909645,-92.24360919585227,72.1922225099802
2024-09-23 22:34:33.709265,41.91,57.12055,0.0010943914612681128,-0.022982261414192504,0.09740101331113918,40.106058693909645,-92.24360919585227,72.1922225099802
2024-09-23 22:34:33.743114,41.91,57.12055,0.0010943914612681128,-0.022982261414192504,0.09715228999426605,48.12595698684454,-92.24360919585227,72.1922225099802
2024-09-23 22:34:33.754182,41.91,57.1206,0.00044769805900669,-0.022982261414192504,0.09715228999426605,48.12595698684454,-96.25519929585457,80.21211738781929
2024-09-23 22:34:33.796513,41.91,57.1206,0.00044769805900669,-0.023230986250042305,0.09685382322919964,40.106058693909645,-96.25519929585457,80.21211738781929
2024-09-23 22:34:33.808443,41.91,57.120651,0.00044769805900669,-0.023230986250042305,0.09685382322919964,40.106058693909645,-96.25519929585457,76.200527287817
2024-09-23 22:34:33.841077,41.91,57.120651,0.0006466830067647949,-0.023728432883788564,0.09685382322919964,40.106058693909645,-96.25519929585457,76.200527287817
2024-09-23 22:34:33.852239,41.91,57.120651,0.0006466830067647949,-0.023728432883788564,0.0973512698629459,44.11764879391193,-92.24360919585227,80.21211738781929
2024-09-23 22:34:33.895279,41.51,57.120702,0.0004974468710863627,-0.022733528983459317,0.09779897304849887,40.106058693909645,-96.25519929585457,80.21211738781929
2024-09-23 22:34:33.937653,41.51,57.120789,0.0004974468710863627,-0.022733528983459317,0.09779897304849887,40.106058693909645,-96.25519929585457,76.200527287817
2024-09-23 22:34:33.949128,41.51,57.120789,0.0005471957306340564,-0.022733528983459317,0.09710254654607277,40.106058693909645,-96.25519929585457,76.200527287817
2024-09-23 22:34:33.992880,41.51,57.120888,0.00044769805900669,-0.02278327698858263,0.09710254654607277,40.106058693909645,-92.24360919585227,76.200527287817
2024-09-23 22:34:34.004748,41.51,57.120888,0.00044769805900669,-0.02278327698858263,0.09740101331113918,40.106058693909645,-92.24360919585227,76.200527287817
2024-09-23 22:34:34.037354,41.51,57.120888,0.00044769805900669,-0.02278327698858263,0.09740101331113918,48.12595698684454,-92.24360919585227,76.200527287817
2024-09-23 22:34:34.049193,41.51,57.120939,0.0011441298778511575,-0.023181236725942318,0.09740101331113918,48.12595698684454,-92.24360919585227,76.200527287817
2024-09-23 22:34:34.092674,41.51,57.120989,0.0010943914612681128,-0.023181236725942318,0.09794820946898543,48.12595698684454,-92.24360919585227,72.1922225099802
2024-09-23 22:34:34.134791,41.51,57.120989,0.0010943914612681128,-0.023330473146428877,0.09715228999426605,44.11764879391193,-92.24360919585227,72.1922225099802
2024-09-23 22:34:34.145927,41.51,57.121081,0.0010943914612681128,-0.023330473146428877,0.09715228999426605,44.11764879391193,-88.23529758782387,72.1922225099802
2024-09-23 22:34:34.188206,41.51,57.121081,0.0014923510087557158,-0.0228827638849692,0.09745075675933246,48.12595698684454,-92.24360919585227,72.1922225099802
2024-09-23 22:34:34.231711,41.51,57.121133,0.0006466830067647949,-0.022982261414192504,0.09745075675933246,48.12595698684454,-92.24360919585227,72.1922225099802
2024-09-23 22:34:34.243032,41.51,57.121133,0.0006466830067647949,-0.022982261414192504,0.09764974270391902,52.137550501942634,-80.21211738781929,72.1922225099802
2024-09-23 22:34:34.285858,41.51,57.121184,0.0006466830067647949,-0.02278327698858263,0.098047696365372,44.11764879391193,-80.21211738781929,76.200527287817
2024-09-23 22:34:34.327622,41.51,57.121184,0.0006466830067647949,-0.02278327698858263,0.098047696365372,44.11764879391193,-88.23529758782387,84.22370748782159
2024-09-23 22:34:34.341862,41.51,57.121235,0.00044769805900669,-0.022982261414192504,0.098047696365372,44.11764879391193,-88.23529758782387,84.22370748782159
2024-09-23 22:34:34.385037,41.51,57.121285,0.0009451553255896806,-0.022982261414192504,0.09774922960030558,36.09446859390736,-96.25519929585457,84.22370748782159
2024-09-23 22:34:34.426984,41.51,57.121285,0.0009451553255896806,-0.02313149783467906,0.09755024973162574,44.11764879391193,-96.25519929585457,84.22370748782159
2024-09-23 22:34:34.437927,41.51,57.121336,0.0009451553255896806,-0.02313149783467906,0.09755024973162574,44.11764879391193,-104.27510100388527,68.18063240997792
2024-09-23 22:34:34.481375,41.51,57.121336,0.0004974468710863627,-0.022982261414192504,0.09764974270391902,44.11764879391193,-96.25519929585457,80.21211738781929
2024-09-23 22:34:34.524211,41.51,57.121422,0.0013928637326249774,-0.022982261414192504,0.09764974270391902,44.11764879391193,-96.25519929585457,80.21211738781929
2024-09-23 22:34:34.535263,41.51,57.121422,0.0013928637326249774,-0.02313149783467906,0.09690356060148622,44.11764879391193,-92.24360919585227,80.21211738781929
2024-09-23 22:34:34.578853,41.51,57.121474,0.000845657606494293,-0.023330473146428877,0.09750050628343246,48.12595698684454,-92.24360919585227,76.200527287817
2024-09-23 22:34:34.622513,41.51,57.121525,0.000845657606494293,-0.023330473146428877,0.09750050628343246,48.12595698684454,-96.25519929585457,76.200527287817
2024-09-23 22:34:34.634777,41.51,57.121525,0.0006466830067647949,-0.02338022115155219,0.09779897304849887,48.12595698684454,-96.25519929585457,76.200527287817
2024-09-23 22:34:34.666922,41.51,57.121525,0.0006466830067647949,-0.02338022115155219,0.09779897304849887,40.106058693909645,-96.25519929585457,76.200527287817
2024-09-23 22:34:34.678331,41.51,57.121575,0.000845657606494293,-0.022484804147609512,0.09779897304849887,40.106058693909645,-100.26678939585686,76.200527287817
2024-09-23 22:34:34.720450,41.51,57.121575,0.000845657606494293,-0.022484804147609512,0.09725178296655933,40.106058693909645,-96.25519929585457,76.200527287817
2024-09-23 22:34:34.732481,41.51,57.121626,0.0005471957306340564,-0.022484804147609512,0.09725178296655933,40.106058693909645,-96.25519929585457,76.200527287817
2024-09-23 22:34:34.764625,41.51,57.121626,0.0005471957306340564,-0.02268379009219606,0.09725178296655933,40.106058693909645,-96.25519929585457,76.200527287817
2024-09-23 22:34:34.776478,41.51,57.121715,0.0005471957306340564,-0.02268379009219606,0.09750050628343246,44.11764879391193,-92.24360919585227,76.200527287817
2024-09-23 22:34:34.818971,41.51,57.121715,0.0015420998683034098,-0.022833026512682618,0.09759999317981902,36.09446859390736,-92.24360919585227,76.200527287817
2024-09-23 22:34:34.830173,41.51,57.121715,0.0015420998683034098,-0.022833026512682618,0.09759999317981902,36.09446859390736,-96.25519929585457,76.200527287817
2024-09-23 22:34:34.862895,41.51,57.121766,0.0015420998683034098,-0.022833026512682618,0.09759999317981902,36.09446859390736,-96.25519929585457,76.200527287817
2024-09-23 22:34:34.874583,41.51,57.121766,0.0009948937421727254,-0.02278327698858263,0.09750050628343246,36.09446859390736,-92.24360919585227,76.200527287817
2024-09-23 22:34:34.916478,41.6,57.121817,0.000845657606494293,-0.02293251340906919,0.09750050628343246,36.09446859390736,-92.24360919585227,80.21211738781929
2024-09-23 22:34:34.928336,41.6,57.121817,0.000845657606494293,-0.02293251340906919,0.0973512698629459,44.11764879391193,-92.24360919585227,80.21211738781929
2024-09-23 22:34:34.959916,41.6,57.121817,0.000845657606494293,-0.02293251340906919,0.0973512698629459,44.11764879391193,-84.22370748782159,80.21211738781929
2024-09-23 22:34:34.974061,41.6,57.121868,0.000845657606494293,-0.02268379009219606,0.09784872257259886,44.11764879391193,-84.22370748782159,76.200527287817
2024-09-23 22:34:35.057025,41.6,57.121868,0.000845657606494293,-0.02268379009219606,0.09784872257259886,44.11764879391193,-84.22370748782159,76.200527287817
2024-09-23 22:34:35.070662,41.6,57.121918,0.0007461703303635545,-0.022584292562972758,0.09784872257259886,44.11764879391193,-88.23529758782387,72.1922225099802
2024-09-23 22:34:35.114069,41.6,57.121969,0.0007461703303635545,-0.022584292562972758,0.09750050628343246,44.11764879391193,-96.25519929585457,76.200527287817
2024-09-23 22:34:35.125804,41.6,57.121969,0.0005471957306340564,-0.022584292562972758,0.09750050628343246,44.11764879391193,-96.25519929585457,76.200527287817
2024-09-23 22:34:35.158673,41.6,57.121969,0.0005471957306340564,-0.022833026512682618,0.0973512698629459,40.106058693909645,-96.25519929585457,76.200527287817
2024-09-23 22:34:35.170205,41.6,57.122056,0.0005471957306340564,-0.022833026512682618,0.0973512698629459,40.106058693909645,-84.22370748782159,76.200527287817
2024-09-23 22:34:35.212894,41.6,57.122056,0.0005471957306340564,-0.023330473146428877,0.09750050628343246,44.11764879391193,-88.23529758782387,76.200527287817
2024-09-23 22:34:35.255413,41.6,57.122108,0.0011938787373988514,-0.02313149783467906,0.09750050628343246,44.11764879391193,-88.23529758782387,76.200527287817
2024-09-23 22:34:35.266793,41.6,57.122108,0.0011938787373988514,-0.02313149783467906,0.09715228999426605,44.11764879391193,-88.23529758782387,76.200527287817
2024-09-23 22:34:35.310061,41.6,57.122203,0.0007461703303635545,-0.0228827638849692,0.09774922960030558,36.09446859390736,-88.23529758782387,76.200527287817
2024-09-23 22:34:35.353299,41.6,57.122255,0.0007461703303635545,-0.0228827638849692,0.09774922960030558,36.09446859390736,-100.26678939585686,72.1922225099802
2024-09-23 22:34:35.365019,41.6,57.122255,0.0007959191899112484,-0.02238531725122294,0.09759999317981902,36.09446859390736,-100.26678939585686,72.1922225099802
2024-09-23 22:34:35.407552,41.6,57.122305,0.0013928637326249774,-0.02303200030545576,0.09759999317981902,48.12595698684454,-100.26678939585686,72.1922225099802
2024-09-23 22:34:35.449700,41.6,57.122305,0.0013928637326249774,-0.02303200030545576,0.09755024973162574,44.11764879391193,-100.26678939585686,72.1922225099802
2024-09-23 22:34:35.461574,41.6,57.122356,0.0006466830067647949,-0.02303200030545576,0.09755024973162574,44.11764879391193,-92.24360919585227,80.21211738781929
2024-09-23 22:34:35.504948,41.6,57.122446,0.0006466830067647949,-0.0225345536717095,0.09745075675933246,40.106058693909645,-92.24360919585227,76.200527287817
2024-09-23 22:34:35.547057,41.6,57.122446,0.0007461703303635545,-0.023330473146428877,0.09745075675933246,40.106058693909645,-92.24360919585227,76.200527287817
2024-09-23 22:34:35.558077,41.6,57.122446,0.0007461703303635545,-0.023330473146428877,0.09725178296655933,40.106058693909645,-96.25519929585457,72.1922225099802
2024-09-23 22:34:35.600439,41.6,57.122498,0.0006964318663124887,-0.02308174982955575,0.09789846602079214,44.11764879391193,-96.25519929585457,72.1922225099802
2024-09-23 22:34:35.612435,41.6,57.122498,0.0006964318663124887,-0.02308174982955575,0.09789846602079214,44.11764879391193,-84.22370748782159,72.1922225099802
2024-09-23 22:34:35.644084,41.6,57.122548,0.0006964318663124887,-0.02308174982955575,0.09789846602079214,44.11764879391193,-84.22370748782159,72.1922225099802
2024-09-23 22:34:35.655171,41.6,57.122548,0.0006466830067647949,-0.023280723622328886,0.0976994861521123,36.09446859390736,-84.22370748782159,72.1922225099802
2024-09-23 22:34:35.697471,41.6,57.122599,0.001442602149208022,-0.023230986250042305,0.0976994861521123,36.09446859390736,-96.25519929585457,80.21211738781929
2024-09-23 22:34:35.709270,41.6,57.122599,0.001442602149208022,-0.023230986250042305,0.0976994861521123,36.09446859390736,-96.25519929585457,80.21211738781929
2024-09-23 22:34:35.742201,41.6,57.122599,0.001442602149208022,-0.023230986250042305,0.0976994861521123,44.11764879391193,-92.24360919585227,80.21211738781929
2024-09-23 22:34:35.753351,41.6,57.12265,9.948729986474904e-05,-0.022733528983459317,0.0976994861521123,44.11764879391193,-92.24360919585227,76.200527287817
2024-09-23 22:34:35.795847,41.6,57.1227,9.948729986474904e-05,-0.022733528983459317,0.09725178296655933,44.11764879391193,-96.25519929585457,76.200527287817
2024-09-23 22:34:35.807628,41.6,57.1227,0.0015420998683034098,-0.022733528983459317,0.09725178296655933,44.11764879391193,-96.25519929585457,76.200527287817
2024-09-23 22:34:35.839279,41.6,57.1227,0.0015420998683034098,-0.023579196463302005,0.09759999317981902,44.11764879391193,-96.25519929585457,76.200527287817
2024-09-23 22:34:35.851574,41.6,57.122787,0.0015420998683034098,-0.023579196463302005,0.09759999317981902,44.11764879391193,-96.25519929585457,72.1922225099802
2024-09-23 22:34:35.894238,41.6,57.122787,0.0001989745997294981,-0.022733528983459317,0.09745075675933246,44.11764879391193,-88.23529758782387,72.1922225099802
2024-09-23 22:34:35.936733,41.64,57.122839,0.0005471957306340564,-0.022733528983459317,0.09745075675933246,44.11764879391193,-88.23529758782387,72.1922225099802
2024-09-23 22:34:35.948344,41.64,57.122839,0.0005471957306340564,-0.023230986250042305,0.09755024973162574,48.12595698684454,-88.23529758782387,72.1922225099802
2024-09-23 22:34:35.991380,41.64,57.12289,0.0007959191899112484,-0.02293251340906919,0.09750050628343246,40.106058693909645,-88.23529758782387,72.1922225099802
2024-09-23 22:34:36.033345,41.64,57.12289,0.0007959191899112484,-0.02293251340906919,0.09750050628343246,40.106058693909645,-92.24360919585227,72.1922225099802
2024-09-23 22:34:36.085643,41.64,57.12294,0.0011938787373988514,-0.02352945757203875,0.09799795899308542,40.106058693909645,-92.24360919585227,72.1922225099802
2024-09-23 22:34:36.097966,41.64,57.12294,0.0011938787373988514,-0.02352945757203875,0.09799795899308542,32.08287849390507,-96.25519929585457,72.1922225099802
2024-09-23 22:34:36.130260,41.64,57.12294,0.0011938787373988514,-0.02352945757203875,0.09799795899308542,32.08287849390507,-96.25519929585457,72.1922225099802
2024-09-23 22:34:36.142496,41.64,57.122991,0.0005471957306340564,-0.02278327698858263,0.0973015264147526,40.106058693909645,-96.25519929585457,72.1922225099802
2024-09-23 22:34:36.185269,41.64,57.123042,0.0004974468710863627,-0.02278327698858263,0.0973015264147526,40.106058693909645,-100.26678939585686,76.200527287817
2024-09-23 22:34:36.196512,41.64,57.123042,0.0004974468710863627,-0.0228827638849692,0.09779897304849887,40.106058693909645,-100.26678939585686,76.200527287817
2024-09-23 22:34:36.229622,41.64,57.123042,0.0004974468710863627,-0.0228827638849692,0.09779897304849887,44.11764879391193,-92.24360919585227,76.200527287817
2024-09-23 22:34:36.241101,41.64,57.123129,0.0007461703303635545,-0.0228827638849692,0.09779897304849887,44.11764879391193,-92.24360919585227,76.200527287817
2024-09-23 22:34:36.283886,41.64,57.123179,0.0007461703303635545,-0.02293251340906919,0.09779897304849887,40.106058693909645,-100.26678939585686,68.18063240997792
2024-09-23 22:34:36.326463,41.64,57.123179,0.00014922575204880957,-0.02293251340906919,0.09779897304849887,40.106058693909645,-100.26678939585686,68.18063240997792
2024-09-23 22:34:36.338574,41.64,57.123179,0.00014922575204880957,-0.02338022115155219,0.0973512698629459,40.106058693909645,-92.24360919585227,80.21211738781929
2024-09-23 22:34:36.381602,41.64,57.123275,0.0007959191899112484,-0.02293251340906919,0.09705279702197278,40.106058693909645,-92.24360919585227,80.21211738781929
2024-09-23 22:34:36.393715,41.64,57.123275,0.0007959191899112484,-0.02293251340906919,0.09705279702197278,40.106058693909645,-92.24360919585227,80.21211738781929
2024-09-23 22:34:36.426844,41.64,57.123326,0.0006466830067647949,-0.02293251340906919,0.09705279702197278,40.106058693909645,-92.24360919585227,80.21211738781929
2024-09-23 22:34:36.437844,41.64,57.123326,0.0006466830067647949,-0.023280723622328886,0.09789846602079214,40.106058693909645,-92.24360919585227,80.21211738781929
2024-09-23 22:34:36.481754,41.64,57.123377,0.00014922575204880957,-0.02308174982955575,0.09685382322919964,40.106058693909645,-92.24360919585227,76.200527287817
2024-09-23 22:34:36.523959,41.64,57.123377,0.00014922575204880957,-0.02308174982955575,0.09685382322919964,44.11764879391193,-88.23529758782387,80.21211738781929
2024-09-23 22:34:36.535045,41.64,57.123428,0.0007461703303635545,-0.023230986250042305,0.09685382322919964,44.11764879391193,-88.23529758782387,80.21211738781929
2024-09-23 22:34:36.577611,41.64,57.123478,0.0011441298778511575,-0.023230986250042305,0.09690356060148622,40.106058693909645,-92.24360919585227,76.200527287817
2024-09-23 22:34:36.620559,41.64,57.123478,0.0011441298778511575,-0.02293251340906919,0.09789846602079214,40.106058693909645,-92.24360919585227,76.200527287817
2024-09-23 22:34:36.631566,41.64,57.123567,0.0011441298778511575,-0.02293251340906919,0.09789846602079214,40.106058693909645,-92.24360919585227,72.1922225099802
2024-09-23 22:34:36.673786,41.64,57.123567,0.0005969341946851222,-0.023181236725942318,0.0973015264147526,40.106058693909645,-92.24360919585227,76.200527287817
2024-09-23 22:34:36.716112,41.64,57.123619,0.0005969341946851222,-0.023181236725942318,0.0973015264147526,40.106058693909645,-92.24360919585227,76.200527287817
2024-09-23 22:34:36.728259,41.64,57.123619,0.0012933660135295898,-0.02278327698858263,0.09774922960030558,48.12595698684454,-96.25519929585457,76.200527287817
2024-09-23 22:34:36.770547,41.64,57.12367,0.0010943914612681128,-0.02263404056809607,0.098047696365372,48.12595698684454,-96.25519929585457,76.200527287817
2024-09-23 22:34:36.782547,41.64,57.12367,0.0010943914612681128,-0.02263404056809607,0.098047696365372,48.12595698684454,-96.25519929585457,76.200527287817
2024-09-23 22:34:36.814413,41.64,57.12367,0.0010943914612681128,-0.02263404056809607,0.098047696365372,48.12595698684454,-100.26678939585686,76.200527287817
2024-09-23 22:34:36.825656,41.64,57.12372,0.0006466830067647949,-0.022982261414192504,0.09784872257259886,48.12595698684454,-100.26678939585686,76.200527287817
2024-09-23 22:34:36.868959,41.64,57.123771,0.0012933660135295898,-0.023280723622328886,0.09784872257259886,48.12595698684454,-92.24360919585227,76.200527287817
2024-09-23 22:34:36.911906,41.64,57.123771,0.0012933660135295898,-0.023280723622328886,0.0973015264147526,52.137550501942634,-92.24360919585227,76.200527287817
2024-09-23 22:34:36.923358,41.64,57.123822,0.0006466830067647949,-0.023280723622328886,0.0973015264147526,52.137550501942634,-92.24360919585227,80.21211738781929
2024-09-23 22:34:36.964974,41.39,57.123822,0.0006466830067647949,-0.02278327698858263,0.09715228999426605,44.11764879391193,-92.24360919585227,76.200527287817
2024-09-23 22:34:36.977043,41.39,57.123909,0.0006466830067647949,-0.02278327698858263,0.09715228999426605,44.11764879391193,-92.24360919585227,76.200527287817
2024-09-23 22:34:37.009102,41.39,57.123909,0.0010943914612681128,-0.02293251340906919,0.09715228999426605,44.11764879391193,-92.24360919585227,76.200527287817
2024-09-23 22:34:37.020550,41.39,57.123909,0.0010943914612681128,-0.02293251340906919,0.09759999317981902,40.106058693909645,-96.25519929585457,72.1922225099802
2024-09-23 22:34:37.062704,41.39,57.123961,0.0010943914612681128,-0.02293251340906919,0.09759999317981902,40.106058693909645,-96.25519929585457,72.1922225099802
2024-09-23 22:34:37.104585,41.39,57.123961,0.0009948937421727254,-0.02293251340906919,0.09759999317981902,40.106058693909645,-96.25519929585457,72.1922225099802
2024-09-23 22:34:37.116248,41.39,57.123961,0.0009948937421727254,-0.023181236725942318,0.09755024973162574,44.11764879391193,-92.24360919585227,72.1922225099802
2024-09-23 22:34:37.158926,41.39,57.124011,0.0010943914612681128,-0.02238531725122294,0.0973015264147526,44.11764879391193,-92.24360919585227,72.1922225099802
2024-09-23 22:34:37.170663,41.39,57.124011,0.0010943914612681128,-0.02238531725122294,0.0973015264147526,44.11764879391193,-96.25519929585457,72.1922225099802
2024-09-23 22:34:37.202288,41.39,57.124011,0.0010943914612681128,-0.02238531725122294,0.0973015264147526,44.11764879391193,-96.25519929585457,80.21211738781929
2024-09-23 22:34:37.213748,41.39,57.124062,0.0006466830067647949,-0.023230986250042305,0.09705279702197278,52.137550501942634,-96.25519929585457,80.21211738781929
2024-09-23 22:34:37.257554,41.39,57.124113,0.0007461703303635545,-0.022833026512682618,0.09705279702197278,52.137550501942634,-88.23529758782387,80.21211738781929
2024-09-23 22:34:37.269293,41.39,57.124113,0.0007461703303635545,-0.022833026512682618,0.0973512698629459,52.137550501942634,-88.23529758782387,80.21211738781929
2024-09-23 22:34:37.302067,41.39,57.124113,0.0007461703303635545,-0.022833026512682618,0.0973512698629459,36.09446859390736,-84.22370748782159,80.21211738781929
2024-09-23 22:34:37.313199,41.39,57.124164,0.0011441298778511575,-0.02313149783467906,0.0973512698629459,36.09446859390736,-84.22370748782159,76.200527287817
2024-09-23 22:34:37.355749,41.39,57.124253,0.0011441298778511575,-0.02313149783467906,0.0976994861521123,44.11764879391193,-88.23529758782387,76.200527287817
2024-09-23 22:34:37.368708,41.39,57.124253,0.0009451553255896806,-0.02313149783467906,0.0976994861521123,44.11764879391193,-88.23529758782387,76.200527287817
2024-09-23 22:34:37.402838,41.39,57.124253,0.0009451553255896806,-0.023181236725942318,0.09764974270391902,32.08287849390507,-88.23529758782387,76.200527287817
2024-09-23 22:34:37.414471,41.39,57.124347,0.0009451553255896806,-0.023181236725942318,0.09764974270391902,32.08287849390507,-92.24360919585227,80.21211738781929
2024-09-23 22:34:37.446112,41.39,57.124347,0.0008954064660419869,-0.023181236725942318,0.09764974270391902,32.08287849390507,-92.24360919585227,80.21211738781929
2024-09-23 22:34:37.457663,41.39,57.124347,0.0008954064660419869,-0.02308174982955575,0.09720203344245934,36.09446859390736,-92.24360919585227,76.200527287817
2024-09-23 22:34:37.500217,41.39,57.124399,0.0004974468710863627,-0.022833026512682618,0.0976994861521123,36.09446859390736,-92.24360919585227,76.200527287817
2024-09-23 22:34:37.511985,41.39,57.124399,0.0004974468710863627,-0.022833026512682618,0.0976994861521123,40.106058693909645,-88.23529758782387,76.200527287817
2024-09-23 22:34:37.543559,41.39,57.124399,0.0004974468710863627,-0.022833026512682618,0.0976994861521123,40.106058693909645,-88.23529758782387,80.21211738781929
2024-09-23 22:34:37.554928,41.39,57.12445,0.0010943914612681128,-0.02338022115155219,0.09755024973162574,44.11764879391193,-88.23529758782387,80.21211738781929
2024-09-23 22:34:37.596586,41.39,57.12445,0.0010943914612681128,-0.02338022115155219,0.09755024973162574,44.11764879391193,-96.25519929585457,84.22370748782159
2024-09-23 22:34:37.650265,41.39,57.1245,0.0007959191899112484,-0.02308174982955575,0.0973015264147526,40.106058693909645,-92.24360919585227,84.22370748782159
2024-09-23 22:34:37.693297,41.39,57.124551,0.0012933660135295898,-0.02308174982955575,0.0973015264147526,40.106058693909645,-92.24360919585227,76.200527287817
2024-09-23 22:34:37.704963,41.39,57.124551,0.0012933660135295898,-0.022484804147609512,0.09720203344245934,48.12595698684454,-92.24360919585227,76.200527287817
2024-09-23 22:34:37.747850,41.39,57.124602,0.0010943914612681128,-0.02293251340906919,0.09789846602079214,48.12595698684454,-92.24360919585227,76.200527287817
2024-09-23 22:34:37.791345,41.39,57.124602,0.0010943914612681128,-0.02293251340906919,0.09789846602079214,48.12595698684454,-96.25519929585457,76.200527287817
2024-09-23 22:34:37.802439,41.39,57.124689,0.0005969341946851222,-0.023429960042815445,0.09789846602079214,48.12595698684454,-96.25519929585457,76.200527287817
2024-09-23 22:34:37.844928,41.39,57.124739,0.0004974468710863627,-0.023429960042815445,0.09745075675933246,44.11764879391193,-92.24360919585227,72.1922225099802
2024-09-23 22:34:37.889954,41.39,57.124739,0.0004974468710863627,-0.02278327698858263,0.09779897304849887,44.11764879391193,-92.24360919585227,72.1922225099802
2024-09-23 22:34:37.901318,41.39,57.124835,0.0004974468710863627,-0.02278327698858263,0.09779897304849887,44.11764879391193,-92.24360919585227,80.21211738781929
2024-09-23 22:34:37.933258,41.39,57.124835,0.0006466830067647949,-0.02278327698858263,0.09779897304849887,44.11764879391193,-92.24360919585227,80.21211738781929
2024-09-23 22:34:37.945775,41.39,57.124835,0.0006466830067647949,-0.023429960042815445,0.09745075675933246,48.12595698684454,-92.24360919585227,72.1922225099802
2024-09-23 22:34:37.988617,41.52,57.124887,0.0008954064660419869,-0.02313149783467906,0.09740101331113918,44.11764879391193,-92.24360919585227,72.1922225099802
2024-09-23 22:34:38.000338,41.52,57.124887,0.0008954064660419869,-0.02313149783467906,0.09740101331113918,44.11764879391193,-88.23529758782387,72.1922225099802
2024-09-23 22:34:38.033649,41.52,57.124937,0.0008954064660419869,-0.02313149783467906,0.09740101331113918,44.11764879391193,-88.23529758782387,72.1922225099802
2024-09-23 22:34:38.045182,41.52,57.124937,0.0007461703303635545,-0.023330473146428877,0.09759999317981902,36.09446859390736,-88.23529758782387,72.1922225099802
2024-09-23 22:34:38.087806,41.52,57.124937,0.0007461703303635545,-0.023330473146428877,0.09759999317981902,36.09446859390736,-84.22370748782159,72.1922225099802
2024-09-23 22:34:38.130663,41.52,57.124988,0.0007461703303635545,-0.023330473146428877,0.09759999317981902,36.09446859390736,-84.22370748782159,80.21211738781929
2024-09-23 22:34:38.142421,41.52,57.124988,0.0001989745997294981,-0.02268379009219606,0.0976994861521123,44.11764879391193,-84.22370748782159,80.21211738781929
2024-09-23 22:34:38.185145,41.52,57.124988,0.0001989745997294981,-0.02268379009219606,0.0976994861521123,44.11764879391193,-92.24360919585227,80.21211738781929
2024-09-23 22:34:38.227531,41.52,57.124988,0.0001989745997294981,-0.02268379009219606,0.0976994861521123,44.11764879391193,-92.24360919585227,72.1922225099802
2024-09-23 22:34:38.239400,41.52,57.125039,0.00029846189959424716,-0.0228827638849692,0.09774922960030558,36.09446859390736,-92.24360919585227,72.1922225099802
2024-09-23 22:34:38.282133,41.52,57.125089,0.0007461703303635545,-0.022833026512682618,0.09774922960030558,36.09446859390736,-92.24360919585227,72.1922225099802
2024-09-23 22:34:38.294092,41.52,57.125089,0.0007461703303635545,-0.022833026512682618,0.09725178296655933,36.09446859390736,-92.24360919585227,72.1922225099802
2024-09-23 22:34:38.325942,41.52,57.125089,0.0007461703303635545,-0.022833026512682618,0.09725178296655933,44.11764879391193,-88.23529758782387,72.1922225099802
2024-09-23 22:34:38.337064,41.52,57.125176,0.0011938787373988514,-0.023579196463302005,0.09725178296655933,44.11764879391193,-88.23529758782387,80.21211738781929
2024-09-23 22:34:38.380310,41.52,57.125227,0.0008954064660419869,-0.023579196463302005,0.0970030596496862,44.11764879391193,-92.24360919585227,72.1922225099802
2024-09-23 22:34:38.422659,41.52,57.125227,0.0008954064660419869,-0.0228827638849692,0.09789846602079214,44.11764879391193,-92.24360919585227,72.1922225099802
2024-09-23 22:34:38.434402,41.52,57.125323,0.0008954064660419869,-0.0228827638849692,0.09789846602079214,48.12595698684454,-92.24360919585227,80.21211738781929
2024-09-23 22:34:38.476082,41.52,57.125323,0.0006964318663124887,-0.022982261414192504,0.09740101331113918,44.11764879391193,-96.25519929585457,80.21211738781929
2024-09-23 22:34:38.488288,41.52,57.125323,0.0006964318663124887,-0.022982261414192504,0.09740101331113918,44.11764879391193,-96.25519929585457,76.200527287817
2024-09-23 22:34:38.520631,41.52,57.12542,0.0013431148730772837,-0.022982261414192504,0.09740101331113918,44.11764879391193,-96.25519929585457,76.200527287817
2024-09-23 22:34:38.532189,41.52,57.12542,0.0013431148730772837,-0.02263404056809607,0.0976994861521123,44.11764879391193,-92.24360919585227,76.200527287817
2024-09-23 22:34:38.575171,41.52,57.125472,0.0009948937421727254,-0.023778180888911878,0.09789846602079214,40.106058693909645,-92.24360919585227,72.1922225099802
2024-09-23 22:34:38.668474,41.52,57.125523,0.0009948937421727254,-0.023778180888911878,0.09789846602079214,40.106058693909645,-96.25519929585457,76.200527287817
2024-09-23 22:34:38.680503,41.52,57.125523,0.00034821073540793035,-0.02293251340906919,0.09715228999426605,40.106058693909645,-96.25519929585457,76.200527287817
2024-09-23 22:34:38.724104,41.52,57.125573,0.0011441298778511575,-0.02367869399252531,0.09715228999426605,44.11764879391193,-96.25519929585457,72.1922225099802
2024-09-23 22:34:38.766853,41.52,57.125573,0.0011441298778511575,-0.02367869399252531,0.0976994861521123,44.11764879391193,-96.25519929585457,76.200527287817
2024-09-23 22:34:38.778380,41.52,57.125624,0.0010943914612681128,-0.02367869399252531,0.0976994861521123,44.11764879391193,-96.25519929585457,76.200527287817
2024-09-23 22:34:38.810841,41.52,57.125624,0.0010943914612681128,-0.0228827638849692,0.0976994861521123,44.11764879391193,-96.25519929585457,76.200527287817
2024-09-23 22:34:38.822739,41.52,57.125712,0.0010943914612681128,-0.0228827638849692,0.09755024973162574,36.09446859390736,-100.26678939585686,76.200527287817
2024-09-23 22:34:38.865054,41.52,57.125712,0.001044642601720419,-0.0225345536717095,0.09759999317981902,44.11764879391193,-100.26678939585686,76.200527287817
2024-09-23 22:34:38.877004,41.52,57.125712,0.001044642601720419,-0.0225345536717095,0.09759999317981902,44.11764879391193,-92.24360919585227,72.1922225099802
2024-09-23 22:34:38.910217,41.52,57.125811,0.0013431148730772837,-0.0225345536717095,0.09759999317981902,44.11764879391193,-92.24360919585227,72.1922225099802
2024-09-23 22:34:38.964488,41.52,57.125811,0.0013431148730772837,-0.02338022115155219,0.09774922960030558,44.11764879391193,-92.24360919585227,72.1922225099802
2024-09-23 22:34:38.976784,41.52,57.125862,0.0013431148730772837,-0.02338022115155219,0.09774922960030558,44.11764879391193,-92.24360919585227,72.1922225099802
2024-09-23 22:34:39.060021,41.33,57.125862,0.0009451553255896806,-0.022136593934349812,0.0970030596496862,44.11764879391193,-92.24360919585227,72.1922225099802
2024-09-23 22:34:39.071393,41.33,57.125862,0.0009451553255896806,-0.022136593934349812,0.0970030596496862,36.09446859390736,-92.24360919585227,76.200527287817
2024-09-23 22:34:39.103275,41.33,57.125913,0.0009451553255896806,-0.022136593934349812,0.0970030596496862,36.09446859390736,-92.24360919585227,76.200527287817
2024-09-23 22:34:39.115516,41.33,57.125913,0.0010943914612681128,-0.022136593934349812,0.0970030596496862,36.09446859390736,-92.24360919585227,76.200527287817
2024-09-23 22:34:39.157429,41.33,57.125913,0.0010943914612681128,-0.02338022115155219,0.09725178296655933,48.12595698684454,-96.25519929585457,76.200527287817
2024-09-23 22:34:39.169587,41.33,57.125963,0.0010943914612681128,-0.02338022115155219,0.09725178296655933,48.12595698684454,-96.25519929585457,72.1922225099802
2024-09-23 22:34:39.254229,41.33,57.125963,0.000845657606494293,-0.02238531725122294,0.09779897304849887,48.12595698684454,-96.25519929585457,72.1922225099802
2024-09-23 22:34:39.267412,41.33,57.125963,0.000845657606494293,-0.02238531725122294,0.09779897304849887,36.09446859390736,-84.22370748782159,80.21211738781929
2024-09-23 22:34:39.299778,41.33,57.126014,0.000845657606494293,-0.02238531725122294,0.09779897304849887,36.09446859390736,-84.22370748782159,80.21211738781929
2024-09-23 22:34:39.311629,41.33,57.126014,0.0007959191899112484,-0.022982261414192504,0.09745075675933246,48.12595698684454,-96.25519929585457,80.21211738781929
2024-09-23 22:34:39.354245,41.33,57.126105,0.0009948937421727254,-0.023479709566915436,0.09764974270391902,48.12595698684454,-96.25519929585457,72.1922225099802
2024-09-23 22:34:39.366378,41.33,57.126105,0.0009948937421727254,-0.023479709566915436,0.09764974270391902,48.12595698684454,-96.25519929585457,72.1922225099802
2024-09-23 22:34:39.398040,41.33,57.126105,0.0009948937421727254,-0.023479709566915436,0.09764974270391902,48.12595698684454,-92.24360919585227,76.200527287817
2024-09-23 22:34:39.409350,41.33,57.126203,0.0005471957306340564,-0.02268379009219606,0.09740101331113918,48.12595698684454,-92.24360919585227,76.200527287817
2024-09-23 22:34:39.452377,41.33,57.126203,0.0005471957306340564,-0.02268379009219606,0.09740101331113918,40.106058693909645,-92.24360919585227,76.200527287817
2024-09-23 22:34:39.495188,41.33,57.126203,0.0005471957306340564,-0.02268379009219606,0.09740101331113918,40.106058693909645,-92.24360919585227,76.200527287817
2024-09-23 22:34:39.506828,41.33,57.1263,0.0008954064660419869,-0.022484804147609512,0.09759999317981902,40.106058693909645,-92.24360919585227,72.1922225099802
2024-09-23 22:34:39.549958,41.33,57.126398,0.0010943914612681128,-0.022484804147609512,0.09759999317981902,40.106058693909645,-92.24360919585227,72.1922225099802
2024-09-23 22:34:39.561854,41.33,57.126398,0.0010943914612681128,-0.023429960042815445,0.09759999317981902,40.106058693909645,-92.24360919585227,72.1922225099802
2024-09-23 22:34:39.593873,41.33,57.126398,0.0010943914612681128,-0.023429960042815445,0.09725178296655933,44.11764879391193,-92.24360919585227,72.1922225099802
2024-09-23 22:34:39.605647,41.33,57.126492,0.001044642601720419,-0.023429960042815445,0.09725178296655933,44.11764879391193,-92.24360919585227,76.200527287817
2024-09-23 22:34:39.648929,41.33,57.126544,0.001044642601720419,-0.0228827638849692,0.09715228999426605,40.106058693909645,-92.24360919585227,80.21211738781929
2024-09-23 22:34:39.691719,41.33,57.126544,0.0006964318663124887,-0.023429960042815445,0.09764974270391902,40.106058693909645,-92.24360919585227,80.21211738781929
2024-09-23 22:34:39.704069,41.33,57.126544,0.0006964318663124887,-0.023429960042815445,0.09764974270391902,40.106058693909645,-92.24360919585227,76.200527287817
2024-09-23 22:34:39.746675,41.33,57.126639,0.0009451553255896806,-0.02303200030545576,0.09725178296655933,40.106058693909645,-92.24360919585227,76.200527287817
2024-09-23 22:34:39.788870,41.33,57.126691,0.0009451553255896806,-0.02303200030545576,0.09725178296655933,40.106058693909645,-92.24360919585227,76.200527287817
2024-09-23 22:34:39.800144,41.33,57.126691,0.0,-0.02303200030545576,0.09794820946898543,40.106058693909645,-92.24360919585227,76.200527287817
2024-09-23 22:34:39.843986,41.33,57.126741,0.0005471957306340564,-0.02268379009219606,0.09745075675933246,40.106058693909645,-96.25519929585457,80.21211738781929
2024-09-23 22:34:39.886840,41.33,57.126741,0.0005471957306340564,-0.02268379009219606,0.09745075675933246,44.11764879391193,-100.26678939585686,72.1922225099802
2024-09-23 22:34:39.897873,41.33,57.126792,0.000845657606494293,-0.023181236725942318,0.09745075675933246,44.11764879391193,-100.26678939585686,72.1922225099802
2024-09-23 22:34:39.940011,41.33,57.126843,0.00029846189959424716,-0.023181236725942318,0.09759999317981902,40.106058693909645,-84.22370748782159,80.21211738781929
2024-09-23 22:34:39.983251,41.33,57.126843,0.00029846189959424716,-0.0228827638849692,0.09759999317981902,40.106058693909645,-84.22370748782159,80.21211738781929
2024-09-23 22:34:39.994523,41.33,57.126843,0.00029846189959424716,-0.0228827638849692,0.09759999317981902,36.09446859390736,-104.27510100388527,72.1922225099802
2024-09-23 22:34:40.037987,41.33,57.126931,0.0007959191899112484,-0.022833026512682618,0.0973015264147526,32.08287849390507,-96.25519929585457,72.1922225099802
2024-09-23 22:34:40.080274,41.44,57.126983,0.0007959191899112484,-0.022833026512682618,0.0973015264147526,32.08287849390507,-96.25519929585457,72.1922225099802
2024-09-23 22:34:40.091928,41.44,57.126983,0.0009948937421727254,-0.023579196463302005,0.09745075675933246,40.106058693909645,-96.25519929585457,72.1922225099802
2024-09-23 22:34:40.135082,41.44,57.126983,0.0009948937421727254,-0.023579196463302005,0.09745075675933246,40.106058693909645,-100.26678939585686,72.1922225099802
2024-09-23 22:34:40.178059,41.44,57.127033,0.0006466830067647949,-0.023579196463302005,0.09745075675933246,40.106058693909645,-100.26678939585686,72.1922225099802
2024-09-23 22:34:40.189707,41.44,57.127033,0.0006466830067647949,-0.02308174982955575,0.0973512698629459,52.137550501942634,-92.24360919585227,72.1922225099802
2024-09-23 22:34:40.232885,41.44,57.127084,0.0001989745997294981,-0.02308174982955575,0.09745075675933246,48.12595698684454,-92.24360919585227,76.200527287817
2024-09-23 22:34:40.274973,41.44,57.127084,0.0001989745997294981,-0.02308174982955575,0.09745075675933246,48.12595698684454,-92.24360919585227,72.1922225099802
2024-09-23 22:34:40.285997,41.44,57.127135,0.0005471957306340564,-0.02308174982955575,0.09690356060148622,48.12595698684454,-92.24360919585227,72.1922225099802
2024-09-23 22:34:40.328772,41.44,57.127224,0.000845657606494293,-0.02308174982955575,0.09690356060148622,48.12595698684454,-92.24360919585227,76.200527287817
2024-09-23 22:34:40.340877,41.44,57.127224,0.000845657606494293,-0.02308174982955575,0.09690356060148622,48.12595698684454,-92.24360919585227,76.200527287817
2024-09-23 22:34:40.372758,41.44,57.127224,0.000845657606494293,-0.02308174982955575,0.09764974270391902,44.11764879391193,-92.24360919585227,76.200527287817
2024-09-23 22:34:40.384401,41.44,57.127275,0.0006964318663124887,-0.02308174982955575,0.09764974270391902,44.11764879391193,-96.25519929585457,76.200527287817
2024-09-23 22:34:40.427558,41.44,57.127275,0.0006964318663124887,-0.02268379009219606,0.09695331012558621,40.106058693909645,-88.23529758782387,76.200527287817
2024-09-23 22:34:40.439261,41.44,57.12737,0.0006964318663124887,-0.02268379009219606,0.09695331012558621,40.106058693909645,-88.23529758782387,76.200527287817
2024-09-23 22:34:40.471671,41.44,57.12737,0.00044769805900669,-0.022833026512682618,0.09695331012558621,40.106058693909645,-88.23529758782387,76.200527287817
2024-09-23 22:34:40.483615,41.44,57.12737,0.00044769805900669,-0.022833026512682618,0.09695331012558621,48.12595698684454,-96.25519929585457,72.1922225099802
2024-09-23 22:34:40.526469,41.44,57.127421,0.0006964318663124887,-0.022484804147609512,0.09720203344245934,44.11764879391193,-92.24360919585227,72.1922225099802
2024-09-23 22:34:40.569022,41.44,57.127472,0.0006964318663124887,-0.022484804147609512,0.09720203344245934,44.11764879391193,-92.24360919585227,72.1922225099802
2024-09-23 22:34:40.581290,41.44,57.127472,0.0006964318663124887,-0.02263404056809607,0.0970030596496862,48.12595698684454,-92.24360919585227,72.1922225099802
2024-09-23 22:34:40.624544,41.44,57.127523,0.0005969341946851222,-0.02303200030545576,0.09740101331113918,48.12595698684454,-100.26678939585686,68.18063240997792
2024-09-23 22:34:40.667348,41.44,57.127523,0.0005969341946851222,-0.02303200030545576,0.09740101331113918,48.12595698684454,-96.25519929585457,72.1922225099802
2024-09-23 22:34:40.678792,41.44,57.127573,0.0003979595949556242,-0.022833026512682618,0.09740101331113918,48.12595698684454,-96.25519929585457,72.1922225099802
2024-09-23 22:34:40.722482,41.44,57.127624,0.000845657606494293,-0.022833026512682618,0.0970030596496862,44.11764879391193,-96.25519929585457,76.200527287817
2024-09-23 22:34:40.764986,41.44,57.127624,0.000845657606494293,-0.02308174982955575,0.09740101331113918,44.11764879391193,-96.25519929585457,76.200527287817
2024-09-23 22:34:40.776888,41.44,57.127711,0.000845657606494293,-0.02308174982955575,0.09740101331113918,44.11764879391193,-88.23529758782387,76.200527287817
2024-09-23 22:34:40.819803,41.44,57.127711,0.0008954064660419869,-0.02313149783467906,0.09725178296655933,44.11764879391193,-92.24360919585227,72.1922225099802
2024-09-23 22:34:40.862874,41.44,57.127763,0.0010943914612681128,-0.023181236725942318,0.09725178296655933,44.11764879391193,-92.24360919585227,72.1922225099802
2024-09-23 22:34:40.874782,41.44,57.127763,0.0010943914612681128,-0.023181236725942318,0.0973512698629459,36.09446859390736,-100.26678939585686,72.1922225099802
2024-09-23 22:34:40.917448,41.44,57.127813,0.0007461703303635545,-0.023181236725942318,0.09715228999426605,32.08287849390507,-100.26678939585686,76.200527287817
2024-09-23 22:34:40.959955,41.44,57.127864,0.0007461703303635545,-0.023181236725942318,0.09715228999426605,32.08287849390507,-96.25519929585457,80.21211738781929
2024-09-23 22:34:40.971566,41.44,57.127864,0.0008954064660419869,-0.023280723622328886,0.09725178296655933,32.08287849390507,-96.25519929585457,80.21211738781929
2024-09-23 22:34:41.014232,41.44,57.127915,0.0015918383798224967,-0.023429960042815445,0.09725178296655933,40.106058693909645,-100.26678939585686,80.21211738781929
2024-09-23 22:34:41.057317,41.44,57.127915,0.0015918383798224967,-0.023429960042815445,0.09720203344245934,32.08287849390507,-96.25519929585457,80.21211738781929
2024-09-23 22:34:41.069096,41.44,57.127965,0.000845657606494293,-0.023429960042815445,0.09720203344245934,32.08287849390507,-96.25519929585457,76.200527287817
2024-09-23 22:34:41.102329,41.45,57.127965,0.000845657606494293,-0.02313149783467906,0.09720203344245934,32.08287849390507,-96.25519929585457,76.200527287817
2024-09-23 22:34:41.114163,41.45,57.128052,0.000845657606494293,-0.02313149783467906,0.09799795899308542,44.11764879391193,-96.25519929585457,72.1922225099802
2024-09-23 22:34:41.156602,41.45,57.128052,0.0009948937421727254,-0.02308174982955575,0.09710254654607277,44.11764879391193,-96.25519929585457,72.1922225099802
2024-09-23 22:34:41.208907,41.45,57.128104,0.00044769805900669,-0.023330473146428877,0.09710254654607277,44.11764879391193,-96.25519929585457,76.200527287817
2024-09-23 22:34:41.253891,41.45,57.128104,0.00044769805900669,-0.023330473146428877,0.09685382322919964,36.09446859390736,-88.23529758782387,76.200527287817
2024-09-23 22:34:41.265626,41.45,57.128155,0.001044642601720419,-0.023330473146428877,0.09685382322919964,36.09446859390736,-88.23529758782387,76.200527287817
2024-09-23 22:34:41.297894,41.45,57.128155,0.001044642601720419,-0.022982261414192504,0.09685382322919964,36.09446859390736,-88.23529758782387,76.200527287817
2024-09-23 22:34:41.309809,41.45,57.128205,0.001044642601720419,-0.022982261414192504,0.09779897304849887,44.11764879391193,-92.24360919585227,76.200527287817
2024-09-23 22:34:41.352449,41.45,57.128205,0.0011938787373988514,-0.022982261414192504,0.09705279702197278,36.09446859390736,-100.26678939585686,76.200527287817
2024-09-23 22:34:41.364138,41.45,57.128205,0.0011938787373988514,-0.022982261414192504,0.09705279702197278,36.09446859390736,-100.26678939585686,76.200527287817
2024-09-23 22:34:41.396420,41.45,57.128256,0.0005969341946851222,-0.022982261414192504,0.09705279702197278,36.09446859390736,-100.26678939585686,76.200527287817
2024-09-23 22:34:41.408112,41.45,57.128256,0.0005969341946851222,-0.02263404056809607,0.09779897304849887,40.106058693909645,-92.24360919585227,76.200527287817
2024-09-23 22:34:41.451121,41.45,57.128346,0.0010943914612681128,-0.02303200030545576,0.09725178296655933,40.106058693909645,-92.24360919585227,80.21211738781929
2024-09-23 22:34:41.463208,41.45,57.128346,0.0010943914612681128,-0.02303200030545576,0.09725178296655933,48.12595698684454,-92.24360919585227,80.21211738781929
2024-09-23 22:34:41.496220,41.45,57.128346,0.0010943914612681128,-0.02303200030545576,0.09725178296655933,48.12595698684454,-96.25519929585457,72.1922225099802
2024-09-23 22:34:41.507365,41.45,57.128397,0.0011441298778511575,-0.023330473146428877,0.09779897304849887,48.12595698684454,-96.25519929585457,72.1922225099802
2024-09-23 22:34:41.550445,41.45,57.128448,0.0004974468710863627,-0.02293251340906919,0.09779897304849887,48.12595698684454,-104.27510100388527,76.200527287817
2024-09-23 22:34:41.592427,41.45,57.128448,0.0004974468710863627,-0.02293251340906919,0.09710254654607277,40.106058693909645,-104.27510100388527,76.200527287817
2024-09-23 22:34:41.604647,41.45,57.128498,0.0009948937421727254,-0.02293251340906919,0.09710254654607277,40.106058693909645,-100.26678939585686,68.18063240997792
2024-09-23 22:34:41.647690,41.45,57.128589,0.0009948937421727254,-0.02268379009219606,0.09750050628343246,36.09446859390736,-96.25519929585457,68.18063240997792
2024-09-23 22:34:41.692844,41.45,57.128589,0.0010943914612681128,-0.02268379009219606,0.09755024973162574,36.09446859390736,-96.25519929585457,68.18063240997792
2024-09-23 22:34:41.705854,41.45,57.128589,0.0010943914612681128,-0.02268379009219606,0.09755024973162574,36.09446859390736,-88.23529758782387,80.21211738781929
2024-09-23 22:34:41.738450,41.45,57.12864,0.0004974468710863627,-0.02268379009219606,0.09755024973162574,36.09446859390736,-88.23529758782387,80.21211738781929
2024-09-23 22:34:41.750333,41.45,57.12864,0.0004974468710863627,-0.02263404056809607,0.0973512698629459,40.106058693909645,-92.24360919585227,80.21211738781929
2024-09-23 22:34:41.792637,41.45,57.128691,0.0007461703303635545,-0.023330473146428877,0.09740101331113918,40.106058693909645,-92.24360919585227,72.1922225099802
2024-09-23 22:34:41.834919,41.45,57.128691,0.0007461703303635545,-0.023330473146428877,0.09740101331113918,40.106058693909645,-92.24360919585227,72.1922225099802
2024-09-23 22:34:41.847131,41.45,57.128742,0.0007461703303635545,-0.02293251340906919,0.0973512698629459,40.106058693909645,-92.24360919585227,76.200527287817
2024-09-23 22:34:41.891160,41.45,57.128792,0.0009948937421727254,-0.022982261414192504,0.0973512698629459,44.11764879391193,-92.24360919585227,76.200527287817
2024-09-23 22:34:41.934013,41.45,57.128792,0.0009948937421727254,-0.022982261414192504,0.09745075675933246,48.12595698684454,-96.25519929585457,76.200527287817
2024-09-23 22:34:41.944937,41.45,57.128843,0.001044642601720419,-0.022982261414192504,0.09745075675933246,48.12595698684454,-96.25519929585457,76.200527287817
2024-09-23 22:34:41.987340,41.45,57.128843,0.001044642601720419,-0.022833026512682618,0.09759999317981902,44.11764879391193,-88.23529758782387,76.200527287817
2024-09-23 22:34:41.999369,41.45,57.12893,0.001044642601720419,-0.022833026512682618,0.09759999317981902,44.11764879391193,-88.23529758782387,76.200527287817
2024-09-23 22:34:42.031497,41.45,57.12893,0.00024872343554318134,-0.02308174982955575,0.09759999317981902,44.11764879391193,-88.23529758782387,76.200527287817
2024-09-23 22:34:42.043190,41.45,57.12893,0.00024872343554318134,-0.02308174982955575,0.09764974270391902,40.106058693909645,-92.24360919585227,76.200527287817
2024-09-23 22:34:42.085728,41.45,57.128982,0.0008954064660419869,-0.02293251340906919,0.09745075675933246,44.11764879391193,-92.24360919585227,76.200527287817
2024-09-23 22:34:42.098061,41.45,57.128982,0.0008954064660419869,-0.02293251340906919,0.09745075675933246,44.11764879391193,-88.23529758782387,76.200527287817
2024-09-23 22:34:42.131419,41.74,57.129032,0.0004974468710863627,-0.02308174982955575,0.09745075675933246,44.11764879391193,-88.23529758782387,80.21211738781929
2024-09-23 22:34:42.142469,41.74,57.129032,0.0004974468710863627,-0.02308174982955575,0.0976994861521123,44.11764879391193,-88.23529758782387,80.21211738781929
2024-09-23 22:34:42.174493,41.74,57.129032,0.0004974468710863627,-0.02308174982955575,0.0976994861521123,44.11764879391193,-92.24360919585227,80.21211738781929
2024-09-23 22:34:42.186024,41.74,57.129083,0.0004974468710863627,-0.02308174982955575,0.0976994861521123,44.11764879391193,-92.24360919585227,76.200527287817
2024-09-23 22:34:42.227797,41.74,57.129083,0.0008954064660419869,-0.02303200030545576,0.09710254654607277,44.11764879391193,-92.24360919585227,76.200527287817
2024-09-23 22:34:42.281329,41.74,57.129134,0.0006964318663124887,-0.022733528983459317,0.09710254654607277,40.106058693909645,-92.24360919585227,84.22370748782159
2024-09-23 22:34:42.324729,41.74,57.129134,0.0006964318663124887,-0.022733528983459317,0.09784872257259886,44.11764879391193,-96.25519929585457,84.22370748782159
2024-09-23 22:34:42.336422,41.74,57.129184,0.0005969341946851222,-0.022733528983459317,0.09784872257259886,44.11764879391193,-96.25519929585457,80.21211738781929
2024-09-23 22:34:42.371900,41.74,57.129184,0.0005969341946851222,-0.023479709566915436,0.09784872257259886,44.11764879391193,-96.25519929585457,80.21211738781929
2024-09-23 22:34:42.383717,41.74,57.129271,0.0005969341946851222,-0.023479709566915436,0.0973015264147526,44.11764879391193,-100.26678939585686,72.1922225099802
2024-09-23 22:34:42.426119,41.74,57.129271,0.000845657606494293,-0.02308174982955575,0.09720203344245934,44.11764879391193,-92.24360919585227,72.1922225099802
2024-09-23 22:34:42.437792,41.74,57.129271,0.000845657606494293,-0.02308174982955575,0.09720203344245934,44.11764879391193,-92.24360919585227,76.200527287817
2024-09-23 22:34:42.471175,41.74,57.129322,0.0010943914612681128,-0.02313149783467906,0.09720203344245934,44.11764879391193,-92.24360919585227,76.200527287817
2024-09-23 22:34:42.482514,41.74,57.129322,0.0010943914612681128,-0.02313149783467906,0.0973015264147526,40.106058693909645,-92.24360919585227,76.200527287817
2024-09-23 22:34:42.524716,41.74,57.129419,0.0005471957306340564,-0.022982261414192504,0.098047696365372,48.12595698684454,-92.24360919585227,76.200527287817
2024-09-23 22:34:42.566816,41.74,57.129419,0.0005471957306340564,-0.022982261414192504,0.098047696365372,48.12595698684454,-88.23529758782387,84.22370748782159
2024-09-23 22:34:42.578609,41.74,57.12947,0.0007461703303635545,-0.02308174982955575,0.09784872257259886,48.12595698684454,-88.23529758782387,84.22370748782159
2024-09-23 22:34:42.621329,41.74,57.129521,0.0005969341946851222,-0.02268379009219606,0.09784872257259886,44.11764879391193,-88.23529758782387,84.22370748782159
2024-09-23 22:34:42.663932,41.74,57.129521,0.0005969341946851222,-0.02268379009219606,0.09759999317981902,44.11764879391193,-88.23529758782387,84.22370748782159
2024-09-23 22:34:42.675482,41.74,57.129572,0.001044642601720419,-0.02268379009219606,0.09759999317981902,44.11764879391193,-92.24360919585227,84.22370748782159
2024-09-23 22:34:42.718901,41.74,57.129572,0.001044642601720419,-0.02313149783467906,0.09774922960030558,40.106058693909645,-96.25519929585457,76.200527287817
2024-09-23 22:34:42.730370,41.74,57.129661,0.001044642601720419,-0.02313149783467906,0.09774922960030558,40.106058693909645,-96.25519929585457,76.200527287817
2024-09-23 22:34:42.762050,41.74,57.129661,0.0007959191899112484,-0.022584292562972758,0.09774922960030558,40.106058693909645,-96.25519929585457,76.200527287817
2024-09-23 22:34:42.773986,41.74,57.129661,0.0007959191899112484,-0.022584292562972758,0.09750050628343246,44.11764879391193,-96.25519929585457,72.1922225099802
2024-09-23 22:34:42.816360,41.74,57.129713,0.0006964318663124887,-0.022982261414192504,0.09745075675933246,40.106058693909645,-96.25519929585457,72.1922225099802
2024-09-23 22:34:42.828402,41.74,57.129713,0.0006964318663124887,-0.022982261414192504,0.09745075675933246,40.106058693909645,-92.24360919585227,72.1922225099802
2024-09-23 22:34:42.860376,41.74,57.129764,0.00014922575204880957,-0.022982261414192504,0.09745075675933246,40.106058693909645,-92.24360919585227,72.1922225099802
2024-09-23 22:34:42.871597,41.74,57.129764,0.00014922575204880957,-0.02278327698858263,0.09710254654607277,40.106058693909645,-92.24360919585227,72.1922225099802
2024-09-23 22:34:42.914709,41.74,57.129814,0.0006466830067647949,-0.02303200030545576,0.09745075675933246,40.106058693909645,-96.25519929585457,76.200527287817
2024-09-23 22:34:42.957723,41.74,57.129814,0.0006466830067647949,-0.02303200030545576,0.09745075675933246,36.09446859390736,-96.25519929585457,76.200527287817
2024-09-23 22:34:42.973935,41.74,57.129865,0.0011938787373988514,-0.023181236725942318,0.09745075675933246,36.09446859390736,-96.25519929585457,72.1922225099802
2024-09-23 22:34:43.006226,41.74,57.129865,0.0011938787373988514,-0.023181236725942318,0.0976994861521123,40.106058693909645,-96.25519929585457,72.1922225099802
2024-09-23 22:34:43.017349,41.74,57.129915,0.0006964318663124887,-0.023181236725942318,0.0976994861521123,40.106058693909645,-92.24360919585227,80.21211738781929
2024-09-23 22:34:43.060117,41.74,57.130003,0.0006964318663124887,-0.02293251340906919,0.09759999317981902,44.11764879391193,-96.25519929585457,72.1922225099802
2024-09-23 22:34:43.102647,41.74,57.130003,0.0009451553255896806,-0.023181236725942318,0.09759999317981902,44.11764879391193,-96.25519929585457,72.1922225099802
2024-09-23 22:34:43.114175,41.74,57.130003,0.0009451553255896806,-0.023181236725942318,0.09774922960030558,52.137550501942634,-92.24360919585227,72.1922225099802
2024-09-23 22:34:43.156441,41.8,57.130054,0.0010943914612681128,-0.022733528983459317,0.09745075675933246,52.137550501942634,-92.24360919585227,72.1922225099802
2024-09-23 22:34:43.168475,41.8,57.130054,0.0010943914612681128,-0.022733528983459317,0.09745075675933246,48.12595698684454,-92.24360919585227,72.1922225099802
2024-09-23 22:34:43.200552,41.8,57.130105,0.0010943914612681128,-0.022733528983459317,0.09745075675933246,48.12595698684454,-92.24360919585227,72.1922225099802
2024-09-23 22:34:43.212418,41.8,57.130105,0.0005471957306340564,-0.022733528983459317,0.09745075675933246,48.12595698684454,-92.24360919585227,72.1922225099802
2024-09-23 22:34:43.255602,41.8,57.130105,0.0005471957306340564,-0.0228827638849692,0.09764974270391902,40.106058693909645,-92.24360919585227,76.200527287817
2024-09-23 22:34:43.267074,41.8,57.130155,0.0005471957306340564,-0.0228827638849692,0.09764974270391902,40.106058693909645,-92.24360919585227,76.200527287817
2024-09-23 22:34:43.298530,41.8,57.130155,0.0003979595949556242,-0.02278327698858263,0.09764974270391902,40.106058693909645,-92.24360919585227,76.200527287817
2024-09-23 22:34:43.309827,41.8,57.130155,0.0003979595949556242,-0.02278327698858263,0.09725178296655933,36.09446859390736,-92.24360919585227,76.200527287817
2024-09-23 22:34:43.353217,41.8,57.130206,0.00034821073540793035,-0.022833026512682618,0.09784872257259886,44.11764879391193,-96.25519929585457,76.200527287817
2024-09-23 22:34:43.396724,41.8,57.130257,0.000845657606494293,-0.022833026512682618,0.09784872257259886,44.11764879391193,-96.25519929585457,76.200527287817
2024-09-23 22:34:43.408521,41.8,57.130257,0.000845657606494293,-0.0225345536717095,0.09755024973162574,44.11764879391193,-96.25519929585457,76.200527287817
2024-09-23 22:34:43.451804,41.8,57.130344,0.0001989745997294981,-0.023181236725942318,0.09789846602079214,44.11764879391193,-100.26678939585686,64.16903547978401
2024-09-23 22:34:43.494104,41.8,57.130344,0.0001989745997294981,-0.023181236725942318,0.09789846602079214,40.106058693909645,-92.24360919585227,72.1922225099802
2024-09-23 22:34:43.505397,41.8,57.130396,0.00014922575204880957,-0.0228827638849692,0.09789846602079214,40.106058693909645,-92.24360919585227,72.1922225099802
2024-09-23 22:34:43.547780,41.8,57.130447,0.0005969341946851222,-0.0228827638849692,0.09740101331113918,44.11764879391193,-92.24360919585227,76.200527287817
2024-09-23 22:34:43.590886,41.8,57.130447,0.0005969341946851222,-0.022982261414192504,0.0976994861521123,44.11764879391193,-92.24360919585227,76.200527287817
2024-09-23 22:34:43.602833,41.8,57.130539,0.0005969341946851222,-0.022982261414192504,0.0976994861521123,52.137550501942634,-100.26678939585686,72.1922225099802
2024-09-23 22:34:43.646517,41.8,57.130539,0.0007461703303635545,-0.022982261414192504,0.09764974270391902,56.14914060194492,-96.25519929585457,76.200527287817
2024-09-23 22:34:43.689605,41.8,57.13059,0.0006964318663124887,-0.02293251340906919,0.09764974270391902,56.14914060194492,-96.25519929585457,76.200527287817
2024-09-23 22:34:43.702440,41.8,57.13059,0.0006964318663124887,-0.02293251340906919,0.09655535038822652,48.12595698684454,-92.24360919585227,76.200527287817
2024-09-23 22:34:43.736106,41.8,57.13059,0.0006964318663124887,-0.02293251340906919,0.09655535038822652,48.12595698684454,-92.24360919585227,72.1922225099802
2024-09-23 22:34:43.747725,41.8,57.130641,0.0006964318663124887,-0.023181236725942318,0.09759999317981902,40.106058693909645,-92.24360919585227,72.1922225099802
2024-09-23 22:34:43.789866,41.8,57.130692,0.0010943914612681128,-0.02268379009219606,0.09759999317981902,40.106058693909645,-88.23529758782387,76.200527287817
2024-09-23 22:34:43.801630,41.8,57.130692,0.0010943914612681128,-0.02268379009219606,0.09750050628343246,40.106058693909645,-88.23529758782387,76.200527287817
2024-09-23 22:34:43.834372,41.8,57.130692,0.0010943914612681128,-0.02268379009219606,0.09750050628343246,44.11764879391193,-88.23529758782387,76.200527287817
2024-09-23 22:34:43.845812,41.8,57.130743,-0.00014922575204880957,-0.02308174982955575,0.09750050628343246,44.11764879391193,-88.23529758782387,80.21211738781929
2024-09-23 22:34:43.888481,41.8,57.130793,-0.00014922575204880957,-0.02308174982955575,0.0976994861521123,48.12595698684454,-88.23529758782387,76.200527287817
2024-09-23 22:34:43.900230,41.8,57.130793,0.00044769805900669,-0.02308174982955575,0.0976994861521123,48.12595698684454,-88.23529758782387,76.200527287817
2024-09-23 22:34:43.932044,41.8,57.130793,0.00044769805900669,-0.02278327698858263,0.09755024973162574,48.12595698684454,-88.23529758782387,76.200527287817
2024-09-23 22:34:43.943399,41.8,57.13088,0.00044769805900669,-0.02278327698858263,0.09755024973162574,44.11764879391193,-88.23529758782387,80.21211738781929
2024-09-23 22:34:43.986110,41.8,57.13088,0.0007461703303635545,-0.023330473146428877,0.09755024973162574,44.11764879391193,-84.22370748782159,80.21211738781929
2024-09-23 22:34:43.997851,41.8,57.13088,0.0007461703303635545,-0.023330473146428877,0.09755024973162574,44.11764879391193,-84.22370748782159,72.1922225099802
2024-09-23 22:34:44.029957,41.8,57.130932,0.0005969341946851222,-0.023330473146428877,0.09755024973162574,44.11764879391193,-84.22370748782159,72.1922225099802
2024-09-23 22:34:44.041258,41.8,57.130932,0.0005969341946851222,-0.02367869399252531,0.09720203344245934,44.11764879391193,-92.24360919585227,72.1922225099802
2024-09-23 22:34:44.084146,41.8,57.130982,0.0007461703303635545,-0.02278327698858263,0.09695331012558621,32.08287849390507,-92.24360919585227,76.200527287817
2024-09-23 22:34:44.126763,41.8,57.130982,0.0007461703303635545,-0.02278327698858263,0.09695331012558621,32.08287849390507,-96.25519929585457,80.21211738781929
2024-09-23 22:34:44.138064,41.8,57.131033,0.0006466830067647949,-0.0228827638849692,0.09759999317981902,32.08287849390507,-96.25519929585457,80.21211738781929
2024-09-23 22:34:44.180434,42.21,57.131084,0.0007959191899112484,-0.0228827638849692,0.09759999317981902,40.106058693909645,-104.27510100388527,68.18063240997792
2024-09-23 22:34:44.192775,42.21,57.131084,0.0007959191899112484,-0.02303200030545576,0.09759999317981902,40.106058693909645,-104.27510100388527,68.18063240997792
2024-09-23 22:34:44.225213,42.21,57.131084,0.0007959191899112484,-0.02303200030545576,0.09745075675933246,44.11764879391193,-104.27510100388527,68.18063240997792
2024-09-23 22:34:44.236845,42.21,57.131084,0.0007959191899112484,-0.02303200030545576,0.09745075675933246,44.11764879391193,-96.25519929585457,76.200527287817
2024-09-23 22:34:44.279278,42.21,57.131134,0.00044769805900669,-0.02313149783467906,0.0976994861521123,40.106058693909645,-96.25519929585457,76.200527287817
2024-09-23 22:34:44.291539,42.21,57.131134,0.00044769805900669,-0.02313149783467906,0.0976994861521123,40.106058693909645,-92.24360919585227,76.200527287817
2024-09-23 22:34:44.323338,42.21,57.131221,0.00044769805900669,-0.02313149783467906,0.0976994861521123,40.106058693909645,-92.24360919585227,72.1922225099802
2024-09-23 22:34:44.334787,42.21,57.131221,0.000845657606494293,-0.02338022115155219,0.0976994861521123,40.106058693909645,-92.24360919585227,72.1922225099802
2024-09-23 22:34:44.378206,42.21,57.131273,0.00034821073540793035,-0.02303200030545576,0.09779897304849887,40.106058693909645,-96.25519929585457,72.1922225099802
2024-09-23 22:34:44.421048,42.21,57.131273,0.00034821073540793035,-0.02303200030545576,0.09779897304849887,44.11764879391193,-100.26678939585686,76.200527287817
2024-09-23 22:34:44.432755,42.21,57.131324,0.00034821073540793035,-0.023280723622328886,0.09779897304849887,44.11764879391193,-100.26678939585686,76.200527287817
2024-09-23 22:34:44.475310,42.21,57.131374,0.001044642601720419,-0.023280723622328886,0.0973015264147526,40.106058693909645,-92.24360919585227,76.200527287817
