Ayaan's Suite
Timestamp,Sample Rate (Hz),Time,Ax,Ay,Az,Gx,Gy,Gz
2024-09-23 12:39:15.236512,0,21.401331,-0.0035318979854855937,-0.0228827638849692,0.09715228999426605,36.09446859390736,-104.27510100388527,88.23529758782387
2024-09-23 12:39:15.269902,0,21.401331,-0.0035318979854855937,-0.02338022115155219,0.09675432418099966,36.09446859390736,-104.27510100388527,88.23529758782387
2024-09-23 12:39:15.281583,0,21.401381,-0.0035318979854855937,-0.02338022115155219,0.09675432418099966,36.09446859390736,-100.26678939585686,76.200527287817
2024-09-23 12:39:15.313432,0,21.401381,-0.0033329230534799477,-0.02338022115155219,0.09675432418099966,36.09446859390736,-100.26678939585686,76.200527287817
2024-09-23 12:39:15.324629,0,21.401381,-0.0033329230534799477,-0.02303200030545576,0.09685382322919964,36.09446859390736,-92.24360919585227,84.22370748782159
2024-09-23 12:39:15.367742,0,21.401475,-0.003482159473966507,-0.02338022115155219,0.09720203344245934,36.09446859390736,-92.24360919585227,84.22370748782159
2024-09-23 12:39:15.379642,0,21.401475,-0.003482159473966507,-0.02338022115155219,0.09720203344245934,40.106058693909645,-92.24360919585227,84.22370748782159
2024-09-23 12:39:15.412206,0,21.401475,-0.003482159473966507,-0.02338022115155219,0.09720203344245934,40.106058693909645,-92.24360919585227,80.21211738781929
2024-09-23 12:39:15.423309,0,21.401526,-0.003631395514708897,-0.022982261414192504,0.0970030596496862,40.106058693909645,-92.24360919585227,80.21211738781929
2024-09-23 12:39:15.465234,0,21.401577,-0.0030841997366068195,-0.022982261414192504,0.0970030596496862,40.106058693909645,-104.27510100388527,80.21211738781929
2024-09-23 12:39:15.477290,0,21.401577,-0.0030841997366068195,-0.02362894446842532,0.09710254654607277,40.106058693909645,-104.27510100388527,80.21211738781929
2024-09-23 12:39:15.510242,0,21.401577,-0.0030841997366068195,-0.02362894446842532,0.09710254654607277,44.11764879391193,-100.26678939585686,80.21211738781929
2024-09-23 12:39:15.563235,0,21.401627,-0.0034324103296106863,-0.02362894446842532,0.09650560086412653,44.11764879391193,-100.26678939585686,80.21211738781929
2024-09-23 12:39:15.574861,0,21.401627,-0.0034324103296106863,-0.02362894446842532,0.09650560086412653,28.07457030097246,-100.26678939585686,80.21211738781929
2024-09-23 12:39:15.606881,0,21.401627,-0.0034324103296106863,-0.02362894446842532,0.09650560086412653,28.07457030097246,-104.27510100388527,80.21211738781929
2024-09-23 12:39:15.618335,0,21.401678,-0.003382661564999035,-0.023479709566915436,0.09705279702197278,28.07457030097246,-104.27510100388527,80.21211738781929
2024-09-23 12:39:15.661613,0,21.401767,-0.0031836870127375577,-0.023479709566915436,0.09705279702197278,28.07457030097246,-104.27510100388527,80.21211738781929
2024-09-23 12:39:15.673754,0,21.401767,-0.0031836870127375577,-0.023330473146428877,0.09705279702197278,28.07457030097246,-104.27510100388527,80.21211738781929
2024-09-23 12:39:15.705393,0,21.401767,-0.0031836870127375577,-0.023330473146428877,0.09695331012558621,28.07457030097246,-104.27510100388527,80.21211738781929
2024-09-23 12:39:15.716630,0,21.401818,-0.0031836870127375577,-0.023330473146428877,0.09695331012558621,28.07457030097246,-100.26678939585686,80.21211738781929
2024-09-23 12:39:15.760010,0,21.401818,-0.0032831742888682963,-0.02313149783467906,0.09715228999426605,36.09446859390736,-100.26678939585686,84.22370748782159
2024-09-23 12:39:15.802710,0,21.401869,-0.0029847020175114316,-0.02313149783467906,0.09715228999426605,36.09446859390736,-100.26678939585686,84.22370748782159
2024-09-23 12:39:15.814162,0,21.401869,-0.0029847020175114316,-0.02352945757203875,0.09710254654607277,36.09446859390736,-96.25519929585457,84.22370748782159
2024-09-23 12:39:15.856505,0,21.401962,-0.0033329230534799477,-0.02362894446842532,0.09695331012558621,36.09446859390736,-96.25519929585457,72.1922225099802
2024-09-23 12:39:15.869981,0,21.401962,-0.0033329230534799477,-0.02362894446842532,0.09695331012558621,40.106058693909645,-96.25519929585457,72.1922225099802
2024-09-23 12:39:15.902320,0,21.402014,-0.0033329230534799477,-0.02362894446842532,0.09695331012558621,40.106058693909645,-104.27510100388527,80.21211738781929
2024-09-23 12:39:15.913856,0,21.402014,-0.0030344509719951677,-0.023280723622328886,0.09705279702197278,40.106058693909645,-104.27510100388527,80.21211738781929
2024-09-23 12:39:15.956694,0,21.402064,-0.0028354659767690416,-0.02308174982955575,0.09705279702197278,40.106058693909645,-100.26678939585686,80.21211738781929
2024-09-23 12:39:15.999772,0,21.402064,-0.0028354659767690416,-0.02308174982955575,0.09675432418099966,40.106058693909645,-100.26678939585686,80.21211738781929
2024-09-23 12:39:16.012250,0,21.402115,-0.003382661564999035,-0.02308174982955575,0.09675432418099966,40.106058693909645,-100.26678939585686,76.200527287817
2024-09-23 12:39:16.044855,0,21.402115,-0.003382661564999035,-0.022833026512682618,0.09675432418099966,40.106058693909645,-100.26678939585686,76.200527287817
2024-09-23 12:39:16.056377,0,21.402205,-0.003382661564999035,-0.022833026512682618,0.09715228999426605,36.09446859390736,-100.26678939585686,80.21211738781929
2024-09-23 12:39:16.098652,0,21.402205,-0.0033329230534799477,-0.02308174982955575,0.09740101331113918,36.09446859390736,-100.26678939585686,80.21211738781929
2024-09-23 12:39:16.109940,0,21.402205,-0.0033329230534799477,-0.02308174982955575,0.09740101331113918,36.09446859390736,-96.25519929585457,80.21211738781929
2024-09-23 12:39:16.143338,0,21.402257,-0.0033329230534799477,-0.02308174982955575,0.09740101331113918,36.09446859390736,-96.25519929585457,80.21211738781929
2024-09-23 12:39:16.154657,0,21.402257,-0.0030344509719951677,-0.023330473146428877,0.09740101331113918,40.106058693909645,-92.24360919585227,80.21211738781929
2024-09-23 12:39:16.197240,0,21.402308,-0.003482159473966507,-0.023579196463302005,0.09720203344245934,40.106058693909645,-92.24360919585227,80.21211738781929
2024-09-23 12:39:16.208937,0,21.402308,-0.003482159473966507,-0.023579196463302005,0.09720203344245934,36.09446859390736,-92.24360919585227,80.21211738781929
2024-09-23 12:39:16.241273,46.24,21.402308,-0.003482159473966507,-0.023579196463302005,0.09720203344245934,36.09446859390736,-96.25519929585457,80.21211738781929
2024-09-23 12:39:16.252897,46.24,21.402358,-0.0032831742888682963,-0.023479709566915436,0.09685382322919964,36.09446859390736,-96.25519929585457,80.21211738781929
2024-09-23 12:39:16.295337,46.24,21.402409,-0.0031836870127375577,-0.023479709566915436,0.09685382322919964,32.08287849390507,-92.24360919585227,76.200527287817
2024-09-23 12:39:16.306975,46.24,21.402409,-0.0031836870127375577,-0.02238531725122294,0.09685382322919964,32.08287849390507,-92.24360919585227,76.200527287817
2024-09-23 12:39:16.339973,46.24,21.402409,-0.0031836870127375577,-0.02238531725122294,0.09685382322919964,36.09446859390736,-92.24360919585227,76.200527287817
2024-09-23 12:39:16.351279,46.24,21.40246,-0.0032831742888682963,-0.02238531725122294,0.09685382322919964,36.09446859390736,-104.27510100388527,84.22370748782159
2024-09-23 12:39:16.394541,46.24,21.40246,-0.0032831742888682963,-0.02308174982955575,0.0970030596496862,28.07457030097246,-104.27510100388527,84.22370748782159
2024-09-23 12:39:16.436476,46.24,21.402547,-0.0036811340262279837,-0.02308174982955575,0.0970030596496862,28.07457030097246,-104.27510100388527,84.22370748782159
2024-09-23 12:39:16.447826,46.24,21.402547,-0.0036811340262279837,-0.02313149783467906,0.09685382322919964,32.08287849390507,-100.26678939585686,84.22370748782159
2024-09-23 12:39:16.490169,46.24,21.402598,-0.0030344509719951677,-0.02308174982955575,0.09685382322919964,32.08287849390507,-100.26678939585686,76.200527287817
2024-09-23 12:39:16.503083,46.24,21.402598,-0.0030344509719951677,-0.02308174982955575,0.09705279702197278,28.07457030097246,-100.26678939585686,76.200527287817
2024-09-23 12:39:16.535637,46.24,21.402598,-0.0030344509719951677,-0.02308174982955575,0.09705279702197278,28.07457030097246,-92.24360919585227,88.23529758782387
2024-09-23 12:39:16.588757,46.24,21.402649,-0.003233425524256645,-0.02278327698858263,0.0973512698629459,32.08287849390507,-100.26678939585686,88.23529758782387
2024-09-23 12:39:16.631494,46.24,21.4027,-0.003233425524256645,-0.02278327698858263,0.0973512698629459,32.08287849390507,-100.26678939585686,80.21211738781929
2024-09-23 12:39:16.642913,46.24,21.4027,-0.0034324103296106863,-0.02308174982955575,0.0973015264147526,28.07457030097246,-100.26678939585686,80.21211738781929
2024-09-23 12:39:16.687064,46.24,21.40275,-0.0033329230534799477,-0.023429960042815445,0.0973015264147526,28.07457030097246,-96.25519929585457,80.21211738781929
2024-09-23 12:39:16.698358,46.24,21.40275,-0.0033329230534799477,-0.023429960042815445,0.09655535038822652,28.07457030097246,-96.25519929585457,80.21211738781929
2024-09-23 12:39:16.730974,46.24,21.40275,-0.0033329230534799477,-0.023429960042815445,0.09655535038822652,36.09446859390736,-96.25519929585457,80.21211738781929
2024-09-23 12:39:16.741986,46.24,21.402839,-0.003382661564999035,-0.02303200030545576,0.09655535038822652,36.09446859390736,-96.25519929585457,80.21211738781929
2024-09-23 12:39:16.785132,46.24,21.40289,-0.003233425524256645,-0.02303200030545576,0.09720203344245934,36.09446859390736,-92.24360919585227,84.22370748782159
2024-09-23 12:39:16.827723,46.24,21.40289,-0.003233425524256645,-0.023330473146428877,0.09670458680871308,32.08287849390507,-92.24360919585227,84.22370748782159
2024-09-23 12:39:16.838656,46.24,21.402985,-0.003233425524256645,-0.023330473146428877,0.09670458680871308,32.08287849390507,-100.26678939585686,80.21211738781929
2024-09-23 12:39:16.881279,46.24,21.402985,-0.0028852147413806935,-0.022584292562972758,0.098047696365372,36.09446859390736,-92.24360919585227,80.21211738781929
2024-09-23 12:39:16.924461,46.24,21.403037,-0.0038801188315820256,-0.022584292562972758,0.098047696365372,36.09446859390736,-92.24360919585227,80.21211738781929
2024-09-23 12:39:16.935798,46.24,21.403037,-0.0038801188315820256,-0.022982261414192504,0.09740101331113918,36.09446859390736,-96.25519929585457,80.21211738781929
2024-09-23 12:39:16.977593,46.24,21.403088,-0.0038801188315820256,-0.023429960042815445,0.09715228999426605,36.09446859390736,-96.25519929585457,76.200527287817
2024-09-23 12:39:16.989176,46.24,21.403088,-0.0038801188315820256,-0.023429960042815445,0.09715228999426605,40.106058693909645,-96.25519929585457,76.200527287817
2024-09-23 12:39:17.021484,46.24,21.403088,-0.0038801188315820256,-0.023429960042815445,0.09715228999426605,40.106058693909645,-100.26678939585686,80.21211738781929
2024-09-23 12:39:17.033277,46.24,21.403138,-0.0038801188315820256,-0.023429960042815445,0.09715228999426605,40.106058693909645,-100.26678939585686,80.21211738781929
2024-09-23 12:39:17.075657,46.24,21.403138,-0.0035816467500972456,-0.023827930413011865,0.09705279702197278,28.07457030097246,-92.24360919585227,80.21211738781929
2024-09-23 12:39:17.087846,46.24,21.403138,-0.0035816467500972456,-0.023827930413011865,0.09705279702197278,28.07457030097246,-92.24360919585227,76.200527287817
2024-09-23 12:39:17.122801,46.24,21.403189,-0.0027359787006383035,-0.023330473146428877,0.09665483728461309,28.07457030097246,-92.24360919585227,76.200527287817
2024-09-23 12:39:17.134584,46.24,21.403189,-0.0027359787006383035,-0.023330473146428877,0.09665483728461309,44.11764879391193,-92.24360919585227,76.200527287817
2024-09-23 12:39:17.167161,46.24,21.403189,-0.0027359787006383035,-0.023330473146428877,0.09665483728461309,44.11764879391193,-92.24360919585227,80.21211738781929
2024-09-23 12:39:17.179065,46.24,21.40324,-0.003631395514708897,-0.023579196463302005,0.09710254654607277,40.106058693909645,-92.24360919585227,80.21211738781929
2024-09-23 12:39:17.222601,46.24,21.403327,-0.003233425524256645,-0.023579196463302005,0.09710254654607277,40.106058693909645,-88.23529758782387,80.21211738781929
2024-09-23 12:39:17.234301,46.24,21.403327,-0.003233425524256645,-0.023579196463302005,0.09695331012558621,40.106058693909645,-88.23529758782387,80.21211738781929
2024-09-23 12:39:17.267006,45.54,21.403327,-0.003233425524256645,-0.023579196463302005,0.09695331012558621,36.09446859390736,-88.23529758782387,80.21211738781929
2024-09-23 12:39:17.278904,45.54,21.403377,-0.0035318979854855937,-0.02303200030545576,0.09695331012558621,36.09446859390736,-88.23529758782387,88.23529758782387
2024-09-23 12:39:17.321885,45.54,21.403428,-0.0030344509719951677,-0.02303200030545576,0.09690356060148622,40.106058693909645,-88.23529758782387,80.21211738781929
2024-09-23 12:39:17.364451,45.54,21.403428,-0.0030344509719951677,-0.023280723622328886,0.09710254654607277,28.07457030097246,-88.23529758782387,80.21211738781929
2024-09-23 12:39:17.376169,45.54,21.403522,-0.0030344509719951677,-0.023280723622328886,0.09710254654607277,28.07457030097246,-96.25519929585457,80.21211738781929
2024-09-23 12:39:17.419194,45.54,21.403522,-0.0034324103296106863,-0.02313149783467906,0.09690356060148622,40.106058693909645,-100.26678939585686,84.22370748782159
2024-09-23 12:39:17.462226,45.54,21.403573,-0.003233425524256645,-0.0228827638849692,0.09690356060148622,40.106058693909645,-100.26678939585686,84.22370748782159
2024-09-23 12:39:17.473752,45.54,21.403573,-0.003233425524256645,-0.0228827638849692,0.09745075675933246,40.106058693909645,-104.27510100388527,84.22370748782159
2024-09-23 12:39:17.517638,45.54,21.403624,-0.0037308827908396356,-0.023330473146428877,0.09720203344245934,48.12595698684454,-104.27510100388527,88.23529758782387
2024-09-23 12:39:17.559506,45.54,21.403675,-0.0037308827908396356,-0.023330473146428877,0.09720203344245934,48.12595698684454,-88.23529758782387,84.22370748782159
2024-09-23 12:39:17.571208,45.54,21.403675,-0.0035318979854855937,-0.02278327698858263,0.09725178296655933,48.12595698684454,-88.23529758782387,84.22370748782159
2024-09-23 12:39:17.614123,45.54,21.403725,-0.0029847020175114316,-0.0224350561424862,0.09725178296655933,36.09446859390736,-96.25519929585457,76.200527287817
2024-09-23 12:39:17.657091,45.54,21.403725,-0.0029847020175114316,-0.0224350561424862,0.0973015264147526,40.106058693909645,-96.25519929585457,76.200527287817
2024-09-23 12:39:17.669057,45.54,21.403776,-0.002785727465249955,-0.0224350561424862,0.0973015264147526,40.106058693909645,-96.25519929585457,76.200527287817
2024-09-23 12:39:17.711739,45.54,21.403863,-0.002785727465249955,-0.02352945757203875,0.0973015264147526,32.08287849390507,-100.26678939585686,76.200527287817
2024-09-23 12:39:17.754357,45.54,21.403863,-0.003482159473966507,-0.023479709566915436,0.09764974270391902,32.08287849390507,-100.26678939585686,76.200527287817
2024-09-23 12:39:17.765870,45.54,21.403863,-0.003482159473966507,-0.023479709566915436,0.09764974270391902,36.09446859390736,-96.25519929585457,80.21211738781929
2024-09-23 12:39:17.809736,45.54,21.403914,-0.0029847020175114316,-0.022833026512682618,0.0973512698629459,40.106058693909645,-92.24360919585227,80.21211738781929
2024-09-23 12:39:17.852948,45.54,21.403965,-0.0037308827908396356,-0.022833026512682618,0.0973512698629459,40.106058693909645,-92.24360919585227,84.22370748782159
2024-09-23 12:39:17.864255,45.54,21.403965,-0.0037308827908396356,-0.02293251340906919,0.09720203344245934,36.09446859390736,-92.24360919585227,84.22370748782159
2024-09-23 12:39:17.896859,45.54,21.403965,-0.0037308827908396356,-0.02293251340906919,0.09720203344245934,36.09446859390736,-96.25519929585457,84.22370748782159
2024-09-23 12:39:17.908500,45.54,21.404016,-0.0032831742888682963,-0.02313149783467906,0.09715228999426605,36.09446859390736,-96.25519929585457,80.21211738781929
2024-09-23 12:39:17.951451,45.54,21.404066,-0.0032831742888682963,-0.02313149783467906,0.09715228999426605,36.09446859390736,-104.27510100388527,76.200527287817
2024-09-23 12:39:17.964073,45.54,21.404066,-0.0033329230534799477,-0.023330473146428877,0.09715228999426605,36.09446859390736,-104.27510100388527,76.200527287817
2024-09-23 12:39:17.996512,45.54,21.404066,-0.0033329230534799477,-0.023330473146428877,0.09710254654607277,24.06297849342227,-104.27510100388527,76.200527287817
2024-09-23 12:39:18.008979,45.54,21.404117,-0.0028354659767690416,-0.023330473146428877,0.09710254654607277,24.06297849342227,-88.23529758782387,88.23529758782387
2024-09-23 12:39:18.052567,45.54,21.404204,-0.0028354659767690416,-0.023330473146428877,0.09715228999426605,36.09446859390736,-92.24360919585227,72.1922225099802
2024-09-23 12:39:18.095731,45.54,21.404204,-0.003233425524256645,-0.02313149783467906,0.09675432418099966,36.09446859390736,-92.24360919585227,72.1922225099802
2024-09-23 12:39:18.107068,45.54,21.404204,-0.003233425524256645,-0.02313149783467906,0.09675432418099966,40.106058693909645,-96.25519929585457,80.21211738781929
2024-09-23 12:39:18.149980,45.54,21.404256,-0.0034324103296106863,-0.023778180888911878,0.09720203344245934,32.08287849390507,-100.26678939585686,80.21211738781929
2024-09-23 12:39:18.192335,45.54,21.404306,-0.0034324103296106863,-0.023778180888911878,0.09720203344245934,32.08287849390507,-100.26678939585686,72.1922225099802
2024-09-23 12:39:18.203762,45.54,21.404306,-0.0033329230534799477,-0.02308174982955575,0.09755024973162574,40.106058693909645,-100.26678939585686,72.1922225099802
2024-09-23 12:39:18.245989,45.54,21.404357,-0.0030344509719951677,-0.023728432883788564,0.09755024973162574,40.106058693909645,-96.25519929585457,76.200527287817
2024-09-23 12:39:18.258083,45.54,21.404357,-0.0030344509719951677,-0.023728432883788564,0.09740101331113918,40.106058693909645,-96.25519929585457,76.200527287817
2024-09-23 12:39:18.290909,44.03,21.404357,-0.0030344509719951677,-0.023728432883788564,0.09740101331113918,36.09446859390736,-96.25519929585457,80.21211738781929
2024-09-23 12:39:18.302244,44.03,21.404408,-0.003233425524256645,-0.023479709566915436,0.09740101331113918,36.09446859390736,-96.25519929585457,80.21211738781929
2024-09-23 12:39:18.345205,44.03,21.404458,-0.003233425524256645,-0.023479709566915436,0.09715228999426605,40.106058693909645,-104.27510100388527,80.21211738781929
2024-09-23 12:39:18.387274,44.03,21.404458,-0.003233425524256645,-0.02313149783467906,0.09720203344245934,40.106058693909645,-104.27510100388527,80.21211738781929
2024-09-23 12:39:18.399425,44.03,21.404546,-0.003233425524256645,-0.02313149783467906,0.09720203344245934,32.08287849390507,-96.25519929585457,80.21211738781929
2024-09-23 12:39:18.443295,44.03,21.404546,-0.003382661564999035,-0.023728432883788564,0.0973512698629459,36.09446859390736,-84.22370748782159,88.23529758782387
2024-09-23 12:39:18.486209,44.03,21.404597,-0.003382661564999035,-0.023429960042815445,0.0973512698629459,36.09446859390736,-84.22370748782159,88.23529758782387
2024-09-23 12:39:18.497675,44.03,21.404597,-0.003382661564999035,-0.023429960042815445,0.0966050877605131,32.08287849390507,-92.24360919585227,88.23529758782387
2024-09-23 12:39:18.541325,44.03,21.404648,-0.0030841997366068195,-0.02338022115155219,0.0973512698629459,40.106058693909645,-92.24360919585227,84.22370748782159
2024-09-23 12:39:18.583165,44.03,21.404699,-0.0030841997366068195,-0.02338022115155219,0.0973512698629459,40.106058693909645,-96.25519929585457,80.21211738781929
2024-09-23 12:39:18.636761,44.03,21.404699,-0.0031836870127375577,-0.02338022115155219,0.09745075675933246,40.106058693909645,-88.23529758782387,80.21211738781929
2024-09-23 12:39:18.649007,44.03,21.404699,-0.0031836870127375577,-0.02338022115155219,0.09745075675933246,40.106058693909645,-88.23529758782387,76.200527287817
2024-09-23 12:39:18.681826,44.03,21.404749,-0.0030841997366068195,-0.023181236725942318,0.09745075675933246,40.106058693909645,-88.23529758782387,76.200527287817
2024-09-23 12:39:18.693568,44.03,21.404749,-0.0030841997366068195,-0.023181236725942318,0.09759999317981902,36.09446859390736,-96.25519929585457,76.200527287817
2024-09-23 12:39:18.726461,44.03,21.404749,-0.0030841997366068195,-0.023181236725942318,0.09759999317981902,36.09446859390736,-96.25519929585457,80.21211738781929
2024-09-23 12:39:18.738312,44.03,21.4048,-0.003382661564999035,-0.023827930413011865,0.0973512698629459,48.12595698684454,-96.25519929585457,80.21211738781929
2024-09-23 12:39:18.781880,44.03,21.4048,-0.003382661564999035,-0.023827930413011865,0.0973512698629459,48.12595698684454,-100.26678939585686,80.21211738781929
2024-09-23 12:39:18.824777,44.03,21.4048,-0.003382661564999035,-0.023827930413011865,0.0973512698629459,48.12595698684454,-100.26678939585686,76.200527287817
2024-09-23 12:39:18.835771,44.03,21.404887,-0.0038801188315820256,-0.023230986250042305,0.09695331012558621,48.12595698684454,-100.26678939585686,76.200527287817
2024-09-23 12:39:18.878142,44.03,21.404938,-0.0038801188315820256,-0.023230986250042305,0.09695331012558621,36.09446859390736,-104.27510100388527,84.22370748782159
2024-09-23 12:39:18.889475,44.03,21.404938,-0.0033329230534799477,-0.023280723622328886,0.09695331012558621,36.09446859390736,-104.27510100388527,84.22370748782159
2024-09-23 12:39:18.922419,44.03,21.404938,-0.0033329230534799477,-0.023280723622328886,0.09665483728461309,36.09446859390736,-104.27510100388527,84.22370748782159
2024-09-23 12:39:18.934017,44.03,21.404988,-0.0032831742888682963,-0.023280723622328886,0.09665483728461309,36.09446859390736,-100.26678939585686,80.21211738781929
2024-09-23 12:39:18.976844,44.03,21.404988,-0.0032831742888682963,-0.023778180888911878,0.0966050877605131,32.08287849390507,-100.26678939585686,84.22370748782159
2024-09-23 12:39:18.989007,44.03,21.405082,-0.0032831742888682963,-0.023778180888911878,0.0966050877605131,32.08287849390507,-100.26678939585686,84.22370748782159
2024-09-23 12:39:19.022675,44.03,21.405082,-0.003233425524256645,-0.02308174982955575,0.09690356060148622,32.08287849390507,-100.26678939585686,84.22370748782159
2024-09-23 12:39:19.034414,44.03,21.405082,-0.003233425524256645,-0.02308174982955575,0.09690356060148622,36.09446859390736,-104.27510100388527,76.200527287817
2024-09-23 12:39:19.077434,44.03,21.405132,-0.0030344509719951677,-0.02293251340906919,0.09680407370509965,36.09446859390736,-100.26678939585686,76.200527287817
2024-09-23 12:39:19.120019,44.03,21.405229,-0.0028354659767690416,-0.02293251340906919,0.09680407370509965,36.09446859390736,-100.26678939585686,76.200527287817
2024-09-23 12:39:19.133984,44.03,21.405229,-0.0028354659767690416,-0.022982261414192504,0.09695331012558621,40.106058693909645,-100.26678939585686,76.200527287817
2024-09-23 12:39:19.166988,44.03,21.405229,-0.0028354659767690416,-0.022982261414192504,0.09695331012558621,40.106058693909645,-104.27510100388527,76.200527287817
2024-09-23 12:39:19.178238,44.03,21.40528,-0.0029349636958644295,-0.023181236725942318,0.09720203344245934,40.106058693909645,-104.27510100388527,76.200527287817
2024-09-23 12:39:19.220541,44.03,21.405331,-0.0029349636958644295,-0.023181236725942318,0.09720203344245934,44.11764879391193,-104.27510100388527,72.1922225099802
2024-09-23 12:39:19.232634,44.03,21.405331,-0.0029349636958644295,-0.023280723622328886,0.09720203344245934,44.11764879391193,-104.27510100388527,72.1922225099802
2024-09-23 12:39:19.265223,44.03,21.405331,-0.0029349636958644295,-0.023280723622328886,0.09715228999426605,36.09446859390736,-96.25519929585457,72.1922225099802
2024-09-23 12:39:19.276469,44.03,21.405382,-0.003233425524256645,-0.023280723622328886,0.09715228999426605,36.09446859390736,-96.25519929585457,76.200527287817
2024-09-23 12:39:19.318626,43.73,21.405382,-0.003233425524256645,-0.023230986250042305,0.0970030596496862,36.09446859390736,-96.25519929585457,80.21211738781929
2024-09-23 12:39:19.330574,43.73,21.405472,-0.003233425524256645,-0.023230986250042305,0.0970030596496862,36.09446859390736,-96.25519929585457,80.21211738781929
2024-09-23 12:39:19.363996,43.73,21.405472,-0.0034324103296106863,-0.02313149783467906,0.09670458680871308,36.09446859390736,-96.25519929585457,80.21211738781929
2024-09-23 12:39:19.375594,43.73,21.405472,-0.0034324103296106863,-0.02313149783467906,0.09670458680871308,44.11764879391193,-96.25519929585457,76.200527287817
2024-09-23 12:39:19.418547,43.73,21.405523,-0.0035318979854855937,-0.023429960042815445,0.09740101331113918,44.11764879391193,-96.25519929585457,76.200527287817
2024-09-23 12:39:19.511757,43.73,21.405523,-0.0035318979854855937,-0.023429960042815445,0.09740101331113918,40.106058693909645,-100.26678939585686,76.200527287817
2024-09-23 12:39:19.524042,43.73,21.405574,-0.0038801188315820256,-0.023181236725942318,0.09740101331113918,40.106058693909645,-100.26678939585686,76.200527287817
2024-09-23 12:39:19.556558,43.73,21.405574,-0.0038801188315820256,-0.023181236725942318,0.0966050877605131,40.106058693909645,-100.26678939585686,76.200527287817
2024-09-23 12:39:19.568061,43.73,21.405625,-0.0031339382481259063,-0.023181236725942318,0.0966050877605131,40.106058693909645,-100.26678939585686,80.21211738781929
2024-09-23 12:39:19.610531,43.73,21.405625,-0.0031339382481259063,-0.02303200030545576,0.0973015264147526,32.08287849390507,-100.26678939585686,80.21211738781929
2024-09-23 12:39:19.653853,43.73,21.405625,-0.0031339382481259063,-0.02303200030545576,0.0973015264147526,32.08287849390507,-104.27510100388527,80.21211738781929
2024-09-23 12:39:19.665407,43.73,21.405676,-0.0029847020175114316,-0.022982261414192504,0.09680407370509965,32.08287849390507,-104.27510100388527,80.21211738781929
2024-09-23 12:39:19.707659,43.73,21.405726,-0.003482159473966507,-0.022982261414192504,0.09680407370509965,36.09446859390736,-100.26678939585686,80.21211738781929
2024-09-23 12:39:19.719203,43.73,21.405726,-0.003482159473966507,-0.02313149783467906,0.09680407370509965,36.09446859390736,-100.26678939585686,80.21211738781929
2024-09-23 12:39:19.752017,43.73,21.405726,-0.003482159473966507,-0.02313149783467906,0.0970030596496862,28.07457030097246,-100.26678939585686,80.21211738781929
2024-09-23 12:39:19.763157,43.73,21.405863,-0.003382661564999035,-0.02313149783467906,0.0970030596496862,28.07457030097246,-88.23529758782387,80.21211738781929
2024-09-23 12:39:19.807510,43.73,21.405914,-0.003382661564999035,-0.023330473146428877,0.09710254654607277,40.106058693909645,-88.23529758782387,80.21211738781929
2024-09-23 12:39:19.850047,43.73,21.405914,-0.003382661564999035,-0.023429960042815445,0.09675432418099966,40.106058693909645,-88.23529758782387,80.21211738781929
2024-09-23 12:39:19.861754,43.73,21.405914,-0.003382661564999035,-0.023429960042815445,0.09675432418099966,40.106058693909645,-96.25519929585457,76.200527287817
2024-09-23 12:39:19.903788,43.73,21.406009,-0.0033329230534799477,-0.02303200030545576,0.09655535038822652,44.11764879391193,-100.26678939585686,76.200527287817
2024-09-23 12:39:19.946779,43.73,21.406009,-0.0033329230534799477,-0.02303200030545576,0.09655535038822652,44.11764879391193,-100.26678939585686,80.21211738781929
2024-09-23 12:39:19.958325,43.73,21.40606,-0.0030841997366068195,-0.023230986250042305,0.09635636444363997,40.106058693909645,-100.26678939585686,80.21211738781929
2024-09-23 12:39:20.001554,43.73,21.406111,-0.003233425524256645,-0.02338022115155219,0.09635636444363997,40.106058693909645,-104.27510100388527,80.21211738781929
2024-09-23 12:39:20.013360,43.73,21.406111,-0.003233425524256645,-0.02338022115155219,0.09755024973162574,40.106058693909645,-104.27510100388527,80.21211738781929
2024-09-23 12:39:20.047165,43.73,21.406111,-0.003233425524256645,-0.02338022115155219,0.09755024973162574,36.09446859390736,-100.26678939585686,72.1922225099802
2024-09-23 12:39:20.058221,43.73,21.406161,-0.0032831742888682963,-0.02338022115155219,0.09755024973162574,36.09446859390736,-100.26678939585686,72.1922225099802
2024-09-23 12:39:20.100939,43.73,21.406161,-0.0032831742888682963,-0.02367869399252531,0.09755024973162574,36.09446859390736,-100.26678939585686,72.1922225099802
2024-09-23 12:39:20.144620,43.73,21.406161,-0.0032831742888682963,-0.02367869399252531,0.09690356060148622,32.08287849390507,-100.26678939585686,72.1922225099802
2024-09-23 12:39:20.156339,43.73,21.406212,-0.0033329230534799477,-0.02367869399252531,0.09690356060148622,32.08287849390507,-100.26678939585686,76.200527287817
2024-09-23 12:39:20.188549,43.73,21.406212,-0.0033329230534799477,-0.02308174982955575,0.09690356060148622,32.08287849390507,-100.26678939585686,76.200527287817
2024-09-23 12:39:20.199966,43.73,21.4063,-0.0033329230534799477,-0.02308174982955575,0.0970030596496862,40.106058693909645,-100.26678939585686,76.200527287817
2024-09-23 12:39:20.242471,43.73,21.4063,-0.003233425524256645,-0.02293251340906919,0.09690356060148622,32.08287849390507,-100.26678939585686,76.200527287817
2024-09-23 12:39:20.253586,43.73,21.4063,-0.003233425524256645,-0.02293251340906919,0.09690356060148622,32.08287849390507,-100.26678939585686,72.1922225099802
2024-09-23 12:39:20.286288,43.73,21.406352,-0.003233425524256645,-0.02293251340906919,0.09690356060148622,32.08287849390507,-100.26678939585686,72.1922225099802
2024-09-23 12:39:20.297305,43.73,21.406352,-0.0035318979854855937,-0.023330473146428877,0.09685382322919964,36.09446859390736,-96.25519929585457,72.1922225099802
2024-09-23 12:39:20.339909,43.4,21.406403,-0.0032831742888682963,-0.023230986250042305,0.09685382322919964,36.09446859390736,-96.25519929585457,84.22370748782159
2024-09-23 12:39:20.351263,43.4,21.406403,-0.0032831742888682963,-0.023230986250042305,0.09645586349183995,36.09446859390736,-96.25519929585457,84.22370748782159
2024-09-23 12:39:20.383050,43.4,21.406403,-0.0032831742888682963,-0.023230986250042305,0.09645586349183995,36.09446859390736,-92.24360919585227,84.22370748782159
2024-09-23 12:39:20.395670,43.4,21.406497,-0.003631395514708897,-0.02352945757203875,0.09740101331113918,36.09446859390736,-92.24360919585227,76.200527287817
2024-09-23 12:39:20.438532,43.4,21.406548,-0.0030841997366068195,-0.02352945757203875,0.09740101331113918,36.09446859390736,-104.27510100388527,76.200527287817
2024-09-23 12:39:20.450441,43.4,21.406548,-0.0030841997366068195,-0.023579196463302005,0.09740101331113918,36.09446859390736,-104.27510100388527,76.200527287817
2024-09-23 12:39:20.482658,43.4,21.406548,-0.0030841997366068195,-0.023579196463302005,0.09725178296655933,40.106058693909645,-104.27510100388527,76.200527287817
2024-09-23 12:39:20.494190,43.4,21.406599,-0.003382661564999035,-0.023579196463302005,0.09725178296655933,40.106058693909645,-100.26678939585686,76.200527287817
2024-09-23 12:39:20.537642,43.4,21.406691,-0.003382661564999035,-0.02268379009219606,0.09655535038822652,40.106058693909645,-92.24360919585227,80.21211738781929
2024-09-23 12:39:20.580497,43.4,21.406691,-0.0035318979854855937,-0.023181236725942318,0.09655535038822652,40.106058693909645,-92.24360919585227,80.21211738781929
2024-09-23 12:39:20.591839,43.4,21.406691,-0.0035318979854855937,-0.023181236725942318,0.09784872257259886,40.106058693909645,-104.27510100388527,72.1922225099802
2024-09-23 12:39:20.633802,43.4,21.406743,-0.0035816467500972456,-0.023330473146428877,0.09740101331113918,40.106058693909645,-104.27510100388527,72.1922225099802
2024-09-23 12:39:20.676789,43.4,21.406743,-0.0035816467500972456,-0.023330473146428877,0.09740101331113918,32.08287849390507,-104.27510100388527,72.1922225099802
2024-09-23 12:39:20.729936,43.4,21.406793,-0.0035816467500972456,-0.023330473146428877,0.09740101331113918,32.08287849390507,-100.26678939585686,76.200527287817
2024-09-23 12:39:20.741646,43.4,21.406793,-0.0029847020175114316,-0.02338022115155219,0.09695331012558621,32.08287849390507,-100.26678939585686,76.200527287817
2024-09-23 12:39:20.774465,43.4,21.406793,-0.0029847020175114316,-0.02338022115155219,0.09695331012558621,44.11764879391193,-100.26678939585686,76.200527287817
2024-09-23 12:39:20.785742,43.4,21.406844,-0.0029349636958644295,-0.02352945757203875,0.09695331012558621,44.11764879391193,-100.26678939585686,76.200527287817
2024-09-23 12:39:20.827668,43.4,21.406844,-0.0029349636958644295,-0.02352945757203875,0.09715228999426605,32.08287849390507,-104.27510100388527,72.1922225099802
2024-09-23 12:39:20.839577,43.4,21.406895,-0.0034324103296106863,-0.02352945757203875,0.09715228999426605,32.08287849390507,-104.27510100388527,72.1922225099802
2024-09-23 12:39:20.872168,43.4,21.406895,-0.0034324103296106863,-0.023429960042815445,0.09715228999426605,32.08287849390507,-104.27510100388527,72.1922225099802
2024-09-23 12:39:20.884189,43.4,21.406945,-0.0034324103296106863,-0.023429960042815445,0.0973512698629459,40.106058693909645,-96.25519929585457,72.1922225099802
2024-09-23 12:39:20.927227,43.4,21.406945,-0.0032831742888682963,-0.02352945757203875,0.09740101331113918,40.106058693909645,-88.23529758782387,72.1922225099802
2024-09-23 12:39:20.939226,43.4,21.406945,-0.0032831742888682963,-0.02352945757203875,0.09740101331113918,40.106058693909645,-88.23529758782387,84.22370748782159
2024-09-23 12:39:20.972078,43.4,21.407081,-0.0038303700669703737,-0.02313149783467906,0.09740101331113918,40.106058693909645,-88.23529758782387,84.22370748782159
2024-09-23 12:39:20.983913,43.4,21.407081,-0.0038303700669703737,-0.02313149783467906,0.0973512698629459,44.11764879391193,-88.23529758782387,84.22370748782159
2024-09-23 12:39:21.018589,43.4,21.407081,-0.0038303700669703737,-0.02313149783467906,0.0973512698629459,44.11764879391193,-88.23529758782387,84.22370748782159
2024-09-23 12:39:21.029873,43.4,21.407132,-0.0030841997366068195,-0.023479709566915436,0.09705279702197278,48.12595698684454,-88.23529758782387,84.22370748782159
2024-09-23 12:39:21.072351,43.4,21.407183,-0.0031836870127375577,-0.02293251340906919,0.09705279702197278,48.12595698684454,-96.25519929585457,80.21211738781929
2024-09-23 12:39:21.084092,43.4,21.407183,-0.0031836870127375577,-0.02293251340906919,0.09680407370509965,48.12595698684454,-96.25519929585457,80.21211738781929
2024-09-23 12:39:21.117582,43.4,21.407183,-0.0031836870127375577,-0.02293251340906919,0.09680407370509965,32.08287849390507,-96.25519929585457,88.23529758782387
2024-09-23 12:39:21.129706,43.4,21.407234,-0.0030841997366068195,-0.023330473146428877,0.09680407370509965,32.08287849390507,-96.25519929585457,88.23529758782387
2024-09-23 12:39:21.173249,43.4,21.407284,-0.0028852147413806935,-0.023330473146428877,0.09680407370509965,40.106058693909645,-104.27510100388527,80.21211738781929
2024-09-23 12:39:21.216042,43.4,21.407284,-0.0028852147413806935,-0.023280723622328886,0.09764974270391902,36.09446859390736,-104.27510100388527,80.21211738781929
2024-09-23 12:39:21.227764,43.4,21.407284,-0.0028852147413806935,-0.023280723622328886,0.09764974270391902,36.09446859390736,-100.26678939585686,80.21211738781929
2024-09-23 12:39:21.271900,43.4,21.407373,-0.003780631555451287,-0.023280723622328886,0.09715228999426605,36.09446859390736,-100.26678939585686,76.200527287817
2024-09-23 12:39:21.314714,43.4,21.407425,-0.003780631555451287,-0.023280723622328886,0.09715228999426605,36.09446859390736,-96.25519929585457,84.22370748782159
2024-09-23 12:39:21.325839,43.4,21.407425,-0.003382661564999035,-0.02352945757203875,0.09715228999426605,36.09446859390736,-96.25519929585457,84.22370748782159
2024-09-23 12:39:21.369655,43.45,21.407475,-0.0035318979854855937,-0.023181236725942318,0.09715228999426605,44.11764879391193,-88.23529758782387,80.21211738781929
2024-09-23 12:39:21.414187,43.45,21.407475,-0.0035318979854855937,-0.023181236725942318,0.09710254654607277,36.09446859390736,-92.24360919585227,76.200527287817
2024-09-23 12:39:21.427113,43.45,21.407526,-0.0037308827908396356,-0.023181236725942318,0.09710254654607277,36.09446859390736,-92.24360919585227,76.200527287817
2024-09-23 12:39:21.459496,43.45,21.407526,-0.0037308827908396356,-0.02308174982955575,0.09725178296655933,36.09446859390736,-92.24360919585227,76.200527287817
2024-09-23 12:39:21.471216,43.45,21.407577,-0.0037308827908396356,-0.02308174982955575,0.09725178296655933,36.09446859390736,-96.25519929585457,80.21211738781929
2024-09-23 12:39:21.513891,43.45,21.407577,-0.003233425524256645,-0.023181236725942318,0.09665483728461309,44.11764879391193,-100.26678939585686,84.22370748782159
2024-09-23 12:39:21.556510,43.45,21.407666,-0.0029349636958644295,-0.022982261414192504,0.09665483728461309,44.11764879391193,-100.26678939585686,84.22370748782159
2024-09-23 12:39:21.567565,43.45,21.407666,-0.0029349636958644295,-0.022982261414192504,0.09695331012558621,40.106058693909645,-96.25519929585457,84.22370748782159
2024-09-23 12:39:21.610344,43.45,21.407717,-0.0028852147413806935,-0.02313149783467906,0.0976994861521123,40.106058693909645,-96.25519929585457,80.21211738781929
2024-09-23 12:39:21.652968,43.45,21.407717,-0.0028852147413806935,-0.02313149783467906,0.0976994861521123,40.106058693909645,-100.26678939585686,76.200527287817
2024-09-23 12:39:21.664848,43.45,21.407768,-0.0035816467500972456,-0.023230986250042305,0.09710254654607277,40.106058693909645,-100.26678939585686,76.200527287817
2024-09-23 12:39:21.707590,43.45,21.407819,-0.0034324103296106863,-0.023230986250042305,0.09710254654607277,40.106058693909645,-96.25519929585457,84.22370748782159
2024-09-23 12:39:21.719413,43.45,21.407819,-0.0034324103296106863,-0.023230986250042305,0.09710254654607277,40.106058693909645,-96.25519929585457,84.22370748782159
2024-09-23 12:39:21.752370,43.45,21.407819,-0.0034324103296106863,-0.023230986250042305,0.09725178296655933,32.08287849390507,-100.26678939585686,84.22370748782159
2024-09-23 12:39:21.763844,43.45,21.407869,-0.0030841997366068195,-0.023230986250042305,0.09725178296655933,32.08287849390507,-100.26678939585686,80.21211738781929
2024-09-23 12:39:21.805917,43.45,21.407958,-0.0030841997366068195,-0.02303200030545576,0.09655535038822652,36.09446859390736,-96.25519929585457,84.22370748782159
2024-09-23 12:39:21.847825,43.45,21.407958,-0.003382661564999035,-0.02352945757203875,0.09655535038822652,36.09446859390736,-96.25519929585457,84.22370748782159
2024-09-23 12:39:21.859496,43.45,21.407958,-0.003382661564999035,-0.02352945757203875,0.09725178296655933,32.08287849390507,-92.24360919585227,84.22370748782159
2024-09-23 12:39:21.902465,43.45,21.40801,-0.0031339382481259063,-0.02352945757203875,0.09725178296655933,32.08287849390507,-92.24360919585227,84.22370748782159
2024-09-23 12:39:21.945724,43.45,21.40801,-0.0031339382481259063,-0.02293251340906919,0.09750050628343246,32.08287849390507,-92.24360919585227,84.22370748782159
2024-09-23 12:39:21.956956,43.45,21.40806,-0.0031339382481259063,-0.02293251340906919,0.09750050628343246,36.09446859390736,-96.25519929585457,76.200527287817
2024-09-23 12:39:22.001012,43.45,21.40806,-0.0031836870127375577,-0.023280723622328886,0.09755024973162574,44.11764879391193,-96.25519929585457,76.200527287817
2024-09-23 12:39:22.045382,43.45,21.408111,-0.003382661564999035,-0.023330473146428877,0.09755024973162574,44.11764879391193,-96.25519929585457,76.200527287817
2024-09-23 12:39:22.057192,43.45,21.408111,-0.003382661564999035,-0.023330473146428877,0.098047696365372,40.106058693909645,-96.25519929585457,76.200527287817
2024-09-23 12:39:22.089906,43.45,21.408111,-0.003382661564999035,-0.023330473146428877,0.098047696365372,40.106058693909645,-96.25519929585457,92.24360919585227
2024-09-23 12:39:22.101794,43.45,21.408162,-0.0031836870127375577,-0.02367869399252531,0.0976994861521123,32.08287849390507,-96.25519929585457,92.24360919585227
2024-09-23 12:39:22.144946,43.45,21.408212,-0.003482159473966507,-0.02367869399252531,0.0976994861521123,32.08287849390507,-92.24360919585227,84.22370748782159
2024-09-23 12:39:22.156732,43.45,21.408212,-0.003482159473966507,-0.02367869399252531,0.09680407370509965,32.08287849390507,-92.24360919585227,84.22370748782159
2024-09-23 12:39:22.188787,43.45,21.408212,-0.003482159473966507,-0.02367869399252531,0.09680407370509965,32.08287849390507,-96.25519929585457,84.22370748782159
2024-09-23 12:39:22.200284,43.45,21.408302,-0.0028852147413806935,-0.02293251340906919,0.09680407370509965,32.08287849390507,-96.25519929585457,84.22370748782159
2024-09-23 12:39:22.243852,43.45,21.408352,-0.0034324103296106863,-0.02293251340906919,0.09759999317981902,36.09446859390736,-96.25519929585457,80.21211738781929
2024-09-23 12:39:22.286403,43.45,21.408352,-0.0034324103296106863,-0.023330473146428877,0.09710254654607277,36.09446859390736,-96.25519929585457,80.21211738781929
2024-09-23 12:39:22.297921,43.45,21.408446,-0.0034324103296106863,-0.023330473146428877,0.09710254654607277,36.09446859390736,-104.27510100388527,76.200527287817
2024-09-23 12:39:22.339948,43.45,21.408446,-0.0030344509719951677,-0.023579196463302005,0.09690356060148622,36.09446859390736,-100.26678939585686,76.200527287817
2024-09-23 12:39:22.352256,43.45,21.408446,-0.0030344509719951677,-0.023579196463302005,0.09690356060148622,36.09446859390736,-100.26678939585686,80.21211738781929
2024-09-23 12:39:22.384131,43.44,21.408497,-0.0030344509719951677,-0.023579196463302005,0.09690356060148622,36.09446859390736,-100.26678939585686,80.21211738781929
2024-09-23 12:39:22.395696,43.44,21.408497,-0.0030344509719951677,-0.023429960042815445,0.09750050628343246,36.09446859390736,-100.26678939585686,80.21211738781929
2024-09-23 12:39:22.437311,43.44,21.408548,-0.003233425524256645,-0.022982261414192504,0.09690356060148622,36.09446859390736,-100.26678939585686,80.21211738781929
2024-09-23 12:39:22.449443,43.44,21.408548,-0.003233425524256645,-0.022982261414192504,0.09690356060148622,36.09446859390736,-100.26678939585686,80.21211738781929
2024-09-23 12:39:22.534015,43.44,21.408598,-0.0034324103296106863,-0.022982261414192504,0.09690356060148622,36.09446859390736,-92.24360919585227,80.21211738781929
2024-09-23 12:39:22.578085,43.44,21.408598,-0.0034324103296106863,-0.023280723622328886,0.09690356060148622,36.09446859390736,-92.24360919585227,80.21211738781929
2024-09-23 12:39:22.589552,43.44,21.408649,-0.0034324103296106863,-0.023280723622328886,0.09720203344245934,32.08287849390507,-96.25519929585457,84.22370748782159
2024-09-23 12:39:22.632100,43.44,21.408649,-0.0030841997366068195,-0.024026904205785005,0.0966050877605131,40.106058693909645,-96.25519929585457,84.22370748782159
2024-09-23 12:39:22.643940,43.44,21.408649,-0.0030841997366068195,-0.024026904205785005,0.0966050877605131,40.106058693909645,-96.25519929585457,84.22370748782159
2024-09-23 12:39:22.676556,43.44,21.4087,-0.0031836870127375577,-0.024026904205785005,0.0966050877605131,40.106058693909645,-96.25519929585457,84.22370748782159
2024-09-23 12:39:22.687966,43.44,21.4087,-0.0031836870127375577,-0.02362894446842532,0.0976994861521123,36.09446859390736,-96.25519929585457,84.22370748782159
2024-09-23 12:39:22.730553,43.44,21.408787,-0.0033329230534799477,-0.023429960042815445,0.0976994861521123,36.09446859390736,-100.26678939585686,76.200527287817
2024-09-23 12:39:22.742598,43.44,21.408787,-0.0033329230534799477,-0.023429960042815445,0.0966050877605131,36.09446859390736,-100.26678939585686,76.200527287817
2024-09-23 12:39:22.774631,43.44,21.408787,-0.0033329230534799477,-0.023429960042815445,0.0966050877605131,28.07457030097246,-96.25519929585457,76.200527287817
2024-09-23 12:39:22.786042,43.44,21.408885,-0.0030344509719951677,-0.02308174982955575,0.0966050877605131,28.07457030097246,-96.25519929585457,80.21211738781929
2024-09-23 12:39:22.828136,43.44,21.408936,-0.0030344509719951677,-0.02308174982955575,0.09725178296655933,32.08287849390507,-96.25519929585457,80.21211738781929
2024-09-23 12:39:22.840376,43.44,21.408936,-0.003382661564999035,-0.02308174982955575,0.09725178296655933,32.08287849390507,-96.25519929585457,80.21211738781929
2024-09-23 12:39:22.874896,43.44,21.408936,-0.003382661564999035,-0.02313149783467906,0.09675432418099966,36.09446859390736,-96.25519929585457,80.21211738781929
2024-09-23 12:39:22.886624,43.44,21.408987,-0.003382661564999035,-0.02313149783467906,0.09675432418099966,36.09446859390736,-96.25519929585457,76.200527287817
2024-09-23 12:39:22.918627,43.44,21.408987,-0.0028852147413806935,-0.02313149783467906,0.09675432418099966,36.09446859390736,-96.25519929585457,76.200527287817
2024-09-23 12:39:22.929822,43.44,21.408987,-0.0028852147413806935,-0.02313149783467906,0.09675432418099966,40.106058693909645,-96.25519929585457,76.200527287817
2024-09-23 12:39:22.972847,43.44,21.40908,-0.0028354659767690416,-0.022982261414192504,0.09685382322919964,40.106058693909645,-96.25519929585457,76.200527287817
2024-09-23 12:39:22.984576,43.44,21.40908,-0.0028354659767690416,-0.022982261414192504,0.09685382322919964,36.09446859390736,-100.26678939585686,76.200527287817
2024-09-23 12:39:23.017984,43.44,21.409132,-0.0028354659767690416,-0.022982261414192504,0.09685382322919964,36.09446859390736,-100.26678939585686,76.200527287817
2024-09-23 12:39:23.029388,43.44,21.409132,-0.003382661564999035,-0.02293251340906919,0.0970030596496862,32.08287849390507,-100.26678939585686,76.200527287817
2024-09-23 12:39:23.071453,43.44,21.409182,-0.002785727465249955,-0.023429960042815445,0.0970030596496862,32.08287849390507,-100.26678939585686,80.21211738781929
2024-09-23 12:39:23.083406,43.44,21.409182,-0.002785727465249955,-0.023429960042815445,0.09690356060148622,32.08287849390507,-100.26678939585686,80.21211738781929
2024-09-23 12:39:23.115441,43.44,21.409182,-0.002785727465249955,-0.023429960042815445,0.09690356060148622,40.106058693909645,-96.25519929585457,80.21211738781929
2024-09-23 12:39:23.126815,43.44,21.409233,-0.003780631555451287,-0.02303200030545576,0.09690356060148622,40.106058693909645,-96.25519929585457,84.22370748782159
2024-09-23 12:39:23.168657,43.44,21.409284,-0.003780631555451287,-0.02303200030545576,0.09710254654607277,32.08287849390507,-96.25519929585457,80.21211738781929
2024-09-23 12:39:23.210537,43.44,21.409284,-0.003631395514708897,-0.02303200030545576,0.09710254654607277,32.08287849390507,-96.25519929585457,80.21211738781929
2024-09-23 12:39:23.221852,43.44,21.409284,-0.003631395514708897,-0.023181236725942318,0.09655535038822652,40.106058693909645,-96.25519929585457,76.200527287817
2024-09-23 12:39:23.265215,43.44,21.409372,-0.0034324103296106863,-0.023429960042815445,0.0973015264147526,40.106058693909645,-96.25519929585457,76.200527287817
2024-09-23 12:39:23.276994,43.44,21.409372,-0.0034324103296106863,-0.023429960042815445,0.0973015264147526,40.106058693909645,-100.26678939585686,76.200527287817
2024-09-23 12:39:23.308476,43.44,21.409372,-0.0034324103296106863,-0.023429960042815445,0.0973015264147526,40.106058693909645,-100.26678939585686,76.200527287817
2024-09-23 12:39:23.319944,43.44,21.409423,-0.0030841997366068195,-0.02367869399252531,0.09685382322919964,32.08287849390507,-100.26678939585686,76.200527287817
2024-09-23 12:39:23.363017,43.44,21.409474,-0.0037308827908396356,-0.02367869399252531,0.09685382322919964,32.08287849390507,-96.25519929585457,80.21211738781929
2024-09-23 12:39:23.375096,43.44,21.409474,-0.0037308827908396356,-0.023280723622328886,0.0966050877605131,32.08287849390507,-96.25519929585457,80.21211738781929
2024-09-23 12:39:23.406803,43.63,21.409474,-0.0037308827908396356,-0.023280723622328886,0.0966050877605131,44.11764879391193,-96.25519929585457,80.21211738781929
2024-09-23 12:39:23.418029,43.63,21.409525,-0.0030841997366068195,-0.02268379009219606,0.0966050877605131,44.11764879391193,-96.25519929585457,80.21211738781929
2024-09-23 12:39:23.460084,43.63,21.409525,-0.0030841997366068195,-0.02268379009219606,0.09685382322919964,24.06297849342227,-104.27510100388527,80.21211738781929
2024-09-23 12:39:23.472044,43.63,21.409575,-0.0031339382481259063,-0.02268379009219606,0.09685382322919964,24.06297849342227,-104.27510100388527,84.22370748782159
2024-09-23 12:39:23.505036,43.63,21.409575,-0.0031339382481259063,-0.023181236725942318,0.09685382322919964,24.06297849342227,-104.27510100388527,84.22370748782159
2024-09-23 12:39:23.517081,43.63,21.409664,-0.0031339382481259063,-0.023181236725942318,0.09675432418099966,36.09446859390736,-100.26678939585686,80.21211738781929
2024-09-23 12:39:23.560226,43.63,21.409664,-0.0038801188315820256,-0.023230986250042305,0.09705279702197278,36.09446859390736,-96.25519929585457,76.200527287817
2024-09-23 12:39:23.603062,43.63,21.409716,-0.0031836870127375577,-0.023230986250042305,0.09705279702197278,36.09446859390736,-96.25519929585457,76.200527287817
2024-09-23 12:39:23.614514,43.63,21.409716,-0.0031836870127375577,-0.02338022115155219,0.0973512698629459,40.106058693909645,-108.28669110388756,76.200527287817
2024-09-23 12:39:23.657144,43.63,21.409767,-0.003233425524256645,-0.02303200030545576,0.09705279702197278,40.106058693909645,-108.28669110388756,80.21211738781929
2024-09-23 12:39:23.668832,43.63,21.409767,-0.003233425524256645,-0.02303200030545576,0.09705279702197278,28.07457030097246,-108.28669110388756,80.21211738781929
2024-09-23 12:39:23.702334,43.63,21.409817,-0.003233425524256645,-0.02303200030545576,0.09705279702197278,28.07457030097246,-108.28669110388756,76.200527287817
2024-09-23 12:39:23.714131,43.63,21.409817,-0.003382661564999035,-0.023429960042815445,0.09705279702197278,28.07457030097246,-108.28669110388756,76.200527287817
2024-09-23 12:39:23.758028,43.63,21.409868,-0.0031836870127375577,-0.023429960042815445,0.09690356060148622,32.08287849390507,-104.27510100388527,80.21211738781929
2024-09-23 12:39:23.801451,43.63,21.409868,-0.0031836870127375577,-0.02308174982955575,0.09645586349183995,40.106058693909645,-100.26678939585686,80.21211738781929
2024-09-23 12:39:23.813642,43.63,21.409868,-0.0031836870127375577,-0.02308174982955575,0.09645586349183995,40.106058693909645,-100.26678939585686,76.200527287817
2024-09-23 12:39:23.845942,43.63,21.409919,-0.0031836870127375577,-0.02308174982955575,0.09645586349183995,40.106058693909645,-100.26678939585686,76.200527287817
2024-09-23 12:39:23.858076,43.63,21.409919,-0.003233425524256645,-0.02293251340906919,0.09705279702197278,40.106058693909645,-88.23529758782387,76.200527287817
2024-09-23 12:39:23.900784,43.63,21.410006,-0.0029847020175114316,-0.023330473146428877,0.09680407370509965,40.106058693909645,-88.23529758782387,80.21211738781929
2024-09-23 12:39:23.912999,43.63,21.410006,-0.0029847020175114316,-0.023330473146428877,0.09680407370509965,36.09446859390736,-88.23529758782387,80.21211738781929
2024-09-23 12:39:23.944750,43.63,21.410006,-0.0029847020175114316,-0.023330473146428877,0.09680407370509965,36.09446859390736,-96.25519929585457,84.22370748782159
2024-09-23 12:39:23.956697,43.63,21.410058,-0.003631395514708897,-0.023579196463302005,0.09720203344245934,36.09446859390736,-96.25519929585457,84.22370748782159
2024-09-23 12:39:24.000914,43.63,21.410109,-0.0035816467500972456,-0.023579196463302005,0.09720203344245934,32.08287849390507,-96.25519929585457,88.23529758782387
2024-09-23 12:39:24.012711,43.63,21.410109,-0.0035816467500972456,-0.02293251340906919,0.09720203344245934,32.08287849390507,-96.25519929585457,88.23529758782387
2024-09-23 12:39:24.044455,43.63,21.410109,-0.0035816467500972456,-0.02293251340906919,0.09740101331113918,36.09446859390736,-96.25519929585457,80.21211738781929
2024-09-23 12:39:24.056080,43.63,21.410159,-0.003780631555451287,-0.02293251340906919,0.09740101331113918,36.09446859390736,-96.25519929585457,80.21211738781929
2024-09-23 12:39:24.088149,43.63,21.410159,-0.003780631555451287,-0.022833026512682618,0.09740101331113918,36.09446859390736,-96.25519929585457,80.21211738781929
2024-09-23 12:39:24.099726,43.63,21.41025,-0.003780631555451287,-0.022833026512682618,0.09670458680871308,36.09446859390736,-100.26678939585686,76.200527287817
2024-09-23 12:39:24.142378,43.63,21.41025,-0.0035318979854855937,-0.023330473146428877,0.09695331012558621,32.08287849390507,-100.26678939585686,76.200527287817
2024-09-23 12:39:24.154219,43.63,21.41025,-0.0035318979854855937,-0.023330473146428877,0.09695331012558621,32.08287849390507,-96.25519929585457,80.21211738781929
2024-09-23 12:39:24.185947,43.63,21.410301,-0.0035318979854855937,-0.023330473146428877,0.09695331012558621,32.08287849390507,-96.25519929585457,80.21211738781929
2024-09-23 12:39:24.197215,43.63,21.410301,-0.0031836870127375577,-0.02263404056809607,0.09750050628343246,36.09446859390736,-104.27510100388527,80.21211738781929
2024-09-23 12:39:24.239717,43.63,21.410352,-0.0028354659767690416,-0.022982261414192504,0.09750050628343246,36.09446859390736,-104.27510100388527,76.200527287817
2024-09-23 12:39:24.250889,43.63,21.410352,-0.0028354659767690416,-0.022982261414192504,0.09695331012558621,32.08287849390507,-104.27510100388527,76.200527287817
2024-09-23 12:39:24.293850,43.63,21.410403,-0.003482159473966507,-0.023230986250042305,0.09690356060148622,32.08287849390507,-96.25519929585457,88.23529758782387
2024-09-23 12:39:24.335852,43.63,21.410403,-0.003482159473966507,-0.023230986250042305,0.09690356060148622,40.106058693909645,-100.26678939585686,80.21211738781929
2024-09-23 12:39:24.347583,43.63,21.410453,-0.0032831742888682963,-0.02293251340906919,0.09690356060148622,40.106058693909645,-100.26678939585686,80.21211738781929
2024-09-23 12:39:24.390424,43.63,21.410504,-0.0037308827908396356,-0.02293251340906919,0.0970030596496862,32.08287849390507,-96.25519929585457,80.21211738781929
2024-09-23 12:39:24.432557,43.77,21.410504,-0.0037308827908396356,-0.023330473146428877,0.09695331012558621,32.08287849390507,-96.25519929585457,80.21211738781929
2024-09-23 12:39:24.443564,43.77,21.410591,-0.0037308827908396356,-0.023330473146428877,0.09695331012558621,40.106058693909645,-96.25519929585457,80.21211738781929
2024-09-23 12:39:24.526844,43.77,21.410591,-0.0030841997366068195,-0.023330473146428877,0.09695331012558621,40.106058693909645,-96.25519929585457,80.21211738781929
2024-09-23 12:39:24.538146,43.77,21.410591,-0.0030841997366068195,-0.02293251340906919,0.09705279702197278,36.09446859390736,-108.28669110388756,84.22370748782159
2024-09-23 12:39:24.632371,43.77,21.410642,-0.0032831742888682963,-0.02303200030545576,0.09750050628343246,36.09446859390736,-108.28669110388756,84.22370748782159
2024-09-23 12:39:24.644588,43.77,21.410642,-0.0032831742888682963,-0.02303200030545576,0.09750050628343246,36.09446859390736,-108.28669110388756,84.22370748782159
2024-09-23 12:39:24.677725,43.77,21.410693,-0.0032831742888682963,-0.02303200030545576,0.09750050628343246,36.09446859390736,-108.28669110388756,88.23529758782387
2024-09-23 12:39:24.689001,43.77,21.410693,-0.0032831742888682963,-0.02308174982955575,0.09655535038822652,28.07457030097246,-108.28669110388756,88.23529758782387
2024-09-23 12:39:24.731269,43.77,21.410744,-0.0031836870127375577,-0.023877669304275123,0.09755024973162574,28.07457030097246,-96.25519929585457,84.22370748782159
2024-09-23 12:39:24.774472,43.77,21.410744,-0.0031836870127375577,-0.023877669304275123,0.09755024973162574,36.09446859390736,-100.26678939585686,76.200527287817
2024-09-23 12:39:24.786102,43.77,21.410794,-0.0030344509719951677,-0.02313149783467906,0.09755024973162574,36.09446859390736,-100.26678939585686,76.200527287817
2024-09-23 12:39:24.828947,43.77,21.410886,-0.0036811340262279837,-0.02313149783467906,0.09750050628343246,48.12595698684454,-96.25519929585457,84.22370748782159
2024-09-23 12:39:24.874848,43.77,21.410886,-0.0036811340262279837,-0.0225345536717095,0.09720203344245934,36.09446859390736,-100.26678939585686,84.22370748782159
2024-09-23 12:39:24.887002,43.77,21.411029,-0.0036811340262279837,-0.0225345536717095,0.09720203344245934,36.09446859390736,-100.26678939585686,76.200527287817
2024-09-23 12:39:24.919593,43.77,21.411029,-0.0035318979854855937,-0.023330473146428877,0.09720203344245934,36.09446859390736,-100.26678939585686,76.200527287817
2024-09-23 12:39:24.930827,43.77,21.411029,-0.0035318979854855937,-0.023330473146428877,0.09750050628343246,36.09446859390736,-100.26678939585686,80.21211738781929
2024-09-23 12:39:24.973476,43.77,21.411081,-0.0035816467500972456,-0.02293251340906919,0.09670458680871308,40.106058693909645,-100.26678939585686,80.21211738781929
2024-09-23 12:39:24.985230,43.77,21.411081,-0.0035816467500972456,-0.02293251340906919,0.09670458680871308,40.106058693909645,-100.26678939585686,80.21211738781929
2024-09-23 12:39:25.018975,43.77,21.411132,-0.0030344509719951677,-0.02293251340906919,0.09670458680871308,40.106058693909645,-100.26678939585686,80.21211738781929
2024-09-23 12:39:25.030599,43.77,21.411132,-0.0030344509719951677,-0.02362894446842532,0.09720203344245934,44.11764879391193,-100.26678939585686,80.21211738781929
2024-09-23 12:39:25.072768,43.77,21.411182,-0.003631395514708897,-0.023429960042815445,0.09665483728461309,44.11764879391193,-100.26678939585686,80.21211738781929
2024-09-23 12:39:25.115897,43.77,21.411182,-0.003631395514708897,-0.023429960042815445,0.09665483728461309,36.09446859390736,-108.28669110388756,80.21211738781929
2024-09-23 12:39:25.170348,43.77,21.411233,-0.003631395514708897,-0.023429960042815445,0.09685382322919964,32.08287849390507,-100.26678939585686,80.21211738781929
2024-09-23 12:39:25.213968,43.77,21.411284,-0.0033329230534799477,-0.023429960042815445,0.09685382322919964,32.08287849390507,-100.26678939585686,80.21211738781929
2024-09-23 12:39:25.225810,43.77,21.411284,-0.0033329230534799477,-0.023579196463302005,0.09774922960030558,40.106058693909645,-100.26678939585686,80.21211738781929
2024-09-23 12:39:25.258493,43.77,21.411284,-0.0033329230534799477,-0.023579196463302005,0.09774922960030558,40.106058693909645,-92.24360919585227,80.21211738781929
2024-09-23 12:39:25.269611,43.77,21.411371,-0.0032831742888682963,-0.02362894446842532,0.09705279702197278,40.106058693909645,-92.24360919585227,76.200527287817
2024-09-23 12:39:25.312022,43.77,21.411422,-0.0032831742888682963,-0.02362894446842532,0.09705279702197278,36.09446859390736,-100.26678939585686,72.1922225099802
2024-09-23 12:39:25.323536,43.77,21.411422,-0.0031836870127375577,-0.02278327698858263,0.09705279702197278,36.09446859390736,-100.26678939585686,72.1922225099802
2024-09-23 12:39:25.355693,43.77,21.411422,-0.0031836870127375577,-0.02278327698858263,0.09690356060148622,36.09446859390736,-100.26678939585686,72.1922225099802
2024-09-23 12:39:25.369202,43.77,21.411473,-0.0032831742888682963,-0.02278327698858263,0.09690356060148622,44.11764879391193,-100.26678939585686,72.1922225099802
2024-09-23 12:39:25.411751,43.77,21.411473,-0.0032831742888682963,-0.02268379009219606,0.09759999317981902,28.07457030097246,-100.26678939585686,76.200527287817
2024-09-23 12:39:25.423963,43.77,21.411566,-0.0032831742888682963,-0.02268379009219606,0.09759999317981902,28.07457030097246,-100.26678939585686,76.200527287817
2024-09-23 12:39:25.456141,43.4,21.411566,-0.0033329230534799477,-0.02352945757203875,0.09759999317981902,28.07457030097246,-100.26678939585686,76.200527287817
2024-09-23 12:39:25.467450,43.4,21.411566,-0.0033329230534799477,-0.02352945757203875,0.09725178296655933,24.06297849342227,-100.26678939585686,80.21211738781929
2024-09-23 12:39:25.510331,43.4,21.411617,-0.0029847020175114316,-0.022833026512682618,0.0970030596496862,40.106058693909645,-96.25519929585457,80.21211738781929
2024-09-23 12:39:25.552692,43.4,21.411668,-0.0029847020175114316,-0.022833026512682618,0.0970030596496862,40.106058693909645,-96.25519929585457,72.1922225099802
2024-09-23 12:39:25.564452,43.4,21.411668,-0.0034324103296106863,-0.02303200030545576,0.09690356060148622,40.106058693909645,-96.25519929585457,72.1922225099802
2024-09-23 12:39:25.607163,43.4,21.411719,-0.0034324103296106863,-0.023330473146428877,0.09690356060148622,40.106058693909645,-92.24360919585227,72.1922225099802
2024-09-23 12:39:25.619187,43.4,21.411719,-0.0034324103296106863,-0.023330473146428877,0.09680407370509965,40.106058693909645,-92.24360919585227,72.1922225099802
2024-09-23 12:39:25.702938,43.4,21.411769,-0.0034324103296106863,-0.023330473146428877,0.09680407370509965,32.08287849390507,-96.25519929585457,80.21211738781929
2024-09-23 12:39:25.714742,43.4,21.411769,-0.0033329230534799477,-0.023827930413011865,0.09680407370509965,32.08287849390507,-96.25519929585457,80.21211738781929
2024-09-23 12:39:25.747254,43.4,21.411769,-0.0033329230534799477,-0.023827930413011865,0.09715228999426605,32.08287849390507,-96.25519929585457,80.21211738781929
2024-09-23 12:39:25.758922,43.4,21.41182,-0.0031836870127375577,-0.023827930413011865,0.09715228999426605,32.08287849390507,-96.25519929585457,80.21211738781929
2024-09-23 12:39:25.801359,43.4,21.41182,-0.0031836870127375577,-0.023230986250042305,0.09715228999426605,40.106058693909645,-100.26678939585686,76.200527287817
2024-09-23 12:39:25.813314,43.4,21.411907,-0.0031836870127375577,-0.023230986250042305,0.09715228999426605,40.106058693909645,-100.26678939585686,76.200527287817
2024-09-23 12:39:25.845923,43.4,21.411907,-0.003780631555451287,-0.02367869399252531,0.09715228999426605,40.106058693909645,-100.26678939585686,76.200527287817
2024-09-23 12:39:25.857225,43.4,21.411907,-0.003780631555451287,-0.02367869399252531,0.09725178296655933,28.07457030097246,-100.26678939585686,80.21211738781929
2024-09-23 12:39:25.900224,43.4,21.411959,-0.0032831742888682963,-0.023280723622328886,0.0970030596496862,36.09446859390736,-104.27510100388527,80.21211738781929
2024-09-23 12:39:25.942657,43.4,21.412054,-0.0032831742888682963,-0.023280723622328886,0.0970030596496862,36.09446859390736,-104.27510100388527,80.21211738781929
2024-09-23 12:39:25.954228,43.4,21.412054,-0.0032831742888682963,-0.02367869399252531,0.0966050877605131,32.08287849390507,-104.27510100388527,80.21211738781929
2024-09-23 12:39:25.997313,43.4,21.412105,-0.0029349636958644295,-0.02293251340906919,0.0966050877605131,32.08287849390507,-100.26678939585686,80.21211738781929
2024-09-23 12:39:26.009095,43.4,21.412105,-0.0029349636958644295,-0.02293251340906919,0.09750050628343246,32.08287849390507,-100.26678939585686,80.21211738781929
2024-09-23 12:39:26.041714,43.4,21.412105,-0.0029349636958644295,-0.02293251340906919,0.09750050628343246,36.09446859390736,-100.26678939585686,76.200527287817
2024-09-23 12:39:26.052911,43.4,21.412156,-0.003382661564999035,-0.023429960042815445,0.09750050628343246,36.09446859390736,-100.26678939585686,76.200527287817
2024-09-23 12:39:26.096170,43.4,21.412207,-0.003233425524256645,-0.023429960042815445,0.09755024973162574,40.106058693909645,-92.24360919585227,80.21211738781929
2024-09-23 12:39:26.139044,43.4,21.412207,-0.003233425524256645,-0.02352945757203875,0.09695331012558621,40.106058693909645,-92.24360919585227,80.21211738781929
2024-09-23 12:39:26.150628,43.4,21.412297,-0.003233425524256645,-0.02352945757203875,0.09695331012558621,40.106058693909645,-104.27510100388527,84.22370748782159
2024-09-23 12:39:26.192957,43.4,21.412297,-0.0031836870127375577,-0.023280723622328886,0.09705279702197278,32.08287849390507,-96.25519929585457,84.22370748782159
2024-09-23 12:39:26.235199,43.4,21.412348,-0.003631395514708897,-0.023280723622328886,0.09705279702197278,32.08287849390507,-96.25519929585457,84.22370748782159
2024-09-23 12:39:26.247139,43.4,21.412348,-0.003631395514708897,-0.02362894446842532,0.09690356060148622,44.11764879391193,-104.27510100388527,84.22370748782159
2024-09-23 12:39:26.290375,43.4,21.412399,-0.0030841997366068195,-0.02338022115155219,0.09685382322919964,32.08287849390507,-104.27510100388527,64.16903547978401
2024-09-23 12:39:26.334186,43.4,21.412399,-0.0030841997366068195,-0.02338022115155219,0.09685382322919964,32.08287849390507,-108.28669110388756,80.21211738781929
2024-09-23 12:39:26.345833,43.4,21.41245,-0.0032831742888682963,-0.02367869399252531,0.09705279702197278,32.08287849390507,-108.28669110388756,80.21211738781929
2024-09-23 12:39:26.389244,43.4,21.4125,-0.0034324103296106863,-0.02308174982955575,0.09705279702197278,28.07457030097246,-96.25519929585457,80.21211738781929
2024-09-23 12:39:26.431648,43.4,21.4125,-0.0034324103296106863,-0.02308174982955575,0.09675432418099966,36.09446859390736,-104.27510100388527,80.21211738781929
2024-09-23 12:39:26.442880,43.4,21.412551,-0.0030841997366068195,-0.02308174982955575,0.09675432418099966,36.09446859390736,-104.27510100388527,80.21211738781929
2024-09-23 12:39:26.485040,42.86,21.412639,-0.0030841997366068195,-0.023230986250042305,0.0973015264147526,32.08287849390507,-100.26678939585686,76.200527287817
2024-09-23 12:39:26.528127,42.86,21.412639,-0.003780631555451287,-0.023230986250042305,0.0973015264147526,32.08287849390507,-100.26678939585686,76.200527287817
2024-09-23 12:39:26.539326,42.86,21.412639,-0.003780631555451287,-0.023230986250042305,0.09745075675933246,32.08287849390507,-100.26678939585686,80.21211738781929
2024-09-23 12:39:26.582622,42.86,21.41269,-0.0031339382481259063,-0.02308174982955575,0.09740101331113918,40.106058693909645,-100.26678939585686,80.21211738781929
2024-09-23 12:39:26.594343,42.86,21.41269,-0.0031339382481259063,-0.02308174982955575,0.09740101331113918,40.106058693909645,-100.26678939585686,80.21211738781929
2024-09-23 12:39:26.627163,42.86,21.41274,-0.003780631555451287,-0.02308174982955575,0.09740101331113918,40.106058693909645,-100.26678939585686,80.21211738781929
2024-09-23 12:39:26.638671,42.86,21.41274,-0.003780631555451287,-0.023479709566915436,0.0973512698629459,44.11764879391193,-100.26678939585686,80.21211738781929
2024-09-23 12:39:26.722548,42.86,21.41274,-0.003780631555451287,-0.023479709566915436,0.0973512698629459,44.11764879391193,-104.27510100388527,80.21211738781929
2024-09-23 12:39:26.734572,42.86,21.412791,-0.0033329230534799477,-0.023429960042815445,0.09685382322919964,44.11764879391193,-104.27510100388527,76.200527287817
2024-09-23 12:39:26.776936,42.86,21.412842,-0.003482159473966507,-0.023429960042815445,0.09685382322919964,44.11764879391193,-104.27510100388527,76.200527287817
2024-09-23 12:39:26.789218,42.86,21.412842,-0.003482159473966507,-0.023479709566915436,0.09685382322919964,44.11764879391193,-104.27510100388527,76.200527287817
2024-09-23 12:39:26.822460,42.86,21.412842,-0.003482159473966507,-0.023479709566915436,0.09764974270391902,40.106058693909645,-96.25519929585457,76.200527287817
2024-09-23 12:39:26.834047,42.86,21.412892,-0.0031836870127375577,-0.023479709566915436,0.09764974270391902,40.106058693909645,-96.25519929585457,80.21211738781929
2024-09-23 12:39:26.867421,42.86,21.412892,-0.0031836870127375577,-0.023181236725942318,0.09764974270391902,40.106058693909645,-96.25519929585457,80.21211738781929
2024-09-23 12:39:26.878404,42.86,21.412979,-0.0031836870127375577,-0.023181236725942318,0.09710254654607277,36.09446859390736,-108.28669110388756,76.200527287817
2024-09-23 12:39:26.920947,42.86,21.412979,-0.0035816467500972456,-0.023579196463302005,0.09670458680871308,32.08287849390507,-108.28669110388756,76.200527287817
2024-09-23 12:39:26.932686,42.86,21.412979,-0.0035816467500972456,-0.023579196463302005,0.09670458680871308,32.08287849390507,-100.26678939585686,80.21211738781929
2024-09-23 12:39:26.965976,42.86,21.413078,-0.0035816467500972456,-0.023579196463302005,0.09670458680871308,32.08287849390507,-100.26678939585686,80.21211738781929
2024-09-23 12:39:26.977283,42.86,21.413078,-0.0028354659767690416,-0.02362894446842532,0.09705279702197278,44.11764879391193,-100.26678939585686,80.21211738781929
2024-09-23 12:39:27.020466,42.86,21.413129,-0.0028354659767690416,-0.02362894446842532,0.09705279702197278,44.11764879391193,-100.26678939585686,76.200527287817
2024-09-23 12:39:27.063097,42.86,21.413129,-0.0029847020175114316,-0.02362894446842532,0.09705279702197278,44.11764879391193,-100.26678939585686,76.200527287817
2024-09-23 12:39:27.074576,42.86,21.413129,-0.0029847020175114316,-0.023230986250042305,0.0970030596496862,36.09446859390736,-96.25519929585457,76.200527287817
2024-09-23 12:39:27.117846,42.86,21.41318,-0.0032831742888682963,-0.02293251340906919,0.09695331012558621,32.08287849390507,-96.25519929585457,76.200527287817
2024-09-23 12:39:27.130130,42.86,21.41318,-0.0032831742888682963,-0.02293251340906919,0.09695331012558621,32.08287849390507,-96.25519929585457,76.200527287817
2024-09-23 12:39:27.162604,42.86,21.41323,-0.0032831742888682963,-0.02293251340906919,0.09695331012558621,32.08287849390507,-96.25519929585457,80.21211738781929
2024-09-23 12:39:27.174436,42.86,21.41323,-0.0035816467500972456,-0.02303200030545576,0.09710254654607277,32.08287849390507,-96.25519929585457,80.21211738781929
2024-09-23 12:39:27.216204,42.86,21.413281,-0.0029847020175114316,-0.023479709566915436,0.09710254654607277,32.08287849390507,-96.25519929585457,80.21211738781929
2024-09-23 12:39:27.228147,42.86,21.413281,-0.0029847020175114316,-0.023479709566915436,0.0973512698629459,32.08287849390507,-96.25519929585457,80.21211738781929
2024-09-23 12:39:27.259973,42.86,21.413281,-0.0029847020175114316,-0.023479709566915436,0.0973512698629459,36.09446859390736,-92.24360919585227,80.21211738781929
2024-09-23 12:39:27.271281,42.86,21.413369,-0.0029349636958644295,-0.023280723622328886,0.0973512698629459,36.09446859390736,-92.24360919585227,76.200527287817
2024-09-23 12:39:27.313839,42.86,21.413421,-0.0029349636958644295,-0.023280723622328886,0.09759999317981902,32.08287849390507,-92.24360919585227,80.21211738781929
2024-09-23 12:39:27.325435,42.86,21.413421,-0.0035816467500972456,-0.023280723622328886,0.09759999317981902,32.08287849390507,-92.24360919585227,80.21211738781929
2024-09-23 12:39:27.358216,42.86,21.413421,-0.0035816467500972456,-0.023230986250042305,0.09695331012558621,44.11764879391193,-92.24360919585227,80.21211738781929
2024-09-23 12:39:27.369987,42.86,21.413516,-0.0035816467500972456,-0.023230986250042305,0.09695331012558621,44.11764879391193,-100.26678939585686,84.22370748782159
2024-09-23 12:39:27.412939,42.86,21.413516,-0.0031339382481259063,-0.023230986250042305,0.09715228999426605,40.106058693909645,-100.26678939585686,84.22370748782159
2024-09-23 12:39:27.455820,42.86,21.413567,-0.003631395514708897,-0.023230986250042305,0.09715228999426605,40.106058693909645,-100.26678939585686,84.22370748782159
2024-09-23 12:39:27.467989,42.86,21.413567,-0.003631395514708897,-0.023181236725942318,0.09715228999426605,36.09446859390736,-104.27510100388527,84.22370748782159
2024-09-23 12:39:27.510626,42.86,21.413618,-0.0035318979854855937,-0.02367869399252531,0.09680407370509965,36.09446859390736,-104.27510100388527,80.21211738781929
2024-09-23 12:39:27.552907,42.86,21.413669,-0.0035318979854855937,-0.02367869399252531,0.09680407370509965,36.09446859390736,-96.25519929585457,80.21211738781929
2024-09-23 12:39:27.564152,42.86,21.413669,-0.0030344509719951677,-0.023429960042815445,0.09680407370509965,36.09446859390736,-96.25519929585457,80.21211738781929
2024-09-23 12:39:27.606692,42.86,21.413719,-0.003233425524256645,-0.023827930413011865,0.09680407370509965,36.09446859390736,-100.26678939585686,76.200527287817
2024-09-23 12:39:27.649095,42.86,21.413719,-0.003233425524256645,-0.023827930413011865,0.09670458680871308,36.09446859390736,-100.26678939585686,76.200527287817
2024-09-23 12:39:27.660820,42.86,21.41377,-0.003233425524256645,-0.023827930413011865,0.09670458680871308,36.09446859390736,-100.26678939585686,80.21211738781929
2024-09-23 12:39:27.702560,42.86,21.41377,-0.003233425524256645,-0.023330473146428877,0.09705279702197278,32.08287849390507,-96.25519929585457,76.200527287817
2024-09-23 12:39:27.714455,42.86,21.413857,-0.003233425524256645,-0.023330473146428877,0.09705279702197278,32.08287849390507,-96.25519929585457,76.200527287817
2024-09-23 12:39:27.746714,42.86,21.413857,-0.003233425524256645,-0.023429960042815445,0.09705279702197278,32.08287849390507,-96.25519929585457,76.200527287817
2024-09-23 12:39:27.758026,42.86,21.413857,-0.003233425524256645,-0.023429960042815445,0.0970030596496862,40.106058693909645,-100.26678939585686,80.21211738781929
2024-09-23 12:39:27.800329,42.86,21.413909,-0.0033329230534799477,-0.022982261414192504,0.09750050628343246,44.11764879391193,-100.26678939585686,80.21211738781929
2024-09-23 12:39:27.812560,42.86,21.413909,-0.0033329230534799477,-0.022982261414192504,0.09750050628343246,44.11764879391193,-96.25519929585457,80.21211738781929
2024-09-23 12:39:27.846004,42.86,21.413959,-0.003780631555451287,-0.022982261414192504,0.09750050628343246,44.11764879391193,-96.25519929585457,80.21211738781929
2024-09-23 12:39:27.857591,42.86,21.413959,-0.003780631555451287,-0.023280723622328886,0.09720203344245934,36.09446859390736,-96.25519929585457,80.21211738781929
2024-09-23 12:39:27.900089,42.86,21.41401,-0.0034324103296106863,-0.02263404056809607,0.09675432418099966,36.09446859390736,-96.25519929585457,80.21211738781929
2024-09-23 12:39:27.943614,42.86,21.41401,-0.0034324103296106863,-0.02263404056809607,0.09675432418099966,32.08287849390507,-96.25519929585457,84.22370748782159
2024-09-23 12:39:27.955113,42.86,21.414061,-0.002785727465249955,-0.02303200030545576,0.09675432418099966,32.08287849390507,-96.25519929585457,84.22370748782159
2024-09-23 12:39:27.989763,42.86,21.414061,-0.002785727465249955,-0.02303200030545576,0.09705279702197278,32.08287849390507,-96.25519929585457,84.22370748782159
2024-09-23 12:39:28.000973,42.86,21.414111,-0.0035816467500972456,-0.02303200030545576,0.09705279702197278,36.09446859390736,-100.26678939585686,76.200527287817
2024-09-23 12:39:28.043825,42.86,21.414111,-0.0035816467500972456,-0.023280723622328886,0.09725178296655933,40.106058693909645,-100.26678939585686,76.200527287817
2024-09-23 12:39:28.055536,42.86,21.414198,-0.0035816467500972456,-0.023280723622328886,0.09725178296655933,40.106058693909645,-100.26678939585686,80.21211738781929
2024-09-23 12:39:28.088246,42.86,21.414198,-0.0025369937054121774,-0.023479709566915436,0.09725178296655933,40.106058693909645,-100.26678939585686,80.21211738781929
2024-09-23 12:39:28.099753,42.86,21.414198,-0.0025369937054121774,-0.023479709566915436,0.09695331012558621,36.09446859390736,-96.25519929585457,84.22370748782159
2024-09-23 12:39:28.142867,42.86,21.41425,-0.0031836870127375577,-0.02313149783467906,0.0970030596496862,32.08287849390507,-100.26678939585686,84.22370748782159
2024-09-23 12:39:28.185378,42.86,21.4143,-0.0031836870127375577,-0.02313149783467906,0.0970030596496862,32.08287849390507,-100.26678939585686,84.22370748782159
2024-09-23 12:39:28.196601,42.86,21.4143,-0.0033329230534799477,-0.02293251340906919,0.0973015264147526,40.106058693909645,-100.26678939585686,84.22370748782159
2024-09-23 12:39:28.240043,42.86,21.414351,-0.003482159473966507,-0.023330473146428877,0.09705279702197278,40.106058693909645,-100.26678939585686,84.22370748782159
2024-09-23 12:39:28.282492,42.86,21.414351,-0.003482159473966507,-0.023330473146428877,0.09705279702197278,28.07457030097246,-96.25519929585457,84.22370748782159
2024-09-23 12:39:28.293934,42.86,21.414402,-0.0035816467500972456,-0.022982261414192504,0.09705279702197278,28.07457030097246,-96.25519929585457,80.21211738781929
2024-09-23 12:39:28.337304,42.86,21.414402,-0.0035816467500972456,-0.022982261414192504,0.09745075675933246,36.09446859390736,-96.25519929585457,80.21211738781929
2024-09-23 12:39:28.379611,42.86,21.414402,-0.0035816467500972456,-0.022982261414192504,0.09745075675933246,36.09446859390736,-96.25519929585457,80.21211738781929
2024-09-23 12:39:28.391094,42.86,21.414453,-0.0035318979854855937,-0.023181236725942318,0.09680407370509965,36.09446859390736,-96.25519929585457,80.21211738781929
2024-09-23 12:39:28.433683,42.86,21.41454,-0.0029349636958644295,-0.023181236725942318,0.09680407370509965,40.106058693909645,-96.25519929585457,80.21211738781929
2024-09-23 12:39:28.445748,42.86,21.41454,-0.0029349636958644295,-0.02362894446842532,0.09680407370509965,40.106058693909645,-96.25519929585457,80.21211738781929
2024-09-23 12:39:28.478204,42.86,21.41454,-0.0029349636958644295,-0.02362894446842532,0.09710254654607277,36.09446859390736,-96.25519929585457,80.21211738781929
2024-09-23 12:39:28.489609,42.86,21.414591,-0.0037308827908396356,-0.02362894446842532,0.09710254654607277,36.09446859390736,-96.25519929585457,84.22370748782159
2024-09-23 12:39:28.531885,43.06,21.414591,-0.0037308827908396356,-0.023181236725942318,0.09705279702197278,48.12595698684454,-100.26678939585686,76.200527287817
2024-09-23 12:39:28.544601,43.06,21.414642,-0.0037308827908396356,-0.023181236725942318,0.09705279702197278,48.12595698684454,-100.26678939585686,76.200527287817
2024-09-23 12:39:28.577475,43.06,21.414642,-0.0037308827908396356,-0.02268379009219606,0.09740101331113918,48.12595698684454,-100.26678939585686,76.200527287817
2024-09-23 12:39:28.589230,43.06,21.414642,-0.0037308827908396356,-0.02268379009219606,0.09740101331113918,36.09446859390736,-100.26678939585686,76.200527287817
2024-09-23 12:39:28.631381,43.06,21.414735,-0.0029349636958644295,-0.023181236725942318,0.0970030596496862,36.09446859390736,-104.27510100388527,76.200527287817
2024-09-23 12:39:28.674215,43.06,21.414786,-0.0028354659767690416,-0.023181236725942318,0.0970030596496862,36.09446859390736,-104.27510100388527,72.1922225099802
2024-09-23 12:39:28.685636,43.06,21.414786,-0.0028354659767690416,-0.023579196463302005,0.09685382322919964,36.09446859390736,-104.27510100388527,72.1922225099802
2024-09-23 12:39:28.768759,43.06,21.414786,-0.0028354659767690416,-0.023579196463302005,0.09685382322919964,36.09446859390736,-96.25519929585457,72.1922225099802
2024-09-23 12:39:28.781810,43.06,21.414837,-0.002785727465249955,-0.02293251340906919,0.09655535038822652,36.09446859390736,-96.25519929585457,76.200527287817
2024-09-23 12:39:28.826689,43.06,21.414888,-0.0030841997366068195,-0.023181236725942318,0.09655535038822652,40.106058693909645,-96.25519929585457,76.200527287817
2024-09-23 12:39:28.868566,43.06,21.414888,-0.0030841997366068195,-0.023181236725942318,0.09715228999426605,36.09446859390736,-96.25519929585457,76.200527287817
2024-09-23 12:39:28.880395,43.06,21.414938,-0.0030841997366068195,-0.023181236725942318,0.09715228999426605,36.09446859390736,-92.24360919585227,80.21211738781929
2024-09-23 12:39:28.963383,43.06,21.414938,-0.0030841997366068195,-0.023181236725942318,0.09715228999426605,36.09446859390736,-92.24360919585227,80.21211738781929
2024-09-23 12:39:28.974731,43.06,21.414938,-0.0030841997366068195,-0.023181236725942318,0.0973512698629459,36.09446859390736,-100.26678939585686,80.21211738781929
2024-09-23 12:39:29.016699,43.06,21.415027,-0.0031339382481259063,-0.023181236725942318,0.0973512698629459,36.09446859390736,-100.26678939585686,88.23529758782387
2024-09-23 12:39:29.028545,43.06,21.415027,-0.0031339382481259063,-0.023827930413011865,0.09690356060148622,32.08287849390507,-100.26678939585686,88.23529758782387
2024-09-23 12:39:29.061967,43.06,21.415027,-0.0031339382481259063,-0.023827930413011865,0.09690356060148622,32.08287849390507,-100.26678939585686,88.23529758782387
2024-09-23 12:39:29.073217,43.06,21.415125,-0.0034324103296106863,-0.023181236725942318,0.09675432418099966,32.08287849390507,-100.26678939585686,76.200527287817
2024-09-23 12:39:29.116158,43.06,21.415176,-0.0031836870127375577,-0.023181236725942318,0.09675432418099966,48.12595698684454,-96.25519929585457,84.22370748782159
2024-09-23 12:39:29.127820,43.06,21.415176,-0.0031836870127375577,-0.02313149783467906,0.09675432418099966,48.12595698684454,-96.25519929585457,84.22370748782159
2024-09-23 12:39:29.160843,43.06,21.415176,-0.0031836870127375577,-0.02313149783467906,0.0962568775472534,32.08287849390507,-96.25519929585457,84.22370748782159
2024-09-23 12:39:29.172592,43.06,21.415227,-0.0029847020175114316,-0.02313149783467906,0.0962568775472534,32.08287849390507,-100.26678939585686,76.200527287817
2024-09-23 12:39:29.215015,43.06,21.415322,-0.0029847020175114316,-0.02293251340906919,0.09750050628343246,40.106058693909645,-96.25519929585457,76.200527287817
2024-09-23 12:39:29.258243,43.06,21.415322,-0.0037308827908396356,-0.023877669304275123,0.09750050628343246,40.106058693909645,-96.25519929585457,76.200527287817
2024-09-23 12:39:29.269605,43.06,21.415322,-0.0037308827908396356,-0.023877669304275123,0.09710254654607277,36.09446859390736,-100.26678939585686,80.21211738781929
2024-09-23 12:39:29.311965,43.06,21.415418,-0.0034324103296106863,-0.023429960042815445,0.09650560086412653,36.09446859390736,-100.26678939585686,80.21211738781929
2024-09-23 12:39:29.324260,43.06,21.415418,-0.0034324103296106863,-0.023429960042815445,0.09650560086412653,36.09446859390736,-96.25519929585457,80.21211738781929
2024-09-23 12:39:29.357424,43.06,21.415469,-0.0031339382481259063,-0.023429960042815445,0.09650560086412653,36.09446859390736,-96.25519929585457,76.200527287817
2024-09-23 12:39:29.369007,43.06,21.415469,-0.0031339382481259063,-0.022982261414192504,0.09759999317981902,44.11764879391193,-96.25519929585457,76.200527287817
2024-09-23 12:39:29.412455,43.06,21.41552,-0.0030344509719951677,-0.02293251340906919,0.0973512698629459,44.11764879391193,-104.27510100388527,72.1922225099802
2024-09-23 12:39:29.454929,43.06,21.41552,-0.0030344509719951677,-0.02293251340906919,0.0973512698629459,40.106058693909645,-96.25519929585457,72.1922225099802
2024-09-23 12:39:29.466727,43.06,21.41557,-0.0032831742888682963,-0.023778180888911878,0.0973512698629459,40.106058693909645,-96.25519929585457,72.1922225099802
2024-09-23 12:39:29.510100,43.06,21.415621,-0.0031836870127375577,-0.023778180888911878,0.09750050628343246,36.09446859390736,-100.26678939585686,76.200527287817
2024-09-23 12:39:29.553137,42.8,21.415621,-0.0031836870127375577,-0.022833026512682618,0.09680407370509965,36.09446859390736,-100.26678939585686,76.200527287817
2024-09-23 12:39:29.606108,42.8,21.41571,-0.0038303700669703737,-0.02238531725122294,0.09680407370509965,36.09446859390736,-96.25519929585457,76.200527287817
2024-09-23 12:39:29.617861,42.8,21.41571,-0.0038303700669703737,-0.02238531725122294,0.0970030596496862,36.09446859390736,-96.25519929585457,76.200527287817
2024-09-23 12:39:29.650234,42.8,21.41571,-0.0038303700669703737,-0.02238531725122294,0.0970030596496862,36.09446859390736,-100.26678939585686,80.21211738781929
2024-09-23 12:39:29.661448,42.8,21.415762,-0.0031836870127375577,-0.023280723622328886,0.0970030596496862,36.09446859390736,-100.26678939585686,80.21211738781929
2024-09-23 12:39:29.704086,42.8,21.415812,-0.0035816467500972456,-0.023280723622328886,0.09740101331113918,36.09446859390736,-100.26678939585686,76.200527287817
2024-09-23 12:39:29.798336,42.8,21.415812,-0.0035816467500972456,-0.022982261414192504,0.09710254654607277,36.09446859390736,-100.26678939585686,76.200527287817
2024-09-23 12:39:29.811723,42.8,21.415863,-0.0035816467500972456,-0.022982261414192504,0.09710254654607277,36.09446859390736,-100.26678939585686,76.200527287817
2024-09-23 12:39:29.844347,42.8,21.415863,-0.003233425524256645,-0.022982261414192504,0.09695331012558621,36.09446859390736,-100.26678939585686,76.200527287817
2024-09-23 12:39:29.856280,42.8,21.415863,-0.003233425524256645,-0.022982261414192504,0.09695331012558621,36.09446859390736,-96.25519929585457,80.21211738781929
2024-09-23 12:39:29.899180,42.8,21.415954,-0.0028354659767690416,-0.023330473146428877,0.0973015264147526,36.09446859390736,-100.26678939585686,80.21211738781929
2024-09-23 12:39:29.941906,42.8,21.416005,-0.0029349636958644295,-0.023330473146428877,0.0973015264147526,36.09446859390736,-100.26678939585686,84.22370748782159
2024-09-23 12:39:29.953168,42.8,21.416005,-0.0029349636958644295,-0.02352945757203875,0.09690356060148622,40.106058693909645,-100.26678939585686,84.22370748782159
2024-09-23 12:39:29.996097,42.8,21.416056,-0.0031339382481259063,-0.02303200030545576,0.09725178296655933,40.106058693909645,-96.25519929585457,80.21211738781929
2024-09-23 12:39:30.038973,42.8,21.416056,-0.0031339382481259063,-0.02303200030545576,0.09725178296655933,36.09446859390736,-92.24360919585227,80.21211738781929
2024-09-23 12:39:30.050553,42.8,21.416151,-0.0029349636958644295,-0.023280723622328886,0.09725178296655933,36.09446859390736,-92.24360919585227,80.21211738781929
2024-09-23 12:39:30.093411,42.8,21.416201,-0.0038303700669703737,-0.023280723622328886,0.09720203344245934,40.106058693909645,-92.24360919585227,80.21211738781929
2024-09-23 12:39:30.136084,42.8,21.416201,-0.0038303700669703737,-0.023330473146428877,0.09784872257259886,40.106058693909645,-92.24360919585227,80.21211738781929
2024-09-23 12:39:30.147903,42.8,21.416295,-0.0038303700669703737,-0.023330473146428877,0.09784872257259886,36.09446859390736,-100.26678939585686,76.200527287817
2024-09-23 12:39:30.190354,42.8,21.416295,-0.0035318979854855937,-0.023330473146428877,0.0973015264147526,28.07457030097246,-100.26678939585686,76.200527287817
2024-09-23 12:39:30.232975,42.8,21.416295,-0.0035318979854855937,-0.023330473146428877,0.0973015264147526,28.07457030097246,-96.25519929585457,84.22370748782159
2024-09-23 12:39:30.244487,42.8,21.416346,-0.0032831742888682963,-0.023429960042815445,0.09710254654607277,28.07457030097246,-96.25519929585457,84.22370748782159
2024-09-23 12:39:30.287575,42.8,21.416397,-0.002785727465249955,-0.023429960042815445,0.09710254654607277,32.08287849390507,-96.25519929585457,80.21211738781929
2024-09-23 12:39:30.300499,42.8,21.416397,-0.002785727465249955,-0.02303200030545576,0.09710254654607277,32.08287849390507,-96.25519929585457,80.21211738781929
2024-09-23 12:39:30.332278,42.8,21.416397,-0.002785727465249955,-0.02303200030545576,0.09695331012558621,32.08287849390507,-100.26678939585686,80.21211738781929
2024-09-23 12:39:30.343737,42.8,21.416447,-0.0033329230534799477,-0.02303200030545576,0.09695331012558621,32.08287849390507,-100.26678939585686,76.200527287817
2024-09-23 12:39:30.387586,42.8,21.416498,-0.0033329230534799477,-0.022733528983459317,0.09680407370509965,40.106058693909645,-96.25519929585457,84.22370748782159
2024-09-23 12:39:30.429780,42.8,21.416498,-0.0029847020175114316,-0.022833026512682618,0.09720203344245934,40.106058693909645,-96.25519929585457,84.22370748782159
2024-09-23 12:39:30.442152,42.8,21.416498,-0.0029847020175114316,-0.022833026512682618,0.09720203344245934,40.106058693909645,-100.26678939585686,76.200527287817
2024-09-23 12:39:30.475643,42.8,21.416588,-0.0029847020175114316,-0.022833026512682618,0.09720203344245934,40.106058693909645,-100.26678939585686,76.200527287817
2024-09-23 12:39:30.487287,42.8,21.416588,-0.003631395514708897,-0.023479709566915436,0.09695331012558621,36.09446859390736,-108.28669110388756,76.200527287817
2024-09-23 12:39:30.529315,42.8,21.416639,-0.0035816467500972456,-0.023579196463302005,0.09695331012558621,36.09446859390736,-108.28669110388756,80.21211738781929
2024-09-23 12:39:30.541207,42.8,21.416639,-0.0035816467500972456,-0.023579196463302005,0.09685382322919964,36.09446859390736,-108.28669110388756,80.21211738781929
2024-09-23 12:39:30.573816,42.6,21.416639,-0.0035816467500972456,-0.023579196463302005,0.09685382322919964,36.09446859390736,-108.28669110388756,80.21211738781929
2024-09-23 12:39:30.585742,42.6,21.41669,-0.0029847020175114316,-0.02362894446842532,0.09710254654607277,36.09446859390736,-108.28669110388756,76.200527287817
2024-09-23 12:39:30.629457,42.6,21.41674,-0.003780631555451287,-0.02362894446842532,0.09710254654607277,44.11764879391193,-104.27510100388527,80.21211738781929
2024-09-23 12:39:30.640908,42.6,21.41674,-0.003780631555451287,-0.02293251340906919,0.09710254654607277,44.11764879391193,-104.27510100388527,80.21211738781929
2024-09-23 12:39:30.672699,42.6,21.41674,-0.003780631555451287,-0.02293251340906919,0.09759999317981902,36.09446859390736,-104.27510100388527,80.21211738781929
2024-09-23 12:39:30.684861,42.6,21.416791,-0.0034324103296106863,-0.02293251340906919,0.09759999317981902,36.09446859390736,-92.24360919585227,84.22370748782159
2024-09-23 12:39:30.728308,42.6,21.41688,-0.0034324103296106863,-0.023330473146428877,0.09755024973162574,36.09446859390736,-96.25519929585457,76.200527287817
2024-09-23 12:39:30.771122,42.6,21.41688,-0.003233425524256645,-0.02338022115155219,0.0973015264147526,36.09446859390736,-96.25519929585457,76.200527287817
2024-09-23 12:39:30.782602,42.6,21.41688,-0.003233425524256645,-0.02338022115155219,0.0973015264147526,40.106058693909645,-96.25519929585457,80.21211738781929
2024-09-23 12:39:30.825661,42.6,21.416931,-0.003631395514708897,-0.02308174982955575,0.09715228999426605,36.09446859390736,-96.25519929585457,80.21211738781929
2024-09-23 12:39:30.868042,42.6,21.416982,-0.0030841997366068195,-0.02308174982955575,0.09715228999426605,36.09446859390736,-96.25519929585457,80.21211738781929
2024-09-23 12:39:30.879230,42.6,21.416982,-0.0030841997366068195,-0.023330473146428877,0.09690356060148622,40.106058693909645,-96.25519929585457,80.21211738781929
2024-09-23 12:39:30.921160,42.6,21.417033,-0.0031836870127375577,-0.023330473146428877,0.09690356060148622,40.106058693909645,-96.25519929585457,80.21211738781929
2024-09-23 12:39:30.933380,42.6,21.417033,-0.0031836870127375577,-0.023330473146428877,0.09740101331113918,40.106058693909645,-96.25519929585457,80.21211738781929
2024-09-23 12:39:30.966683,42.6,21.417033,-0.0031836870127375577,-0.023330473146428877,0.09740101331113918,36.09446859390736,-108.28669110388756,76.200527287817
2024-09-23 12:39:30.977810,42.6,21.417084,-0.0035318979854855937,-0.023230986250042305,0.09740101331113918,36.09446859390736,-108.28669110388756,76.200527287817
2024-09-23 12:39:31.019831,42.6,21.417134,-0.003631395514708897,-0.023230986250042305,0.0970030596496862,36.09446859390736,-100.26678939585686,76.200527287817
2024-09-23 12:39:31.062512,42.6,21.417134,-0.003631395514708897,-0.02313149783467906,0.0973512698629459,36.09446859390736,-100.26678939585686,76.200527287817
2024-09-23 12:39:31.074032,42.6,21.417221,-0.003631395514708897,-0.02313149783467906,0.0973512698629459,36.09446859390736,-100.26678939585686,80.21211738781929
2024-09-23 12:39:31.116713,42.6,21.417221,-0.0034324103296106863,-0.023230986250042305,0.0973015264147526,36.09446859390736,-96.25519929585457,76.200527287817
2024-09-23 12:39:31.159787,42.6,21.417272,-0.0035816467500972456,-0.023230986250042305,0.0973015264147526,36.09446859390736,-96.25519929585457,76.200527287817
2024-09-23 12:39:31.171433,42.6,21.417272,-0.0035816467500972456,-0.02308174982955575,0.09690356060148622,36.09446859390736,-100.26678939585686,76.200527287817
2024-09-23 12:39:31.215156,42.6,21.417323,-0.0031339382481259063,-0.023330473146428877,0.09685382322919964,40.106058693909645,-100.26678939585686,76.200527287817
2024-09-23 12:39:31.258012,42.6,21.417374,-0.0031339382481259063,-0.023330473146428877,0.09685382322919964,40.106058693909645,-108.28669110388756,76.200527287817
2024-09-23 12:39:31.269829,42.6,21.417374,-0.0035318979854855937,-0.023230986250042305,0.09670458680871308,40.106058693909645,-108.28669110388756,76.200527287817
2024-09-23 12:39:31.312624,42.6,21.417424,-0.002785727465249955,-0.022982261414192504,0.09670458680871308,40.106058693909645,-100.26678939585686,72.1922225099802
2024-09-23 12:39:31.355926,42.6,21.417424,-0.002785727465249955,-0.022982261414192504,0.0973015264147526,36.09446859390736,-100.26678939585686,72.1922225099802
2024-09-23 12:39:31.367284,42.6,21.417475,-0.0038303700669703737,-0.022982261414192504,0.0973015264147526,36.09446859390736,-100.26678939585686,76.200527287817
2024-09-23 12:39:31.409012,42.6,21.417562,-0.0038303700669703737,-0.02367869399252531,0.09755024973162574,40.106058693909645,-96.25519929585457,80.21211738781929
2024-09-23 12:39:31.452110,42.6,21.417562,-0.003382661564999035,-0.02308174982955575,0.09755024973162574,40.106058693909645,-96.25519929585457,80.21211738781929
2024-09-23 12:39:31.463491,42.6,21.417562,-0.003382661564999035,-0.02308174982955575,0.09764974270391902,36.09446859390736,-96.25519929585457,76.200527287817
2024-09-23 12:39:31.507702,42.6,21.417614,-0.003233425524256645,-0.023230986250042305,0.0973015264147526,36.09446859390736,-96.25519929585457,76.200527287817
2024-09-23 12:39:31.551172,42.6,21.417664,-0.003631395514708897,-0.023230986250042305,0.0973015264147526,36.09446859390736,-96.25519929585457,80.21211738781929
2024-09-23 12:39:31.562580,42.6,21.417664,-0.003631395514708897,-0.023429960042815445,0.0973512698629459,36.09446859390736,-96.25519929585457,80.21211738781929
2024-09-23 12:39:31.606572,42.3,21.417715,-0.0034324103296106863,-0.022833026512682618,0.09690356060148622,36.09446859390736,-100.26678939585686,80.21211738781929
2024-09-23 12:39:31.648690,42.3,21.417715,-0.0034324103296106863,-0.022833026512682618,0.09690356060148622,36.09446859390736,-96.25519929585457,80.21211738781929
2024-09-23 12:39:31.660369,42.3,21.417766,-0.0031836870127375577,-0.022833026512682618,0.09690356060148622,36.09446859390736,-96.25519929585457,80.21211738781929
2024-09-23 12:39:31.703391,42.3,21.417816,-0.003631395514708897,-0.022833026512682618,0.0966050877605131,40.106058693909645,-92.24360919585227,80.21211738781929
2024-09-23 12:39:31.747628,42.3,21.417816,-0.003631395514708897,-0.02303200030545576,0.09680407370509965,44.11764879391193,-88.23529758782387,80.21211738781929
2024-09-23 12:39:31.759511,42.3,21.417903,-0.003631395514708897,-0.02303200030545576,0.09680407370509965,44.11764879391193,-88.23529758782387,80.21211738781929
2024-09-23 12:39:31.844125,42.3,21.417903,-0.0033329230534799477,-0.02338022115155219,0.09725178296655933,44.11764879391193,-88.23529758782387,80.21211738781929
2024-09-23 12:39:31.856371,42.3,21.417903,-0.0033329230534799477,-0.02338022115155219,0.09725178296655933,44.11764879391193,-92.24360919585227,80.21211738781929
2024-09-23 12:39:31.888596,42.3,21.417955,-0.0033329230534799477,-0.02338022115155219,0.09725178296655933,44.11764879391193,-92.24360919585227,80.21211738781929
2024-09-23 12:39:31.900579,42.3,21.417955,-0.0032831742888682963,-0.023429960042815445,0.09764974270391902,40.106058693909645,-100.26678939585686,80.21211738781929
2024-09-23 12:39:31.942553,42.3,21.418006,-0.0037308827908396356,-0.023429960042815445,0.09764974270391902,40.106058693909645,-100.26678939585686,80.21211738781929
2024-09-23 12:39:31.954034,42.3,21.418006,-0.0037308827908396356,-0.023479709566915436,0.09665483728461309,36.09446859390736,-100.26678939585686,80.21211738781929
2024-09-23 12:39:31.986789,42.3,21.418006,-0.0037308827908396356,-0.023479709566915436,0.09665483728461309,36.09446859390736,-100.26678939585686,80.21211738781929
2024-09-23 12:39:31.998036,42.3,21.418056,-0.0032831742888682963,-0.023429960042815445,0.09745075675933246,36.09446859390736,-100.26678939585686,80.21211738781929
2024-09-23 12:39:32.040556,42.3,21.418107,-0.0032831742888682963,-0.023429960042815445,0.09745075675933246,40.106058693909645,-108.28669110388756,76.200527287817
2024-09-23 12:39:32.052154,42.3,21.418107,-0.0033329230534799477,-0.023280723622328886,0.09745075675933246,40.106058693909645,-108.28669110388756,76.200527287817
2024-09-23 12:39:32.084700,42.3,21.418107,-0.0033329230534799477,-0.023280723622328886,0.09675432418099966,40.106058693909645,-108.28669110388756,76.200527287817
2024-09-23 12:39:32.097081,42.3,21.418199,-0.0034324103296106863,-0.023280723622328886,0.09675432418099966,36.09446859390736,-108.28669110388756,72.1922225099802
2024-09-23 12:39:32.140444,42.3,21.418294,-0.0034324103296106863,-0.023181236725942318,0.09755024973162574,36.09446859390736,-96.25519929585457,80.21211738781929
2024-09-23 12:39:32.182994,42.3,21.418294,-0.0031836870127375577,-0.02367869399252531,0.09755024973162574,36.09446859390736,-96.25519929585457,80.21211738781929
2024-09-23 12:39:32.194005,42.3,21.418294,-0.0031836870127375577,-0.02367869399252531,0.09680407370509965,40.106058693909645,-100.26678939585686,84.22370748782159
2024-09-23 12:39:32.237197,42.3,21.418345,-0.003631395514708897,-0.02293251340906919,0.09759999317981902,44.11764879391193,-100.26678939585686,84.22370748782159
2024-09-23 12:39:32.248724,42.3,21.418345,-0.003631395514708897,-0.02293251340906919,0.09759999317981902,44.11764879391193,-100.26678939585686,84.22370748782159
2024-09-23 12:39:32.280726,42.3,21.418396,-0.003631395514708897,-0.02293251340906919,0.09759999317981902,44.11764879391193,-100.26678939585686,80.21211738781929
2024-09-23 12:39:32.291954,42.3,21.418396,-0.0035816467500972456,-0.02308174982955575,0.0973512698629459,48.12595698684454,-100.26678939585686,80.21211738781929
2024-09-23 12:39:32.334517,42.3,21.418446,-0.0033329230534799477,-0.02338022115155219,0.0973512698629459,48.12595698684454,-96.25519929585457,76.200527287817
2024-09-23 12:39:32.346776,42.3,21.418446,-0.0033329230534799477,-0.02338022115155219,0.09695331012558621,48.12595698684454,-96.25519929585457,76.200527287817
2024-09-23 12:39:32.379109,42.3,21.418446,-0.0033329230534799477,-0.02338022115155219,0.09695331012558621,40.106058693909645,-96.25519929585457,76.200527287817
2024-09-23 12:39:32.391025,42.3,21.418497,-0.0034324103296106863,-0.023230986250042305,0.09695331012558621,40.106058693909645,-96.25519929585457,80.21211738781929
2024-09-23 12:39:32.434845,42.3,21.418548,-0.003482159473966507,-0.023230986250042305,0.09710254654607277,44.11764879391193,-104.27510100388527,80.21211738781929
2024-09-23 12:39:32.478167,42.3,21.418548,-0.003482159473966507,-0.023280723622328886,0.09745075675933246,36.09446859390736,-100.26678939585686,80.21211738781929
2024-09-23 12:39:32.489775,42.3,21.418635,-0.003482159473966507,-0.023280723622328886,0.09745075675933246,36.09446859390736,-100.26678939585686,76.200527287817
2024-09-23 12:39:32.522150,42.3,21.418635,-0.0029349636958644295,-0.023280723622328886,0.09745075675933246,36.09446859390736,-100.26678939585686,76.200527287817
2024-09-23 12:39:32.533676,42.3,21.418635,-0.0029349636958644295,-0.023479709566915436,0.09720203344245934,44.11764879391193,-92.24360919585227,80.21211738781929
2024-09-23 12:39:32.576471,42.3,21.418686,-0.003233425524256645,-0.02338022115155219,0.09705279702197278,44.11764879391193,-92.24360919585227,80.21211738781929
2024-09-23 12:39:32.588294,42.3,21.418686,-0.003233425524256645,-0.02338022115155219,0.09705279702197278,40.106058693909645,-92.24360919585227,80.21211738781929
2024-09-23 12:39:32.621178,42.3,21.418686,-0.003233425524256645,-0.02338022115155219,0.09705279702197278,40.106058693909645,-92.24360919585227,80.21211738781929
2024-09-23 12:39:32.632406,42.3,21.418737,-0.0035816467500972456,-0.022982261414192504,0.0973015264147526,40.106058693909645,-92.24360919585227,80.21211738781929
2024-09-23 12:39:32.675206,42.3,21.418737,-0.0035816467500972456,-0.022982261414192504,0.0973015264147526,40.106058693909645,-96.25519929585457,80.21211738781929
2024-09-23 12:39:32.716902,42.3,21.418737,-0.0035816467500972456,-0.022982261414192504,0.0973015264147526,40.106058693909645,-96.25519929585457,80.21211738781929
2024-09-23 12:39:32.728457,42.3,21.418788,-0.0032831742888682963,-0.023728432883788564,0.09740101331113918,28.07457030097246,-96.25519929585457,80.21211738781929
2024-09-23 12:39:32.771634,42.3,21.418838,-0.0035318979854855937,-0.023728432883788564,0.09740101331113918,28.07457030097246,-96.25519929585457,80.21211738781929
2024-09-23 12:39:32.783566,42.3,21.418838,-0.0035318979854855937,-0.022982261414192504,0.0970030596496862,28.07457030097246,-96.25519929585457,80.21211738781929
2024-09-23 12:39:32.815765,42.3,21.418838,-0.0035318979854855937,-0.022982261414192504,0.0970030596496862,36.09446859390736,-96.25519929585457,80.21211738781929
2024-09-23 12:39:32.868840,42.3,21.418889,-0.002785727465249955,-0.022982261414192504,0.0970030596496862,36.09446859390736,-92.24360919585227,80.21211738781929
2024-09-23 12:39:32.881138,42.3,21.418889,-0.002785727465249955,-0.023479709566915436,0.09720203344245934,36.09446859390736,-92.24360919585227,80.21211738781929
2024-09-23 12:39:32.913803,42.3,21.418889,-0.002785727465249955,-0.023479709566915436,0.09720203344245934,36.09446859390736,-92.24360919585227,80.21211738781929
2024-09-23 12:39:32.924992,42.3,21.418976,-0.003631395514708897,-0.02362894446842532,0.09720203344245934,36.09446859390736,-100.26678939585686,80.21211738781929
2024-09-23 12:39:32.968684,42.3,21.419073,-0.003631395514708897,-0.02362894446842532,0.09685382322919964,40.106058693909645,-96.25519929585457,80.21211738781929
2024-09-23 12:39:32.980340,42.3,21.419073,-0.0032831742888682963,-0.02362894446842532,0.09685382322919964,40.106058693909645,-96.25519929585457,80.21211738781929
2024-09-23 12:39:33.012527,42.3,21.419073,-0.0032831742888682963,-0.022833026512682618,0.09685382322919964,36.09446859390736,-96.25519929585457,80.21211738781929
2024-09-23 12:39:33.023644,42.3,21.419125,-0.0032831742888682963,-0.022833026512682618,0.09685382322919964,36.09446859390736,-96.25519929585457,80.21211738781929
2024-09-23 12:39:33.066532,42.3,21.419125,-0.0030344509719951677,-0.02313149783467906,0.09670458680871308,36.09446859390736,-100.26678939585686,80.21211738781929
2024-09-23 12:39:33.108737,42.3,21.41922,-0.0031339382481259063,-0.02313149783467906,0.09670458680871308,36.09446859390736,-100.26678939585686,80.21211738781929
2024-09-23 12:39:33.120632,42.3,21.41922,-0.0031339382481259063,-0.023479709566915436,0.0973512698629459,28.07457030097246,-96.25519929585457,80.21211738781929
2024-09-23 12:39:33.163925,42.3,21.419272,-0.0034324103296106863,-0.023877669304275123,0.0973512698629459,28.07457030097246,-96.25519929585457,80.21211738781929
2024-09-23 12:39:33.175484,42.3,21.419272,-0.0034324103296106863,-0.023877669304275123,0.0973512698629459,32.08287849390507,-96.25519929585457,80.21211738781929
2024-09-23 12:39:33.207321,42.3,21.419272,-0.0034324103296106863,-0.023877669304275123,0.0973512698629459,32.08287849390507,-96.25519929585457,84.22370748782159
2024-09-23 12:39:33.218705,42.3,21.419322,-0.0031339382481259063,-0.02362894446842532,0.09710254654607277,32.08287849390507,-96.25519929585457,84.22370748782159
2024-09-23 12:39:33.261406,42.3,21.419373,-0.0028852147413806935,-0.02338022115155219,0.09710254654607277,32.08287849390507,-104.27510100388527,80.21211738781929
2024-09-23 12:39:33.304166,42.3,21.419373,-0.0028852147413806935,-0.02338022115155219,0.09650560086412653,40.106058693909645,-104.27510100388527,80.21211738781929
2024-09-23 12:39:33.316037,42.3,21.419424,-0.0035318979854855937,-0.02338022115155219,0.09650560086412653,40.106058693909645,-104.27510100388527,80.21211738781929
2024-09-23 12:39:33.358576,42.3,21.419424,-0.0035318979854855937,-0.022982261414192504,0.0973512698629459,44.11764879391193,-104.27510100388527,76.200527287817
2024-09-23 12:39:33.370196,42.3,21.419512,-0.0035318979854855937,-0.022982261414192504,0.0973512698629459,44.11764879391193,-104.27510100388527,76.200527287817
2024-09-23 12:39:33.402174,42.3,21.419512,-0.003382661564999035,-0.023429960042815445,0.0973512698629459,44.11764879391193,-104.27510100388527,76.200527287817
2024-09-23 12:39:33.413226,42.3,21.419512,-0.003382661564999035,-0.023429960042815445,0.09675432418099966,44.11764879391193,-104.27510100388527,80.21211738781929
2024-09-23 12:39:33.455953,42.3,21.419564,-0.003382661564999035,-0.02338022115155219,0.09759999317981902,44.11764879391193,-104.27510100388527,80.21211738781929
2024-09-23 12:39:33.468029,42.3,21.419564,-0.003382661564999035,-0.02338022115155219,0.09759999317981902,44.11764879391193,-100.26678939585686,80.21211738781929
2024-09-23 12:39:33.501662,42.3,21.419615,-0.004029355252068585,-0.02338022115155219,0.09759999317981902,44.11764879391193,-100.26678939585686,80.21211738781929
2024-09-23 12:39:33.512749,42.3,21.419615,-0.004029355252068585,-0.023927417309398437,0.09750050628343246,36.09446859390736,-100.26678939585686,80.21211738781929
2024-09-23 12:39:33.555657,42.3,21.419666,-0.0036811340262279837,-0.023429960042815445,0.09710254654607277,36.09446859390736,-100.26678939585686,80.21211738781929
2024-09-23 12:39:33.598437,42.3,21.419666,-0.0036811340262279837,-0.023429960042815445,0.09710254654607277,32.08287849390507,-104.27510100388527,84.22370748782159
2024-09-23 12:39:33.611186,42.3,21.419716,-0.003233425524256645,-0.023330473146428877,0.09710254654607277,32.08287849390507,-104.27510100388527,84.22370748782159
2024-09-23 12:39:33.643390,42.2,21.419716,-0.003233425524256645,-0.023330473146428877,0.0970030596496862,32.08287849390507,-104.27510100388527,84.22370748782159
2024-09-23 12:39:33.654381,42.2,21.419767,-0.0034324103296106863,-0.023330473146428877,0.0970030596496862,44.11764879391193,-108.28669110388756,76.200527287817
2024-09-23 12:39:33.697093,42.2,21.419767,-0.0034324103296106863,-0.02362894446842532,0.09725178296655933,44.11764879391193,-108.28669110388756,76.200527287817
2024-09-23 12:39:33.750435,42.2,21.419853,-0.0031836870127375577,-0.02367869399252531,0.09725178296655933,32.08287849390507,-92.24360919585227,80.21211738781929
2024-09-23 12:39:33.793622,42.2,21.419853,-0.0031836870127375577,-0.02367869399252531,0.09725178296655933,36.09446859390736,-96.25519929585457,80.21211738781929
2024-09-23 12:39:33.805035,42.2,21.419905,-0.003631395514708897,-0.02367869399252531,0.09725178296655933,36.09446859390736,-96.25519929585457,76.200527287817
2024-09-23 12:39:33.848480,42.2,21.419905,-0.003631395514708897,-0.02308174982955575,0.09725178296655933,36.09446859390736,-96.25519929585457,76.200527287817
2024-09-23 12:39:33.891339,42.2,21.419905,-0.003631395514708897,-0.02308174982955575,0.09750050628343246,36.09446859390736,-92.24360919585227,76.200527287817
2024-09-23 12:39:33.902933,42.2,21.419956,-0.003382661564999035,-0.02308174982955575,0.09750050628343246,36.09446859390736,-92.24360919585227,84.22370748782159
2024-09-23 12:39:33.945606,42.2,21.419956,-0.003382661564999035,-0.02313149783467906,0.09720203344245934,32.08287849390507,-92.24360919585227,84.22370748782159
2024-09-23 12:39:33.990491,42.2,21.420006,-0.003382661564999035,-0.02338022115155219,0.0973015264147526,32.08287849390507,-92.24360919585227,84.22370748782159
2024-09-23 12:39:34.002105,42.2,21.420006,-0.003382661564999035,-0.02338022115155219,0.0973015264147526,40.106058693909645,-96.25519929585457,84.22370748782159
2024-09-23 12:39:34.036296,42.2,21.420098,-0.003382661564999035,-0.02338022115155219,0.0973015264147526,40.106058693909645,-96.25519929585457,76.200527287817
2024-09-23 12:39:34.047548,42.2,21.420098,-0.0028354659767690416,-0.023479709566915436,0.09650560086412653,40.106058693909645,-96.25519929585457,76.200527287817
2024-09-23 12:39:34.090472,42.2,21.420149,-0.003482159473966507,-0.023827930413011865,0.09740101331113918,40.106058693909645,-96.25519929585457,80.21211738781929
2024-09-23 12:39:34.184381,42.2,21.420149,-0.003482159473966507,-0.023827930413011865,0.09740101331113918,36.09446859390736,-92.24360919585227,84.22370748782159
2024-09-23 12:39:34.195556,42.2,21.420245,-0.0035318979854855937,-0.023429960042815445,0.09740101331113918,36.09446859390736,-92.24360919585227,84.22370748782159
2024-09-23 12:39:34.239140,42.2,21.420296,-0.0035816467500972456,-0.023429960042815445,0.0973512698629459,44.11764879391193,-92.24360919585227,80.21211738781929
2024-09-23 12:39:34.282217,42.2,21.420296,-0.0035816467500972456,-0.023827930413011865,0.09715228999426605,32.08287849390507,-92.24360919585227,80.21211738781929
2024-09-23 12:39:34.293734,42.2,21.42039,-0.0035816467500972456,-0.023827930413011865,0.09715228999426605,32.08287849390507,-96.25519929585457,76.200527287817
2024-09-23 12:39:34.325788,42.2,21.42039,-0.0031339382481259063,-0.023827930413011865,0.09715228999426605,32.08287849390507,-96.25519929585457,76.200527287817
2024-09-23 12:39:34.337066,42.2,21.42039,-0.0031339382481259063,-0.023429960042815445,0.09695331012558621,40.106058693909645,-100.26678939585686,80.21211738781929
2024-09-23 12:39:34.380302,42.2,21.420441,-0.0028354659767690416,-0.02293251340906919,0.09695331012558621,40.106058693909645,-100.26678939585686,80.21211738781929
2024-09-23 12:39:34.391640,42.2,21.420441,-0.0028354659767690416,-0.02293251340906919,0.09695331012558621,44.11764879391193,-96.25519929585457,80.21211738781929
2024-09-23 12:39:34.423222,42.2,21.420441,-0.0028354659767690416,-0.02293251340906919,0.09695331012558621,44.11764879391193,-96.25519929585457,80.21211738781929
2024-09-23 12:39:34.435006,42.2,21.420537,-0.0030344509719951677,-0.023280723622328886,0.09720203344245934,44.11764879391193,-96.25519929585457,80.21211738781929
2024-09-23 12:39:34.476992,42.2,21.420588,-0.0030344509719951677,-0.023280723622328886,0.09720203344245934,44.11764879391193,-96.25519929585457,76.200527287817
2024-09-23 12:39:34.488862,42.2,21.420588,-0.0030841997366068195,-0.023479709566915436,0.09690356060148622,44.11764879391193,-96.25519929585457,76.200527287817
2024-09-23 12:39:34.520670,42.2,21.420588,-0.0030841997366068195,-0.023479709566915436,0.09690356060148622,36.09446859390736,-96.25519929585457,76.200527287817
2024-09-23 12:39:34.532395,42.2,21.420639,-0.004029355252068585,-0.02293251340906919,0.09690356060148622,36.09446859390736,-96.25519929585457,80.21211738781929
2024-09-23 12:39:34.576206,42.2,21.420639,-0.004029355252068585,-0.02293251340906919,0.09715228999426605,40.106058693909645,-96.25519929585457,76.200527287817
2024-09-23 12:39:34.587918,42.2,21.420689,-0.0031339382481259063,-0.02293251340906919,0.09715228999426605,40.106058693909645,-96.25519929585457,76.200527287817
2024-09-23 12:39:34.620160,42.2,21.420689,-0.0031339382481259063,-0.022982261414192504,0.09695331012558621,40.106058693909645,-96.25519929585457,76.200527287817
2024-09-23 12:39:34.631858,42.2,21.42078,-0.0031339382481259063,-0.022982261414192504,0.09695331012558621,40.106058693909645,-96.25519929585457,80.21211738781929
2024-09-23 12:39:34.674038,41.7,21.42078,-0.0031339382481259063,-0.023181236725942318,0.09645586349183995,40.106058693909645,-92.24360919585227,80.21211738781929
2024-09-23 12:39:34.685836,41.7,21.42078,-0.0031339382481259063,-0.023181236725942318,0.09645586349183995,40.106058693909645,-92.24360919585227,84.22370748782159
2024-09-23 12:39:34.718376,41.7,21.420831,-0.0029349636958644295,-0.023181236725942318,0.09645586349183995,40.106058693909645,-92.24360919585227,84.22370748782159
2024-09-23 12:39:34.729639,41.7,21.420831,-0.0029349636958644295,-0.023479709566915436,0.09715228999426605,32.08287849390507,-88.23529758782387,84.22370748782159
2024-09-23 12:39:34.772615,41.7,21.420882,-0.0037308827908396356,-0.023877669304275123,0.09675432418099966,32.08287849390507,-88.23529758782387,80.21211738781929
2024-09-23 12:39:34.784837,41.7,21.420882,-0.0037308827908396356,-0.023877669304275123,0.09675432418099966,32.08287849390507,-88.23529758782387,80.21211738781929
2024-09-23 12:39:34.817284,41.7,21.420933,-0.0037308827908396356,-0.023877669304275123,0.09675432418099966,32.08287849390507,-96.25519929585457,76.200527287817
2024-09-23 12:39:34.829071,41.7,21.420933,-0.003382661564999035,-0.02308174982955575,0.09725178296655933,32.08287849390507,-96.25519929585457,76.200527287817
2024-09-23 12:39:34.871662,41.7,21.420983,-0.0034324103296106863,-0.02308174982955575,0.09725178296655933,40.106058693909645,-100.26678939585686,72.1922225099802
2024-09-23 12:39:34.914230,41.7,21.420983,-0.0034324103296106863,-0.02308174982955575,0.09675432418099966,44.11764879391193,-104.27510100388527,72.1922225099802
2024-09-23 12:39:34.926111,41.7,21.421034,-0.0035816467500972456,-0.02308174982955575,0.09675432418099966,44.11764879391193,-104.27510100388527,80.21211738781929
2024-09-23 12:39:34.969566,41.7,21.421034,-0.0035816467500972456,-0.023579196463302005,0.09720203344245934,32.08287849390507,-96.25519929585457,80.21211738781929
2024-09-23 12:39:34.981830,41.7,21.421121,-0.0035816467500972456,-0.023579196463302005,0.09720203344245934,32.08287849390507,-96.25519929585457,80.21211738781929
2024-09-23 12:39:35.013894,41.7,21.421121,-0.0032831742888682963,-0.023330473146428877,0.09740101331113918,32.08287849390507,-96.25519929585457,80.21211738781929
2024-09-23 12:39:35.025267,41.7,21.421121,-0.0032831742888682963,-0.023330473146428877,0.09740101331113918,32.08287849390507,-108.28669110388756,76.200527287817
2024-09-23 12:39:35.059616,41.7,21.421173,-0.003382661564999035,-0.023330473146428877,0.09740101331113918,32.08287849390507,-108.28669110388756,76.200527287817
2024-09-23 12:39:35.071459,41.7,21.421173,-0.003382661564999035,-0.023429960042815445,0.09740101331113918,40.106058693909645,-108.28669110388756,76.200527287817
2024-09-23 12:39:35.114081,41.7,21.421223,-0.003482159473966507,-0.023230986250042305,0.09685382322919964,32.08287849390507,-108.28669110388756,68.18063240997792
2024-09-23 12:39:35.156773,41.7,21.421223,-0.003482159473966507,-0.023230986250042305,0.09685382322919964,32.08287849390507,-104.27510100388527,72.1922225099802
2024-09-23 12:39:35.169059,41.7,21.421274,-0.0032831742888682963,-0.02367869399252531,0.09705279702197278,32.08287849390507,-104.27510100388527,72.1922225099802
2024-09-23 12:39:35.211623,41.7,21.421325,-0.0034324103296106863,-0.023280723622328886,0.09705279702197278,28.07457030097246,-100.26678939585686,80.21211738781929
2024-09-23 12:39:35.253785,41.7,21.421325,-0.0034324103296106863,-0.023280723622328886,0.09740101331113918,48.12595698684454,-100.26678939585686,80.21211738781929
2024-09-23 12:39:35.306721,41.7,21.421375,-0.002437506429281439,-0.023280723622328886,0.09740101331113918,48.12595698684454,-88.23529758782387,84.22370748782159
2024-09-23 12:39:35.318075,41.7,21.421375,-0.002437506429281439,-0.023280723622328886,0.09779897304849887,48.12595698684454,-88.23529758782387,84.22370748782159
2024-09-23 12:39:35.351284,41.7,21.421375,-0.002437506429281439,-0.023280723622328886,0.09779897304849887,36.09446859390736,-88.23529758782387,84.22370748782159
2024-09-23 12:39:35.363098,41.7,21.421462,-0.003780631555451287,-0.023579196463302005,0.09779897304849887,36.09446859390736,-100.26678939585686,72.1922225099802
2024-09-23 12:39:35.405898,41.7,21.421514,-0.003780631555451287,-0.023579196463302005,0.0973512698629459,36.09446859390736,-100.26678939585686,76.200527287817
2024-09-23 12:39:35.417765,41.7,21.421514,-0.0034324103296106863,-0.023579196463302005,0.0973512698629459,36.09446859390736,-100.26678939585686,76.200527287817
2024-09-23 12:39:35.451413,41.7,21.421514,-0.0034324103296106863,-0.023280723622328886,0.09690356060148622,36.09446859390736,-100.26678939585686,76.200527287817
2024-09-23 12:39:35.462919,41.7,21.421564,-0.0034324103296106863,-0.023280723622328886,0.09690356060148622,36.09446859390736,-96.25519929585457,76.200527287817
2024-09-23 12:39:35.505266,41.7,21.421564,-0.0034324103296106863,-0.02308174982955575,0.09680407370509965,40.106058693909645,-100.26678939585686,80.21211738781929
2024-09-23 12:39:35.548536,41.7,21.421658,-0.0031836870127375577,-0.023778180888911878,0.09680407370509965,40.106058693909645,-100.26678939585686,80.21211738781929
2024-09-23 12:39:35.560321,41.7,21.421658,-0.0031836870127375577,-0.023778180888911878,0.09690356060148622,36.09446859390736,-92.24360919585227,80.21211738781929
2024-09-23 12:39:35.603671,41.7,21.421709,-0.0029349636958644295,-0.023280723622328886,0.09774922960030558,32.08287849390507,-92.24360919585227,80.21211738781929
2024-09-23 12:39:35.646939,41.7,21.42176,-0.003233425524256645,-0.023280723622328886,0.09774922960030558,32.08287849390507,-92.24360919585227,84.22370748782159
2024-09-23 12:39:35.658096,41.7,21.42176,-0.003233425524256645,-0.02352945757203875,0.0973015264147526,32.08287849390507,-92.24360919585227,84.22370748782159
2024-09-23 12:39:35.701550,42.07,21.42181,-0.003482159473966507,-0.023230986250042305,0.0973015264147526,32.08287849390507,-92.24360919585227,80.21211738781929
2024-09-23 12:39:35.743505,42.07,21.42181,-0.003482159473966507,-0.023230986250042305,0.09705279702197278,36.09446859390736,-92.24360919585227,80.21211738781929
2024-09-23 12:39:35.755220,42.07,21.421861,-0.0029349636958644295,-0.023230986250042305,0.09705279702197278,36.09446859390736,-92.24360919585227,76.200527287817
2024-09-23 12:39:35.797857,42.07,21.42195,-0.0029349636958644295,-0.023230986250042305,0.09750050628343246,36.09446859390736,-100.26678939585686,76.200527287817
2024-09-23 12:39:35.841267,42.07,21.42195,-0.003631395514708897,-0.023778180888911878,0.09750050628343246,36.09446859390736,-100.26678939585686,76.200527287817
2024-09-23 12:39:35.852495,42.07,21.42195,-0.003631395514708897,-0.023778180888911878,0.09685382322919964,32.08287849390507,-100.26678939585686,80.21211738781929
2024-09-23 12:39:35.894702,42.07,21.422001,-0.003382661564999035,-0.023778180888911878,0.09685382322919964,32.08287849390507,-100.26678939585686,80.21211738781929
2024-09-23 12:39:35.937375,42.07,21.422001,-0.003382661564999035,-0.023181236725942318,0.09725178296655933,32.08287849390507,-100.26678939585686,80.21211738781929
2024-09-23 12:39:35.949692,42.07,21.422052,-0.003382661564999035,-0.023181236725942318,0.09725178296655933,28.07457030097246,-100.26678939585686,76.200527287817
2024-09-23 12:39:35.993462,42.07,21.422052,-0.0029349636958644295,-0.023280723622328886,0.09755024973162574,32.08287849390507,-96.25519929585457,76.200527287817
2024-09-23 12:39:36.036482,42.07,21.422103,-0.0030841997366068195,-0.023230986250042305,0.09755024973162574,32.08287849390507,-96.25519929585457,76.200527287817
2024-09-23 12:39:36.048525,42.07,21.422103,-0.0030841997366068195,-0.023230986250042305,0.09725178296655933,36.09446859390736,-88.23529758782387,76.200527287817
2024-09-23 12:39:36.081009,42.07,21.422103,-0.0030841997366068195,-0.023230986250042305,0.09725178296655933,36.09446859390736,-88.23529758782387,96.25519929585457
2024-09-23 12:39:36.092460,42.07,21.422153,-0.0033329230534799477,-0.022733528983459317,0.09610764112676684,36.09446859390736,-88.23529758782387,96.25519929585457
2024-09-23 12:39:36.135165,42.07,21.422204,-0.003233425524256645,-0.022733528983459317,0.09610764112676684,36.09446859390736,-100.26678939585686,76.200527287817
2024-09-23 12:39:36.146273,42.07,21.422204,-0.003233425524256645,-0.023280723622328886,0.09725178296655933,36.09446859390736,-100.26678939585686,76.200527287817
2024-09-23 12:39:36.178594,42.07,21.422204,-0.003233425524256645,-0.023280723622328886,0.09725178296655933,40.106058693909645,-100.26678939585686,76.200527287817
2024-09-23 12:39:36.190194,42.07,21.422293,-0.0030841997366068195,-0.023181236725942318,0.09725178296655933,40.106058693909645,-96.25519929585457,76.200527287817
2024-09-23 12:39:36.232478,42.07,21.422293,-0.0030841997366068195,-0.023181236725942318,0.09725178296655933,36.09446859390736,-96.25519929585457,76.200527287817
2024-09-23 12:39:36.244035,42.07,21.422344,-0.0028852147413806935,-0.023181236725942318,0.09725178296655933,36.09446859390736,-96.25519929585457,76.200527287817
2024-09-23 12:39:36.275459,42.07,21.422344,-0.0028852147413806935,-0.022833026512682618,0.09725178296655933,36.09446859390736,-96.25519929585457,76.200527287817
2024-09-23 12:39:36.287141,42.07,21.422437,-0.0028852147413806935,-0.022833026512682618,0.09665483728461309,28.07457030097246,-96.25519929585457,84.22370748782159
2024-09-23 12:39:36.330350,42.07,21.422437,-0.003382661564999035,-0.023429960042815445,0.09710254654607277,32.08287849390507,-96.25519929585457,84.22370748782159
2024-09-23 12:39:36.341906,42.07,21.422437,-0.003382661564999035,-0.023429960042815445,0.09710254654607277,32.08287849390507,-92.24360919585227,80.21211738781929
2024-09-23 12:39:36.373918,42.07,21.422489,-0.003382661564999035,-0.023429960042815445,0.09710254654607277,32.08287849390507,-92.24360919585227,80.21211738781929
2024-09-23 12:39:36.385167,42.07,21.422489,-0.0029349636958644295,-0.02338022115155219,0.09715228999426605,36.09446859390736,-100.26678939585686,80.21211738781929
2024-09-23 12:39:36.427253,42.07,21.422539,-0.0030344509719951677,-0.02338022115155219,0.09715228999426605,36.09446859390736,-100.26678939585686,84.22370748782159
