Ayaan's Suite
Timestamp,Sample Rate (Hz),Time,Ax,Ay,Az,Gx,Gy,Gz
2024-09-23 08:16:11.619624,0,5.617377,-0.0029847020175114316,-0.02397715620066169,0.09725178296655933,40.106058693909645,-96.25519929585457,80.21211738781929
2024-09-23 08:16:11.652607,0,5.617377,-0.0029847020175114316,-0.02397715620066169,0.09705279702197278,44.11764879391193,-96.25519929585457,76.200527287817
2024-09-23 08:16:11.664357,0,5.617427,-0.0035816467500972456,-0.02397715620066169,0.09705279702197278,44.11764879391193,-96.25519929585457,76.200527287817
2024-09-23 08:16:11.696089,0,5.617427,-0.0035816467500972456,-0.024275627522658133,0.09705279702197278,44.11764879391193,-96.25519929585457,76.200527287817
2024-09-23 08:16:11.707126,0,5.617515,-0.0035816467500972456,-0.024275627522658133,0.0966050877605131,32.08287849390507,-96.25519929585457,80.21211738781929
2024-09-23 08:16:11.749196,0,5.617515,-0.0036811340262279837,-0.024076653729884996,0.09680407370509965,32.08287849390507,-96.25519929585457,80.21211738781929
2024-09-23 08:16:11.761409,0,5.617515,-0.0036811340262279837,-0.024076653729884996,0.09680407370509965,44.11764879391193,-84.22370748782159,88.23529758782387
2024-09-23 08:16:11.793053,0,5.617566,-0.0036811340262279837,-0.024076653729884996,0.09680407370509965,44.11764879391193,-84.22370748782159,88.23529758782387
2024-09-23 08:16:11.804448,0,5.617566,-0.0035816467500972456,-0.02367869399252531,0.09695331012558621,36.09446859390736,-96.25519929585457,88.23529758782387
2024-09-23 08:16:11.847319,0,5.617617,-0.0031339382481259063,-0.023579196463302005,0.09695331012558621,36.09446859390736,-96.25519929585457,84.22370748782159
2024-09-23 08:16:11.859199,0,5.617617,-0.0031339382481259063,-0.023579196463302005,0.0976994861521123,32.08287849390507,-96.25519929585457,84.22370748782159
2024-09-23 08:16:11.891245,0,5.617617,-0.0031339382481259063,-0.023579196463302005,0.0976994861521123,32.08287849390507,-96.25519929585457,84.22370748782159
2024-09-23 08:16:11.902535,0,5.617667,-0.003233425524256645,-0.023827930413011865,0.0973015264147526,32.08287849390507,-96.25519929585457,76.200527287817
2024-09-23 08:16:11.944915,0,5.617718,-0.003233425524256645,-0.023827930413011865,0.0973015264147526,32.08287849390507,-96.25519929585457,72.1922225099802
2024-09-23 08:16:11.957668,0,5.617718,-0.0035318979854855937,-0.02362894446842532,0.0973015264147526,32.08287849390507,-96.25519929585457,72.1922225099802
2024-09-23 08:16:11.990921,0,5.617718,-0.0035318979854855937,-0.02362894446842532,0.09665483728461309,32.08287849390507,-96.25519929585457,72.1922225099802
2024-09-23 08:16:12.003119,0,5.617769,-0.0032831742888682963,-0.02362894446842532,0.09665483728461309,32.08287849390507,-104.27510100388527,76.200527287817
2024-09-23 08:16:12.087287,0,5.617769,-0.0032831742888682963,-0.02397715620066169,0.09665483728461309,32.08287849390507,-104.27510100388527,76.200527287817
2024-09-23 08:16:12.098414,0,5.617856,-0.0032831742888682963,-0.02397715620066169,0.09675432418099966,28.07457030097246,-96.25519929585457,84.22370748782159
2024-09-23 08:16:12.142157,0,5.617856,-0.0028354659767690416,-0.023827930413011865,0.0970030596496862,40.106058693909645,-100.26678939585686,84.22370748782159
2024-09-23 08:16:12.153831,0,5.617856,-0.0028354659767690416,-0.023827930413011865,0.0970030596496862,40.106058693909645,-100.26678939585686,80.21211738781929
2024-09-23 08:16:12.185802,0,5.617907,-0.003382661564999035,-0.023827930413011865,0.0970030596496862,40.106058693909645,-100.26678939585686,80.21211738781929
2024-09-23 08:16:12.196881,0,5.617907,-0.003382661564999035,-0.02352945757203875,0.0970030596496862,36.09446859390736,-96.25519929585457,80.21211738781929
2024-09-23 08:16:12.239960,0,5.617958,-0.0037308827908396356,-0.023479709566915436,0.09705279702197278,36.09446859390736,-96.25519929585457,76.200527287817
2024-09-23 08:16:12.252014,0,5.617958,-0.0037308827908396356,-0.023479709566915436,0.09705279702197278,44.11764879391193,-96.25519929585457,76.200527287817
2024-09-23 08:16:12.284609,0,5.618009,-0.0037308827908396356,-0.023479709566915436,0.09705279702197278,44.11764879391193,-104.27510100388527,68.18063240997792
2024-09-23 08:16:12.296457,0,5.618009,-0.0038303700669703737,-0.024026904205785005,0.09745075675933246,44.11764879391193,-104.27510100388527,68.18063240997792
2024-09-23 08:16:12.339581,0,5.618102,-0.0030841997366068195,-0.023579196463302005,0.09745075675933246,44.11764879391193,-96.25519929585457,76.200527287817
2024-09-23 08:16:12.381203,0,5.618102,-0.0030841997366068195,-0.023579196463302005,0.0966050877605131,48.12595698684454,-92.24360919585227,76.200527287817
2024-09-23 08:16:12.392918,0,5.618152,-0.002785727465249955,-0.023579196463302005,0.0966050877605131,48.12595698684454,-92.24360919585227,84.22370748782159
2024-09-23 08:16:12.435154,0,5.618246,-0.002785727465249955,-0.023877669304275123,0.09690356060148622,32.08287849390507,-100.26678939585686,80.21211738781929
2024-09-23 08:16:12.477045,0,5.618246,-0.0032831742888682963,-0.023579196463302005,0.09690356060148622,32.08287849390507,-100.26678939585686,80.21211738781929
2024-09-23 08:16:12.529559,0,5.618246,-0.0032831742888682963,-0.023579196463302005,0.0970030596496862,48.12595698684454,-92.24360919585227,80.21211738781929
2024-09-23 08:16:12.541288,0,5.618298,-0.0036811340262279837,-0.023579196463302005,0.0970030596496862,48.12595698684454,-92.24360919585227,84.22370748782159
2024-09-23 08:16:12.573301,0,5.618298,-0.0036811340262279837,-0.023579196463302005,0.0970030596496862,48.12595698684454,-92.24360919585227,84.22370748782159
2024-09-23 08:16:12.584385,0,5.618348,-0.0036811340262279837,-0.023579196463302005,0.09695331012558621,40.106058693909645,-100.26678939585686,88.23529758782387
2024-09-23 08:16:12.626874,44.17,5.618348,-0.004029355252068585,-0.02412639262114825,0.09720203344245934,40.106058693909645,-100.26678939585686,88.23529758782387
2024-09-23 08:16:12.638393,44.17,5.618348,-0.004029355252068585,-0.02412639262114825,0.09720203344245934,28.07457030097246,-104.27510100388527,76.200527287817
2024-09-23 08:16:12.670767,44.17,5.618399,-0.004029355252068585,-0.02412639262114825,0.09720203344245934,28.07457030097246,-104.27510100388527,76.200527287817
2024-09-23 08:16:12.683457,44.17,5.618399,-0.0032831742888682963,-0.024275627522658133,0.0973512698629459,40.106058693909645,-100.26678939585686,76.200527287817
2024-09-23 08:16:12.725336,44.17,5.61845,-0.0028354659767690416,-0.023778180888911878,0.0973512698629459,40.106058693909645,-100.26678939585686,76.200527287817
2024-09-23 08:16:12.736970,44.17,5.61845,-0.0028354659767690416,-0.023778180888911878,0.09675432418099966,28.07457030097246,-100.26678939585686,76.200527287817
2024-09-23 08:16:12.769626,44.17,5.61845,-0.0028354659767690416,-0.023778180888911878,0.09675432418099966,28.07457030097246,-100.26678939585686,76.200527287817
2024-09-23 08:16:12.782317,44.17,5.61854,-0.0029349636958644295,-0.02412639262114825,0.09685382322919964,28.07457030097246,-100.26678939585686,84.22370748782159
2024-09-23 08:16:12.824784,44.17,5.618591,-0.0031836870127375577,-0.02412639262114825,0.09685382322919964,28.07457030097246,-100.26678939585686,80.21211738781929
2024-09-23 08:16:12.836312,44.17,5.618591,-0.0031836870127375577,-0.02367869399252531,0.09685382322919964,28.07457030097246,-100.26678939585686,80.21211738781929
2024-09-23 08:16:12.867992,44.17,5.618591,-0.0031836870127375577,-0.02367869399252531,0.09570968138940715,32.08287849390507,-100.26678939585686,80.21211738781929
2024-09-23 08:16:12.879402,44.17,5.618641,-0.0030841997366068195,-0.02367869399252531,0.09570968138940715,32.08287849390507,-100.26678939585686,76.200527287817
2024-09-23 08:16:12.922850,44.17,5.618734,-0.0030841997366068195,-0.024026904205785005,0.0976994861521123,20.05138839341998,-104.27510100388527,76.200527287817
2024-09-23 08:16:12.965688,44.17,5.618734,-0.0030344509719951677,-0.02352945757203875,0.0976994861521123,20.05138839341998,-104.27510100388527,76.200527287817
2024-09-23 08:16:12.976911,44.17,5.618734,-0.0030344509719951677,-0.02352945757203875,0.09640611396773996,32.08287849390507,-96.25519929585457,76.200527287817
2024-09-23 08:16:13.019215,44.17,5.618785,-0.003382661564999035,-0.024026904205785005,0.0970030596496862,40.106058693909645,-96.25519929585457,76.200527287817
2024-09-23 08:16:13.031779,44.17,5.618785,-0.003382661564999035,-0.024026904205785005,0.0970030596496862,40.106058693909645,-96.25519929585457,76.200527287817
2024-09-23 08:16:13.064494,44.17,5.618836,-0.003382661564999035,-0.024026904205785005,0.0970030596496862,40.106058693909645,-96.25519929585457,84.22370748782159
2024-09-23 08:16:13.076276,44.17,5.618836,-0.003382661564999035,-0.023778180888911878,0.09705279702197278,40.106058693909645,-96.25519929585457,84.22370748782159
2024-09-23 08:16:13.159303,44.17,5.618836,-0.003382661564999035,-0.023778180888911878,0.09705279702197278,40.106058693909645,-96.25519929585457,84.22370748782159
2024-09-23 08:16:13.211926,44.17,5.618886,-0.0032831742888682963,-0.023778180888911878,0.09705279702197278,40.106058693909645,-96.25519929585457,80.21211738781929
2024-09-23 08:16:13.223620,44.17,5.618886,-0.0032831742888682963,-0.02338022115155219,0.09779897304849887,40.106058693909645,-96.25519929585457,80.21211738781929
2024-09-23 08:16:13.255782,44.17,5.618886,-0.0032831742888682963,-0.02338022115155219,0.09779897304849887,36.09446859390736,-96.25519929585457,80.21211738781929
2024-09-23 08:16:13.267028,44.17,5.618937,-0.0035816467500972456,-0.024076653729884996,0.09779897304849887,36.09446859390736,-96.25519929585457,84.22370748782159
2024-09-23 08:16:13.310540,44.17,5.618937,-0.0035816467500972456,-0.024076653729884996,0.09655535038822652,44.11764879391193,-92.24360919585227,80.21211738781929
2024-09-23 08:16:13.322405,44.17,5.618988,-0.0035318979854855937,-0.024076653729884996,0.09655535038822652,44.11764879391193,-92.24360919585227,80.21211738781929
2024-09-23 08:16:13.354648,44.17,5.618988,-0.0035318979854855937,-0.023877669304275123,0.09655535038822652,44.11764879391193,-92.24360919585227,80.21211738781929
2024-09-23 08:16:13.366023,44.17,5.619075,-0.0035318979854855937,-0.023877669304275123,0.09695331012558621,32.08287849390507,-100.26678939585686,88.23529758782387
2024-09-23 08:16:13.408186,44.17,5.619075,-0.0029349636958644295,-0.02412639262114825,0.0973512698629459,40.106058693909645,-100.26678939585686,88.23529758782387
2024-09-23 08:16:13.419687,44.17,5.619075,-0.0029349636958644295,-0.02412639262114825,0.0973512698629459,40.106058693909645,-96.25519929585457,84.22370748782159
2024-09-23 08:16:13.451812,44.17,5.619221,-0.0029349636958644295,-0.02412639262114825,0.0973512698629459,40.106058693909645,-96.25519929585457,84.22370748782159
2024-09-23 08:16:13.505045,44.17,5.619221,-0.0033329230534799477,-0.02412639262114825,0.0970030596496862,32.08287849390507,-96.25519929585457,84.22370748782159
2024-09-23 08:16:13.517822,44.17,5.619221,-0.0033329230534799477,-0.02412639262114825,0.0970030596496862,32.08287849390507,-96.25519929585457,80.21211738781929
2024-09-23 08:16:13.550305,44.17,5.619273,-0.0035318979854855937,-0.02412639262114825,0.0970030596496862,32.08287849390507,-96.25519929585457,80.21211738781929
2024-09-23 08:16:13.561571,44.17,5.619273,-0.0035318979854855937,-0.023927417309398437,0.0973015264147526,40.106058693909645,-92.24360919585227,80.21211738781929
2024-09-23 08:16:13.604273,44.17,5.619324,-0.003233425524256645,-0.024026904205785005,0.0973015264147526,40.106058693909645,-92.24360919585227,76.200527287817
2024-09-23 08:16:13.616791,44.17,5.619324,-0.003233425524256645,-0.024026904205785005,0.09675432418099966,36.09446859390736,-92.24360919585227,76.200527287817
2024-09-23 08:16:13.649744,44.08,5.619374,-0.003233425524256645,-0.024026904205785005,0.09675432418099966,36.09446859390736,-100.26678939585686,80.21211738781929
2024-09-23 08:16:13.661951,44.08,5.619374,-0.0029847020175114316,-0.023330473146428877,0.09695331012558621,36.09446859390736,-100.26678939585686,80.21211738781929
2024-09-23 08:16:13.694541,44.08,5.619374,-0.0029847020175114316,-0.023330473146428877,0.09695331012558621,36.09446859390736,-100.26678939585686,80.21211738781929
2024-09-23 08:16:13.706042,44.08,5.619425,-0.0033329230534799477,-0.024524361472367997,0.09695331012558621,36.09446859390736,-92.24360919585227,80.21211738781929
2024-09-23 08:16:13.748175,44.08,5.619425,-0.0033329230534799477,-0.024524361472367997,0.09665483728461309,32.08287849390507,-96.25519929585457,80.21211738781929
2024-09-23 08:16:13.759686,44.08,5.619516,-0.0031339382481259063,-0.024524361472367997,0.09665483728461309,32.08287849390507,-96.25519929585457,80.21211738781929
2024-09-23 08:16:13.792004,44.08,5.619516,-0.0031339382481259063,-0.023927417309398437,0.09665483728461309,32.08287849390507,-96.25519929585457,80.21211738781929
2024-09-23 08:16:13.803473,44.08,5.619611,-0.0031339382481259063,-0.023927417309398437,0.09685382322919964,32.08287849390507,-96.25519929585457,80.21211738781929
2024-09-23 08:16:13.845848,44.08,5.619611,-0.0029349636958644295,-0.024275627522658133,0.09740101331113918,36.09446859390736,-96.25519929585457,80.21211738781929
2024-09-23 08:16:13.857080,44.08,5.619611,-0.0029349636958644295,-0.024275627522658133,0.09740101331113918,36.09446859390736,-96.25519929585457,80.21211738781929
2024-09-23 08:16:13.889153,44.08,5.619662,-0.0029349636958644295,-0.024275627522658133,0.09740101331113918,36.09446859390736,-96.25519929585457,80.21211738781929
2024-09-23 08:16:13.902212,44.08,5.619662,-0.0029847020175114316,-0.02397715620066169,0.09705279702197278,40.106058693909645,-96.25519929585457,80.21211738781929
2024-09-23 08:16:13.946556,44.08,5.619713,-0.0026862297461545674,-0.02338022115155219,0.09784872257259886,48.12595698684454,-96.25519929585457,80.21211738781929
2024-09-23 08:16:13.988856,44.08,5.619713,-0.0026862297461545674,-0.02338022115155219,0.09784872257259886,48.12595698684454,-100.26678939585686,80.21211738781929
2024-09-23 08:16:14.000705,44.08,5.619764,-0.0034324103296106863,-0.02397715620066169,0.09690356060148622,48.12595698684454,-100.26678939585686,80.21211738781929
2024-09-23 08:16:14.044004,44.08,5.619814,-0.0029349636958644295,-0.02397715620066169,0.09690356060148622,40.106058693909645,-104.27510100388527,76.200527287817
2024-09-23 08:16:14.087207,44.08,5.619814,-0.0029349636958644295,-0.02397715620066169,0.09690356060148622,32.08287849390507,-104.27510100388527,76.200527287817
2024-09-23 08:16:14.098655,44.08,5.619865,-0.003382661564999035,-0.02397715620066169,0.09690356060148622,32.08287849390507,-100.26678939585686,80.21211738781929
2024-09-23 08:16:14.141224,44.08,5.619952,-0.003382661564999035,-0.023927417309398437,0.09695331012558621,44.11764879391193,-100.26678939585686,72.1922225099802
2024-09-23 08:16:14.235920,44.08,5.619952,-0.0031339382481259063,-0.024275627522658133,0.09695331012558621,32.08287849390507,-100.26678939585686,72.1922225099802
2024-09-23 08:16:14.247796,44.08,5.619952,-0.0031339382481259063,-0.024275627522658133,0.09695331012558621,32.08287849390507,-100.26678939585686,76.200527287817
2024-09-23 08:16:14.279988,44.08,5.620004,-0.0031339382481259063,-0.024275627522658133,0.09695331012558621,32.08287849390507,-100.26678939585686,76.200527287817
2024-09-23 08:16:14.291464,44.08,5.620004,-0.0034324103296106863,-0.023728432883788564,0.09610764112676684,36.09446859390736,-100.26678939585686,76.200527287817
2024-09-23 08:16:14.333816,44.08,5.620054,-0.0032831742888682963,-0.023778180888911878,0.09610764112676684,36.09446859390736,-100.26678939585686,76.200527287817
2024-09-23 08:16:14.345803,44.08,5.620054,-0.0032831742888682963,-0.023778180888911878,0.09710254654607277,36.09446859390736,-100.26678939585686,76.200527287817
2024-09-23 08:16:14.378404,44.08,5.620054,-0.0032831742888682963,-0.023778180888911878,0.09710254654607277,36.09446859390736,-92.24360919585227,76.200527287817
2024-09-23 08:16:14.390644,44.08,5.620105,-0.0028354659767690416,-0.023778180888911878,0.09705279702197278,36.09446859390736,-92.24360919585227,80.21211738781929
2024-09-23 08:16:14.433689,44.08,5.620156,-0.0033329230534799477,-0.023778180888911878,0.09705279702197278,48.12595698684454,-96.25519929585457,72.1922225099802
2024-09-23 08:16:14.445917,44.08,5.620156,-0.0033329230534799477,-0.02367869399252531,0.09705279702197278,48.12595698684454,-96.25519929585457,72.1922225099802
2024-09-23 08:16:14.478233,44.08,5.620156,-0.0033329230534799477,-0.02367869399252531,0.0970030596496862,36.09446859390736,-100.26678939585686,72.1922225099802
2024-09-23 08:16:14.489937,44.08,5.620247,-0.002785727465249955,-0.02367869399252531,0.0970030596496862,36.09446859390736,-100.26678939585686,76.200527287817
2024-09-23 08:16:14.523796,44.08,5.620247,-0.002785727465249955,-0.023877669304275123,0.0970030596496862,36.09446859390736,-100.26678939585686,76.200527287817
2024-09-23 08:16:14.535305,44.08,5.620342,-0.002785727465249955,-0.023877669304275123,0.09715228999426605,36.09446859390736,-92.24360919585227,80.21211738781929
2024-09-23 08:16:14.577816,44.08,5.620342,-0.0031339382481259063,-0.02352945757203875,0.09640611396773996,28.07457030097246,-92.24360919585227,80.21211738781929
2024-09-23 08:16:14.589626,44.08,5.620342,-0.0031339382481259063,-0.02352945757203875,0.09640611396773996,28.07457030097246,-100.26678939585686,76.200527287817
2024-09-23 08:16:14.621904,44.08,5.620394,-0.0031339382481259063,-0.02352945757203875,0.09640611396773996,28.07457030097246,-100.26678939585686,76.200527287817
2024-09-23 08:16:14.634819,44.08,5.620394,-0.002586742470023829,-0.023827930413011865,0.09645586349183995,28.07457030097246,-96.25519929585457,76.200527287817
2024-09-23 08:16:14.678137,44.3,5.620444,-0.0028354659767690416,-0.023579196463302005,0.09690356060148622,32.08287849390507,-96.25519929585457,76.200527287817
2024-09-23 08:16:14.719965,44.3,5.620444,-0.0028354659767690416,-0.023579196463302005,0.09690356060148622,32.08287849390507,-96.25519929585457,84.22370748782159
2024-09-23 08:16:14.731614,44.3,5.620495,-0.0033329230534799477,-0.024176140626271565,0.0973015264147526,32.08287849390507,-96.25519929585457,84.22370748782159
2024-09-23 08:16:14.775264,44.3,5.620546,-0.0031339382481259063,-0.023429960042815445,0.0973015264147526,36.09446859390736,-96.25519929585457,80.21211738781929
2024-09-23 08:16:14.817932,44.3,5.620546,-0.0031339382481259063,-0.023429960042815445,0.09675432418099966,36.09446859390736,-96.25519929585457,80.21211738781929
2024-09-23 08:16:14.829085,44.3,5.620596,-0.0035318979854855937,-0.023429960042815445,0.09675432418099966,36.09446859390736,-100.26678939585686,76.200527287817
2024-09-23 08:16:14.871386,44.3,5.620596,-0.0035318979854855937,-0.02367869399252531,0.09779897304849887,32.08287849390507,-96.25519929585457,84.22370748782159
2024-09-23 08:16:14.883339,44.3,5.620683,-0.0035318979854855937,-0.02367869399252531,0.09779897304849887,32.08287849390507,-96.25519929585457,84.22370748782159
2024-09-23 08:16:14.915210,44.3,5.620683,-0.003233425524256645,-0.023579196463302005,0.09779897304849887,32.08287849390507,-96.25519929585457,84.22370748782159
2024-09-23 08:16:14.926403,44.3,5.620683,-0.003233425524256645,-0.023579196463302005,0.09705279702197278,32.08287849390507,-96.25519929585457,84.22370748782159
2024-09-23 08:16:14.968569,44.3,5.620735,-0.0030841997366068195,-0.023778180888911878,0.09720203344245934,28.07457030097246,-96.25519929585457,84.22370748782159
2024-09-23 08:16:14.980316,44.3,5.620735,-0.0030841997366068195,-0.023778180888911878,0.09720203344245934,28.07457030097246,-96.25519929585457,84.22370748782159
2024-09-23 08:16:15.015074,44.3,5.620785,-0.0038303700669703737,-0.023778180888911878,0.09720203344245934,28.07457030097246,-96.25519929585457,84.22370748782159
2024-09-23 08:16:15.026761,44.3,5.620785,-0.0038303700669703737,-0.02412639262114825,0.09710254654607277,36.09446859390736,-96.25519929585457,84.22370748782159
2024-09-23 08:16:15.069980,44.3,5.620836,-0.004029355252068585,-0.02397715620066169,0.0973015264147526,36.09446859390736,-104.27510100388527,80.21211738781929
2024-09-23 08:16:15.112231,44.3,5.620836,-0.004029355252068585,-0.02397715620066169,0.0973015264147526,32.08287849390507,-112.29828120388984,68.18063240997792
2024-09-23 08:16:15.123741,44.3,5.620887,-0.003382661564999035,-0.02397715620066169,0.0973015264147526,32.08287849390507,-112.29828120388984,68.18063240997792
2024-09-23 08:16:15.166296,44.3,5.620937,-0.003382661564999035,-0.023877669304275123,0.09675432418099966,28.07457030097246,-100.26678939585686,72.1922225099802
2024-09-23 08:16:15.209944,44.3,5.620937,-0.0036811340262279837,-0.02397715620066169,0.09710254654607277,28.07457030097246,-100.26678939585686,72.1922225099802
2024-09-23 08:16:15.221106,44.3,5.620937,-0.0036811340262279837,-0.02397715620066169,0.09710254654607277,32.08287849390507,-96.25519929585457,80.21211738781929
2024-09-23 08:16:15.266628,44.3,5.621025,-0.0030841997366068195,-0.02362894446842532,0.09695331012558621,32.08287849390507,-100.26678939585686,80.21211738781929
2024-09-23 08:16:15.308889,44.3,5.621076,-0.0034324103296106863,-0.023728432883788564,0.09695331012558621,32.08287849390507,-100.26678939585686,72.1922225099802
2024-09-23 08:16:15.320710,44.3,5.621076,-0.0034324103296106863,-0.023728432883788564,0.09640611396773996,32.08287849390507,-100.26678939585686,72.1922225099802
2024-09-23 08:16:15.353355,44.3,5.621076,-0.0034324103296106863,-0.023728432883788564,0.09640611396773996,32.08287849390507,-104.27510100388527,72.1922225099802
2024-09-23 08:16:15.364827,44.3,5.621127,-0.0025369937054121774,-0.02362894446842532,0.09675432418099966,32.08287849390507,-104.27510100388527,80.21211738781929
2024-09-23 08:16:15.408744,44.3,5.621177,-0.0032831742888682963,-0.02362894446842532,0.09675432418099966,32.08287849390507,-100.26678939585686,76.200527287817
2024-09-23 08:16:15.420509,44.3,5.621177,-0.0032831742888682963,-0.023479709566915436,0.09675432418099966,32.08287849390507,-100.26678939585686,76.200527287817
2024-09-23 08:16:15.453306,44.3,5.621177,-0.0032831742888682963,-0.023479709566915436,0.09665483728461309,32.08287849390507,-100.26678939585686,76.200527287817
2024-09-23 08:16:15.465177,44.3,5.621228,-0.0034324103296106863,-0.023479709566915436,0.09665483728461309,32.08287849390507,-100.26678939585686,84.22370748782159
2024-09-23 08:16:15.508791,44.3,5.621317,-0.0034324103296106863,-0.024026904205785005,0.09675432418099966,20.05138839341998,-88.23529758782387,88.23529758782387
2024-09-23 08:16:15.551095,44.3,5.621317,-0.003631395514708897,-0.024375126570858115,0.09710254654607277,20.05138839341998,-88.23529758782387,88.23529758782387
2024-09-23 08:16:15.562810,44.3,5.621317,-0.003631395514708897,-0.024375126570858115,0.09710254654607277,20.05138839341998,-88.23529758782387,88.23529758782387
2024-09-23 08:16:15.646657,44.3,5.621317,-0.003631395514708897,-0.024375126570858115,0.09710254654607277,20.05138839341998,-104.27510100388527,76.200527287817
2024-09-23 08:16:15.657938,44.3,5.621369,-0.0030841997366068195,-0.024026904205785005,0.09750050628343246,20.05138839341998,-104.27510100388527,76.200527287817
2024-09-23 08:16:15.700921,43.49,5.621419,-0.0031836870127375577,-0.024026904205785005,0.09750050628343246,36.09446859390736,-104.27510100388527,80.21211738781929
2024-09-23 08:16:15.712740,43.49,5.621419,-0.0031836870127375577,-0.023877669304275123,0.09750050628343246,36.09446859390736,-104.27510100388527,80.21211738781929
2024-09-23 08:16:15.744300,43.49,5.621419,-0.0031836870127375577,-0.023877669304275123,0.09755024973162574,28.07457030097246,-104.27510100388527,80.21211738781929
2024-09-23 08:16:15.755405,43.49,5.62147,-0.0032831742888682963,-0.023877669304275123,0.09755024973162574,28.07457030097246,-116.30987130389214,76.200527287817
2024-09-23 08:16:15.798214,43.49,5.62147,-0.0032831742888682963,-0.024275627522658133,0.0962568775472534,32.08287849390507,-100.26678939585686,84.22370748782159
2024-09-23 08:16:15.810356,43.49,5.621521,-0.0032831742888682963,-0.024275627522658133,0.0962568775472534,32.08287849390507,-100.26678939585686,84.22370748782159
2024-09-23 08:16:15.842814,43.49,5.621521,-0.003631395514708897,-0.023778180888911878,0.09670458680871308,32.08287849390507,-100.26678939585686,84.22370748782159
2024-09-23 08:16:15.853793,43.49,5.621521,-0.003631395514708897,-0.023778180888911878,0.09670458680871308,36.09446859390736,-96.25519929585457,80.21211738781929
2024-09-23 08:16:15.896365,43.49,5.621659,-0.002636491424507565,-0.02397715620066169,0.0966050877605131,36.09446859390736,-96.25519929585457,80.21211738781929
2024-09-23 08:16:15.938989,43.49,5.62171,-0.002636491424507565,-0.02397715620066169,0.0966050877605131,36.09446859390736,-96.25519929585457,72.1922225099802
2024-09-23 08:16:15.950518,43.49,5.62171,-0.003382661564999035,-0.023827930413011865,0.09685382322919964,36.09446859390736,-96.25519929585457,72.1922225099802
2024-09-23 08:16:15.992174,43.49,5.621761,-0.0028354659767690416,-0.023827930413011865,0.09685382322919964,36.09446859390736,-100.26678939585686,72.1922225099802
2024-09-23 08:16:16.003868,43.49,5.621761,-0.0028354659767690416,-0.02397715620066169,0.09665483728461309,36.09446859390736,-100.26678939585686,72.1922225099802
2024-09-23 08:16:16.036781,43.49,5.621761,-0.0028354659767690416,-0.02397715620066169,0.09665483728461309,44.11764879391193,-100.26678939585686,72.1922225099802
2024-09-23 08:16:16.048600,43.49,5.621811,-0.0031836870127375577,-0.024225890150371555,0.09665483728461309,44.11764879391193,-100.26678939585686,72.1922225099802
2024-09-23 08:16:16.092435,43.49,5.621862,-0.0028354659767690416,-0.024225890150371555,0.09710254654607277,36.09446859390736,-100.26678939585686,80.21211738781929
2024-09-23 08:16:16.135102,43.49,5.621862,-0.0028354659767690416,-0.024076653729884996,0.0973015264147526,32.08287849390507,-100.26678939585686,80.21211738781929
2024-09-23 08:16:16.147052,43.49,5.621951,-0.0028354659767690416,-0.024076653729884996,0.0973015264147526,32.08287849390507,-104.27510100388527,76.200527287817
2024-09-23 08:16:16.189807,43.49,5.621951,-0.0030344509719951677,-0.024225890150371555,0.0973512698629459,32.08287849390507,-96.25519929585457,84.22370748782159
2024-09-23 08:16:16.232523,43.49,5.622002,-0.0030841997366068195,-0.023927417309398437,0.0973512698629459,32.08287849390507,-96.25519929585457,84.22370748782159
2024-09-23 08:16:16.243749,43.49,5.622002,-0.0030841997366068195,-0.023927417309398437,0.09705279702197278,40.106058693909645,-100.26678939585686,84.22370748782159
2024-09-23 08:16:16.286178,43.49,5.622053,-0.0035816467500972456,-0.023280723622328886,0.09759999317981902,40.106058693909645,-100.26678939585686,80.21211738781929
2024-09-23 08:16:16.328402,43.49,5.622053,-0.0035816467500972456,-0.023280723622328886,0.09759999317981902,40.106058693909645,-100.26678939585686,80.21211738781929
2024-09-23 08:16:16.339542,43.49,5.622104,-0.003482159473966507,-0.02367869399252531,0.0973015264147526,40.106058693909645,-100.26678939585686,80.21211738781929
2024-09-23 08:16:16.381259,43.49,5.622154,-0.003482159473966507,-0.02367869399252531,0.0973015264147526,36.09446859390736,-92.24360919585227,84.22370748782159
2024-09-23 08:16:16.393210,43.49,5.622154,-0.0035318979854855937,-0.023330473146428877,0.0973015264147526,36.09446859390736,-92.24360919585227,84.22370748782159
2024-09-23 08:16:16.426686,43.49,5.622154,-0.0035318979854855937,-0.023330473146428877,0.09750050628343246,36.09446859390736,-92.24360919585227,84.22370748782159
2024-09-23 08:16:16.438194,43.49,5.622205,-0.0031836870127375577,-0.023330473146428877,0.09750050628343246,36.09446859390736,-96.25519929585457,80.21211738781929
2024-09-23 08:16:16.480781,43.49,5.622205,-0.0031836870127375577,-0.02397715620066169,0.09705279702197278,40.106058693909645,-96.25519929585457,80.21211738781929
2024-09-23 08:16:16.492938,43.49,5.622292,-0.0031836870127375577,-0.02397715620066169,0.09705279702197278,40.106058693909645,-96.25519929585457,80.21211738781929
2024-09-23 08:16:16.525239,43.49,5.622292,-0.0026862297461545674,-0.023927417309398437,0.09690356060148622,40.106058693909645,-96.25519929585457,80.21211738781929
2024-09-23 08:16:16.536323,43.49,5.622292,-0.0026862297461545674,-0.023927417309398437,0.09690356060148622,40.106058693909645,-96.25519929585457,76.200527287817
2024-09-23 08:16:16.578786,43.49,5.622344,-0.003233425524256645,-0.023728432883788564,0.09685382322919964,32.08287849390507,-104.27510100388527,76.200527287817
2024-09-23 08:16:16.621812,43.49,5.622395,-0.003233425524256645,-0.023728432883788564,0.09685382322919964,32.08287849390507,-104.27510100388527,76.200527287817
2024-09-23 08:16:16.633846,43.49,5.622395,-0.0029847020175114316,-0.024076653729884996,0.09715228999426605,40.106058693909645,-104.27510100388527,76.200527287817
2024-09-23 08:16:16.677793,43.49,5.622445,-0.0031339382481259063,-0.023927417309398437,0.0973015264147526,40.106058693909645,-104.27510100388527,76.200527287817
2024-09-23 08:16:16.721015,43.42,5.622445,-0.0031339382481259063,-0.023927417309398437,0.0973015264147526,36.09446859390736,-96.25519929585457,88.23529758782387
2024-09-23 08:16:16.732714,43.42,5.622496,-0.003631395514708897,-0.023877669304275123,0.0973015264147526,36.09446859390736,-96.25519929585457,88.23529758782387
2024-09-23 08:16:16.776267,43.42,5.622547,-0.0029847020175114316,-0.023877669304275123,0.09725178296655933,44.11764879391193,-108.28669110388756,68.18063240997792
2024-09-23 08:16:16.820445,43.42,5.622547,-0.0029847020175114316,-0.02367869399252531,0.09685382322919964,44.11764879391193,-96.25519929585457,68.18063240997792
2024-09-23 08:16:16.833053,43.42,5.622633,-0.0029847020175114316,-0.02367869399252531,0.09685382322919964,44.11764879391193,-96.25519929585457,76.200527287817
2024-09-23 08:16:16.864920,43.42,5.622633,-0.0030344509719951677,-0.023827930413011865,0.09685382322919964,44.11764879391193,-96.25519929585457,76.200527287817
2024-09-23 08:16:16.876423,43.42,5.622633,-0.0030344509719951677,-0.023827930413011865,0.09715228999426605,40.106058693909645,-96.25519929585457,80.21211738781929
2024-09-23 08:16:16.918809,43.42,5.622685,-0.0030344509719951677,-0.023429960042815445,0.09665483728461309,40.106058693909645,-96.25519929585457,80.21211738781929
2024-09-23 08:16:16.930260,43.42,5.622685,-0.0030344509719951677,-0.023429960042815445,0.09665483728461309,36.09446859390736,-96.25519929585457,80.21211738781929
2024-09-23 08:16:16.962142,43.42,5.622685,-0.0030344509719951677,-0.023429960042815445,0.09665483728461309,36.09446859390736,-96.25519929585457,84.22370748782159
2024-09-23 08:16:16.974404,43.42,5.622735,-0.0030841997366068195,-0.023927417309398437,0.09650560086412653,36.09446859390736,-96.25519929585457,84.22370748782159
2024-09-23 08:16:17.017877,43.42,5.622786,-0.0030344509719951677,-0.024076653729884996,0.09670458680871308,36.09446859390736,-100.26678939585686,80.21211738781929
2024-09-23 08:16:17.060117,43.42,5.622786,-0.0030344509719951677,-0.024076653729884996,0.09670458680871308,36.09446859390736,-96.25519929585457,80.21211738781929
2024-09-23 08:16:17.071536,43.42,5.622837,-0.003233425524256645,-0.023728432883788564,0.09670458680871308,36.09446859390736,-96.25519929585457,88.23529758782387
2024-09-23 08:16:17.114797,43.42,5.622887,-0.0031339382481259063,-0.023728432883788564,0.09759999317981902,36.09446859390736,-104.27510100388527,80.21211738781929
2024-09-23 08:16:17.157230,43.42,5.622887,-0.0031339382481259063,-0.02352945757203875,0.09759999317981902,36.09446859390736,-104.27510100388527,80.21211738781929
2024-09-23 08:16:17.168624,43.42,5.622975,-0.0031339382481259063,-0.02352945757203875,0.09715228999426605,40.106058693909645,-104.27510100388527,76.200527287817
2024-09-23 08:16:17.211834,43.42,5.622975,-0.0030841997366068195,-0.023778180888911878,0.09690356060148622,40.106058693909645,-104.27510100388527,76.200527287817
2024-09-23 08:16:17.223924,43.42,5.622975,-0.0030841997366068195,-0.023778180888911878,0.09690356060148622,40.106058693909645,-104.27510100388527,80.21211738781929
2024-09-23 08:16:17.256903,43.42,5.623026,-0.0027359787006383035,-0.023778180888911878,0.09690356060148622,40.106058693909645,-104.27510100388527,80.21211738781929
2024-09-23 08:16:17.268118,43.42,5.623026,-0.0027359787006383035,-0.02412639262114825,0.0966050877605131,36.09446859390736,-96.25519929585457,80.21211738781929
2024-09-23 08:16:17.311112,43.42,5.623077,-0.0027359787006383035,-0.02412639262114825,0.0966050877605131,36.09446859390736,-96.25519929585457,80.21211738781929
2024-09-23 08:16:17.353598,43.42,5.623077,-0.003233425524256645,-0.02367869399252531,0.0966050877605131,36.09446859390736,-96.25519929585457,80.21211738781929
2024-09-23 08:16:17.365473,43.42,5.623077,-0.003233425524256645,-0.02367869399252531,0.09705279702197278,36.09446859390736,-100.26678939585686,76.200527287817
2024-09-23 08:16:17.408719,43.42,5.623127,-0.0032831742888682963,-0.023877669304275123,0.09725178296655933,44.11764879391193,-96.25519929585457,76.200527287817
2024-09-23 08:16:17.451912,43.42,5.623178,-0.0032831742888682963,-0.023877669304275123,0.09725178296655933,44.11764879391193,-96.25519929585457,76.200527287817
2024-09-23 08:16:17.463546,43.42,5.623178,-0.0032831742888682963,-0.02397715620066169,0.09774922960030558,40.106058693909645,-96.25519929585457,76.200527287817
2024-09-23 08:16:17.506172,43.42,5.623229,-0.003233425524256645,-0.023579196463302005,0.09710254654607277,40.106058693909645,-92.24360919585227,80.21211738781929
2024-09-23 08:16:17.548414,43.42,5.623229,-0.003233425524256645,-0.023579196463302005,0.09710254654607277,44.11764879391193,-96.25519929585457,80.21211738781929
2024-09-23 08:16:17.559645,43.42,5.623316,-0.002636491424507565,-0.02412639262114825,0.09710254654607277,44.11764879391193,-96.25519929585457,80.21211738781929
2024-09-23 08:16:17.602100,43.42,5.623367,-0.002636491424507565,-0.02412639262114825,0.09655535038822652,36.09446859390736,-100.26678939585686,80.21211738781929
2024-09-23 08:16:17.614137,43.42,5.623367,-0.0030841997366068195,-0.02412639262114825,0.09655535038822652,36.09446859390736,-100.26678939585686,80.21211738781929
2024-09-23 08:16:17.646897,43.42,5.623367,-0.0030841997366068195,-0.023877669304275123,0.09685382322919964,36.09446859390736,-100.26678939585686,80.21211738781929
2024-09-23 08:16:17.657836,43.42,5.623367,-0.0030841997366068195,-0.023877669304275123,0.09685382322919964,36.09446859390736,-88.23529758782387,84.22370748782159
2024-09-23 08:16:17.699728,43.42,5.623462,-0.0031339382481259063,-0.02293251340906919,0.09705279702197278,32.08287849390507,-88.23529758782387,84.22370748782159
2024-09-23 08:16:17.711378,43.42,5.623462,-0.0031339382481259063,-0.02293251340906919,0.09705279702197278,32.08287849390507,-96.25519929585457,84.22370748782159
2024-09-23 08:16:17.744144,43.51,5.623514,-0.002785727465249955,-0.02293251340906919,0.09705279702197278,32.08287849390507,-96.25519929585457,84.22370748782159
2024-09-23 08:16:17.755482,43.51,5.623514,-0.002785727465249955,-0.023728432883788564,0.0973015264147526,40.106058693909645,-96.25519929585457,84.22370748782159
2024-09-23 08:16:17.798634,43.51,5.623565,-0.003382661564999035,-0.02367869399252531,0.09670458680871308,40.106058693909645,-96.25519929585457,76.200527287817
2024-09-23 08:16:17.842261,43.51,5.623565,-0.003382661564999035,-0.02367869399252531,0.09670458680871308,40.106058693909645,-96.25519929585457,88.23529758782387
2024-09-23 08:16:17.853838,43.51,5.623615,-0.0029349636958644295,-0.024026904205785005,0.09670458680871308,40.106058693909645,-96.25519929585457,88.23529758782387
2024-09-23 08:16:17.897224,43.51,5.623666,-0.0032831742888682963,-0.024026904205785005,0.09690356060148622,40.106058693909645,-100.26678939585686,84.22370748782159
2024-09-23 08:16:17.939687,43.51,5.623666,-0.0032831742888682963,-0.02338022115155219,0.09645586349183995,40.106058693909645,-100.26678939585686,84.22370748782159
2024-09-23 08:16:17.951137,43.51,5.623755,-0.0032831742888682963,-0.02338022115155219,0.09645586349183995,40.106058693909645,-100.26678939585686,76.200527287817
2024-09-23 08:16:17.993935,43.51,5.623755,-0.0030841997366068195,-0.024225890150371555,0.0973512698629459,44.11764879391193,-96.25519929585457,84.22370748782159
2024-09-23 08:16:18.036236,43.51,5.623806,-0.0033329230534799477,-0.02367869399252531,0.0973512698629459,44.11764879391193,-96.25519929585457,84.22370748782159
2024-09-23 08:16:18.047101,43.51,5.623806,-0.0033329230534799477,-0.02367869399252531,0.0970030596496862,32.08287849390507,-100.26678939585686,84.22370748782159
2024-09-23 08:16:18.089390,43.51,5.623857,-0.003482159473966507,-0.02362894446842532,0.09675432418099966,32.08287849390507,-100.26678939585686,80.21211738781929
2024-09-23 08:16:18.132430,43.51,5.623857,-0.003482159473966507,-0.02362894446842532,0.09675432418099966,32.08287849390507,-108.28669110388756,76.200527287817
2024-09-23 08:16:18.144216,43.51,5.623907,-0.0029349636958644295,-0.023330473146428877,0.09685382322919964,32.08287849390507,-108.28669110388756,76.200527287817
2024-09-23 08:16:18.186451,43.51,5.623958,-0.0029349636958644295,-0.023330473146428877,0.09685382322919964,36.09446859390736,-104.27510100388527,88.23529758782387
2024-09-23 08:16:18.198411,43.51,5.623958,-0.0031339382481259063,-0.023579196463302005,0.09685382322919964,36.09446859390736,-104.27510100388527,88.23529758782387
2024-09-23 08:16:18.230537,43.51,5.623958,-0.0031339382481259063,-0.023579196463302005,0.09675432418099966,40.106058693909645,-104.27510100388527,88.23529758782387
2024-09-23 08:16:18.242198,43.51,5.624009,-0.002785727465249955,-0.023579196463302005,0.09675432418099966,40.106058693909645,-104.27510100388527,76.200527287817
2024-09-23 08:16:18.284525,43.51,5.624009,-0.002785727465249955,-0.024176140626271565,0.09710254654607277,40.106058693909645,-104.27510100388527,80.21211738781929
2024-09-23 08:16:18.297077,43.51,5.624096,-0.002785727465249955,-0.024176140626271565,0.09710254654607277,40.106058693909645,-104.27510100388527,80.21211738781929
2024-09-23 08:16:18.328659,43.51,5.624096,-0.0033329230534799477,-0.024275627522658133,0.09710254654607277,40.106058693909645,-104.27510100388527,80.21211738781929
2024-09-23 08:16:18.381807,43.51,5.624147,-0.0033329230534799477,-0.024275627522658133,0.09690356060148622,32.08287849390507,-100.26678939585686,76.200527287817
2024-09-23 08:16:18.393834,43.51,5.624147,-0.0035816467500972456,-0.024275627522658133,0.09690356060148622,32.08287849390507,-100.26678939585686,76.200527287817
2024-09-23 08:16:18.425847,43.51,5.624147,-0.0035816467500972456,-0.023728432883788564,0.09710254654607277,32.08287849390507,-100.26678939585686,76.200527287817
2024-09-23 08:16:18.437655,43.51,5.624198,-0.0035816467500972456,-0.023728432883788564,0.09710254654607277,32.08287849390507,-104.27510100388527,76.200527287817
2024-09-23 08:16:18.481187,43.51,5.624198,-0.0038303700669703737,-0.02397715620066169,0.0970030596496862,32.08287849390507,-108.28669110388756,80.21211738781929
2024-09-23 08:16:18.524411,43.51,5.624249,-0.0030841997366068195,-0.02338022115155219,0.0970030596496862,32.08287849390507,-108.28669110388756,80.21211738781929
2024-09-23 08:16:18.536040,43.51,5.624249,-0.0030841997366068195,-0.02338022115155219,0.09710254654607277,44.11764879391193,-92.24360919585227,80.21211738781929
2024-09-23 08:16:18.578766,43.51,5.624299,-0.0031339382481259063,-0.024474613467244683,0.09740101331113918,36.09446859390736,-92.24360919585227,76.200527287817
2024-09-23 08:16:18.622671,43.51,5.62439,-0.0031339382481259063,-0.024474613467244683,0.09740101331113918,36.09446859390736,-108.28669110388756,80.21211738781929
2024-09-23 08:16:18.633863,43.51,5.62439,-0.0030344509719951677,-0.024424863943144692,0.09680407370509965,36.09446859390736,-108.28669110388756,80.21211738781929
2024-09-23 08:16:18.676144,43.51,5.624441,-0.0030344509719951677,-0.02313149783467906,0.09680407370509965,32.08287849390507,-100.26678939585686,76.200527287817
2024-09-23 08:16:18.770182,42.73,5.624441,-0.0030344509719951677,-0.02313149783467906,0.0976994861521123,36.09446859390736,-100.26678939585686,76.200527287817
2024-09-23 08:16:18.782196,42.73,5.624491,-0.003382661564999035,-0.02313149783467906,0.0976994861521123,36.09446859390736,-100.26678939585686,76.200527287817
2024-09-23 08:16:18.815314,42.73,5.624491,-0.003382661564999035,-0.023877669304275123,0.0970030596496862,36.09446859390736,-100.26678939585686,76.200527287817
2024-09-23 08:16:18.826516,42.73,5.624583,-0.003382661564999035,-0.023877669304275123,0.0970030596496862,40.106058693909645,-96.25519929585457,84.22370748782159
2024-09-23 08:16:18.868942,42.73,5.624583,-0.0028852147413806935,-0.02412639262114825,0.09705279702197278,36.09446859390736,-96.25519929585457,84.22370748782159
2024-09-23 08:16:18.880574,42.73,5.624583,-0.0028852147413806935,-0.02412639262114825,0.09705279702197278,36.09446859390736,-96.25519929585457,80.21211738781929
2024-09-23 08:16:18.913390,42.73,5.624635,-0.0029847020175114316,-0.02412639262114825,0.09705279702197278,36.09446859390736,-96.25519929585457,80.21211738781929
2024-09-23 08:16:18.924572,42.73,5.624635,-0.0029847020175114316,-0.023728432883788564,0.09715228999426605,32.08287849390507,-96.25519929585457,80.21211738781929
2024-09-23 08:16:18.966797,42.73,5.624686,-0.0026862297461545674,-0.023728432883788564,0.09715228999426605,32.08287849390507,-96.25519929585457,80.21211738781929
2024-09-23 08:16:19.010623,42.73,5.624686,-0.0026862297461545674,-0.024076653729884996,0.09695331012558621,32.08287849390507,-96.25519929585457,80.21211738781929
2024-09-23 08:16:19.023483,42.73,5.62478,-0.0026862297461545674,-0.024076653729884996,0.09695331012558621,32.08287849390507,-100.26678939585686,76.200527287817
2024-09-23 08:16:19.066072,42.73,5.62478,-0.0036811340262279837,-0.023579196463302005,0.09665483728461309,36.09446859390736,-104.27510100388527,80.21211738781929
2024-09-23 08:16:19.108169,42.73,5.624831,-0.0029847020175114316,-0.023579196463302005,0.09665483728461309,36.09446859390736,-104.27510100388527,80.21211738781929
2024-09-23 08:16:19.119282,42.73,5.624831,-0.0029847020175114316,-0.023778180888911878,0.09690356060148622,36.09446859390736,-100.26678939585686,80.21211738781929
2024-09-23 08:16:19.162183,42.73,5.624881,-0.0035816467500972456,-0.023778180888911878,0.09635636444363997,36.09446859390736,-100.26678939585686,80.21211738781929
2024-09-23 08:16:19.173799,42.73,5.624881,-0.0035816467500972456,-0.023778180888911878,0.09635636444363997,36.09446859390736,-100.26678939585686,80.21211738781929
2024-09-23 08:16:19.205739,42.73,5.624881,-0.0035816467500972456,-0.023778180888911878,0.09635636444363997,36.09446859390736,-92.24360919585227,88.23529758782387
2024-09-23 08:16:19.216936,42.73,5.624973,-0.0030344509719951677,-0.023280723622328886,0.09640611396773996,36.09446859390736,-92.24360919585227,88.23529758782387
2024-09-23 08:16:19.258503,42.73,5.625025,-0.002785727465249955,-0.023280723622328886,0.09640611396773996,40.106058693909645,-96.25519929585457,80.21211738781929
2024-09-23 08:16:19.270487,42.73,5.625025,-0.002785727465249955,-0.024076653729884996,0.09640611396773996,40.106058693909645,-96.25519929585457,80.21211738781929
2024-09-23 08:16:19.354673,42.73,5.625025,-0.002785727465249955,-0.024076653729884996,0.0973015264147526,28.07457030097246,-96.25519929585457,80.21211738781929
2024-09-23 08:16:19.366421,42.73,5.625075,-0.0031836870127375577,-0.024076653729884996,0.0973015264147526,28.07457030097246,-96.25519929585457,80.21211738781929
2024-09-23 08:16:19.399698,42.73,5.625075,-0.0031836870127375577,-0.024375126570858115,0.0973015264147526,28.07457030097246,-96.25519929585457,80.21211738781929
2024-09-23 08:16:19.411507,42.73,5.625075,-0.0031836870127375577,-0.024375126570858115,0.09670458680871308,40.106058693909645,-100.26678939585686,84.22370748782159
2024-09-23 08:16:19.454255,42.73,5.625169,-0.003233425524256645,-0.024076653729884996,0.09670458680871308,36.09446859390736,-100.26678939585686,84.22370748782159
2024-09-23 08:16:19.466275,42.73,5.625169,-0.003233425524256645,-0.024076653729884996,0.09670458680871308,36.09446859390736,-100.26678939585686,84.22370748782159
2024-09-23 08:16:19.500141,42.73,5.62522,-0.002586742470023829,-0.024076653729884996,0.09670458680871308,36.09446859390736,-100.26678939585686,84.22370748782159
2024-09-23 08:16:19.512109,42.73,5.62522,-0.002586742470023829,-0.02367869399252531,0.09670458680871308,36.09446859390736,-100.26678939585686,84.22370748782159
2024-09-23 08:16:19.544405,42.73,5.62522,-0.002586742470023829,-0.02367869399252531,0.09680407370509965,36.09446859390736,-100.26678939585686,84.22370748782159
2024-09-23 08:16:19.555911,42.73,5.625271,-0.0036811340262279837,-0.02367869399252531,0.09680407370509965,32.08287849390507,-104.27510100388527,76.200527287817
2024-09-23 08:16:19.598315,42.73,5.625271,-0.0036811340262279837,-0.02352945757203875,0.09725178296655933,36.09446859390736,-104.27510100388527,76.200527287817
2024-09-23 08:16:19.609910,42.73,5.625365,-0.0036811340262279837,-0.02352945757203875,0.09725178296655933,36.09446859390736,-104.27510100388527,80.21211738781929
2024-09-23 08:16:19.644229,42.73,5.625365,-0.003233425524256645,-0.02352945757203875,0.09725178296655933,36.09446859390736,-104.27510100388527,80.21211738781929
2024-09-23 08:16:19.655850,42.73,5.625365,-0.003233425524256645,-0.023827930413011865,0.09670458680871308,32.08287849390507,-100.26678939585686,84.22370748782159
2024-09-23 08:16:19.699084,42.73,5.625416,-0.0030344509719951677,-0.024026904205785005,0.09690356060148622,44.11764879391193,-104.27510100388527,84.22370748782159
2024-09-23 08:16:19.741773,42.73,5.62551,-0.0030344509719951677,-0.024026904205785005,0.09690356060148622,44.11764879391193,-104.27510100388527,76.200527287817
2024-09-23 08:16:19.752966,42.73,5.62551,-0.003631395514708897,-0.024275627522658133,0.09695331012558621,32.08287849390507,-104.27510100388527,76.200527287817
2024-09-23 08:16:19.796201,42.99,5.625561,-0.0030344509719951677,-0.023877669304275123,0.09695331012558621,32.08287849390507,-104.27510100388527,80.21211738781929
2024-09-23 08:16:19.807672,42.99,5.625561,-0.0030344509719951677,-0.023877669304275123,0.09750050628343246,32.08287849390507,-104.27510100388527,80.21211738781929
2024-09-23 08:16:19.839526,42.99,5.625561,-0.0030344509719951677,-0.023877669304275123,0.09750050628343246,28.07457030097246,-104.27510100388527,80.21211738781929
2024-09-23 08:16:19.851086,42.99,5.625612,-0.003233425524256645,-0.023778180888911878,0.09750050628343246,28.07457030097246,-104.27510100388527,80.21211738781929
2024-09-23 08:16:19.894445,42.99,5.625662,-0.0030344509719951677,-0.023778180888911878,0.09725178296655933,0.0,-96.25519929585457,88.23529758782387
2024-09-23 08:16:19.936792,42.99,5.625662,-0.0030344509719951677,-0.023230986250042305,0.09725178296655933,0.0,-96.25519929585457,88.23529758782387
2024-09-23 08:16:19.947984,42.99,5.625753,-0.0030344509719951677,-0.023230986250042305,0.09794820946898543,40.106058693909645,-84.22370748782159,92.24360919585227
2024-09-23 08:16:19.990475,42.99,5.625753,-0.0031836870127375577,-0.023429960042815445,0.09715228999426605,60.15744537978172,-92.24360919585227,92.24360919585227
2024-09-23 08:16:20.002446,42.99,5.625753,-0.0031836870127375577,-0.023429960042815445,0.09715228999426605,60.15744537978172,-92.24360919585227,88.23529758782387
2024-09-23 08:16:20.035283,42.99,5.625805,-0.0032831742888682963,-0.023479709566915436,0.09715228999426605,60.15744537978172,-92.24360919585227,88.23529758782387
2024-09-23 08:16:20.046379,42.99,5.625805,-0.0032831742888682963,-0.023479709566915436,0.09695331012558621,32.08287849390507,-100.26678939585686,88.23529758782387
2024-09-23 08:16:20.088451,42.99,5.625855,-0.0028354659767690416,-0.024026904205785005,0.09705279702197278,20.05138839341998,-100.26678939585686,80.21211738781929
2024-09-23 08:16:20.130455,42.99,5.625855,-0.0028354659767690416,-0.024026904205785005,0.09705279702197278,20.05138839341998,-100.26678939585686,80.21211738781929
2024-09-23 08:16:20.144935,42.99,5.625906,-0.0033329230534799477,-0.024076653729884996,0.09705279702197278,20.05138839341998,-100.26678939585686,76.200527287817
2024-09-23 08:16:20.187339,42.99,5.625957,-0.0031836870127375577,-0.02362894446842532,0.09705279702197278,32.08287849390507,-104.27510100388527,72.1922225099802
2024-09-23 08:16:20.229845,42.99,5.625957,-0.0031836870127375577,-0.02362894446842532,0.09715228999426605,28.07457030097246,-104.27510100388527,72.1922225099802
2024-09-23 08:16:20.241148,42.99,5.626007,-0.0030344509719951677,-0.02362894446842532,0.09715228999426605,28.07457030097246,-104.27510100388527,76.200527287817
2024-09-23 08:16:20.284896,42.99,5.626095,-0.0030344509719951677,-0.023827930413011865,0.09680407370509965,28.07457030097246,-104.27510100388527,80.21211738781929
2024-09-23 08:16:20.328575,42.99,5.626095,-0.0030841997366068195,-0.02367869399252531,0.09655535038822652,28.07457030097246,-104.27510100388527,80.21211738781929
2024-09-23 08:16:20.339560,42.99,5.626095,-0.0030841997366068195,-0.02367869399252531,0.09655535038822652,28.07457030097246,-100.26678939585686,76.200527287817
2024-09-23 08:16:20.423422,42.99,5.626146,-0.0030841997366068195,-0.02367869399252531,0.09655535038822652,28.07457030097246,-100.26678939585686,76.200527287817
2024-09-23 08:16:20.435548,42.99,5.626146,-0.0029847020175114316,-0.02412639262114825,0.09685382322919964,28.07457030097246,-100.26678939585686,76.200527287817
2024-09-23 08:16:20.479900,42.99,5.626197,-0.0035318979854855937,-0.02397715620066169,0.09685382322919964,28.07457030097246,-100.26678939585686,80.21211738781929
2024-09-23 08:16:20.522043,42.99,5.626197,-0.0035318979854855937,-0.02397715620066169,0.09685382322919964,40.106058693909645,-100.26678939585686,80.21211738781929
2024-09-23 08:16:20.533111,42.99,5.626248,-0.003382661564999035,-0.02338022115155219,0.09685382322919964,40.106058693909645,-100.26678939585686,72.1922225099802
2024-09-23 08:16:20.616828,42.99,5.626248,-0.003382661564999035,-0.02338022115155219,0.09720203344245934,40.106058693909645,-100.26678939585686,72.1922225099802
2024-09-23 08:16:20.628348,42.99,5.626298,-0.0032831742888682963,-0.02338022115155219,0.09720203344245934,36.09446859390736,-96.25519929585457,80.21211738781929
2024-09-23 08:16:20.671079,42.99,5.626298,-0.0032831742888682963,-0.024375126570858115,0.09695331012558621,28.07457030097246,-96.25519929585457,80.21211738781929
2024-09-23 08:16:20.683058,42.99,5.626349,-0.0032831742888682963,-0.024375126570858115,0.09695331012558621,28.07457030097246,-96.25519929585457,72.1922225099802
2024-09-23 08:16:20.716061,42.99,5.626349,-0.002785727465249955,-0.023827930413011865,0.09695331012558621,28.07457030097246,-96.25519929585457,72.1922225099802
2024-09-23 08:16:20.727872,42.99,5.626349,-0.002785727465249955,-0.023827930413011865,0.09710254654607277,36.09446859390736,-96.25519929585457,80.21211738781929
2024-09-23 08:16:20.769828,42.99,5.626485,-0.0031339382481259063,-0.024026904205785005,0.09675432418099966,32.08287849390507,-96.25519929585457,80.21211738781929
2024-09-23 08:16:20.781555,42.99,5.626485,-0.0031339382481259063,-0.024026904205785005,0.09675432418099966,32.08287849390507,-100.26678939585686,80.21211738781929
2024-09-23 08:16:20.814964,42.68,5.626536,-0.0031339382481259063,-0.024026904205785005,0.09675432418099966,32.08287849390507,-100.26678939585686,76.200527287817
2024-09-23 08:16:20.826433,42.68,5.626536,-0.0029349636958644295,-0.024325377046758124,0.09680407370509965,32.08287849390507,-100.26678939585686,76.200527287817
2024-09-23 08:16:20.868516,42.68,5.626632,-0.0030344509719951677,-0.023479709566915436,0.09695331012558621,32.08287849390507,-104.27510100388527,80.21211738781929
2024-09-23 08:16:20.911299,42.68,5.626632,-0.0030344509719951677,-0.023479709566915436,0.09695331012558621,28.07457030097246,-100.26678939585686,80.21211738781929
2024-09-23 08:16:20.923461,42.68,5.626683,-0.0030841997366068195,-0.02457410036363125,0.09695331012558621,28.07457030097246,-100.26678939585686,80.21211738781929
2024-09-23 08:16:20.966780,42.68,5.626734,-0.0030841997366068195,-0.02457410036363125,0.09655535038822652,36.09446859390736,-104.27510100388527,76.200527287817
2024-09-23 08:16:20.978240,42.68,5.626734,-0.0035816467500972456,-0.02457410036363125,0.09655535038822652,36.09446859390736,-104.27510100388527,76.200527287817
2024-09-23 08:16:21.010996,42.68,5.626734,-0.0035816467500972456,-0.02397715620066169,0.09680407370509965,56.14914060194492,-104.27510100388527,76.200527287817
2024-09-23 08:16:21.022268,42.68,5.626826,-0.0035816467500972456,-0.02397715620066169,0.09680407370509965,56.14914060194492,-96.25519929585457,72.1922225099802
2024-09-23 08:16:21.106694,42.68,5.626826,-0.0029847020175114316,-0.023479709566915436,0.09680407370509965,56.14914060194492,-96.25519929585457,72.1922225099802
2024-09-23 08:16:21.118400,42.68,5.626826,-0.0029847020175114316,-0.023479709566915436,0.09695331012558621,56.14914060194492,-96.25519929585457,72.1922225099802
2024-09-23 08:16:21.160457,42.68,5.626877,-0.0036811340262279837,-0.023479709566915436,0.09695331012558621,52.137550501942634,-96.25519929585457,76.200527287817
2024-09-23 08:16:21.172624,42.68,5.626877,-0.0036811340262279837,-0.02362894446842532,0.09695331012558621,52.137550501942634,-96.25519929585457,76.200527287817
2024-09-23 08:16:21.205361,42.68,5.626877,-0.0036811340262279837,-0.02362894446842532,0.09665483728461309,36.09446859390736,-100.26678939585686,76.200527287817
2024-09-23 08:16:21.257984,42.68,5.626928,-0.0030841997366068195,-0.023827930413011865,0.09725178296655933,36.09446859390736,-100.26678939585686,80.21211738781929
2024-09-23 08:16:21.270071,42.68,5.626928,-0.0030841997366068195,-0.023827930413011865,0.09725178296655933,32.08287849390507,-100.26678939585686,80.21211738781929
2024-09-23 08:16:21.302395,42.68,5.626928,-0.0030841997366068195,-0.023827930413011865,0.09725178296655933,32.08287849390507,-96.25519929585457,80.21211738781929
2024-09-23 08:16:21.314640,42.68,5.626979,-0.0035318979854855937,-0.023728432883788564,0.09665483728461309,32.08287849390507,-96.25519929585457,80.21211738781929
2024-09-23 08:16:21.357718,42.68,5.627029,-0.0030841997366068195,-0.023827930413011865,0.09665483728461309,36.09446859390736,-96.25519929585457,80.21211738781929
2024-09-23 08:16:21.400034,42.68,5.627029,-0.0030841997366068195,-0.023827930413011865,0.09759999317981902,32.08287849390507,-96.25519929585457,80.21211738781929
2024-09-23 08:16:21.453248,42.68,5.627168,-0.003233425524256645,-0.023827930413011865,0.09759999317981902,32.08287849390507,-92.24360919585227,80.21211738781929
2024-09-23 08:16:21.464986,42.68,5.627168,-0.003233425524256645,-0.023429960042815445,0.09759999317981902,32.08287849390507,-92.24360919585227,80.21211738781929
2024-09-23 08:16:21.496654,42.68,5.627168,-0.003233425524256645,-0.023429960042815445,0.09630662707135339,32.08287849390507,-92.24360919585227,80.21211738781929
2024-09-23 08:16:21.507636,42.68,5.627219,-0.0031339382481259063,-0.023429960042815445,0.09630662707135339,32.08287849390507,-92.24360919585227,80.21211738781929
2024-09-23 08:16:21.551232,42.68,5.627314,-0.0031339382481259063,-0.02367869399252531,0.09720203344245934,32.08287849390507,-96.25519929585457,76.200527287817
2024-09-23 08:16:21.593654,42.68,5.627314,-0.002288270198666964,-0.024176140626271565,0.09720203344245934,32.08287849390507,-96.25519929585457,76.200527287817
2024-09-23 08:16:21.605305,42.68,5.627314,-0.002288270198666964,-0.024176140626271565,0.09695331012558621,36.09446859390736,-100.26678939585686,80.21211738781929
2024-09-23 08:16:21.647270,42.68,5.627365,-0.0035318979854855937,-0.023877669304275123,0.09570968138940715,36.09446859390736,-100.26678939585686,80.21211738781929
2024-09-23 08:16:21.659243,42.68,5.627365,-0.0035318979854855937,-0.023877669304275123,0.09570968138940715,52.137550501942634,-92.24360919585227,80.21211738781929
2024-09-23 08:16:21.691743,42.68,5.62746,-0.0035318979854855937,-0.023877669304275123,0.09570968138940715,52.137550501942634,-92.24360919585227,88.23529758782387
2024-09-23 08:16:21.703023,42.68,5.62746,-0.0031339382481259063,-0.02303200030545576,0.09774922960030558,28.07457030097246,-92.24360919585227,88.23529758782387
2024-09-23 08:16:21.745702,42.68,5.627511,-0.002785727465249955,-0.023778180888911878,0.09774922960030558,28.07457030097246,-108.28669110388756,76.200527287817
2024-09-23 08:16:21.757825,42.68,5.627511,-0.002785727465249955,-0.023778180888911878,0.09635636444363997,28.07457030097246,-108.28669110388756,76.200527287817
2024-09-23 08:16:21.791037,42.68,5.627511,-0.002785727465249955,-0.023778180888911878,0.09635636444363997,40.106058693909645,-100.26678939585686,84.22370748782159
2024-09-23 08:16:21.802624,42.68,5.627562,-0.002437506429281439,-0.024375126570858115,0.09635636444363997,40.106058693909645,-100.26678939585686,84.22370748782159
2024-09-23 08:16:21.846102,42.59,5.627613,-0.0035318979854855937,-0.024375126570858115,0.09705279702197278,56.14914060194492,-92.24360919585227,80.21211738781929
2024-09-23 08:16:21.887895,42.59,5.627613,-0.0035318979854855937,-0.02412639262114825,0.09720203344245934,48.12595698684454,-92.24360919585227,80.21211738781929
2024-09-23 08:16:21.900074,42.59,5.627703,-0.0035318979854855937,-0.02412639262114825,0.09720203344245934,48.12595698684454,-92.24360919585227,76.200527287817
2024-09-23 08:16:21.943068,42.59,5.627703,-0.0028852147413806935,-0.02412639262114825,0.09715228999426605,44.11764879391193,-96.25519929585457,80.21211738781929
2024-09-23 08:16:21.986350,42.59,5.627755,-0.003482159473966507,-0.024325377046758124,0.09715228999426605,44.11764879391193,-96.25519929585457,80.21211738781929
2024-09-23 08:16:21.997468,42.59,5.627755,-0.003482159473966507,-0.024325377046758124,0.09715228999426605,36.09446859390736,-104.27510100388527,80.21211738781929
2024-09-23 08:16:22.041247,42.59,5.627805,-0.003382661564999035,-0.024275627522658133,0.09650560086412653,36.09446859390736,-104.27510100388527,80.21211738781929
2024-09-23 08:16:22.084495,42.59,5.627856,-0.003631395514708897,-0.024275627522658133,0.09650560086412653,36.09446859390736,-96.25519929585457,84.22370748782159
2024-09-23 08:16:22.095865,42.59,5.627856,-0.003631395514708897,-0.023877669304275123,0.09685382322919964,36.09446859390736,-96.25519929585457,84.22370748782159
2024-09-23 08:16:22.131588,42.59,5.627856,-0.003631395514708897,-0.023877669304275123,0.09685382322919964,36.09446859390736,-100.26678939585686,84.22370748782159
2024-09-23 08:16:22.144056,42.59,5.627907,-0.0029847020175114316,-0.023579196463302005,0.09685382322919964,36.09446859390736,-100.26678939585686,76.200527287817
2024-09-23 08:16:22.187375,42.59,5.627957,-0.0031836870127375577,-0.023579196463302005,0.09710254654607277,36.09446859390736,-96.25519929585457,76.200527287817
2024-09-23 08:16:22.230213,42.59,5.627957,-0.0031836870127375577,-0.023280723622328886,0.09665483728461309,24.06297849342227,-96.25519929585457,76.200527287817
2024-09-23 08:16:22.241158,42.59,5.628045,-0.0031836870127375577,-0.023280723622328886,0.09665483728461309,24.06297849342227,-104.27510100388527,80.21211738781929
2024-09-23 08:16:22.284563,42.59,5.628045,-0.003482159473966507,-0.02362894446842532,0.09695331012558621,36.09446859390736,-96.25519929585457,80.21211738781929
2024-09-23 08:16:22.326421,42.59,5.628096,-0.003233425524256645,-0.023429960042815445,0.09695331012558621,36.09446859390736,-96.25519929585457,80.21211738781929
2024-09-23 08:16:22.337552,42.59,5.628096,-0.003233425524256645,-0.023429960042815445,0.09685382322919964,44.11764879391193,-92.24360919585227,80.21211738781929
2024-09-23 08:16:22.379310,42.59,5.628147,-0.0033329230534799477,-0.023579196463302005,0.09740101331113918,44.11764879391193,-92.24360919585227,76.200527287817
2024-09-23 08:16:22.391282,42.59,5.628147,-0.0033329230534799477,-0.023579196463302005,0.09740101331113918,48.12595698684454,-92.24360919585227,76.200527287817
2024-09-23 08:16:22.474680,42.59,5.628197,-0.0029847020175114316,-0.023579196463302005,0.09740101331113918,48.12595698684454,-88.23529758782387,76.200527287817
2024-09-23 08:16:22.527661,42.59,5.628248,-0.0029847020175114316,-0.023479709566915436,0.09720203344245934,36.09446859390736,-92.24360919585227,80.21211738781929
2024-09-23 08:16:22.570709,42.59,5.628248,-0.0030344509719951677,-0.023927417309398437,0.09640611396773996,36.09446859390736,-92.24360919585227,80.21211738781929
2024-09-23 08:16:22.582285,42.59,5.628248,-0.0030344509719951677,-0.023927417309398437,0.09640611396773996,32.08287849390507,-96.25519929585457,84.22370748782159
2024-09-23 08:16:22.624518,42.59,5.628299,-0.0029349636958644295,-0.024076653729884996,0.09720203344245934,40.106058693909645,-96.25519929585457,84.22370748782159
2024-09-23 08:16:22.666790,42.59,5.628386,-0.0029349636958644295,-0.024076653729884996,0.09720203344245934,40.106058693909645,-96.25519929585457,80.21211738781929
2024-09-23 08:16:22.678155,42.59,5.628386,-0.0030841997366068195,-0.023728432883788564,0.09685382322919964,40.106058693909645,-96.25519929585457,80.21211738781929
2024-09-23 08:16:22.721447,42.59,5.628484,-0.003780631555451287,-0.024026904205785005,0.09665483728461309,40.106058693909645,-104.27510100388527,80.21211738781929
2024-09-23 08:16:22.763412,42.59,5.628484,-0.003780631555451287,-0.024026904205785005,0.09665483728461309,40.106058693909645,-104.27510100388527,80.21211738781929
2024-09-23 08:16:22.774751,42.59,5.628536,-0.0031836870127375577,-0.023827930413011865,0.09665483728461309,40.106058693909645,-104.27510100388527,76.200527287817
2024-09-23 08:16:22.818395,42.59,5.628586,-0.003233425524256645,-0.023827930413011865,0.09690356060148622,40.106058693909645,-92.24360919585227,76.200527287817
2024-09-23 08:16:22.861815,41.91,5.628586,-0.003233425524256645,-0.023778180888911878,0.09680407370509965,40.106058693909645,-92.24360919585227,76.200527287817
2024-09-23 08:16:22.873071,41.91,5.628678,-0.003233425524256645,-0.023778180888911878,0.09680407370509965,36.09446859390736,-96.25519929585457,76.200527287817
2024-09-23 08:16:22.915554,41.91,5.628678,-0.0036811340262279837,-0.02367869399252531,0.09615739065086683,32.08287849390507,-100.26678939585686,76.200527287817
2024-09-23 08:16:22.927667,41.91,5.628678,-0.0036811340262279837,-0.02367869399252531,0.09615739065086683,32.08287849390507,-100.26678939585686,76.200527287817
2024-09-23 08:16:22.960392,41.91,5.62873,-0.0035318979854855937,-0.02397715620066169,0.09615739065086683,32.08287849390507,-100.26678939585686,76.200527287817
2024-09-23 08:16:22.971300,41.91,5.62873,-0.0035318979854855937,-0.02397715620066169,0.09740101331113918,36.09446859390736,-96.25519929585457,76.200527287817
2024-09-23 08:16:23.013691,41.91,5.628781,-0.0031836870127375577,-0.02412639262114825,0.09685382322919964,36.09446859390736,-96.25519929585457,80.21211738781929
2024-09-23 08:16:23.056542,41.91,5.628781,-0.0031836870127375577,-0.02412639262114825,0.09685382322919964,36.09446859390736,-96.25519929585457,76.200527287817
2024-09-23 08:16:23.068063,41.91,5.628831,-0.0030841997366068195,-0.024375126570858115,0.09690356060148622,36.09446859390736,-96.25519929585457,76.200527287817
2024-09-23 08:16:23.111477,41.91,5.628882,-0.0030344509719951677,-0.023827930413011865,0.09690356060148622,32.08287849390507,-96.25519929585457,76.200527287817
2024-09-23 08:16:23.153963,41.91,5.628882,-0.0030344509719951677,-0.023827930413011865,0.09675432418099966,36.09446859390736,-96.25519929585457,76.200527287817
2024-09-23 08:16:23.165205,41.91,5.628933,-0.003482159473966507,-0.023827930413011865,0.09675432418099966,36.09446859390736,-100.26678939585686,80.21211738781929
2024-09-23 08:16:23.208498,41.91,5.62902,-0.003482159473966507,-0.02397715620066169,0.0973512698629459,36.09446859390736,-92.24360919585227,80.21211738781929
2024-09-23 08:16:23.250879,41.91,5.62902,-0.0029349636958644295,-0.023827930413011865,0.0973512698629459,36.09446859390736,-92.24360919585227,80.21211738781929
2024-09-23 08:16:23.262527,41.91,5.62902,-0.0029349636958644295,-0.023827930413011865,0.09690356060148622,40.106058693909645,-100.26678939585686,76.200527287817
2024-09-23 08:16:23.304789,41.91,5.629071,-0.0031339382481259063,-0.02367869399252531,0.09680407370509965,40.106058693909645,-100.26678939585686,76.200527287817
2024-09-23 08:16:23.316966,41.91,5.629071,-0.0031339382481259063,-0.02367869399252531,0.09680407370509965,40.106058693909645,-100.26678939585686,76.200527287817
2024-09-23 08:16:23.349396,41.91,5.629122,-0.0031339382481259063,-0.02367869399252531,0.09680407370509965,40.106058693909645,-100.26678939585686,80.21211738781929
2024-09-23 08:16:23.360456,41.91,5.629122,-0.0029847020175114316,-0.023778180888911878,0.09710254654607277,36.09446859390736,-100.26678939585686,80.21211738781929
2024-09-23 08:16:23.403140,41.91,5.629172,-0.0031339382481259063,-0.023927417309398437,0.09710254654607277,36.09446859390736,-100.26678939585686,76.200527287817
2024-09-23 08:16:23.415118,41.91,5.629172,-0.0031339382481259063,-0.023927417309398437,0.09680407370509965,36.09446859390736,-100.26678939585686,76.200527287817
2024-09-23 08:16:23.499134,41.91,5.629223,-0.0031339382481259063,-0.023927417309398437,0.09680407370509965,36.09446859390736,-104.27510100388527,76.200527287817
2024-09-23 08:16:23.510313,41.91,5.629223,-0.0033329230534799477,-0.023579196463302005,0.09680407370509965,36.09446859390736,-104.27510100388527,76.200527287817
2024-09-23 08:16:23.542417,41.91,5.629223,-0.0033329230534799477,-0.023579196463302005,0.09720203344245934,36.09446859390736,-104.27510100388527,76.200527287817
2024-09-23 08:16:23.554388,41.91,5.629274,-0.0028852147413806935,-0.023579196463302005,0.09720203344245934,28.07457030097246,-104.27510100388527,80.21211738781929
2024-09-23 08:16:23.598077,41.91,5.629274,-0.0028852147413806935,-0.02352945757203875,0.09695331012558621,28.07457030097246,-104.27510100388527,76.200527287817
2024-09-23 08:16:23.609754,41.91,5.629361,-0.0028852147413806935,-0.02352945757203875,0.09695331012558621,28.07457030097246,-104.27510100388527,76.200527287817
2024-09-23 08:16:23.641386,41.91,5.629361,-0.0028852147413806935,-0.024325377046758124,0.09695331012558621,28.07457030097246,-104.27510100388527,76.200527287817
2024-09-23 08:16:23.653267,41.91,5.629361,-0.0028852147413806935,-0.024325377046758124,0.0970030596496862,36.09446859390736,-92.24360919585227,80.21211738781929
2024-09-23 08:16:23.696079,41.91,5.629412,-0.0030344509719951677,-0.023230986250042305,0.09725178296655933,32.08287849390507,-92.24360919585227,80.21211738781929
2024-09-23 08:16:23.707652,41.91,5.629412,-0.0030344509719951677,-0.023230986250042305,0.09725178296655933,32.08287849390507,-100.26678939585686,80.21211738781929
2024-09-23 08:16:23.740640,41.91,5.629508,-0.0030344509719951677,-0.023230986250042305,0.09725178296655933,32.08287849390507,-100.26678939585686,76.200527287817
2024-09-23 08:16:23.752046,41.91,5.629508,-0.0033329230534799477,-0.023479709566915436,0.09680407370509965,40.106058693909645,-100.26678939585686,76.200527287817
2024-09-23 08:16:23.795604,41.91,5.629559,-0.0035318979854855937,-0.024773084789241125,0.0970030596496862,40.106058693909645,-96.25519929585457,84.22370748782159
2024-09-23 08:16:23.837924,41.91,5.629559,-0.0035318979854855937,-0.024773084789241125,0.0970030596496862,32.08287849390507,-96.25519929585457,84.22370748782159
2024-09-23 08:16:23.849976,41.91,5.62961,-0.0035318979854855937,-0.024076653729884996,0.0970030596496862,32.08287849390507,-96.25519929585457,84.22370748782159
2024-09-23 08:16:23.892172,41.78,5.629661,-0.0029847020175114316,-0.024076653729884996,0.09750050628343246,36.09446859390736,-92.24360919585227,76.200527287817
2024-09-23 08:16:23.934766,41.78,5.629661,-0.0029847020175114316,-0.02397715620066169,0.09680407370509965,36.09446859390736,-92.24360919585227,76.200527287817
2024-09-23 08:16:23.946274,41.78,5.629751,-0.0029847020175114316,-0.02397715620066169,0.09680407370509965,36.09446859390736,-88.23529758782387,84.22370748782159
2024-09-23 08:16:23.989955,41.78,5.629751,-0.003382661564999035,-0.02412639262114825,0.09655535038822652,36.09446859390736,-100.26678939585686,80.21211738781929
2024-09-23 08:16:24.032993,41.78,5.629802,-0.003382661564999035,-0.023579196463302005,0.09655535038822652,36.09446859390736,-100.26678939585686,80.21211738781929
2024-09-23 08:16:24.044663,41.78,5.629802,-0.003382661564999035,-0.023579196463302005,0.09685382322919964,36.09446859390736,-100.26678939585686,80.21211738781929
2024-09-23 08:16:24.087907,41.78,5.629853,-0.0029847020175114316,-0.02412639262114825,0.09655535038822652,36.09446859390736,-100.26678939585686,80.21211738781929
2024-09-23 08:16:24.129894,41.78,5.629904,-0.0029847020175114316,-0.02412639262114825,0.09655535038822652,36.09446859390736,-88.23529758782387,88.23529758782387
2024-09-23 08:16:24.141649,41.78,5.629904,-0.0032831742888682963,-0.024225890150371555,0.0966050877605131,36.09446859390736,-88.23529758782387,88.23529758782387
2024-09-23 08:16:24.183713,41.78,5.629954,-0.0030344509719951677,-0.024225890150371555,0.0966050877605131,36.09446859390736,-100.26678939585686,84.22370748782159
2024-09-23 08:16:24.195621,41.78,5.629954,-0.0030344509719951677,-0.024026904205785005,0.0966050877605131,36.09446859390736,-100.26678939585686,84.22370748782159
2024-09-23 08:16:24.227844,41.78,5.629954,-0.0030344509719951677,-0.024026904205785005,0.0973512698629459,40.106058693909645,-104.27510100388527,84.22370748782159
2024-09-23 08:16:24.239747,41.78,5.630005,-0.0031339382481259063,-0.024026904205785005,0.0973512698629459,40.106058693909645,-104.27510100388527,80.21211738781929
2024-09-23 08:16:24.282317,41.78,5.630092,-0.0031339382481259063,-0.023728432883788564,0.09720203344245934,40.106058693909645,-96.25519929585457,84.22370748782159
2024-09-23 08:16:24.325750,41.78,5.630092,-0.0035318979854855937,-0.023877669304275123,0.09685382322919964,40.106058693909645,-96.25519929585457,84.22370748782159
2024-09-23 08:16:24.337633,41.78,5.630092,-0.0035318979854855937,-0.023877669304275123,0.09685382322919964,32.08287849390507,-92.24360919585227,84.22370748782159
2024-09-23 08:16:24.381304,41.78,5.630144,-0.003382661564999035,-0.023579196463302005,0.09710254654607277,32.08287849390507,-96.25519929585457,84.22370748782159
2024-09-23 08:16:24.424021,41.78,5.630194,-0.0030344509719951677,-0.023579196463302005,0.09710254654607277,32.08287849390507,-96.25519929585457,80.21211738781929
2024-09-23 08:16:24.435269,41.78,5.630194,-0.0030344509719951677,-0.023479709566915436,0.09740101331113918,36.09446859390736,-96.25519929585457,80.21211738781929
2024-09-23 08:16:24.478638,41.78,5.630245,-0.0031836870127375577,-0.023877669304275123,0.09690356060148622,36.09446859390736,-96.25519929585457,84.22370748782159
2024-09-23 08:16:24.520749,41.78,5.630245,-0.0031836870127375577,-0.023877669304275123,0.09690356060148622,32.08287849390507,-92.24360919585227,84.22370748782159
2024-09-23 08:16:24.574609,41.78,5.630296,-0.0031339382481259063,-0.02412639262114825,0.09675432418099966,32.08287849390507,-92.24360919585227,84.22370748782159
2024-09-23 08:16:24.586391,41.78,5.630296,-0.0031339382481259063,-0.02412639262114825,0.09675432418099966,36.09446859390736,-92.24360919585227,84.22370748782159
2024-09-23 08:16:24.618554,41.78,5.630346,-0.0031339382481259063,-0.02412639262114825,0.09675432418099966,36.09446859390736,-100.26678939585686,80.21211738781929
2024-09-23 08:16:24.629939,41.78,5.630346,-0.0033329230534799477,-0.023429960042815445,0.0970030596496862,36.09446859390736,-100.26678939585686,80.21211738781929
2024-09-23 08:16:24.672271,41.78,5.630433,-0.003233425524256645,-0.024176140626271565,0.0970030596496862,36.09446859390736,-100.26678939585686,76.200527287817
2024-09-23 08:16:24.714192,41.78,5.630433,-0.003233425524256645,-0.024176140626271565,0.09764974270391902,28.07457030097246,-100.26678939585686,76.200527287817
2024-09-23 08:16:24.725641,41.78,5.630485,-0.0032831742888682963,-0.024176140626271565,0.09764974270391902,28.07457030097246,-96.25519929585457,80.21211738781929
2024-09-23 08:16:24.768287,41.78,5.630485,-0.0032831742888682963,-0.024375126570858115,0.09725178296655933,32.08287849390507,-104.27510100388527,80.21211738781929
2024-09-23 08:16:24.780040,41.78,5.630536,-0.0032831742888682963,-0.024375126570858115,0.09725178296655933,32.08287849390507,-104.27510100388527,80.21211738781929
2024-09-23 08:16:24.813116,41.78,5.630536,-0.002586742470023829,-0.02352945757203875,0.09750050628343246,32.08287849390507,-104.27510100388527,80.21211738781929
2024-09-23 08:16:24.825423,41.78,5.630536,-0.002586742470023829,-0.02352945757203875,0.09750050628343246,40.106058693909645,-112.29828120388984,76.200527287817
2024-09-23 08:16:24.857943,41.78,5.630629,-0.002586742470023829,-0.02352945757203875,0.09750050628343246,40.106058693909645,-112.29828120388984,76.200527287817
2024-09-23 08:16:24.869338,41.78,5.630629,-0.0030344509719951677,-0.023728432883788564,0.09685382322919964,36.09446859390736,-100.26678939585686,76.200527287817
2024-09-23 08:16:24.911030,41.43,5.630681,-0.0031836870127375577,-0.023728432883788564,0.09685382322919964,36.09446859390736,-100.26678939585686,80.21211738781929
2024-09-23 08:16:24.922471,41.43,5.630681,-0.0031836870127375577,-0.02397715620066169,0.09705279702197278,44.11764879391193,-100.26678939585686,80.21211738781929
2024-09-23 08:16:24.965267,41.43,5.630731,-0.0037308827908396356,-0.023827930413011865,0.09705279702197278,44.11764879391193,-96.25519929585457,76.200527287817
2024-09-23 08:16:24.977454,41.43,5.630731,-0.0037308827908396356,-0.023827930413011865,0.09725178296655933,44.11764879391193,-96.25519929585457,76.200527287817
2024-09-23 08:16:25.010008,41.43,5.630782,-0.0037308827908396356,-0.023827930413011865,0.09725178296655933,40.106058693909645,-100.26678939585686,76.200527287817
2024-09-23 08:16:25.021438,41.43,5.630782,-0.0033329230534799477,-0.023479709566915436,0.09725178296655933,40.106058693909645,-100.26678939585686,76.200527287817
2024-09-23 08:16:25.052892,41.43,5.630782,-0.0033329230534799477,-0.023479709566915436,0.09690356060148622,40.106058693909645,-100.26678939585686,76.200527287817
2024-09-23 08:16:25.064378,41.43,5.630833,-0.003482159473966507,-0.023479709566915436,0.09690356060148622,32.08287849390507,-100.26678939585686,76.200527287817
2024-09-23 08:16:25.158323,41.43,5.630833,-0.003482159473966507,-0.023778180888911878,0.0970030596496862,52.137550501942634,-100.26678939585686,80.21211738781929
2024-09-23 08:16:25.170395,41.43,5.630921,-0.003482159473966507,-0.023778180888911878,0.0970030596496862,52.137550501942634,-100.26678939585686,80.21211738781929
2024-09-23 08:16:25.203321,41.43,5.630921,-0.003382661564999035,-0.023579196463302005,0.0966050877605131,52.137550501942634,-100.26678939585686,80.21211738781929
2024-09-23 08:16:25.214918,41.43,5.630921,-0.003382661564999035,-0.023579196463302005,0.0966050877605131,44.11764879391193,-100.26678939585686,80.21211738781929
2024-09-23 08:16:25.257319,41.43,5.630972,-0.0030344509719951677,-0.024026904205785005,0.09690356060148622,36.09446859390736,-96.25519929585457,80.21211738781929
2024-09-23 08:16:25.300812,41.43,5.631023,-0.0034324103296106863,-0.024026904205785005,0.09690356060148622,36.09446859390736,-96.25519929585457,80.21211738781929
2024-09-23 08:16:25.313101,41.43,5.631023,-0.0034324103296106863,-0.024026904205785005,0.09635636444363997,36.09446859390736,-96.25519929585457,80.21211738781929
2024-09-23 08:16:25.345719,41.43,5.631023,-0.0034324103296106863,-0.024026904205785005,0.09635636444363997,36.09446859390736,-100.26678939585686,80.21211738781929
2024-09-23 08:16:25.357600,41.43,5.631074,-0.0030841997366068195,-0.02338022115155219,0.09650560086412653,36.09446859390736,-100.26678939585686,76.200527287817
2024-09-23 08:16:25.399888,41.43,5.631167,-0.0030841997366068195,-0.02338022115155219,0.09650560086412653,32.08287849390507,-104.27510100388527,76.200527287817
2024-09-23 08:16:25.411870,41.43,5.631167,-0.0029847020175114316,-0.023579196463302005,0.09650560086412653,32.08287849390507,-104.27510100388527,76.200527287817
2024-09-23 08:16:25.444472,41.43,5.631167,-0.0029847020175114316,-0.023579196463302005,0.09759999317981902,32.08287849390507,-104.27510100388527,76.200527287817
2024-09-23 08:16:25.455390,41.43,5.631217,-0.0033329230534799477,-0.023579196463302005,0.09759999317981902,36.09446859390736,-108.28669110388756,76.200527287817
2024-09-23 08:16:25.497983,41.43,5.631217,-0.0033329230534799477,-0.02352945757203875,0.09720203344245934,40.106058693909645,-100.26678939585686,80.21211738781929
2024-09-23 08:16:25.509768,41.43,5.631311,-0.0033329230534799477,-0.02352945757203875,0.09720203344245934,40.106058693909645,-100.26678939585686,80.21211738781929
2024-09-23 08:16:25.593050,41.43,5.631311,-0.0033329230534799477,-0.024026904205785005,0.09675432418099966,40.106058693909645,-100.26678939585686,80.21211738781929
2024-09-23 08:16:25.604784,41.43,5.631311,-0.0033329230534799477,-0.024026904205785005,0.09675432418099966,28.07457030097246,-104.27510100388527,76.200527287817
2024-09-23 08:16:25.647270,41.43,5.631363,-0.0031339382481259063,-0.02362894446842532,0.09670458680871308,32.08287849390507,-100.26678939585686,76.200527287817
2024-09-23 08:16:25.690994,41.43,5.631413,-0.0032831742888682963,-0.02362894446842532,0.09670458680871308,32.08287849390507,-100.26678939585686,76.200527287817
2024-09-23 08:16:25.702324,41.43,5.631413,-0.0032831742888682963,-0.023778180888911878,0.09715228999426605,36.09446859390736,-100.26678939585686,76.200527287817
2024-09-23 08:16:25.744865,41.43,5.631464,-0.003382661564999035,-0.02338022115155219,0.09665483728461309,36.09446859390736,-100.26678939585686,80.21211738781929
2024-09-23 08:16:25.788360,41.43,5.631464,-0.003382661564999035,-0.02338022115155219,0.09665483728461309,40.106058693909645,-100.26678939585686,76.200527287817
2024-09-23 08:16:25.799970,41.43,5.631515,-0.003382661564999035,-0.023579196463302005,0.09665483728461309,40.106058693909645,-100.26678939585686,76.200527287817
2024-09-23 08:16:25.842499,41.43,5.631606,-0.002586742470023829,-0.023579196463302005,0.0970030596496862,32.08287849390507,-100.26678939585686,88.23529758782387
2024-09-23 08:16:25.885840,41.43,5.631606,-0.002586742470023829,-0.023827930413011865,0.09715228999426605,36.09446859390736,-100.26678939585686,88.23529758782387
2024-09-23 08:16:25.897251,41.43,5.631701,-0.002586742470023829,-0.023827930413011865,0.09715228999426605,36.09446859390736,-104.27510100388527,84.22370748782159
2024-09-23 08:16:25.939408,41.31,5.631701,-0.003233425524256645,-0.02362894446842532,0.09740101331113918,36.09446859390736,-104.27510100388527,84.22370748782159
2024-09-23 08:16:25.981151,41.31,5.631701,-0.003233425524256645,-0.02362894446842532,0.09740101331113918,36.09446859390736,-92.24360919585227,80.21211738781929
2024-09-23 08:16:25.992786,41.31,5.631752,-0.0031836870127375577,-0.02367869399252531,0.09635636444363997,36.09446859390736,-92.24360919585227,80.21211738781929
2024-09-23 08:16:26.036322,41.31,5.631803,-0.003233425524256645,-0.02367869399252531,0.09635636444363997,32.08287849390507,-88.23529758782387,76.200527287817
2024-09-23 08:16:26.048264,41.31,5.631803,-0.003233425524256645,-0.023778180888911878,0.09635636444363997,32.08287849390507,-88.23529758782387,76.200527287817
2024-09-23 08:16:26.080739,41.31,5.631803,-0.003233425524256645,-0.023778180888911878,0.09655535038822652,32.08287849390507,-96.25519929585457,76.200527287817
2024-09-23 08:16:26.092445,41.31,5.631854,-0.0029349636958644295,-0.023778180888911878,0.09655535038822652,32.08287849390507,-96.25519929585457,76.200527287817
2024-09-23 08:16:26.135546,41.31,5.631854,-0.0029349636958644295,-0.023927417309398437,0.09685382322919964,36.09446859390736,-96.25519929585457,76.200527287817
2024-09-23 08:16:26.178023,41.31,5.631904,-0.0029349636958644295,-0.023927417309398437,0.09685382322919964,36.09446859390736,-92.24360919585227,76.200527287817
2024-09-23 08:16:26.190149,41.31,5.631904,-0.0033329230534799477,-0.023927417309398437,0.09685382322919964,36.09446859390736,-92.24360919585227,76.200527287817
2024-09-23 08:16:26.233320,41.31,5.631994,-0.0033329230534799477,-0.023579196463302005,0.09645586349183995,32.08287849390507,-104.27510100388527,80.21211738781929
2024-09-23 08:16:26.275775,41.31,5.631994,-0.0035318979854855937,-0.023927417309398437,0.09670458680871308,32.08287849390507,-104.27510100388527,80.21211738781929
2024-09-23 08:16:26.287200,41.31,5.631994,-0.0035318979854855937,-0.023927417309398437,0.09670458680871308,36.09446859390736,-100.26678939585686,76.200527287817
2024-09-23 08:16:26.321422,41.31,5.632045,-0.0035318979854855937,-0.023927417309398437,0.09670458680871308,36.09446859390736,-100.26678939585686,76.200527287817
2024-09-23 08:16:26.333818,41.31,5.632045,-0.0029349636958644295,-0.023778180888911878,0.0966050877605131,36.09446859390736,-96.25519929585457,76.200527287817
2024-09-23 08:16:26.378704,41.31,5.632096,-0.0029847020175114316,-0.02367869399252531,0.09715228999426605,36.09446859390736,-96.25519929585457,84.22370748782159
2024-09-23 08:16:26.422117,41.31,5.632189,-0.0029847020175114316,-0.02367869399252531,0.09715228999426605,36.09446859390736,-100.26678939585686,80.21211738781929
2024-09-23 08:16:26.433692,41.31,5.632189,-0.0031339382481259063,-0.02338022115155219,0.0973512698629459,36.09446859390736,-100.26678939585686,80.21211738781929
2024-09-23 08:16:26.476206,41.31,5.63224,-0.0028852147413806935,-0.02367869399252531,0.0973512698629459,36.09446859390736,-100.26678939585686,80.21211738781929
2024-09-23 08:16:26.518617,41.31,5.63224,-0.0028852147413806935,-0.02367869399252531,0.09685382322919964,36.09446859390736,-96.25519929585457,80.21211738781929
2024-09-23 08:16:26.529788,41.31,5.632291,-0.003382661564999035,-0.02367869399252531,0.09685382322919964,36.09446859390736,-96.25519929585457,84.22370748782159
2024-09-23 08:16:26.571656,41.31,5.632291,-0.003382661564999035,-0.023927417309398437,0.0973015264147526,28.07457030097246,-104.27510100388527,80.21211738781929
2024-09-23 08:16:26.583685,41.31,5.632383,-0.003382661564999035,-0.023927417309398437,0.0973015264147526,28.07457030097246,-104.27510100388527,80.21211738781929
2024-09-23 08:16:26.616962,41.31,5.632383,-0.0031836870127375577,-0.024026904205785005,0.09710254654607277,28.07457030097246,-104.27510100388527,80.21211738781929
2024-09-23 08:16:26.628684,41.31,5.632383,-0.0031836870127375577,-0.024026904205785005,0.09710254654607277,32.08287849390507,-92.24360919585227,80.21211738781929
2024-09-23 08:16:26.671033,41.31,5.632435,-0.0030344509719951677,-0.02397715620066169,0.0970030596496862,28.07457030097246,-100.26678939585686,80.21211738781929
2024-09-23 08:16:26.714220,41.31,5.632486,-0.0032831742888682963,-0.02397715620066169,0.0970030596496862,28.07457030097246,-100.26678939585686,84.22370748782159
2024-09-23 08:16:26.726100,41.31,5.632486,-0.0032831742888682963,-0.023827930413011865,0.09690356060148622,28.07457030097246,-100.26678939585686,84.22370748782159
2024-09-23 08:16:26.768637,41.31,5.632536,-0.003382661564999035,-0.023479709566915436,0.09690356060148622,28.07457030097246,-96.25519929585457,80.21211738781929
2024-09-23 08:16:26.811846,41.31,5.632536,-0.003382661564999035,-0.023479709566915436,0.09705279702197278,32.08287849390507,-92.24360919585227,80.21211738781929
2024-09-23 08:16:26.823314,41.31,5.632587,-0.002437506429281439,-0.023479709566915436,0.09705279702197278,32.08287849390507,-92.24360919585227,80.21211738781929
2024-09-23 08:16:26.866071,41.31,5.632638,-0.002437506429281439,-0.023728432883788564,0.09705279702197278,52.137550501942634,-104.27510100388527,76.200527287817
2024-09-23 08:16:26.908349,41.31,5.632638,-0.0031339382481259063,-0.024026904205785005,0.09705279702197278,52.137550501942634,-104.27510100388527,76.200527287817
2024-09-23 08:16:26.919285,41.31,5.632638,-0.0031339382481259063,-0.024026904205785005,0.09695331012558621,32.08287849390507,-88.23529758782387,76.200527287817
2024-09-23 08:16:26.961580,41.11,5.632725,-0.0030841997366068195,-0.02362894446842532,0.09675432418099966,40.106058693909645,-88.23529758782387,76.200527287817
2024-09-23 08:16:26.973680,41.11,5.632725,-0.0030841997366068195,-0.02362894446842532,0.09675432418099966,40.106058693909645,-96.25519929585457,76.200527287817
2024-09-23 08:16:27.006991,41.11,5.632776,-0.002636491424507565,-0.02362894446842532,0.09675432418099966,40.106058693909645,-96.25519929585457,80.21211738781929
2024-09-23 08:16:27.018745,41.11,5.632776,-0.002636491424507565,-0.024026904205785005,0.09710254654607277,40.106058693909645,-96.25519929585457,80.21211738781929
2024-09-23 08:16:27.061328,41.11,5.632827,-0.0035318979854855937,-0.023181236725942318,0.09710254654607277,40.106058693909645,-96.25519929585457,80.21211738781929
2024-09-23 08:16:27.103908,41.11,5.632827,-0.0035318979854855937,-0.023181236725942318,0.09710254654607277,36.09446859390736,-96.25519929585457,80.21211738781929
2024-09-23 08:16:27.115490,41.11,5.632878,-0.0034324103296106863,-0.023479709566915436,0.09710254654607277,36.09446859390736,-96.25519929585457,80.21211738781929
2024-09-23 08:16:27.161597,41.11,5.632928,-0.0029847020175114316,-0.023479709566915436,0.09745075675933246,44.11764879391193,-100.26678939585686,80.21211738781929
2024-09-23 08:16:27.203549,41.11,5.632928,-0.0029847020175114316,-0.024076653729884996,0.09645586349183995,40.106058693909645,-100.26678939585686,80.21211738781929
2024-09-23 08:16:27.216395,41.11,5.633017,-0.0029847020175114316,-0.024076653729884996,0.09645586349183995,40.106058693909645,-100.26678939585686,80.21211738781929
2024-09-23 08:16:27.248464,41.11,5.633017,-0.0031339382481259063,-0.024076653729884996,0.09645586349183995,40.106058693909645,-100.26678939585686,80.21211738781929
2024-09-23 08:16:27.259828,41.11,5.633017,-0.0031339382481259063,-0.024225890150371555,0.09655535038822652,32.08287849390507,-96.25519929585457,76.200527287817
2024-09-23 08:16:27.302089,41.11,5.633069,-0.0035816467500972456,-0.023330473146428877,0.09690356060148622,44.11764879391193,-96.25519929585457,76.200527287817
2024-09-23 08:16:27.313998,41.11,5.633069,-0.0035816467500972456,-0.023330473146428877,0.09690356060148622,44.11764879391193,-92.24360919585227,76.200527287817
2024-09-23 08:16:27.345997,41.11,5.633119,-0.0035816467500972456,-0.023330473146428877,0.09690356060148622,44.11764879391193,-92.24360919585227,80.21211738781929
2024-09-23 08:16:27.357232,41.11,5.633119,-0.0031836870127375577,-0.024076653729884996,0.09650560086412653,24.06297849342227,-92.24360919585227,80.21211738781929
2024-09-23 08:16:27.400363,41.11,5.63317,-0.0028852147413806935,-0.023479709566915436,0.09650560086412653,24.06297849342227,-96.25519929585457,84.22370748782159
2024-09-23 08:16:27.412427,41.11,5.63317,-0.0028852147413806935,-0.023479709566915436,0.09675432418099966,24.06297849342227,-96.25519929585457,84.22370748782159
2024-09-23 08:16:27.444302,41.11,5.63317,-0.0028852147413806935,-0.023479709566915436,0.09675432418099966,20.05138839341998,-104.27510100388527,84.22370748782159
2024-09-23 08:16:27.455370,41.11,5.633221,-0.0030841997366068195,-0.02412639262114825,0.09675432418099966,20.05138839341998,-104.27510100388527,80.21211738781929
2024-09-23 08:16:27.498886,41.11,5.633271,-0.0030841997366068195,-0.02412639262114825,0.09665483728461309,28.07457030097246,-100.26678939585686,80.21211738781929
2024-09-23 08:16:27.510394,41.11,5.633271,-0.003482159473966507,-0.02412639262114825,0.09665483728461309,28.07457030097246,-100.26678939585686,80.21211738781929
2024-09-23 08:16:27.542121,41.11,5.633271,-0.003482159473966507,-0.024673597892854556,0.09680407370509965,28.07457030097246,-100.26678939585686,80.21211738781929
2024-09-23 08:16:27.553117,41.11,5.633358,-0.003482159473966507,-0.024673597892854556,0.09680407370509965,32.08287849390507,-104.27510100388527,76.200527287817
2024-09-23 08:16:27.595164,41.11,5.633358,-0.0033329230534799477,-0.024673597892854556,0.09680407370509965,32.08287849390507,-104.27510100388527,76.200527287817
2024-09-23 08:16:27.638442,41.11,5.633358,-0.0033329230534799477,-0.02397715620066169,0.09680407370509965,32.08287849390507,-104.27510100388527,76.200527287817
2024-09-23 08:16:27.649856,41.11,5.63341,-0.0033329230534799477,-0.02397715620066169,0.09715228999426605,36.09446859390736,-96.25519929585457,80.21211738781929
2024-09-23 08:16:27.693045,41.11,5.63341,-0.0028852147413806935,-0.02362894446842532,0.0973512698629459,40.106058693909645,-96.25519929585457,80.21211738781929
2024-09-23 08:16:27.704960,41.11,5.63341,-0.0028852147413806935,-0.02362894446842532,0.0973512698629459,40.106058693909645,-96.25519929585457,84.22370748782159
2024-09-23 08:16:27.738309,41.11,5.633461,-0.0032831742888682963,-0.02338022115155219,0.0973512698629459,40.106058693909645,-96.25519929585457,84.22370748782159
2024-09-23 08:16:27.750013,41.11,5.633461,-0.0032831742888682963,-0.02338022115155219,0.09750050628343246,44.11764879391193,-100.26678939585686,84.22370748782159
2024-09-23 08:16:27.782717,41.11,5.633461,-0.0032831742888682963,-0.02338022115155219,0.09750050628343246,44.11764879391193,-100.26678939585686,88.23529758782387
2024-09-23 08:16:27.794492,41.11,5.633511,-0.0028852147413806935,-0.024275627522658133,0.09670458680871308,40.106058693909645,-100.26678939585686,88.23529758782387
2024-09-23 08:16:27.836159,41.11,5.633562,-0.0033329230534799477,-0.024275627522658133,0.09670458680871308,40.106058693909645,-92.24360919585227,84.22370748782159
2024-09-23 08:16:27.849842,41.11,5.633562,-0.0033329230534799477,-0.024176140626271565,0.09690356060148622,40.106058693909645,-92.24360919585227,84.22370748782159
2024-09-23 08:16:27.882112,41.11,5.633562,-0.0033329230534799477,-0.024176140626271565,0.09690356060148622,40.106058693909645,-92.24360919585227,84.22370748782159
2024-09-23 08:16:27.893105,41.11,5.633653,-0.0032831742888682963,-0.023579196463302005,0.09690356060148622,40.106058693909645,-96.25519929585457,84.22370748782159
2024-09-23 08:16:27.935610,41.11,5.633653,-0.0032831742888682963,-0.023579196463302005,0.09650560086412653,36.09446859390736,-100.26678939585686,80.21211738781929
2024-09-23 08:16:27.948485,41.11,5.633704,-0.0037308827908396356,-0.023579196463302005,0.09650560086412653,36.09446859390736,-100.26678939585686,80.21211738781929
2024-09-23 08:16:27.981064,41.42,5.633704,-0.0037308827908396356,-0.02362894446842532,0.09650560086412653,36.09446859390736,-100.26678939585686,80.21211738781929
2024-09-23 08:16:27.992937,41.42,5.633797,-0.0037308827908396356,-0.02362894446842532,0.09650560086412653,52.137550501942634,-92.24360919585227,80.21211738781929
2024-09-23 08:16:28.035859,41.42,5.633797,-0.0035318979854855937,-0.023877669304275123,0.09690356060148622,36.09446859390736,-96.25519929585457,80.21211738781929
2024-09-23 08:16:28.078002,41.42,5.633849,-0.0031836870127375577,-0.023877669304275123,0.09690356060148622,36.09446859390736,-96.25519929585457,80.21211738781929
2024-09-23 08:16:28.089625,41.42,5.633849,-0.0031836870127375577,-0.02367869399252531,0.09745075675933246,36.09446859390736,-96.25519929585457,80.21211738781929
2024-09-23 08:16:28.132431,41.42,5.633899,-0.0035816467500972456,-0.02397715620066169,0.09710254654607277,36.09446859390736,-96.25519929585457,88.23529758782387
2024-09-23 08:16:28.175109,41.42,5.633899,-0.0035816467500972456,-0.02397715620066169,0.09710254654607277,36.09446859390736,-92.24360919585227,84.22370748782159
2024-09-23 08:16:28.186661,41.42,5.63395,-0.0035816467500972456,-0.0228827638849692,0.09665483728461309,36.09446859390736,-92.24360919585227,84.22370748782159
2024-09-23 08:16:28.229050,41.42,5.634001,-0.0032831742888682963,-0.0228827638849692,0.09665483728461309,40.106058693909645,-96.25519929585457,76.200527287817
2024-09-23 08:16:28.240573,41.42,5.634001,-0.0032831742888682963,-0.024076653729884996,0.09665483728461309,40.106058693909645,-96.25519929585457,76.200527287817
2024-09-23 08:16:28.272327,41.42,5.634001,-0.0032831742888682963,-0.024076653729884996,0.09670458680871308,40.106058693909645,-96.25519929585457,76.200527287817
2024-09-23 08:16:28.284124,41.42,5.634051,-0.0028354659767690416,-0.024076653729884996,0.09670458680871308,40.106058693909645,-96.25519929585457,80.21211738781929
2024-09-23 08:16:28.326491,41.42,5.634051,-0.0028354659767690416,-0.024176140626271565,0.0973015264147526,40.106058693909645,-100.26678939585686,80.21211738781929
2024-09-23 08:16:28.338709,41.42,5.634138,-0.0028354659767690416,-0.024176140626271565,0.0973015264147526,40.106058693909645,-100.26678939585686,80.21211738781929
2024-09-23 08:16:28.371013,41.42,5.634138,-0.0029847020175114316,-0.024076653729884996,0.0973015264147526,40.106058693909645,-100.26678939585686,80.21211738781929
2024-09-23 08:16:28.382880,41.42,5.634138,-0.0029847020175114316,-0.024076653729884996,0.0973512698629459,48.12595698684454,-104.27510100388527,80.21211738781929
2024-09-23 08:16:28.425883,41.42,5.63419,-0.0033329230534799477,-0.02362894446842532,0.09705279702197278,40.106058693909645,-104.27510100388527,80.21211738781929
2024-09-23 08:16:28.468408,41.42,5.63424,-0.0031339382481259063,-0.02362894446842532,0.09705279702197278,40.106058693909645,-104.27510100388527,80.21211738781929
2024-09-23 08:16:28.479676,41.42,5.63424,-0.0031339382481259063,-0.023927417309398437,0.0970030596496862,28.07457030097246,-104.27510100388527,80.21211738781929
2024-09-23 08:16:28.522676,41.42,5.634291,-0.0032831742888682963,-0.023579196463302005,0.0970030596496862,28.07457030097246,-104.27510100388527,76.200527287817
2024-09-23 08:16:28.534185,41.42,5.634291,-0.0032831742888682963,-0.023579196463302005,0.09720203344245934,28.07457030097246,-104.27510100388527,76.200527287817
2024-09-23 08:16:28.566855,41.42,5.634291,-0.0032831742888682963,-0.023579196463302005,0.09720203344245934,32.08287849390507,-108.28669110388756,72.1922225099802
2024-09-23 08:16:28.578643,41.42,5.634342,-0.0030344509719951677,-0.023429960042815445,0.09720203344245934,32.08287849390507,-108.28669110388756,72.1922225099802
2024-09-23 08:16:28.621884,41.42,5.634393,-0.0033329230534799477,-0.023429960042815445,0.09710254654607277,40.106058693909645,-104.27510100388527,76.200527287817
2024-09-23 08:16:28.664068,41.42,5.634393,-0.0033329230534799477,-0.023778180888911878,0.09645586349183995,40.106058693909645,-104.27510100388527,76.200527287817
2024-09-23 08:16:28.675800,41.42,5.634393,-0.0033329230534799477,-0.023778180888911878,0.09645586349183995,40.106058693909645,-96.25519929585457,76.200527287817
2024-09-23 08:16:28.718431,41.42,5.63448,-0.003780631555451287,-0.024076653729884996,0.09755024973162574,36.09446859390736,-96.25519929585457,76.200527287817
2024-09-23 08:16:28.761965,41.42,5.634531,-0.003780631555451287,-0.024076653729884996,0.09755024973162574,36.09446859390736,-100.26678939585686,72.1922225099802
2024-09-23 08:16:28.773447,41.42,5.634531,-0.0030841997366068195,-0.023579196463302005,0.09665483728461309,36.09446859390736,-100.26678939585686,72.1922225099802
2024-09-23 08:16:28.816262,41.42,5.634582,-0.003780631555451287,-0.023728432883788564,0.09665483728461309,32.08287849390507,-96.25519929585457,76.200527287817
2024-09-23 08:16:28.859344,41.42,5.634582,-0.003780631555451287,-0.023728432883788564,0.09715228999426605,40.106058693909645,-96.25519929585457,76.200527287817
2024-09-23 08:16:28.870852,41.42,5.634632,-0.0029349636958644295,-0.023728432883788564,0.09715228999426605,40.106058693909645,-96.25519929585457,80.21211738781929
2024-09-23 08:16:28.913774,41.42,5.634683,-0.0029349636958644295,-0.02397715620066169,0.09690356060148622,40.106058693909645,-108.28669110388756,84.22370748782159
2024-09-23 08:16:28.956848,41.42,5.634683,-0.0031836870127375577,-0.023330473146428877,0.0973015264147526,40.106058693909645,-108.28669110388756,84.22370748782159
2024-09-23 08:16:28.968596,41.42,5.634683,-0.0031836870127375577,-0.023330473146428877,0.0973015264147526,36.09446859390736,-100.26678939585686,76.200527287817
2024-09-23 08:16:29.002154,41.83,5.634773,-0.0031836870127375577,-0.023330473146428877,0.0973015264147526,36.09446859390736,-100.26678939585686,76.200527287817
2024-09-23 08:16:29.014165,41.83,5.634773,-0.0029847020175114316,-0.023827930413011865,0.09670458680871308,32.08287849390507,-104.27510100388527,76.200527287817
2024-09-23 08:16:29.057327,41.83,5.634824,-0.003382661564999035,-0.023778180888911878,0.09705279702197278,32.08287849390507,-104.27510100388527,80.21211738781929
2024-09-23 08:16:29.069128,41.83,5.634824,-0.003382661564999035,-0.023778180888911878,0.09705279702197278,32.08287849390507,-104.27510100388527,80.21211738781929
2024-09-23 08:16:29.101426,41.83,5.634824,-0.003382661564999035,-0.023778180888911878,0.09705279702197278,32.08287849390507,-100.26678939585686,80.21211738781929
2024-09-23 08:16:29.113208,41.83,5.634875,-0.0031339382481259063,-0.02397715620066169,0.09710254654607277,32.08287849390507,-100.26678939585686,80.21211738781929
2024-09-23 08:16:29.155959,41.83,5.634925,-0.0030841997366068195,-0.023927417309398437,0.09710254654607277,40.106058693909645,-100.26678939585686,76.200527287817
2024-09-23 08:16:29.198579,41.83,5.634925,-0.0030841997366068195,-0.023927417309398437,0.09685382322919964,44.11764879391193,-100.26678939585686,76.200527287817
2024-09-23 08:16:29.210728,41.83,5.634976,-0.0038303700669703737,-0.023927417309398437,0.09685382322919964,44.11764879391193,-92.24360919585227,76.200527287817
2024-09-23 08:16:29.254334,41.83,5.634976,-0.0038303700669703737,-0.024026904205785005,0.09695331012558621,36.09446859390736,-96.25519929585457,76.200527287817
2024-09-23 08:16:29.266333,41.83,5.635065,-0.0038303700669703737,-0.024026904205785005,0.09695331012558621,36.09446859390736,-96.25519929585457,76.200527287817
2024-09-23 08:16:29.298113,41.83,5.635065,-0.0032831742888682963,-0.023827930413011865,0.09670458680871308,36.09446859390736,-96.25519929585457,76.200527287817
2024-09-23 08:16:29.309724,41.83,5.635065,-0.0032831742888682963,-0.023827930413011865,0.09670458680871308,36.09446859390736,-92.24360919585227,84.22370748782159
2024-09-23 08:16:29.353211,41.83,5.635116,-0.0031836870127375577,-0.023728432883788564,0.09745075675933246,40.106058693909645,-96.25519929585457,84.22370748782159
2024-09-23 08:16:29.395203,41.83,5.635167,-0.002785727465249955,-0.023728432883788564,0.09745075675933246,40.106058693909645,-96.25519929585457,76.200527287817
2024-09-23 08:16:29.406270,41.83,5.635167,-0.002785727465249955,-0.02352945757203875,0.09645586349183995,36.09446859390736,-96.25519929585457,76.200527287817
2024-09-23 08:16:29.450023,41.83,5.635217,-0.003482159473966507,-0.023827930413011865,0.09635636444363997,36.09446859390736,-96.25519929585457,84.22370748782159
2024-09-23 08:16:29.493392,41.83,5.635217,-0.003482159473966507,-0.023827930413011865,0.09635636444363997,28.07457030097246,-96.25519929585457,84.22370748782159
2024-09-23 08:16:29.504752,41.83,5.635268,-0.0029349636958644295,-0.023479709566915436,0.09635636444363997,28.07457030097246,-96.25519929585457,84.22370748782159
2024-09-23 08:16:29.547671,41.83,5.635319,-0.0032831742888682963,-0.023479709566915436,0.09655535038822652,36.09446859390736,-96.25519929585457,80.21211738781929
2024-09-23 08:16:29.590005,41.83,5.635319,-0.0032831742888682963,-0.02397715620066169,0.09685382322919964,32.08287849390507,-96.25519929585457,80.21211738781929
2024-09-23 08:16:29.601836,41.83,5.635406,-0.0032831742888682963,-0.02397715620066169,0.09685382322919964,32.08287849390507,-96.25519929585457,76.200527287817
2024-09-23 08:16:29.685932,41.83,5.635406,-0.0035318979854855937,-0.023728432883788564,0.09685382322919964,32.08287849390507,-96.25519929585457,76.200527287817
2024-09-23 08:16:29.697947,41.83,5.635406,-0.0035318979854855937,-0.023728432883788564,0.09745075675933246,32.08287849390507,-96.25519929585457,76.200527287817
2024-09-23 08:16:29.740833,41.83,5.635457,-0.0033329230534799477,-0.023728432883788564,0.09745075675933246,44.11764879391193,-92.24360919585227,84.22370748782159
2024-09-23 08:16:29.752621,41.83,5.635457,-0.0033329230534799477,-0.023728432883788564,0.09745075675933246,44.11764879391193,-92.24360919585227,84.22370748782159
2024-09-23 08:16:29.784709,41.83,5.635457,-0.0033329230534799477,-0.023728432883788564,0.09650560086412653,40.106058693909645,-92.24360919585227,84.22370748782159
2024-09-23 08:16:29.837686,41.83,5.635508,-0.002636491424507565,-0.02338022115155219,0.09650560086412653,40.106058693909645,-92.24360919585227,76.200527287817
2024-09-23 08:16:29.849886,41.83,5.635508,-0.002636491424507565,-0.02338022115155219,0.09635636444363997,40.106058693909645,-92.24360919585227,76.200527287817
2024-09-23 08:16:29.881814,41.83,5.635508,-0.002636491424507565,-0.02338022115155219,0.09635636444363997,44.11764879391193,-92.24360919585227,76.200527287817
2024-09-23 08:16:29.892874,41.83,5.635559,-0.003382661564999035,-0.024076653729884996,0.09635636444363997,44.11764879391193,-92.24360919585227,76.200527287817
2024-09-23 08:16:29.935671,41.83,5.635609,-0.003382661564999035,-0.024076653729884996,0.09710254654607277,44.11764879391193,-96.25519929585457,80.21211738781929
2024-09-23 08:16:29.947439,41.83,5.635609,-0.0026862297461545674,-0.024076653729884996,0.09710254654607277,44.11764879391193,-96.25519929585457,80.21211738781929
2024-09-23 08:16:29.979757,41.83,5.635609,-0.0026862297461545674,-0.023927417309398437,0.09740101331113918,44.11764879391193,-96.25519929585457,80.21211738781929
2024-09-23 08:16:29.990786,41.83,5.635748,-0.0026862297461545674,-0.023927417309398437,0.09740101331113918,36.09446859390736,-104.27510100388527,80.21211738781929
2024-09-23 08:16:30.033455,41.51,5.635748,-0.0035318979854855937,-0.024026904205785005,0.09680407370509965,36.09446859390736,-100.26678939585686,80.21211738781929
2024-09-23 08:16:30.045648,41.51,5.635748,-0.0035318979854855937,-0.024026904205785005,0.09680407370509965,36.09446859390736,-100.26678939585686,80.21211738781929
2024-09-23 08:16:30.077057,41.51,5.635845,-0.003482159473966507,-0.024026904205785005,0.09680407370509965,36.09446859390736,-100.26678939585686,80.21211738781929
2024-09-23 08:16:30.088490,41.51,5.635845,-0.003482159473966507,-0.023728432883788564,0.09670458680871308,28.07457030097246,-96.25519929585457,80.21211738781929
2024-09-23 08:16:30.131268,41.51,5.635897,-0.0031339382481259063,-0.023429960042815445,0.09715228999426605,40.106058693909645,-96.25519929585457,80.21211738781929
2024-09-23 08:16:30.174546,41.51,5.635897,-0.0031339382481259063,-0.023429960042815445,0.09715228999426605,40.106058693909645,-96.25519929585457,84.22370748782159
2024-09-23 08:16:30.185629,41.51,5.635947,-0.003482159473966507,-0.02362894446842532,0.09665483728461309,40.106058693909645,-96.25519929585457,84.22370748782159
2024-09-23 08:16:30.229362,41.51,5.635998,-0.0031836870127375577,-0.023579196463302005,0.09665483728461309,40.106058693909645,-96.25519929585457,80.21211738781929
2024-09-23 08:16:30.271782,41.51,5.635998,-0.0031836870127375577,-0.023579196463302005,0.09774922960030558,40.106058693909645,-96.25519929585457,80.21211738781929
2024-09-23 08:16:30.283714,41.51,5.636049,-0.003482159473966507,-0.023579196463302005,0.09774922960030558,40.106058693909645,-104.27510100388527,80.21211738781929
2024-09-23 08:16:30.325840,41.51,5.636049,-0.003482159473966507,-0.024225890150371555,0.09705279702197278,40.106058693909645,-100.26678939585686,76.200527287817
2024-09-23 08:16:30.340858,41.51,5.636137,-0.003482159473966507,-0.024225890150371555,0.09705279702197278,40.106058693909645,-100.26678939585686,76.200527287817
2024-09-23 08:16:30.374129,41.51,5.636137,-0.0028354659767690416,-0.023877669304275123,0.09690356060148622,40.106058693909645,-104.27510100388527,76.200527287817
2024-09-23 08:16:30.385803,41.51,5.636137,-0.0028354659767690416,-0.023877669304275123,0.09690356060148622,40.106058693909645,-104.27510100388527,72.1922225099802
2024-09-23 08:16:30.417985,41.51,5.636189,-0.0028852147413806935,-0.023877669304275123,0.09690356060148622,40.106058693909645,-104.27510100388527,72.1922225099802
2024-09-23 08:16:30.429454,41.51,5.636189,-0.0028852147413806935,-0.024225890150371555,0.09680407370509965,40.106058693909645,-104.27510100388527,72.1922225099802
2024-09-23 08:16:30.473602,41.51,5.636239,-0.003482159473966507,-0.023778180888911878,0.09715228999426605,40.106058693909645,-104.27510100388527,80.21211738781929
2024-09-23 08:16:30.517122,41.51,5.63629,-0.003482159473966507,-0.023778180888911878,0.09715228999426605,40.106058693909645,-100.26678939585686,84.22370748782159
2024-09-23 08:16:30.528552,41.51,5.63629,-0.0028354659767690416,-0.02352945757203875,0.09720203344245934,40.106058693909645,-100.26678939585686,84.22370748782159
2024-09-23 08:16:30.572412,41.51,5.636341,-0.003382661564999035,-0.024076653729884996,0.09720203344245934,36.09446859390736,-108.28669110388756,72.1922225099802
2024-09-23 08:16:30.615535,41.51,5.636341,-0.003382661564999035,-0.024076653729884996,0.09705279702197278,40.106058693909645,-100.26678939585686,72.1922225099802
2024-09-23 08:16:30.627352,41.51,5.636391,-0.003382661564999035,-0.024076653729884996,0.09705279702197278,40.106058693909645,-100.26678939585686,80.21211738781929
2024-09-23 08:16:30.659064,41.51,5.636391,-0.003382661564999035,-0.023429960042815445,0.09705279702197278,40.106058693909645,-100.26678939585686,80.21211738781929
2024-09-23 08:16:30.670277,41.51,5.636478,-0.003382661564999035,-0.023429960042815445,0.09710254654607277,40.106058693909645,-96.25519929585457,76.200527287817
2024-09-23 08:16:30.712818,41.51,5.636478,-0.002785727465249955,-0.02362894446842532,0.09710254654607277,28.07457030097246,-96.25519929585457,76.200527287817
2024-09-23 08:16:30.724651,41.51,5.636478,-0.002785727465249955,-0.02362894446842532,0.09710254654607277,28.07457030097246,-100.26678939585686,76.200527287817
2024-09-23 08:16:30.757330,41.51,5.63653,-0.002785727465249955,-0.02362894446842532,0.09710254654607277,28.07457030097246,-100.26678939585686,76.200527287817
2024-09-23 08:16:30.769186,41.51,5.63653,-0.003482159473966507,-0.024325377046758124,0.09635636444363997,40.106058693909645,-96.25519929585457,76.200527287817
2024-09-23 08:16:30.811259,41.51,5.636581,-0.0036811340262279837,-0.023827930413011865,0.09635636444363997,40.106058693909645,-96.25519929585457,76.200527287817
2024-09-23 08:16:30.822989,41.51,5.636581,-0.0036811340262279837,-0.023827930413011865,0.09680407370509965,40.106058693909645,-96.25519929585457,76.200527287817
2024-09-23 08:16:30.855897,41.51,5.636581,-0.0036811340262279837,-0.023827930413011865,0.09680407370509965,40.106058693909645,-100.26678939585686,76.200527287817
2024-09-23 08:16:30.866900,41.51,5.636631,-0.0028354659767690416,-0.023330473146428877,0.0966050877605131,40.106058693909645,-100.26678939585686,80.21211738781929
2024-09-23 08:16:30.908677,41.51,5.636682,-0.0028354659767690416,-0.023330473146428877,0.0966050877605131,36.09446859390736,-104.27510100388527,76.200527287817
2024-09-23 08:16:30.919710,41.51,5.636682,-0.0031339382481259063,-0.02362894446842532,0.0966050877605131,36.09446859390736,-104.27510100388527,76.200527287817
2024-09-23 08:16:30.951905,41.51,5.636682,-0.0031339382481259063,-0.02362894446842532,0.09650560086412653,36.09446859390736,-104.27510100388527,76.200527287817
2024-09-23 08:16:30.963604,41.51,5.636733,-0.0038303700669703737,-0.02362894446842532,0.09650560086412653,44.11764879391193,-96.25519929585457,80.21211738781929
2024-09-23 08:16:31.006680,41.51,5.636733,-0.0038303700669703737,-0.02352945757203875,0.09710254654607277,32.08287849390507,-96.25519929585457,80.21211738781929
2024-09-23 08:16:31.017840,41.51,5.63682,-0.0038303700669703737,-0.02352945757203875,0.09710254654607277,32.08287849390507,-96.25519929585457,80.21211738781929
2024-09-23 08:16:31.049379,42.02,5.63682,-0.0031339382481259063,-0.02352945757203875,0.09710254654607277,32.08287849390507,-96.25519929585457,80.21211738781929
2024-09-23 08:16:31.060767,42.02,5.63682,-0.0031339382481259063,-0.02338022115155219,0.09655535038822652,28.07457030097246,-96.25519929585457,80.21211738781929
2024-09-23 08:16:31.103778,42.02,5.636871,-0.0030841997366068195,-0.023877669304275123,0.09695331012558621,28.07457030097246,-96.25519929585457,80.21211738781929
2024-09-23 08:16:31.115675,42.02,5.636871,-0.0030841997366068195,-0.023877669304275123,0.09695331012558621,40.106058693909645,-100.26678939585686,80.21211738781929
2024-09-23 08:16:31.149964,42.02,5.636922,-0.0030841997366068195,-0.023877669304275123,0.09695331012558621,40.106058693909645,-100.26678939585686,76.200527287817
2024-09-23 08:16:31.161784,42.02,5.636922,-0.0030344509719951677,-0.02412639262114825,0.09715228999426605,40.106058693909645,-100.26678939585686,76.200527287817
2024-09-23 08:16:31.205076,42.02,5.636973,-0.0030344509719951677,-0.024076653729884996,0.09710254654607277,40.106058693909645,-100.26678939585686,76.200527287817
2024-09-23 08:16:31.247591,42.02,5.636973,-0.0030344509719951677,-0.024076653729884996,0.09710254654607277,28.07457030097246,-104.27510100388527,80.21211738781929
2024-09-23 08:16:31.258650,42.02,5.637023,-0.0031836870127375577,-0.023827930413011865,0.09710254654607277,28.07457030097246,-104.27510100388527,80.21211738781929
2024-09-23 08:16:31.301305,42.02,5.637074,-0.0029349636958644295,-0.023827930413011865,0.09670458680871308,44.11764879391193,-104.27510100388527,68.18063240997792
2024-09-23 08:16:31.344445,42.02,5.637074,-0.0029349636958644295,-0.023827930413011865,0.09655535038822652,44.11764879391193,-104.27510100388527,68.18063240997792
2024-09-23 08:16:31.356254,42.02,5.637161,-0.0029349636958644295,-0.023827930413011865,0.09655535038822652,32.08287849390507,-92.24360919585227,84.22370748782159
2024-09-23 08:16:31.398099,42.02,5.637161,-0.0029349636958644295,-0.023778180888911878,0.09635636444363997,28.07457030097246,-96.25519929585457,84.22370748782159
2024-09-23 08:16:31.410170,42.02,5.637161,-0.0029349636958644295,-0.023778180888911878,0.09635636444363997,28.07457030097246,-96.25519929585457,80.21211738781929
2024-09-23 08:16:31.444200,42.02,5.637213,-0.003631395514708897,-0.023927417309398437,0.09635636444363997,28.07457030097246,-96.25519929585457,80.21211738781929
2024-09-23 08:16:31.455754,42.02,5.637213,-0.003631395514708897,-0.023927417309398437,0.0966050877605131,44.11764879391193,-100.26678939585686,80.21211738781929
2024-09-23 08:16:31.487750,42.02,5.637213,-0.003631395514708897,-0.023927417309398437,0.0966050877605131,44.11764879391193,-100.26678939585686,76.200527287817
2024-09-23 08:16:31.498715,42.02,5.637263,-0.0034324103296106863,-0.023778180888911878,0.09635636444363997,36.09446859390736,-100.26678939585686,76.200527287817
2024-09-23 08:16:31.540506,42.02,5.637314,-0.0034324103296106863,-0.023778180888911878,0.09635636444363997,36.09446859390736,-104.27510100388527,72.1922225099802
2024-09-23 08:16:31.552083,42.02,5.637314,-0.003382661564999035,-0.02412639262114825,0.09680407370509965,36.09446859390736,-104.27510100388527,72.1922225099802
2024-09-23 08:16:31.595110,42.02,5.637364,-0.003233425524256645,-0.023877669304275123,0.09680407370509965,24.06297849342227,-104.27510100388527,76.200527287817
2024-09-23 08:16:31.638281,42.02,5.637364,-0.003233425524256645,-0.023877669304275123,0.0970030596496862,32.08287849390507,-96.25519929585457,76.200527287817
2024-09-23 08:16:31.649984,42.02,5.637415,-0.003233425524256645,-0.023877669304275123,0.0970030596496862,32.08287849390507,-96.25519929585457,80.21211738781929
2024-09-23 08:16:31.784868,42.02,5.637415,-0.003233425524256645,-0.023827930413011865,0.09725178296655933,40.106058693909645,-96.25519929585457,80.21211738781929
2024-09-23 08:16:31.840679,42.02,5.637503,-0.0031836870127375577,-0.023728432883788564,0.09745075675933246,40.106058693909645,-104.27510100388527,84.22370748782159
2024-09-23 08:16:31.883970,42.02,5.637554,-0.0031836870127375577,-0.023728432883788564,0.09745075675933246,40.106058693909645,-100.26678939585686,80.21211738781929
2024-09-23 08:16:31.895167,42.02,5.637554,-0.0032831742888682963,-0.023728432883788564,0.09745075675933246,40.106058693909645,-100.26678939585686,80.21211738781929
2024-09-23 08:16:31.928874,42.02,5.637554,-0.0032831742888682963,-0.023728432883788564,0.09685382322919964,40.106058693909645,-100.26678939585686,80.21211738781929
2024-09-23 08:16:31.940089,42.02,5.637605,-0.002636491424507565,-0.023728432883788564,0.09685382322919964,28.07457030097246,-100.26678939585686,84.22370748782159
2024-09-23 08:16:31.983007,42.02,5.637605,-0.002636491424507565,-0.024176140626271565,0.09690356060148622,36.09446859390736,-96.25519929585457,80.21211738781929
2024-09-23 08:16:31.994376,42.02,5.637656,-0.002636491424507565,-0.024176140626271565,0.09690356060148622,36.09446859390736,-96.25519929585457,80.21211738781929
2024-09-23 08:16:32.026000,42.02,5.637656,-0.0031836870127375577,-0.023330473146428877,0.09690356060148622,36.09446859390736,-96.25519929585457,80.21211738781929
2024-09-23 08:16:32.037464,42.02,5.637656,-0.0031836870127375577,-0.023330473146428877,0.09720203344245934,40.106058693909645,-96.25519929585457,84.22370748782159
2024-09-23 08:16:32.080210,41.92,5.637844,-0.0028354659767690416,-0.02397715620066169,0.09750050628343246,40.106058693909645,-96.25519929585457,84.22370748782159
2024-09-23 08:16:32.092400,41.92,5.637844,-0.0028354659767690416,-0.02397715620066169,0.09750050628343246,40.106058693909645,-100.26678939585686,84.22370748782159
2024-09-23 08:16:32.124565,41.92,5.637895,-0.0028354659767690416,-0.02397715620066169,0.09750050628343246,40.106058693909645,-100.26678939585686,84.22370748782159
2024-09-23 08:16:32.135668,41.92,5.637895,-0.0031339382481259063,-0.023778180888911878,0.0973015264147526,40.106058693909645,-100.26678939585686,84.22370748782159
2024-09-23 08:16:32.179057,41.92,5.637946,-0.0030841997366068195,-0.023579196463302005,0.09710254654607277,40.106058693909645,-92.24360919585227,80.21211738781929
2024-09-23 08:16:32.221418,41.92,5.637946,-0.0030841997366068195,-0.023579196463302005,0.09710254654607277,32.08287849390507,-92.24360919585227,80.21211738781929
2024-09-23 08:16:32.232942,41.92,5.637997,-0.003482159473966507,-0.02397715620066169,0.09710254654607277,32.08287849390507,-92.24360919585227,84.22370748782159
2024-09-23 08:16:32.275525,41.92,5.638047,-0.003482159473966507,-0.02397715620066169,0.0970030596496862,32.08287849390507,-88.23529758782387,84.22370748782159
2024-09-23 08:16:32.287480,41.92,5.638047,-0.0029847020175114316,-0.02397715620066169,0.0970030596496862,32.08287849390507,-88.23529758782387,84.22370748782159
2024-09-23 08:16:32.319461,41.92,5.638047,-0.0029847020175114316,-0.023479709566915436,0.09720203344245934,32.08287849390507,-88.23529758782387,84.22370748782159
2024-09-23 08:16:32.372203,41.92,5.638136,-0.0038801188315820256,-0.023479709566915436,0.09720203344245934,40.106058693909645,-88.23529758782387,84.22370748782159
2024-09-23 08:16:32.384153,41.92,5.638136,-0.0038801188315820256,-0.024375126570858115,0.09720203344245934,40.106058693909645,-88.23529758782387,84.22370748782159
2024-09-23 08:16:32.417093,41.92,5.638136,-0.0038801188315820256,-0.024375126570858115,0.09690356060148622,40.106058693909645,-88.23529758782387,84.22370748782159
2024-09-23 08:16:32.429014,41.92,5.638188,-0.0027359787006383035,-0.024375126570858115,0.09690356060148622,40.106058693909645,-100.26678939585686,76.200527287817
2024-09-23 08:16:32.472469,41.92,5.638238,-0.0027359787006383035,-0.023728432883788564,0.09695331012558621,44.11764879391193,-100.26678939585686,76.200527287817
2024-09-23 08:16:32.515058,41.92,5.638238,-0.003780631555451287,-0.024076653729884996,0.09665483728461309,44.11764879391193,-100.26678939585686,76.200527287817
2024-09-23 08:16:32.527248,41.92,5.638238,-0.003780631555451287,-0.024076653729884996,0.09665483728461309,44.11764879391193,-104.27510100388527,88.23529758782387
2024-09-23 08:16:32.570421,41.92,5.638289,-0.0029847020175114316,-0.024076653729884996,0.09665483728461309,44.11764879391193,-104.27510100388527,88.23529758782387
2024-09-23 08:16:32.612426,41.92,5.638289,-0.0029847020175114316,-0.023877669304275123,0.09710254654607277,44.11764879391193,-104.27510100388527,88.23529758782387
2024-09-23 08:16:32.623888,41.92,5.638381,-0.0029847020175114316,-0.023877669304275123,0.09710254654607277,36.09446859390736,-100.26678939585686,76.200527287817
2024-09-23 08:16:32.667252,41.92,5.638381,-0.003382661564999035,-0.024076653729884996,0.09690356060148622,40.106058693909645,-100.26678939585686,76.200527287817
2024-09-23 08:16:32.760946,41.92,5.638432,-0.0029847020175114316,-0.024076653729884996,0.09690356060148622,40.106058693909645,-100.26678939585686,76.200527287817
2024-09-23 08:16:32.814828,41.92,5.638483,-0.0029847020175114316,-0.023429960042815445,0.09715228999426605,40.106058693909645,-96.25519929585457,76.200527287817
2024-09-23 08:16:32.857150,41.92,5.638483,-0.0031339382481259063,-0.024176140626271565,0.09635636444363997,40.106058693909645,-96.25519929585457,76.200527287817
2024-09-23 08:16:32.868728,41.92,5.638483,-0.0031339382481259063,-0.024176140626271565,0.09635636444363997,36.09446859390736,-88.23529758782387,80.21211738781929
2024-09-23 08:16:32.912377,41.92,5.638533,-0.003233425524256645,-0.023877669304275123,0.0970030596496862,44.11764879391193,-100.26678939585686,80.21211738781929
2024-09-23 08:16:32.954569,41.92,5.638533,-0.003233425524256645,-0.023877669304275123,0.0970030596496862,44.11764879391193,-100.26678939585686,76.200527287817
2024-09-23 08:16:33.007363,41.92,5.638626,-0.003233425524256645,-0.023877669304275123,0.0970030596496862,44.11764879391193,-100.26678939585686,76.200527287817
2024-09-23 08:16:33.050531,41.92,5.638626,-0.003482159473966507,-0.02352945757203875,0.0970030596496862,44.11764879391193,-100.26678939585686,76.200527287817
2024-09-23 08:16:33.061980,41.92,5.638626,-0.003482159473966507,-0.02352945757203875,0.09675432418099966,36.09446859390736,-100.26678939585686,80.21211738781929
2024-09-23 08:16:33.104882,41.89,5.638676,-0.002636491424507565,-0.02397715620066169,0.0973512698629459,48.12595698684454,-100.26678939585686,80.21211738781929
2024-09-23 08:16:33.117103,41.89,5.638676,-0.002636491424507565,-0.02397715620066169,0.0973512698629459,48.12595698684454,-92.24360919585227,80.21211738781929
2024-09-23 08:16:33.149878,41.89,5.638821,-0.0032831742888682963,-0.02397715620066169,0.0973512698629459,48.12595698684454,-92.24360919585227,76.200527287817
2024-09-23 08:16:33.161175,41.89,5.638821,-0.0032831742888682963,-0.023927417309398437,0.09685382322919964,40.106058693909645,-92.24360919585227,76.200527287817
2024-09-23 08:16:33.203972,41.89,5.638871,-0.003233425524256645,-0.023778180888911878,0.09685382322919964,40.106058693909645,-100.26678939585686,76.200527287817
2024-09-23 08:16:33.246519,41.89,5.638871,-0.003233425524256645,-0.023778180888911878,0.09685382322919964,40.106058693909645,-104.27510100388527,80.21211738781929
2024-09-23 08:16:33.257710,41.89,5.638965,-0.0028852147413806935,-0.024076653729884996,0.09685382322919964,40.106058693909645,-104.27510100388527,80.21211738781929
2024-09-23 08:16:33.301667,41.89,5.639065,-0.0031836870127375577,-0.024076653729884996,0.09720203344245934,36.09446859390736,-96.25519929585457,76.200527287817
2024-09-23 08:16:33.344883,41.89,5.639065,-0.0031836870127375577,-0.02352945757203875,0.09685382322919964,36.09446859390736,-96.25519929585457,76.200527287817
