Ayaan's Suite
Timestamp,Sample Rate (Hz),Time,Ax,Ay,Az,Gx,Gy,Gz
2024-09-23 08:53:12.085722,0,7.837882,-0.0030344509719951677,-0.023579196463302005,0.09745075675933246,44.11764879391193,-96.25519929585457,80.21211738781929
2024-09-23 08:53:12.118072,0,7.837882,-0.0030344509719951677,-0.023778180888911878,0.09710254654607277,40.106058693909645,-92.24360919585227,80.21211738781929
2024-09-23 08:53:12.129559,0,7.837933,-0.0030344509719951677,-0.023778180888911878,0.09710254654607277,40.106058693909645,-92.24360919585227,80.21211738781929
2024-09-23 08:53:12.162393,0,7.837933,-0.0035318979854855937,-0.023778180888911878,0.09710254654607277,40.106058693909645,-92.24360919585227,80.21211738781929
2024-09-23 08:53:12.173593,0,7.837933,-0.0035318979854855937,-0.024225890150371555,0.09695331012558621,40.106058693909645,-96.25519929585457,84.22370748782159
2024-09-23 08:53:12.215259,0,7.838029,-0.0033329230534799477,-0.024225890150371555,0.09695331012558621,40.106058693909645,-96.25519929585457,84.22370748782159
2024-09-23 08:53:12.227391,0,7.838029,-0.0033329230534799477,-0.024225890150371555,0.0973512698629459,36.09446859390736,-96.25519929585457,84.22370748782159
2024-09-23 08:53:12.259039,0,7.838029,-0.0033329230534799477,-0.024225890150371555,0.0973512698629459,36.09446859390736,-96.25519929585457,80.21211738781929
2024-09-23 08:53:12.270610,0,7.83808,-0.0032831742888682963,-0.023579196463302005,0.09774922960030558,40.106058693909645,-96.25519929585457,80.21211738781929
2024-09-23 08:53:12.313014,0,7.838131,-0.0033329230534799477,-0.023579196463302005,0.09774922960030558,40.106058693909645,-108.28669110388756,72.1922225099802
2024-09-23 08:53:12.324568,0,7.838131,-0.0033329230534799477,-0.023579196463302005,0.09695331012558621,40.106058693909645,-108.28669110388756,72.1922225099802
2024-09-23 08:53:12.356768,0,7.838131,-0.0033329230534799477,-0.023579196463302005,0.09695331012558621,36.09446859390736,-108.28669110388756,72.1922225099802
2024-09-23 08:53:12.368474,0,7.838182,-0.002785727465249955,-0.023479709566915436,0.09695331012558621,36.09446859390736,-100.26678939585686,80.21211738781929
2024-09-23 08:53:12.410352,0,7.838182,-0.002785727465249955,-0.023479709566915436,0.09705279702197278,40.106058693909645,-92.24360919585227,76.200527287817
2024-09-23 08:53:12.421834,0,7.838232,-0.0033329230534799477,-0.023479709566915436,0.09705279702197278,40.106058693909645,-92.24360919585227,76.200527287817
2024-09-23 08:53:12.454004,0,7.838232,-0.0033329230534799477,-0.024176140626271565,0.09705279702197278,40.106058693909645,-92.24360919585227,76.200527287817
2024-09-23 08:53:12.465952,0,7.838232,-0.0033329230534799477,-0.024176140626271565,0.09655535038822652,36.09446859390736,-96.25519929585457,84.22370748782159
2024-09-23 08:53:12.508880,0,7.838321,-0.0030841997366068195,-0.023479709566915436,0.09655535038822652,36.09446859390736,-96.25519929585457,84.22370748782159
2024-09-23 08:53:12.520217,0,7.838321,-0.0030841997366068195,-0.023479709566915436,0.09675432418099966,32.08287849390507,-92.24360919585227,84.22370748782159
2024-09-23 08:53:12.553196,0,7.838321,-0.0030841997366068195,-0.023479709566915436,0.09675432418099966,32.08287849390507,-92.24360919585227,80.21211738781929
2024-09-23 08:53:12.564341,0,7.838373,-0.0037308827908396356,-0.023927417309398437,0.09789846602079214,32.08287849390507,-92.24360919585227,80.21211738781929
2024-09-23 08:53:12.607987,0,7.838424,-0.0033329230534799477,-0.023927417309398437,0.09789846602079214,44.11764879391193,-96.25519929585457,80.21211738781929
2024-09-23 08:53:12.619732,0,7.838424,-0.0033329230534799477,-0.02338022115155219,0.09789846602079214,44.11764879391193,-96.25519929585457,80.21211738781929
2024-09-23 08:53:12.651372,0,7.838424,-0.0033329230534799477,-0.02338022115155219,0.09615739065086683,40.106058693909645,-96.25519929585457,80.21211738781929
2024-09-23 08:53:12.662684,0,7.838475,-0.003631395514708897,-0.02338022115155219,0.09615739065086683,40.106058693909645,-104.27510100388527,80.21211738781929
2024-09-23 08:53:12.704757,0,7.838475,-0.003631395514708897,-0.02313149783467906,0.09695331012558621,44.11764879391193,-92.24360919585227,80.21211738781929
2024-09-23 08:53:12.716754,0,7.838525,-0.003631395514708897,-0.02313149783467906,0.09695331012558621,44.11764879391193,-92.24360919585227,80.21211738781929
2024-09-23 08:53:12.748594,0,7.838525,-0.0029349636958644295,-0.023330473146428877,0.09695331012558621,44.11764879391193,-92.24360919585227,80.21211738781929
2024-09-23 08:53:12.760035,0,7.838525,-0.0029349636958644295,-0.023330473146428877,0.09655535038822652,36.09446859390736,-100.26678939585686,84.22370748782159
2024-09-23 08:53:12.802814,0,7.838614,-0.0031339382481259063,-0.023877669304275123,0.09720203344245934,32.08287849390507,-100.26678939585686,84.22370748782159
2024-09-23 08:53:12.814949,0,7.838614,-0.0031339382481259063,-0.023877669304275123,0.09720203344245934,32.08287849390507,-92.24360919585227,84.22370748782159
2024-09-23 08:53:12.848181,0,7.838665,-0.0029349636958644295,-0.023877669304275123,0.09720203344245934,32.08287849390507,-92.24360919585227,84.22370748782159
2024-09-23 08:53:12.859793,0,7.838665,-0.0029349636958644295,-0.02352945757203875,0.0976994861521123,36.09446859390736,-92.24360919585227,84.22370748782159
2024-09-23 08:53:12.902138,0,7.838716,-0.0035318979854855937,-0.02367869399252531,0.0966050877605131,36.09446859390736,-96.25519929585457,80.21211738781929
2024-09-23 08:53:12.944486,0,7.838716,-0.0035318979854855937,-0.02367869399252531,0.0966050877605131,36.09446859390736,-96.25519929585457,80.21211738781929
2024-09-23 08:53:12.955860,0,7.838766,-0.0036811340262279837,-0.02352945757203875,0.0966050877605131,36.09446859390736,-96.25519929585457,80.21211738781929
2024-09-23 08:53:12.999019,0,7.838817,-0.0036811340262279837,-0.02352945757203875,0.09685382322919964,40.106058693909645,-92.24360919585227,80.21211738781929
2024-09-23 08:53:13.010429,0,7.838817,-0.0031339382481259063,-0.02352945757203875,0.09685382322919964,40.106058693909645,-92.24360919585227,80.21211738781929
2024-09-23 08:53:13.043320,0,7.838817,-0.0031339382481259063,-0.023778180888911878,0.09764974270391902,40.106058693909645,-92.24360919585227,80.21211738781929
2024-09-23 08:53:13.054534,0,7.838906,-0.0031339382481259063,-0.023778180888911878,0.09764974270391902,40.106058693909645,-96.25519929585457,80.21211738781929
2024-09-23 08:53:13.099736,48.78,7.838906,-0.0028354659767690416,-0.023230986250042305,0.09720203344245934,36.09446859390736,-100.26678939585686,80.21211738781929
2024-09-23 08:53:13.141639,48.78,7.838958,-0.0030344509719951677,-0.02367869399252531,0.09759999317981902,36.09446859390736,-100.26678939585686,80.21211738781929
2024-09-23 08:53:13.153187,48.78,7.838958,-0.0030344509719951677,-0.02367869399252531,0.09759999317981902,36.09446859390736,-100.26678939585686,80.21211738781929
2024-09-23 08:53:13.185111,48.78,7.838958,-0.0030344509719951677,-0.02367869399252531,0.09759999317981902,36.09446859390736,-100.26678939585686,84.22370748782159
2024-09-23 08:53:13.197183,48.78,7.839008,-0.0028354659767690416,-0.024176140626271565,0.09705279702197278,48.12595698684454,-100.26678939585686,84.22370748782159
2024-09-23 08:53:13.239756,48.78,7.839059,-0.0030841997366068195,-0.024176140626271565,0.09705279702197278,48.12595698684454,-88.23529758782387,88.23529758782387
2024-09-23 08:53:13.251598,48.78,7.839059,-0.0030841997366068195,-0.023728432883788564,0.09685382322919964,48.12595698684454,-88.23529758782387,88.23529758782387
2024-09-23 08:53:13.283135,48.78,7.839059,-0.0030841997366068195,-0.023728432883788564,0.09685382322919964,36.09446859390736,-88.23529758782387,88.23529758782387
2024-09-23 08:53:13.294223,48.78,7.83911,-0.003382661564999035,-0.02362894446842532,0.09685382322919964,36.09446859390736,-96.25519929585457,84.22370748782159
2024-09-23 08:53:13.336540,48.78,7.83911,-0.003382661564999035,-0.02362894446842532,0.09720203344245934,40.106058693909645,-100.26678939585686,80.21211738781929
2024-09-23 08:53:13.348364,48.78,7.83916,-0.0033329230534799477,-0.02362894446842532,0.09720203344245934,40.106058693909645,-100.26678939585686,80.21211738781929
2024-09-23 08:53:13.380231,48.78,7.83916,-0.0033329230534799477,-0.023728432883788564,0.09720203344245934,40.106058693909645,-100.26678939585686,80.21211738781929
2024-09-23 08:53:13.391887,48.78,7.839248,-0.0033329230534799477,-0.023728432883788564,0.0970030596496862,40.106058693909645,-96.25519929585457,80.21211738781929
2024-09-23 08:53:13.434149,48.78,7.839248,-0.003382661564999035,-0.023728432883788564,0.09695331012558621,36.09446859390736,-96.25519929585457,80.21211738781929
2024-09-23 08:53:13.447383,48.78,7.839248,-0.003382661564999035,-0.023728432883788564,0.09695331012558621,36.09446859390736,-104.27510100388527,84.22370748782159
2024-09-23 08:53:13.480399,48.78,7.839299,-0.0035816467500972456,-0.023728432883788564,0.09695331012558621,36.09446859390736,-104.27510100388527,84.22370748782159
2024-09-23 08:53:13.492339,48.78,7.839299,-0.0035816467500972456,-0.023330473146428877,0.09740101331113918,48.12595698684454,-100.26678939585686,84.22370748782159
2024-09-23 08:53:13.535443,48.78,7.83935,-0.0035816467500972456,-0.02397715620066169,0.0973015264147526,40.106058693909645,-100.26678939585686,84.22370748782159
2024-09-23 08:53:13.578927,48.78,7.839401,-0.0035816467500972456,-0.02397715620066169,0.0973015264147526,40.106058693909645,-96.25519929585457,80.21211738781929
2024-09-23 08:53:13.590097,48.78,7.839401,-0.0030841997366068195,-0.023778180888911878,0.09705279702197278,40.106058693909645,-96.25519929585457,80.21211738781929
2024-09-23 08:53:13.632366,48.78,7.839452,-0.0036811340262279837,-0.023280723622328886,0.09705279702197278,32.08287849390507,-100.26678939585686,80.21211738781929
2024-09-23 08:53:13.674834,48.78,7.839452,-0.0036811340262279837,-0.023280723622328886,0.09720203344245934,32.08287849390507,-100.26678939585686,80.21211738781929
2024-09-23 08:53:13.686869,48.78,7.839503,-0.0029349636958644295,-0.023280723622328886,0.09720203344245934,32.08287849390507,-104.27510100388527,80.21211738781929
2024-09-23 08:53:13.731193,48.78,7.839589,-0.0029349636958644295,-0.023927417309398437,0.09745075675933246,32.08287849390507,-100.26678939585686,80.21211738781929
2024-09-23 08:53:13.774126,48.78,7.839589,-0.0030344509719951677,-0.02367869399252531,0.09685382322919964,32.08287849390507,-100.26678939585686,80.21211738781929
2024-09-23 08:53:13.785958,48.78,7.839589,-0.0030344509719951677,-0.02367869399252531,0.09685382322919964,48.12595698684454,-92.24360919585227,80.21211738781929
2024-09-23 08:53:13.820929,48.78,7.83964,-0.0030344509719951677,-0.02367869399252531,0.09685382322919964,48.12595698684454,-92.24360919585227,80.21211738781929
2024-09-23 08:53:13.831924,48.78,7.83964,-0.0031339382481259063,-0.023280723622328886,0.0966050877605131,40.106058693909645,-96.25519929585457,80.21211738781929
2024-09-23 08:53:13.874325,48.78,7.839691,-0.0033329230534799477,-0.023778180888911878,0.09670458680871308,40.106058693909645,-96.25519929585457,84.22370748782159
2024-09-23 08:53:13.886290,48.78,7.839691,-0.0033329230534799477,-0.023778180888911878,0.09670458680871308,36.09446859390736,-96.25519929585457,84.22370748782159
2024-09-23 08:53:13.919060,48.78,7.839691,-0.0033329230534799477,-0.023778180888911878,0.09670458680871308,36.09446859390736,-92.24360919585227,76.200527287817
2024-09-23 08:53:13.930851,48.78,7.839741,-0.0032831742888682963,-0.023927417309398437,0.09710254654607277,36.09446859390736,-92.24360919585227,76.200527287817
2024-09-23 08:53:13.973610,48.78,7.839792,-0.0029349636958644295,-0.02338022115155219,0.09710254654607277,32.08287849390507,-104.27510100388527,72.1922225099802
2024-09-23 08:53:14.016351,48.78,7.839792,-0.0029349636958644295,-0.02338022115155219,0.0970030596496862,36.09446859390736,-104.27510100388527,72.1922225099802
2024-09-23 08:53:14.028632,48.78,7.839843,-0.0032831742888682963,-0.02338022115155219,0.0970030596496862,36.09446859390736,-100.26678939585686,76.200527287817
2024-09-23 08:53:14.071935,48.78,7.83993,-0.0032831742888682963,-0.02352945757203875,0.09675432418099966,44.11764879391193,-104.27510100388527,76.200527287817
2024-09-23 08:53:14.115155,46.05,7.83993,-0.0031836870127375577,-0.02367869399252531,0.09705279702197278,44.11764879391193,-104.27510100388527,76.200527287817
2024-09-23 08:53:14.126342,46.05,7.83993,-0.0031836870127375577,-0.02367869399252531,0.09705279702197278,40.106058693909645,-92.24360919585227,76.200527287817
2024-09-23 08:53:14.169093,46.05,7.839981,-0.0031836870127375577,-0.02367869399252531,0.09705279702197278,40.106058693909645,-92.24360919585227,80.21211738781929
2024-09-23 08:53:14.211809,46.05,7.839981,-0.0034324103296106863,-0.02352945757203875,0.09705279702197278,40.106058693909645,-92.24360919585227,80.21211738781929
2024-09-23 08:53:14.223178,46.05,7.839981,-0.0034324103296106863,-0.02352945757203875,0.09695331012558621,40.106058693909645,-96.25519929585457,76.200527287817
2024-09-23 08:53:14.264829,46.05,7.840032,-0.0037308827908396356,-0.023877669304275123,0.09725178296655933,40.106058693909645,-96.25519929585457,76.200527287817
2024-09-23 08:53:14.276288,46.05,7.840032,-0.0037308827908396356,-0.023877669304275123,0.09725178296655933,44.11764879391193,-100.26678939585686,76.200527287817
2024-09-23 08:53:14.308865,46.05,7.840083,-0.0037308827908396356,-0.023877669304275123,0.09725178296655933,44.11764879391193,-100.26678939585686,80.21211738781929
2024-09-23 08:53:14.320153,46.05,7.840083,-0.003382661564999035,-0.02412639262114825,0.09690356060148622,32.08287849390507,-100.26678939585686,80.21211738781929
2024-09-23 08:53:14.362327,46.05,7.840133,-0.0037308827908396356,-0.023429960042815445,0.09690356060148622,32.08287849390507,-96.25519929585457,84.22370748782159
2024-09-23 08:53:14.374018,46.05,7.840133,-0.0037308827908396356,-0.023429960042815445,0.0973512698629459,32.08287849390507,-96.25519929585457,84.22370748782159
2024-09-23 08:53:14.406276,46.05,7.840133,-0.0037308827908396356,-0.023429960042815445,0.0973512698629459,40.106058693909645,-100.26678939585686,84.22370748782159
2024-09-23 08:53:14.417923,46.05,7.840184,-0.0033329230534799477,-0.023827930413011865,0.0973512698629459,40.106058693909645,-100.26678939585686,84.22370748782159
2024-09-23 08:53:14.459548,46.05,7.840274,-0.0033329230534799477,-0.023827930413011865,0.09685382322919964,44.11764879391193,-96.25519929585457,80.21211738781929
2024-09-23 08:53:14.471198,46.05,7.840274,-0.0029349636958644295,-0.023827930413011865,0.09685382322919964,44.11764879391193,-96.25519929585457,80.21211738781929
2024-09-23 08:53:14.503104,46.05,7.840274,-0.0029349636958644295,-0.024375126570858115,0.09705279702197278,44.11764879391193,-96.25519929585457,80.21211738781929
2024-09-23 08:53:14.515120,46.05,7.840369,-0.0029349636958644295,-0.024375126570858115,0.09705279702197278,40.106058693909645,-92.24360919585227,80.21211738781929
2024-09-23 08:53:14.557929,46.05,7.840369,-0.0032831742888682963,-0.023429960042815445,0.09690356060148622,40.106058693909645,-96.25519929585457,80.21211738781929
2024-09-23 08:53:14.570166,46.05,7.840369,-0.0032831742888682963,-0.023429960042815445,0.09690356060148622,40.106058693909645,-96.25519929585457,84.22370748782159
2024-09-23 08:53:14.603384,46.05,7.84042,-0.0031836870127375577,-0.023827930413011865,0.09690356060148622,40.106058693909645,-96.25519929585457,84.22370748782159
2024-09-23 08:53:14.615727,46.05,7.84042,-0.0031836870127375577,-0.023827930413011865,0.09740101331113918,40.106058693909645,-96.25519929585457,84.22370748782159
2024-09-23 08:53:14.647844,46.05,7.84042,-0.0031836870127375577,-0.023827930413011865,0.09740101331113918,40.106058693909645,-96.25519929585457,80.21211738781929
2024-09-23 08:53:14.659398,46.05,7.840471,-0.0032831742888682963,-0.02362894446842532,0.09695331012558621,32.08287849390507,-96.25519929585457,80.21211738781929
2024-09-23 08:53:14.702358,46.05,7.840521,-0.0033329230534799477,-0.02362894446842532,0.09695331012558621,32.08287849390507,-100.26678939585686,76.200527287817
2024-09-23 08:53:14.714057,46.05,7.840521,-0.0033329230534799477,-0.02352945757203875,0.09720203344245934,32.08287849390507,-100.26678939585686,76.200527287817
2024-09-23 08:53:14.746762,46.05,7.840521,-0.0033329230534799477,-0.02352945757203875,0.09720203344245934,32.08287849390507,-100.26678939585686,76.200527287817
2024-09-23 08:53:14.758491,46.05,7.840572,-0.003631395514708897,-0.023827930413011865,0.09720203344245934,32.08287849390507,-96.25519929585457,84.22370748782159
2024-09-23 08:53:14.800688,46.05,7.840572,-0.003631395514708897,-0.023827930413011865,0.0970030596496862,40.106058693909645,-92.24360919585227,80.21211738781929
2024-09-23 08:53:14.811796,46.05,7.840623,-0.0034324103296106863,-0.023827930413011865,0.0970030596496862,40.106058693909645,-92.24360919585227,80.21211738781929
2024-09-23 08:53:14.844702,46.05,7.840623,-0.0034324103296106863,-0.023778180888911878,0.0970030596496862,40.106058693909645,-92.24360919585227,80.21211738781929
2024-09-23 08:53:14.856848,46.05,7.84071,-0.0034324103296106863,-0.023778180888911878,0.09640611396773996,40.106058693909645,-96.25519929585457,76.200527287817
2024-09-23 08:53:14.901099,46.05,7.84071,-0.003233425524256645,-0.023479709566915436,0.09715228999426605,24.06297849342227,-100.26678939585686,76.200527287817
2024-09-23 08:53:14.943156,46.05,7.840762,-0.0035816467500972456,-0.023479709566915436,0.09715228999426605,24.06297849342227,-100.26678939585686,76.200527287817
2024-09-23 08:53:14.954371,46.05,7.840762,-0.0035816467500972456,-0.023877669304275123,0.09665483728461309,24.06297849342227,-96.25519929585457,76.200527287817
2024-09-23 08:53:14.997717,46.05,7.840812,-0.0029847020175114316,-0.02338022115155219,0.09720203344245934,24.06297849342227,-96.25519929585457,80.21211738781929
2024-09-23 08:53:15.009660,46.05,7.840812,-0.0029847020175114316,-0.02338022115155219,0.09720203344245934,36.09446859390736,-96.25519929585457,80.21211738781929
2024-09-23 08:53:15.043231,46.05,7.840863,-0.0029847020175114316,-0.02338022115155219,0.09720203344245934,36.09446859390736,-96.25519929585457,80.21211738781929
2024-09-23 08:53:15.054472,46.05,7.840863,-0.0035318979854855937,-0.024026904205785005,0.09675432418099966,36.09446859390736,-96.25519929585457,80.21211738781929
2024-09-23 08:53:15.089053,46.05,7.840863,-0.0035318979854855937,-0.024026904205785005,0.09675432418099966,44.11764879391193,-100.26678939585686,80.21211738781929
2024-09-23 08:53:15.100465,46.05,7.840914,-0.003233425524256645,-0.023927417309398437,0.09675432418099966,44.11764879391193,-100.26678939585686,80.21211738781929
2024-09-23 08:53:15.144162,46.58,7.840964,-0.0030344509719951677,-0.023927417309398437,0.09705279702197278,36.09446859390736,-100.26678939585686,80.21211738781929
2024-09-23 08:53:15.186005,46.58,7.840964,-0.0030344509719951677,-0.023927417309398437,0.09680407370509965,36.09446859390736,-100.26678939585686,80.21211738781929
2024-09-23 08:53:15.197557,46.58,7.841051,-0.0030344509719951677,-0.023927417309398437,0.09680407370509965,40.106058693909645,-96.25519929585457,80.21211738781929
2024-09-23 08:53:15.240730,46.58,7.841051,-0.0027359787006383035,-0.02338022115155219,0.09665483728461309,40.106058693909645,-96.25519929585457,80.21211738781929
2024-09-23 08:53:15.333895,46.58,7.841103,-0.0035816467500972456,-0.023280723622328886,0.09665483728461309,40.106058693909645,-96.25519929585457,80.21211738781929
2024-09-23 08:53:15.346046,46.58,7.841103,-0.0035816467500972456,-0.023280723622328886,0.09715228999426605,32.08287849390507,-96.25519929585457,80.21211738781929
2024-09-23 08:53:15.388695,46.58,7.841153,-0.0030841997366068195,-0.02367869399252531,0.09720203344245934,36.09446859390736,-96.25519929585457,80.21211738781929
2024-09-23 08:53:15.432307,46.58,7.841204,-0.0030841997366068195,-0.02367869399252531,0.09720203344245934,36.09446859390736,-92.24360919585227,80.21211738781929
2024-09-23 08:53:15.443411,46.58,7.841204,-0.0033329230534799477,-0.02367869399252531,0.0966050877605131,36.09446859390736,-92.24360919585227,80.21211738781929
2024-09-23 08:53:15.485985,46.58,7.841255,-0.0029847020175114316,-0.02362894446842532,0.0966050877605131,40.106058693909645,-96.25519929585457,80.21211738781929
2024-09-23 08:53:15.527859,46.58,7.841255,-0.0029847020175114316,-0.02362894446842532,0.09720203344245934,40.106058693909645,-96.25519929585457,80.21211738781929
2024-09-23 08:53:15.538930,46.58,7.841305,-0.003482159473966507,-0.02362894446842532,0.09720203344245934,40.106058693909645,-100.26678939585686,80.21211738781929
2024-09-23 08:53:15.581980,46.58,7.841305,-0.003482159473966507,-0.02352945757203875,0.09675432418099966,44.11764879391193,-92.24360919585227,84.22370748782159
2024-09-23 08:53:15.594133,46.58,7.841441,-0.003482159473966507,-0.02352945757203875,0.09675432418099966,44.11764879391193,-92.24360919585227,84.22370748782159
2024-09-23 08:53:15.627746,46.58,7.841441,-0.0030841997366068195,-0.023827930413011865,0.0970030596496862,44.11764879391193,-92.24360919585227,84.22370748782159
2024-09-23 08:53:15.639077,46.58,7.841441,-0.0030841997366068195,-0.023827930413011865,0.0970030596496862,44.11764879391193,-96.25519929585457,80.21211738781929
2024-09-23 08:53:15.672399,46.58,7.841493,-0.0030841997366068195,-0.023827930413011865,0.0970030596496862,44.11764879391193,-96.25519929585457,80.21211738781929
2024-09-23 08:53:15.684092,46.58,7.841493,-0.0029847020175114316,-0.023877669304275123,0.09720203344245934,44.11764879391193,-96.25519929585457,80.21211738781929
2024-09-23 08:53:15.727013,46.58,7.841543,-0.0027359787006383035,-0.023827930413011865,0.09720203344245934,44.11764879391193,-96.25519929585457,80.21211738781929
2024-09-23 08:53:15.738283,46.58,7.841543,-0.0027359787006383035,-0.023827930413011865,0.09725178296655933,40.106058693909645,-96.25519929585457,80.21211738781929
2024-09-23 08:53:15.770555,46.58,7.841543,-0.0027359787006383035,-0.023827930413011865,0.09725178296655933,40.106058693909645,-100.26678939585686,80.21211738781929
2024-09-23 08:53:15.781781,46.58,7.841594,-0.0029847020175114316,-0.023778180888911878,0.09725178296655933,40.106058693909645,-100.26678939585686,80.21211738781929
2024-09-23 08:53:15.824635,46.58,7.841594,-0.0029847020175114316,-0.023778180888911878,0.09655535038822652,44.11764879391193,-92.24360919585227,88.23529758782387
2024-09-23 08:53:15.836780,46.58,7.841645,-0.0035318979854855937,-0.023778180888911878,0.09655535038822652,44.11764879391193,-92.24360919585227,88.23529758782387
2024-09-23 08:53:15.868840,46.58,7.841645,-0.0035318979854855937,-0.023927417309398437,0.09690356060148622,44.11764879391193,-92.24360919585227,88.23529758782387
2024-09-23 08:53:15.880248,46.58,7.841695,-0.0035318979854855937,-0.023927417309398437,0.09690356060148622,40.106058693909645,-100.26678939585686,76.200527287817
2024-09-23 08:53:15.922765,46.58,7.841695,-0.0026862297461545674,-0.024225890150371555,0.09705279702197278,36.09446859390736,-96.25519929585457,76.200527287817
2024-09-23 08:53:15.934734,46.58,7.841695,-0.0026862297461545674,-0.024225890150371555,0.09705279702197278,36.09446859390736,-96.25519929585457,80.21211738781929
2024-09-23 08:53:15.967438,46.58,7.841782,-0.0031836870127375577,-0.02352945757203875,0.09705279702197278,36.09446859390736,-96.25519929585457,80.21211738781929
2024-09-23 08:53:15.978759,46.58,7.841782,-0.0031836870127375577,-0.02352945757203875,0.09690356060148622,44.11764879391193,-96.25519929585457,80.21211738781929
2024-09-23 08:53:16.021074,46.58,7.841834,-0.0027359787006383035,-0.02397715620066169,0.09720203344245934,36.09446859390736,-96.25519929585457,80.21211738781929
2024-09-23 08:53:16.063569,46.58,7.841834,-0.0027359787006383035,-0.02397715620066169,0.09720203344245934,36.09446859390736,-100.26678939585686,80.21211738781929
2024-09-23 08:53:16.075657,46.58,7.841884,-0.0031836870127375577,-0.02362894446842532,0.09665483728461309,36.09446859390736,-100.26678939585686,80.21211738781929
2024-09-23 08:53:16.118943,46.58,7.841935,-0.0029349636958644295,-0.02362894446842532,0.09665483728461309,36.09446859390736,-96.25519929585457,80.21211738781929
2024-09-23 08:53:16.130736,46.58,7.841935,-0.0029349636958644295,-0.023429960042815445,0.09665483728461309,36.09446859390736,-96.25519929585457,80.21211738781929
2024-09-23 08:53:16.163549,45.48,7.841935,-0.0029349636958644295,-0.023429960042815445,0.09750050628343246,36.09446859390736,-96.25519929585457,80.21211738781929
2024-09-23 08:53:16.175201,45.48,7.841986,-0.0032831742888682963,-0.023429960042815445,0.09750050628343246,36.09446859390736,-96.25519929585457,80.21211738781929
2024-09-23 08:53:16.209193,45.48,7.841986,-0.0032831742888682963,-0.023579196463302005,0.09750050628343246,36.09446859390736,-96.25519929585457,80.21211738781929
2024-09-23 08:53:16.220559,45.48,7.842075,-0.0032831742888682963,-0.023579196463302005,0.09710254654607277,40.106058693909645,-104.27510100388527,80.21211738781929
2024-09-23 08:53:16.263560,45.48,7.842075,-0.0028354659767690416,-0.023927417309398437,0.0973015264147526,36.09446859390736,-96.25519929585457,80.21211738781929
2024-09-23 08:53:16.275236,45.48,7.842075,-0.0028354659767690416,-0.023927417309398437,0.0973015264147526,36.09446859390736,-96.25519929585457,80.21211738781929
2024-09-23 08:53:16.307409,45.48,7.842126,-0.0032831742888682963,-0.023927417309398437,0.0973015264147526,36.09446859390736,-96.25519929585457,80.21211738781929
2024-09-23 08:53:16.319180,45.48,7.842126,-0.0032831742888682963,-0.023330473146428877,0.09665483728461309,48.12595698684454,-100.26678939585686,80.21211738781929
2024-09-23 08:53:16.361901,45.48,7.842177,-0.0035816467500972456,-0.024176140626271565,0.09715228999426605,48.12595698684454,-100.26678939585686,80.21211738781929
2024-09-23 08:53:16.404613,45.48,7.842177,-0.0035816467500972456,-0.024176140626271565,0.09715228999426605,44.11764879391193,-100.26678939585686,80.21211738781929
2024-09-23 08:53:16.416038,45.48,7.842228,-0.003233425524256645,-0.023728432883788564,0.09715228999426605,44.11764879391193,-96.25519929585457,76.200527287817
2024-09-23 08:53:16.458629,45.48,7.842228,-0.003233425524256645,-0.023728432883788564,0.09670458680871308,40.106058693909645,-100.26678939585686,76.200527287817
2024-09-23 08:53:16.470574,45.48,7.842278,-0.0030841997366068195,-0.023728432883788564,0.09670458680871308,40.106058693909645,-100.26678939585686,76.200527287817
2024-09-23 08:53:16.502285,45.48,7.842278,-0.0030841997366068195,-0.02397715620066169,0.09670458680871308,40.106058693909645,-100.26678939585686,76.200527287817
2024-09-23 08:53:16.554667,45.48,7.842278,-0.0030841997366068195,-0.02397715620066169,0.09685382322919964,40.106058693909645,-96.25519929585457,76.200527287817
2024-09-23 08:53:16.566373,45.48,7.842329,-0.003631395514708897,-0.02397715620066169,0.09685382322919964,40.106058693909645,-96.25519929585457,76.200527287817
2024-09-23 08:53:16.599260,45.48,7.842329,-0.003631395514708897,-0.02313149783467906,0.09685382322919964,40.106058693909645,-96.25519929585457,76.200527287817
2024-09-23 08:53:16.610402,45.48,7.842416,-0.003631395514708897,-0.02313149783467906,0.09750050628343246,44.11764879391193,-96.25519929585457,76.200527287817
2024-09-23 08:53:16.652133,45.48,7.842416,-0.0031339382481259063,-0.024225890150371555,0.09685382322919964,44.11764879391193,-96.25519929585457,76.200527287817
2024-09-23 08:53:16.664008,45.48,7.842416,-0.0031339382481259063,-0.024225890150371555,0.09685382322919964,44.11764879391193,-100.26678939585686,80.21211738781929
2024-09-23 08:53:16.697146,45.48,7.842468,-0.0031339382481259063,-0.024225890150371555,0.09685382322919964,44.11764879391193,-100.26678939585686,80.21211738781929
2024-09-23 08:53:16.708628,45.48,7.842468,-0.0031836870127375577,-0.023877669304275123,0.09675432418099966,24.06297849342227,-96.25519929585457,80.21211738781929
2024-09-23 08:53:16.751634,45.48,7.842518,-0.0035318979854855937,-0.02397715620066169,0.09710254654607277,24.06297849342227,-96.25519929585457,76.200527287817
2024-09-23 08:53:16.763762,45.48,7.842518,-0.0035318979854855937,-0.02397715620066169,0.09710254654607277,36.09446859390736,-96.25519929585457,76.200527287817
2024-09-23 08:53:16.795455,45.48,7.842518,-0.0035318979854855937,-0.02397715620066169,0.09710254654607277,36.09446859390736,-100.26678939585686,80.21211738781929
2024-09-23 08:53:16.807508,45.48,7.842613,-0.0034324103296106863,-0.023778180888911878,0.09720203344245934,36.09446859390736,-100.26678939585686,80.21211738781929
2024-09-23 08:53:16.850459,45.48,7.842664,-0.0027359787006383035,-0.023778180888911878,0.09720203344245934,36.09446859390736,-100.26678939585686,76.200527287817
2024-09-23 08:53:16.861887,45.48,7.842664,-0.0027359787006383035,-0.023927417309398437,0.09720203344245934,36.09446859390736,-100.26678939585686,76.200527287817
2024-09-23 08:53:16.894765,45.48,7.842664,-0.0027359787006383035,-0.023927417309398437,0.09675432418099966,36.09446859390736,-100.26678939585686,76.200527287817
2024-09-23 08:53:16.906342,45.48,7.842714,-0.0029349636958644295,-0.023927417309398437,0.09675432418099966,36.09446859390736,-100.26678939585686,80.21211738781929
2024-09-23 08:53:16.949929,45.48,7.842806,-0.0029349636958644295,-0.02367869399252531,0.09675432418099966,40.106058693909645,-96.25519929585457,84.22370748782159
2024-09-23 08:53:16.992213,45.48,7.842806,-0.003382661564999035,-0.02362894446842532,0.09690356060148622,40.106058693909645,-96.25519929585457,84.22370748782159
2024-09-23 08:53:17.003793,45.48,7.842806,-0.003382661564999035,-0.02362894446842532,0.09690356060148622,36.09446859390736,-100.26678939585686,80.21211738781929
2024-09-23 08:53:17.046534,45.48,7.842858,-0.0034324103296106863,-0.02362894446842532,0.09665483728461309,32.08287849390507,-104.27510100388527,80.21211738781929
2024-09-23 08:53:17.089748,45.48,7.842908,-0.0030344509719951677,-0.02362894446842532,0.09665483728461309,32.08287849390507,-104.27510100388527,76.200527287817
2024-09-23 08:53:17.100776,45.48,7.842908,-0.0030344509719951677,-0.02352945757203875,0.09715228999426605,32.08287849390507,-104.27510100388527,76.200527287817
2024-09-23 08:53:17.142580,45.48,7.842959,-0.003482159473966507,-0.023827930413011865,0.09720203344245934,32.08287849390507,-100.26678939585686,80.21211738781929
2024-09-23 08:53:17.184556,45.2,7.842959,-0.003482159473966507,-0.023827930413011865,0.09720203344245934,36.09446859390736,-100.26678939585686,80.21211738781929
2024-09-23 08:53:17.196433,45.2,7.84301,-0.0031339382481259063,-0.02338022115155219,0.09720203344245934,36.09446859390736,-100.26678939585686,80.21211738781929
2024-09-23 08:53:17.238272,45.2,7.84301,-0.0031339382481259063,-0.02338022115155219,0.09650560086412653,36.09446859390736,-96.25519929585457,80.21211738781929
2024-09-23 08:53:17.249752,45.2,7.843061,-0.003233425524256645,-0.02338022115155219,0.09650560086412653,36.09446859390736,-96.25519929585457,80.21211738781929
2024-09-23 08:53:17.281792,45.2,7.843061,-0.003233425524256645,-0.02352945757203875,0.09650560086412653,36.09446859390736,-96.25519929585457,80.21211738781929
2024-09-23 08:53:17.292876,45.2,7.843147,-0.003233425524256645,-0.02352945757203875,0.09705279702197278,44.11764879391193,-92.24360919585227,80.21211738781929
2024-09-23 08:53:17.335629,45.2,7.843147,-0.0026862297461545674,-0.02367869399252531,0.09764974270391902,40.106058693909645,-88.23529758782387,80.21211738781929
2024-09-23 08:53:17.347328,45.2,7.843147,-0.0026862297461545674,-0.02367869399252531,0.09764974270391902,40.106058693909645,-88.23529758782387,80.21211738781929
2024-09-23 08:53:17.379067,45.2,7.843199,-0.0026862297461545674,-0.02367869399252531,0.09764974270391902,40.106058693909645,-88.23529758782387,80.21211738781929
2024-09-23 08:53:17.390363,45.2,7.843199,-0.0033329230534799477,-0.02352945757203875,0.09685382322919964,36.09446859390736,-92.24360919585227,80.21211738781929
2024-09-23 08:53:17.432911,45.2,7.84325,-0.003233425524256645,-0.023429960042815445,0.09720203344245934,36.09446859390736,-92.24360919585227,76.200527287817
2024-09-23 08:53:17.444893,45.2,7.84325,-0.003233425524256645,-0.023429960042815445,0.09720203344245934,36.09446859390736,-92.24360919585227,76.200527287817
2024-09-23 08:53:17.477462,45.2,7.84325,-0.003233425524256645,-0.023429960042815445,0.09720203344245934,36.09446859390736,-96.25519929585457,80.21211738781929
2024-09-23 08:53:17.489167,45.2,7.8433,-0.0029349636958644295,-0.02362894446842532,0.0973015264147526,36.09446859390736,-96.25519929585457,80.21211738781929
2024-09-23 08:53:17.531282,45.2,7.8433,-0.0029349636958644295,-0.02362894446842532,0.0973015264147526,40.106058693909645,-100.26678939585686,80.21211738781929
2024-09-23 08:53:17.573166,45.2,7.8433,-0.0029349636958644295,-0.02362894446842532,0.0973015264147526,40.106058693909645,-100.26678939585686,76.200527287817
2024-09-23 08:53:17.584961,45.2,7.843351,-0.003631395514708897,-0.023778180888911878,0.09695331012558621,32.08287849390507,-100.26678939585686,76.200527287817
2024-09-23 08:53:17.627599,45.2,7.843402,-0.0028852147413806935,-0.023778180888911878,0.09695331012558621,32.08287849390507,-100.26678939585686,76.200527287817
2024-09-23 08:53:17.639532,45.2,7.843402,-0.0028852147413806935,-0.023728432883788564,0.09715228999426605,32.08287849390507,-100.26678939585686,76.200527287817
2024-09-23 08:53:17.671873,45.2,7.843402,-0.0028852147413806935,-0.023728432883788564,0.09715228999426605,40.106058693909645,-100.26678939585686,76.200527287817
2024-09-23 08:53:17.682990,45.2,7.843489,-0.0031339382481259063,-0.02397715620066169,0.09715228999426605,40.106058693909645,-100.26678939585686,76.200527287817
2024-09-23 08:53:17.726503,45.2,7.84354,-0.0031339382481259063,-0.02397715620066169,0.09725178296655933,44.11764879391193,-92.24360919585227,84.22370748782159
2024-09-23 08:53:17.738538,45.2,7.84354,-0.0031836870127375577,-0.02397715620066169,0.09725178296655933,44.11764879391193,-92.24360919585227,84.22370748782159
2024-09-23 08:53:17.770357,45.2,7.84354,-0.0031836870127375577,-0.02367869399252531,0.0973015264147526,44.11764879391193,-92.24360919585227,84.22370748782159
2024-09-23 08:53:17.781601,45.2,7.843591,-0.0031836870127375577,-0.02367869399252531,0.0973015264147526,44.11764879391193,-96.25519929585457,80.21211738781929
2024-09-23 08:53:17.823977,45.2,7.843591,-0.003382661564999035,-0.02397715620066169,0.09690356060148622,44.11764879391193,-96.25519929585457,80.21211738781929
2024-09-23 08:53:17.836236,45.2,7.843591,-0.003382661564999035,-0.02397715620066169,0.09690356060148622,44.11764879391193,-96.25519929585457,76.200527287817
2024-09-23 08:53:17.869301,45.2,7.843684,-0.0031339382481259063,-0.023728432883788564,0.09690356060148622,44.11764879391193,-96.25519929585457,76.200527287817
2024-09-23 08:53:17.881024,45.2,7.843684,-0.0031339382481259063,-0.023728432883788564,0.09710254654607277,40.106058693909645,-96.25519929585457,76.200527287817
2024-09-23 08:53:17.923890,45.2,7.843736,-0.0033329230534799477,-0.02397715620066169,0.09685382322919964,28.07457030097246,-96.25519929585457,72.1922225099802
2024-09-23 08:53:17.966513,45.2,7.843786,-0.0033329230534799477,-0.02397715620066169,0.09685382322919964,28.07457030097246,-100.26678939585686,76.200527287817
2024-09-23 08:53:17.978317,45.2,7.843786,-0.0032831742888682963,-0.02397715620066169,0.09685382322919964,28.07457030097246,-100.26678939585686,76.200527287817
2024-09-23 08:53:18.062205,45.2,7.843786,-0.0032831742888682963,-0.02338022115155219,0.09685382322919964,28.07457030097246,-100.26678939585686,76.200527287817
2024-09-23 08:53:18.074140,45.2,7.843837,-0.0032831742888682963,-0.02338022115155219,0.09685382322919964,36.09446859390736,-104.27510100388527,80.21211738781929
2024-09-23 08:53:18.116908,45.2,7.843837,-0.0032831742888682963,-0.02303200030545576,0.09675432418099966,32.08287849390507,-104.27510100388527,80.21211738781929
2024-09-23 08:53:18.128710,45.2,7.843837,-0.0032831742888682963,-0.02303200030545576,0.09675432418099966,32.08287849390507,-104.27510100388527,80.21211738781929
2024-09-23 08:53:18.160335,45.2,7.843888,-0.0030841997366068195,-0.02303200030545576,0.09675432418099966,32.08287849390507,-104.27510100388527,80.21211738781929
2024-09-23 08:53:18.171770,45.2,7.843888,-0.0030841997366068195,-0.023280723622328886,0.0970030596496862,40.106058693909645,-96.25519929585457,80.21211738781929
2024-09-23 08:53:18.213392,45.12,7.843976,-0.0025369937054121774,-0.023280723622328886,0.09690356060148622,40.106058693909645,-96.25519929585457,76.200527287817
2024-09-23 08:53:18.225800,45.12,7.843976,-0.0025369937054121774,-0.023280723622328886,0.09690356060148622,40.106058693909645,-96.25519929585457,76.200527287817
2024-09-23 08:53:18.259007,45.12,7.844028,-0.0025369937054121774,-0.023280723622328886,0.09690356060148622,40.106058693909645,-92.24360919585227,88.23529758782387
2024-09-23 08:53:18.270015,45.12,7.844028,-0.002785727465249955,-0.023877669304275123,0.0973512698629459,40.106058693909645,-92.24360919585227,88.23529758782387
2024-09-23 08:53:18.312353,45.12,7.844125,-0.0028852147413806935,-0.024474613467244683,0.0973512698629459,40.106058693909645,-96.25519929585457,88.23529758782387
2024-09-23 08:53:18.355137,45.12,7.844125,-0.0028852147413806935,-0.024474613467244683,0.09635636444363997,36.09446859390736,-96.25519929585457,88.23529758782387
2024-09-23 08:53:18.367621,45.12,7.844175,-0.0029349636958644295,-0.024474613467244683,0.09635636444363997,36.09446859390736,-96.25519929585457,80.21211738781929
2024-09-23 08:53:18.410352,45.12,7.844175,-0.0029349636958644295,-0.023479709566915436,0.09695331012558621,36.09446859390736,-100.26678939585686,84.22370748782159
2024-09-23 08:53:18.421815,45.12,7.84427,-0.0029349636958644295,-0.023479709566915436,0.09695331012558621,36.09446859390736,-100.26678939585686,84.22370748782159
2024-09-23 08:53:18.453746,45.12,7.84427,-0.0037308827908396356,-0.023827930413011865,0.09710254654607277,36.09446859390736,-100.26678939585686,84.22370748782159
2024-09-23 08:53:18.464920,45.12,7.84427,-0.0037308827908396356,-0.023827930413011865,0.09710254654607277,44.11764879391193,-92.24360919585227,76.200527287817
2024-09-23 08:53:18.507315,45.12,7.844321,-0.0035816467500972456,-0.02352945757203875,0.09675432418099966,40.106058693909645,-100.26678939585686,76.200527287817
2024-09-23 08:53:18.549868,45.12,7.844372,-0.0035816467500972456,-0.02352945757203875,0.09675432418099966,40.106058693909645,-100.26678939585686,76.200527287817
2024-09-23 08:53:18.561204,45.12,7.844372,-0.0030841997366068195,-0.023429960042815445,0.09725178296655933,36.09446859390736,-100.26678939585686,76.200527287817
2024-09-23 08:53:18.603891,45.12,7.844422,-0.0033329230534799477,-0.023429960042815445,0.09725178296655933,36.09446859390736,-100.26678939585686,80.21211738781929
2024-09-23 08:53:18.616246,45.12,7.844422,-0.0033329230534799477,-0.023429960042815445,0.09680407370509965,36.09446859390736,-100.26678939585686,80.21211738781929
2024-09-23 08:53:18.648112,45.12,7.844422,-0.0033329230534799477,-0.023429960042815445,0.09680407370509965,32.08287849390507,-104.27510100388527,80.21211738781929
2024-09-23 08:53:18.659463,45.12,7.844473,-0.003382661564999035,-0.023728432883788564,0.09680407370509965,32.08287849390507,-104.27510100388527,80.21211738781929
2024-09-23 08:53:18.703679,45.12,7.844473,-0.003382661564999035,-0.023728432883788564,0.09779897304849887,32.08287849390507,-104.27510100388527,76.200527287817
2024-09-23 08:53:18.715270,45.12,7.844523,-0.0030344509719951677,-0.023728432883788564,0.09779897304849887,32.08287849390507,-104.27510100388527,76.200527287817
2024-09-23 08:53:18.747974,45.12,7.844523,-0.0030344509719951677,-0.023827930413011865,0.0966050877605131,40.106058693909645,-92.24360919585227,76.200527287817
2024-09-23 08:53:18.759667,45.12,7.84461,-0.0030344509719951677,-0.023827930413011865,0.0966050877605131,40.106058693909645,-92.24360919585227,88.23529758782387
2024-09-23 08:53:18.791742,45.12,7.84461,-0.0032831742888682963,-0.023827930413011865,0.0966050877605131,40.106058693909645,-92.24360919585227,88.23529758782387
2024-09-23 08:53:18.803072,45.12,7.84461,-0.0032831742888682963,-0.02397715620066169,0.09715228999426605,32.08287849390507,-100.26678939585686,76.200527287817
2024-09-23 08:53:18.846241,45.12,7.844662,-0.0033329230534799477,-0.023728432883788564,0.09620712802315341,32.08287849390507,-100.26678939585686,76.200527287817
2024-09-23 08:53:18.858158,45.12,7.844662,-0.0033329230534799477,-0.023728432883788564,0.09620712802315341,28.07457030097246,-96.25519929585457,76.200527287817
2024-09-23 08:53:18.890227,45.12,7.844662,-0.0033329230534799477,-0.023728432883788564,0.09620712802315341,28.07457030097246,-96.25519929585457,80.21211738781929
2024-09-23 08:53:18.901482,45.12,7.844712,-0.0033329230534799477,-0.023778180888911878,0.09680407370509965,40.106058693909645,-96.25519929585457,80.21211738781929
2024-09-23 08:53:18.944349,45.12,7.844763,-0.0031836870127375577,-0.023778180888911878,0.09680407370509965,40.106058693909645,-88.23529758782387,88.23529758782387
2024-09-23 08:53:18.955705,45.12,7.844763,-0.0031836870127375577,-0.02338022115155219,0.09710254654607277,40.106058693909645,-88.23529758782387,88.23529758782387
2024-09-23 08:53:18.988312,45.12,7.844763,-0.0031836870127375577,-0.02338022115155219,0.09710254654607277,40.106058693909645,-92.24360919585227,88.23529758782387
2024-09-23 08:53:19.000034,45.12,7.844814,-0.0029349636958644295,-0.02367869399252531,0.09710254654607277,40.106058693909645,-92.24360919585227,84.22370748782159
2024-09-23 08:53:19.043608,45.12,7.844814,-0.0029349636958644295,-0.02367869399252531,0.09635636444363997,36.09446859390736,-92.24360919585227,88.23529758782387
2024-09-23 08:53:19.055732,45.12,7.844864,-0.0028354659767690416,-0.02367869399252531,0.09635636444363997,36.09446859390736,-92.24360919585227,88.23529758782387
2024-09-23 08:53:19.087478,45.12,7.844864,-0.0028354659767690416,-0.02352945757203875,0.09750050628343246,40.106058693909645,-92.24360919585227,88.23529758782387
2024-09-23 08:53:19.098745,45.12,7.844951,-0.0028354659767690416,-0.02352945757203875,0.09750050628343246,40.106058693909645,-100.26678939585686,80.21211738781929
2024-09-23 08:53:19.141081,45.12,7.844951,-0.0033329230534799477,-0.023429960042815445,0.0970030596496862,40.106058693909645,-100.26678939585686,80.21211738781929
2024-09-23 08:53:19.184138,45.12,7.844951,-0.0033329230534799477,-0.023429960042815445,0.0970030596496862,36.09446859390736,-92.24360919585227,80.21211738781929
2024-09-23 08:53:19.195114,45.12,7.845003,-0.0031836870127375577,-0.02352945757203875,0.0970030596496862,36.09446859390736,-92.24360919585227,80.21211738781929
2024-09-23 08:53:19.238329,45.36,7.845054,-0.0031836870127375577,-0.02352945757203875,0.09665483728461309,36.09446859390736,-100.26678939585686,84.22370748782159
2024-09-23 08:53:19.250185,45.36,7.845054,-0.0028852147413806935,-0.02352945757203875,0.09665483728461309,36.09446859390736,-100.26678939585686,84.22370748782159
2024-09-23 08:53:19.281792,45.36,7.845054,-0.0028852147413806935,-0.023827930413011865,0.09745075675933246,36.09446859390736,-100.26678939585686,84.22370748782159
2024-09-23 08:53:19.293099,45.36,7.845104,-0.0028852147413806935,-0.023827930413011865,0.09745075675933246,36.09446859390736,-92.24360919585227,80.21211738781929
2024-09-23 08:53:19.334735,45.36,7.845104,-0.0029349636958644295,-0.023579196463302005,0.09665483728461309,32.08287849390507,-100.26678939585686,80.21211738781929
2024-09-23 08:53:19.346702,45.36,7.845104,-0.0029349636958644295,-0.023579196463302005,0.09665483728461309,32.08287849390507,-100.26678939585686,80.21211738781929
2024-09-23 08:53:19.379261,45.36,7.845156,-0.003233425524256645,-0.023579196463302005,0.09665483728461309,32.08287849390507,-100.26678939585686,80.21211738781929
2024-09-23 08:53:19.390392,45.36,7.845156,-0.003233425524256645,-0.023479709566915436,0.09680407370509965,40.106058693909645,-104.27510100388527,80.21211738781929
2024-09-23 08:53:19.433006,45.36,7.845245,-0.0032831742888682963,-0.023877669304275123,0.09655535038822652,40.106058693909645,-104.27510100388527,76.200527287817
2024-09-23 08:53:19.444980,45.36,7.845245,-0.0032831742888682963,-0.023877669304275123,0.09655535038822652,40.106058693909645,-104.27510100388527,76.200527287817
2024-09-23 08:53:19.478870,45.36,7.845296,-0.0032831742888682963,-0.023877669304275123,0.09655535038822652,40.106058693909645,-108.28669110388756,76.200527287817
2024-09-23 08:53:19.490051,45.36,7.845296,-0.0025369937054121774,-0.023280723622328886,0.09725178296655933,40.106058693909645,-108.28669110388756,76.200527287817
2024-09-23 08:53:19.532294,45.36,7.845347,-0.0030344509719951677,-0.023877669304275123,0.09725178296655933,44.11764879391193,-96.25519929585457,76.200527287817
2024-09-23 08:53:19.574829,45.36,7.845347,-0.0030344509719951677,-0.023877669304275123,0.09720203344245934,40.106058693909645,-100.26678939585686,76.200527287817
2024-09-23 08:53:19.586935,45.36,7.845397,-0.003482159473966507,-0.023877669304275123,0.09720203344245934,40.106058693909645,-100.26678939585686,76.200527287817
2024-09-23 08:53:19.629792,45.36,7.845488,-0.003482159473966507,-0.02367869399252531,0.09650560086412653,36.09446859390736,-100.26678939585686,80.21211738781929
2024-09-23 08:53:19.671472,45.36,7.845488,-0.0038303700669703737,-0.02338022115155219,0.09650560086412653,36.09446859390736,-100.26678939585686,80.21211738781929
2024-09-23 08:53:19.682519,45.36,7.845488,-0.0038303700669703737,-0.02338022115155219,0.09720203344245934,40.106058693909645,-92.24360919585227,76.200527287817
2024-09-23 08:53:19.725831,45.36,7.845539,-0.003482159473966507,-0.023479709566915436,0.0973512698629459,40.106058693909645,-92.24360919585227,76.200527287817
2024-09-23 08:53:19.737957,45.36,7.845539,-0.003482159473966507,-0.023479709566915436,0.0973512698629459,40.106058693909645,-96.25519929585457,76.200527287817
2024-09-23 08:53:19.770431,45.36,7.84559,-0.0031836870127375577,-0.023479709566915436,0.0973512698629459,40.106058693909645,-96.25519929585457,80.21211738781929
2024-09-23 08:53:19.782283,45.36,7.84559,-0.0031836870127375577,-0.023579196463302005,0.09715228999426605,40.106058693909645,-96.25519929585457,80.21211738781929
2024-09-23 08:53:19.825178,45.36,7.84564,-0.0037308827908396356,-0.023778180888911878,0.09725178296655933,40.106058693909645,-88.23529758782387,80.21211738781929
2024-09-23 08:53:19.867577,45.36,7.84564,-0.0037308827908396356,-0.023778180888911878,0.09725178296655933,32.08287849390507,-108.28669110388756,72.1922225099802
2024-09-23 08:53:19.878784,45.36,7.845691,-0.0034324103296106863,-0.023778180888911878,0.09725178296655933,32.08287849390507,-108.28669110388756,72.1922225099802
2024-09-23 08:53:19.920919,45.36,7.845742,-0.0035816467500972456,-0.023778180888911878,0.0973015264147526,40.106058693909645,-104.27510100388527,76.200527287817
2024-09-23 08:53:19.964284,45.36,7.845742,-0.0035816467500972456,-0.02352945757203875,0.0966050877605131,40.106058693909645,-104.27510100388527,76.200527287817
2024-09-23 08:53:19.976441,45.36,7.845829,-0.0035816467500972456,-0.02352945757203875,0.0966050877605131,32.08287849390507,-92.24360919585227,88.23529758782387
2024-09-23 08:53:20.019838,45.36,7.845829,-0.003382661564999035,-0.02362894446842532,0.0976994861521123,36.09446859390736,-100.26678939585686,76.200527287817
2024-09-23 08:53:20.062351,45.36,7.84588,-0.0030841997366068195,-0.02362894446842532,0.0976994861521123,36.09446859390736,-100.26678939585686,76.200527287817
2024-09-23 08:53:20.074040,45.36,7.84588,-0.0030841997366068195,-0.023728432883788564,0.09670458680871308,40.106058693909645,-92.24360919585227,76.200527287817
2024-09-23 08:53:20.116600,45.36,7.845931,-0.0034324103296106863,-0.023877669304275123,0.09745075675933246,36.09446859390736,-92.24360919585227,80.21211738781929
2024-09-23 08:53:20.158646,45.36,7.845931,-0.0034324103296106863,-0.023877669304275123,0.09745075675933246,36.09446859390736,-96.25519929585457,80.21211738781929
2024-09-23 08:53:20.170354,45.36,7.845982,-0.002785727465249955,-0.02367869399252531,0.09715228999426605,36.09446859390736,-96.25519929585457,80.21211738781929
2024-09-23 08:53:20.212231,45.36,7.846032,-0.0035318979854855937,-0.02367869399252531,0.09715228999426605,40.106058693909645,-100.26678939585686,84.22370748782159
2024-09-23 08:53:20.224291,45.36,7.846032,-0.0035318979854855937,-0.023479709566915436,0.09715228999426605,40.106058693909645,-100.26678939585686,84.22370748782159
2024-09-23 08:53:20.256769,45.09,7.846032,-0.0035318979854855937,-0.023479709566915436,0.09650560086412653,32.08287849390507,-100.26678939585686,84.22370748782159
2024-09-23 08:53:20.268494,45.09,7.846083,-0.003382661564999035,-0.023479709566915436,0.09650560086412653,32.08287849390507,-100.26678939585686,80.21211738781929
2024-09-23 08:53:20.310212,45.09,7.846083,-0.003382661564999035,-0.02352945757203875,0.09715228999426605,40.106058693909645,-96.25519929585457,80.21211738781929
2024-09-23 08:53:20.321835,45.09,7.84617,-0.003382661564999035,-0.02352945757203875,0.09715228999426605,40.106058693909645,-96.25519929585457,80.21211738781929
2024-09-23 08:53:20.354220,45.09,7.84617,-0.003382661564999035,-0.023728432883788564,0.09715228999426605,40.106058693909645,-96.25519929585457,80.21211738781929
2024-09-23 08:53:20.365110,45.09,7.84617,-0.003382661564999035,-0.023728432883788564,0.0970030596496862,40.106058693909645,-100.26678939585686,84.22370748782159
2024-09-23 08:53:20.407442,45.09,7.846222,-0.0031339382481259063,-0.023927417309398437,0.0973015264147526,40.106058693909645,-100.26678939585686,84.22370748782159
2024-09-23 08:53:20.418648,45.09,7.846222,-0.0031339382481259063,-0.023927417309398437,0.0973015264147526,40.106058693909645,-88.23529758782387,84.22370748782159
2024-09-23 08:53:20.451713,45.09,7.846272,-0.0031339382481259063,-0.023927417309398437,0.0973015264147526,40.106058693909645,-88.23529758782387,84.22370748782159
2024-09-23 08:53:20.463090,45.09,7.846272,-0.002785727465249955,-0.023728432883788564,0.09710254654607277,32.08287849390507,-88.23529758782387,84.22370748782159
2024-09-23 08:53:20.506406,45.09,7.846323,-0.0028852147413806935,-0.023429960042815445,0.09695331012558621,32.08287849390507,-96.25519929585457,84.22370748782159
2024-09-23 08:53:20.548685,45.09,7.846323,-0.0028852147413806935,-0.023429960042815445,0.09695331012558621,40.106058693909645,-100.26678939585686,84.22370748782159
2024-09-23 08:53:20.560102,45.09,7.846374,-0.003631395514708897,-0.024026904205785005,0.09695331012558621,40.106058693909645,-100.26678939585686,80.21211738781929
2024-09-23 08:53:20.602872,45.09,7.846424,-0.003631395514708897,-0.024026904205785005,0.09670458680871308,32.08287849390507,-88.23529758782387,88.23529758782387
2024-09-23 08:53:20.614945,45.09,7.846424,-0.0031339382481259063,-0.024026904205785005,0.09670458680871308,32.08287849390507,-88.23529758782387,88.23529758782387
2024-09-23 08:53:20.646874,45.09,7.846424,-0.0031339382481259063,-0.023479709566915436,0.0976994861521123,32.08287849390507,-88.23529758782387,88.23529758782387
2024-09-23 08:53:20.658010,45.09,7.846511,-0.0031339382481259063,-0.023479709566915436,0.0976994861521123,32.08287849390507,-104.27510100388527,76.200527287817
2024-09-23 08:53:20.700365,45.09,7.846511,-0.003631395514708897,-0.024076653729884996,0.09755024973162574,32.08287849390507,-100.26678939585686,76.200527287817
2024-09-23 08:53:20.712457,45.09,7.846511,-0.003631395514708897,-0.024076653729884996,0.09755024973162574,32.08287849390507,-100.26678939585686,84.22370748782159
2024-09-23 08:53:20.744246,45.09,7.846563,-0.0029349636958644295,-0.024076653729884996,0.09755024973162574,32.08287849390507,-100.26678939585686,84.22370748782159
2024-09-23 08:53:20.755371,45.09,7.846563,-0.0029349636958644295,-0.02352945757203875,0.09680407370509965,32.08287849390507,-96.25519929585457,84.22370748782159
2024-09-23 08:53:20.797657,45.09,7.846614,-0.0033329230534799477,-0.023827930413011865,0.09670458680871308,32.08287849390507,-96.25519929585457,80.21211738781929
2024-09-23 08:53:20.809654,45.09,7.846614,-0.0033329230534799477,-0.023827930413011865,0.09670458680871308,44.11764879391193,-96.25519929585457,80.21211738781929
2024-09-23 08:53:20.842106,45.09,7.846614,-0.0033329230534799477,-0.023827930413011865,0.09670458680871308,44.11764879391193,-96.25519929585457,76.200527287817
2024-09-23 08:53:20.853833,45.09,7.846664,-0.0031836870127375577,-0.023280723622328886,0.09690356060148622,44.11764879391193,-96.25519929585457,76.200527287817
2024-09-23 08:53:20.896040,45.09,7.846715,-0.0034324103296106863,-0.023280723622328886,0.09690356060148622,44.11764879391193,-92.24360919585227,76.200527287817
2024-09-23 08:53:20.907691,45.09,7.846715,-0.0034324103296106863,-0.023877669304275123,0.09690356060148622,44.11764879391193,-92.24360919585227,76.200527287817
2024-09-23 08:53:20.940512,45.09,7.846715,-0.0034324103296106863,-0.023877669304275123,0.09705279702197278,36.09446859390736,-96.25519929585457,76.200527287817
2024-09-23 08:53:20.951851,45.09,7.846765,-0.0031339382481259063,-0.023877669304275123,0.09705279702197278,36.09446859390736,-96.25519929585457,80.21211738781929
2024-09-23 08:53:20.994806,45.09,7.846853,-0.0031339382481259063,-0.02367869399252531,0.09725178296655933,32.08287849390507,-92.24360919585227,84.22370748782159
2024-09-23 08:53:21.037912,45.09,7.846853,-0.0030841997366068195,-0.023728432883788564,0.09715228999426605,32.08287849390507,-92.24360919585227,84.22370748782159
2024-09-23 08:53:21.049858,45.09,7.846853,-0.0030841997366068195,-0.023728432883788564,0.09715228999426605,36.09446859390736,-96.25519929585457,84.22370748782159
2024-09-23 08:53:21.092674,45.09,7.846904,-0.0029349636958644295,-0.02352945757203875,0.09720203344245934,40.106058693909645,-96.25519929585457,84.22370748782159
2024-09-23 08:53:21.135394,45.09,7.846955,-0.0029349636958644295,-0.02352945757203875,0.09720203344245934,40.106058693909645,-96.25519929585457,80.21211738781929
2024-09-23 08:53:21.146572,45.09,7.846955,-0.0029847020175114316,-0.02367869399252531,0.0973512698629459,48.12595698684454,-96.25519929585457,80.21211738781929
2024-09-23 08:53:21.189174,45.09,7.847006,-0.0030344509719951677,-0.023778180888911878,0.09685382322919964,48.12595698684454,-88.23529758782387,80.21211738781929
2024-09-23 08:53:21.231692,45.09,7.847006,-0.0030344509719951677,-0.023778180888911878,0.09685382322919964,36.09446859390736,-96.25519929585457,80.21211738781929
2024-09-23 08:53:21.243626,45.09,7.847057,-0.0032831742888682963,-0.024026904205785005,0.09685382322919964,36.09446859390736,-96.25519929585457,76.200527287817
2024-09-23 08:53:21.285931,45.05,7.847057,-0.0032831742888682963,-0.024026904205785005,0.09685382322919964,40.106058693909645,-96.25519929585457,76.200527287817
2024-09-23 08:53:21.328234,45.05,7.847057,-0.0032831742888682963,-0.024026904205785005,0.09685382322919964,40.106058693909645,-104.27510100388527,76.200527287817
2024-09-23 08:53:21.340587,45.05,7.847107,-0.0027359787006383035,-0.023827930413011865,0.09720203344245934,40.106058693909645,-104.27510100388527,72.1922225099802
2024-09-23 08:53:21.383248,45.05,7.847194,-0.003482159473966507,-0.023827930413011865,0.09720203344245934,36.09446859390736,-96.25519929585457,80.21211738781929
2024-09-23 08:53:21.395001,45.05,7.847194,-0.003482159473966507,-0.023827930413011865,0.09720203344245934,36.09446859390736,-96.25519929585457,80.21211738781929
2024-09-23 08:53:21.427853,45.05,7.847194,-0.003482159473966507,-0.023827930413011865,0.09715228999426605,28.07457030097246,-96.25519929585457,80.21211738781929
2024-09-23 08:53:21.438854,45.05,7.847245,-0.0034324103296106863,-0.023827930413011865,0.09715228999426605,28.07457030097246,-96.25519929585457,76.200527287817
2024-09-23 08:53:21.481334,45.05,7.847296,-0.0034324103296106863,-0.02338022115155219,0.0970030596496862,32.08287849390507,-96.25519929585457,84.22370748782159
2024-09-23 08:53:21.523668,45.05,7.847296,-0.0030841997366068195,-0.023728432883788564,0.0970030596496862,32.08287849390507,-96.25519929585457,84.22370748782159
2024-09-23 08:53:21.535258,45.05,7.847296,-0.0030841997366068195,-0.023728432883788564,0.09680407370509965,36.09446859390736,-92.24360919585227,80.21211738781929
2024-09-23 08:53:21.577233,45.05,7.847389,-0.0028852147413806935,-0.02412639262114825,0.09745075675933246,32.08287849390507,-92.24360919585227,80.21211738781929
2024-09-23 08:53:21.589382,45.05,7.847389,-0.0028852147413806935,-0.02412639262114825,0.09745075675933246,32.08287849390507,-100.26678939585686,80.21211738781929
2024-09-23 08:53:21.622348,45.05,7.847441,-0.0031339382481259063,-0.02412639262114825,0.09745075675933246,32.08287849390507,-100.26678939585686,80.21211738781929
2024-09-23 08:53:21.634131,45.05,7.847441,-0.0031339382481259063,-0.024176140626271565,0.09745075675933246,32.08287849390507,-100.26678939585686,80.21211738781929
2024-09-23 08:53:21.676628,45.05,7.847491,-0.0030344509719951677,-0.024176140626271565,0.09690356060148622,36.09446859390736,-96.25519929585457,80.21211738781929
2024-09-23 08:53:21.718949,45.05,7.847491,-0.0030344509719951677,-0.023877669304275123,0.09680407370509965,36.09446859390736,-96.25519929585457,80.21211738781929
2024-09-23 08:53:21.733895,45.05,7.847542,-0.0030344509719951677,-0.023877669304275123,0.09680407370509965,36.09446859390736,-96.25519929585457,80.21211738781929
2024-09-23 08:53:21.766588,45.05,7.847542,-0.0032831742888682963,-0.023877669304275123,0.09680407370509965,36.09446859390736,-96.25519929585457,80.21211738781929
2024-09-23 08:53:21.777888,45.05,7.847542,-0.0032831742888682963,-0.02412639262114825,0.0976994861521123,36.09446859390736,-96.25519929585457,80.21211738781929
2024-09-23 08:53:21.820459,45.05,7.847593,-0.0032831742888682963,-0.02412639262114825,0.0976994861521123,36.09446859390736,-96.25519929585457,80.21211738781929
2024-09-23 08:53:21.862814,45.05,7.847593,-0.0035816467500972456,-0.02412639262114825,0.0976994861521123,36.09446859390736,-96.25519929585457,80.21211738781929
2024-09-23 08:53:21.874248,45.05,7.847593,-0.0035816467500972456,-0.024225890150371555,0.09750050628343246,36.09446859390736,-96.25519929585457,80.21211738781929
2024-09-23 08:53:21.916479,45.05,7.847681,-0.003482159473966507,-0.023877669304275123,0.09750050628343246,36.09446859390736,-96.25519929585457,80.21211738781929
2024-09-23 08:53:21.927560,45.05,7.847681,-0.003482159473966507,-0.023877669304275123,0.0973512698629459,40.106058693909645,-104.27510100388527,80.21211738781929
2024-09-23 08:53:21.961078,45.05,7.847681,-0.003482159473966507,-0.023877669304275123,0.0973512698629459,40.106058693909645,-104.27510100388527,80.21211738781929
2024-09-23 08:53:21.972369,45.05,7.847733,-0.003233425524256645,-0.023280723622328886,0.09710254654607277,40.106058693909645,-104.27510100388527,80.21211738781929
2024-09-23 08:53:22.015141,45.05,7.847784,-0.0033329230534799477,-0.023280723622328886,0.09710254654607277,40.106058693909645,-96.25519929585457,80.21211738781929
2024-09-23 08:53:22.026708,45.05,7.847784,-0.0033329230534799477,-0.02308174982955575,0.0973512698629459,40.106058693909645,-96.25519929585457,80.21211738781929
2024-09-23 08:53:22.060906,45.05,7.847784,-0.0033329230534799477,-0.02308174982955575,0.0973512698629459,36.09446859390736,-96.25519929585457,80.21211738781929
2024-09-23 08:53:22.072513,45.05,7.847834,-0.0031836870127375577,-0.023579196463302005,0.0973512698629459,36.09446859390736,-96.25519929585457,88.23529758782387
2024-09-23 08:53:22.115256,45.05,7.847928,-0.0031836870127375577,-0.023579196463302005,0.09670458680871308,40.106058693909645,-100.26678939585686,80.21211738781929
2024-09-23 08:53:22.126987,45.05,7.847928,-0.0031339382481259063,-0.023579196463302005,0.09670458680871308,40.106058693909645,-100.26678939585686,80.21211738781929
2024-09-23 08:53:22.158801,45.05,7.847928,-0.0031339382481259063,-0.023429960042815445,0.0966050877605131,36.09446859390736,-100.26678939585686,80.21211738781929
2024-09-23 08:53:22.170286,45.05,7.848023,-0.0031339382481259063,-0.023429960042815445,0.0966050877605131,36.09446859390736,-100.26678939585686,80.21211738781929
2024-09-23 08:53:22.213170,45.05,7.848023,-0.0034324103296106863,-0.023927417309398437,0.09685382322919964,36.09446859390736,-88.23529758782387,80.21211738781929
2024-09-23 08:53:22.224872,45.05,7.848023,-0.0034324103296106863,-0.023927417309398437,0.09685382322919964,36.09446859390736,-88.23529758782387,80.21211738781929
2024-09-23 08:53:22.256779,45.05,7.848074,-0.0029847020175114316,-0.02367869399252531,0.09685382322919964,36.09446859390736,-88.23529758782387,80.21211738781929
2024-09-23 08:53:22.268379,45.05,7.848074,-0.0029847020175114316,-0.02367869399252531,0.0970030596496862,32.08287849390507,-92.24360919585227,80.21211738781929
2024-09-23 08:53:22.311193,45.03,7.848125,-0.0033329230534799477,-0.023927417309398437,0.09720203344245934,32.08287849390507,-92.24360919585227,76.200527287817
2024-09-23 08:53:22.354426,45.03,7.848175,-0.0033329230534799477,-0.023927417309398437,0.09720203344245934,32.08287849390507,-92.24360919585227,84.22370748782159
2024-09-23 08:53:22.365850,45.03,7.848175,-0.0028852147413806935,-0.02352945757203875,0.09680407370509965,32.08287849390507,-92.24360919585227,84.22370748782159
2024-09-23 08:53:22.408355,45.03,7.848226,-0.003382661564999035,-0.023827930413011865,0.09680407370509965,40.106058693909645,-100.26678939585686,80.21211738781929
2024-09-23 08:53:22.450368,45.03,7.848226,-0.003382661564999035,-0.023827930413011865,0.09680407370509965,40.106058693909645,-100.26678939585686,80.21211738781929
2024-09-23 08:53:22.461681,45.03,7.848277,-0.0030344509719951677,-0.023827930413011865,0.09680407370509965,40.106058693909645,-100.26678939585686,76.200527287817
2024-09-23 08:53:22.504205,45.03,7.848277,-0.0030344509719951677,-0.023479709566915436,0.09680407370509965,36.09446859390736,-96.25519929585457,76.200527287817
2024-09-23 08:53:22.516232,45.03,7.848364,-0.0030344509719951677,-0.023479709566915436,0.09680407370509965,36.09446859390736,-96.25519929585457,76.200527287817
2024-09-23 08:53:22.547639,45.03,7.848364,-0.003233425524256645,-0.023579196463302005,0.09680407370509965,36.09446859390736,-96.25519929585457,76.200527287817
2024-09-23 08:53:22.559087,45.03,7.848364,-0.003233425524256645,-0.023579196463302005,0.09675432418099966,36.09446859390736,-100.26678939585686,80.21211738781929
2024-09-23 08:53:22.602319,45.03,7.848415,-0.0030841997366068195,-0.023778180888911878,0.09720203344245934,36.09446859390736,-96.25519929585457,80.21211738781929
2024-09-23 08:53:22.644914,45.03,7.848466,-0.0030841997366068195,-0.023778180888911878,0.09720203344245934,36.09446859390736,-96.25519929585457,80.21211738781929
2024-09-23 08:53:22.656381,45.03,7.848466,-0.0035816467500972456,-0.023330473146428877,0.09675432418099966,36.09446859390736,-96.25519929585457,80.21211738781929
2024-09-23 08:53:22.698767,45.03,7.848517,-0.0029847020175114316,-0.02397715620066169,0.09675432418099966,36.09446859390736,-104.27510100388527,76.200527287817
2024-09-23 08:53:22.710769,45.03,7.848517,-0.0029847020175114316,-0.02397715620066169,0.09705279702197278,36.09446859390736,-104.27510100388527,76.200527287817
2024-09-23 08:53:22.742695,45.03,7.848517,-0.0029847020175114316,-0.02397715620066169,0.09705279702197278,36.09446859390736,-100.26678939585686,76.200527287817
2024-09-23 08:53:22.754466,45.03,7.848567,-0.003780631555451287,-0.02338022115155219,0.09705279702197278,36.09446859390736,-100.26678939585686,76.200527287817
2024-09-23 08:53:22.796806,45.03,7.848618,-0.003780631555451287,-0.02338022115155219,0.09725178296655933,40.106058693909645,-100.26678939585686,80.21211738781929
2024-09-23 08:53:22.809018,45.03,7.848618,-0.0031339382481259063,-0.02338022115155219,0.09725178296655933,40.106058693909645,-100.26678939585686,80.21211738781929
2024-09-23 08:53:22.842842,45.03,7.848618,-0.0031339382481259063,-0.024225890150371555,0.09685382322919964,36.09446859390736,-100.26678939585686,80.21211738781929
2024-09-23 08:53:22.854360,45.03,7.848705,-0.0031339382481259063,-0.024225890150371555,0.09685382322919964,36.09446859390736,-96.25519929585457,84.22370748782159
2024-09-23 08:53:22.887470,45.03,7.848705,-0.0029847020175114316,-0.024225890150371555,0.09685382322919964,36.09446859390736,-96.25519929585457,84.22370748782159
2024-09-23 08:53:22.898992,45.03,7.848705,-0.0029847020175114316,-0.02338022115155219,0.09715228999426605,36.09446859390736,-100.26678939585686,80.21211738781929
2024-09-23 08:53:22.942019,45.03,7.848757,-0.0035318979854855937,-0.023330473146428877,0.09725178296655933,28.07457030097246,-100.26678939585686,80.21211738781929
2024-09-23 08:53:22.954260,45.03,7.848757,-0.0035318979854855937,-0.023330473146428877,0.09725178296655933,28.07457030097246,-100.26678939585686,80.21211738781929
2024-09-23 08:53:22.986690,45.03,7.848807,-0.0035318979854855937,-0.023330473146428877,0.09725178296655933,28.07457030097246,-100.26678939585686,88.23529758782387
2024-09-23 08:53:22.998715,45.03,7.848807,-0.0030344509719951677,-0.02352945757203875,0.09710254654607277,36.09446859390736,-100.26678939585686,88.23529758782387
2024-09-23 08:53:23.041962,45.03,7.848858,-0.002785727465249955,-0.023479709566915436,0.09710254654607277,36.09446859390736,-92.24360919585227,80.21211738781929
2024-09-23 08:53:23.053484,45.03,7.848858,-0.002785727465249955,-0.023479709566915436,0.09680407370509965,36.09446859390736,-92.24360919585227,80.21211738781929
2024-09-23 08:53:23.086180,45.03,7.848858,-0.002785727465249955,-0.023479709566915436,0.09680407370509965,40.106058693909645,-92.24360919585227,80.21211738781929
2024-09-23 08:53:23.097562,45.03,7.848909,-0.0032831742888682963,-0.02268379009219606,0.09680407370509965,40.106058693909645,-92.24360919585227,80.21211738781929
2024-09-23 08:53:23.139666,45.03,7.848959,-0.0029847020175114316,-0.02268379009219606,0.0970030596496862,44.11764879391193,-92.24360919585227,76.200527287817
2024-09-23 08:53:23.181887,45.03,7.848959,-0.0029847020175114316,-0.023728432883788564,0.09695331012558621,44.11764879391193,-92.24360919585227,76.200527287817
2024-09-23 08:53:23.193848,45.03,7.849046,-0.0029847020175114316,-0.023728432883788564,0.09695331012558621,40.106058693909645,-96.25519929585457,80.21211738781929
2024-09-23 08:53:23.237185,45.03,7.849046,-0.0032831742888682963,-0.02352945757203875,0.09710254654607277,44.11764879391193,-104.27510100388527,76.200527287817
2024-09-23 08:53:23.281183,45.03,7.849098,-0.0034324103296106863,-0.023280723622328886,0.09710254654607277,44.11764879391193,-104.27510100388527,76.200527287817
2024-09-23 08:53:23.293164,45.03,7.849098,-0.0034324103296106863,-0.023280723622328886,0.09695331012558621,40.106058693909645,-100.26678939585686,76.200527287817
2024-09-23 08:53:23.326160,44.68,7.849098,-0.0034324103296106863,-0.023280723622328886,0.09695331012558621,40.106058693909645,-100.26678939585686,80.21211738781929
2024-09-23 08:53:23.337417,44.68,7.849149,-0.0034324103296106863,-0.023827930413011865,0.09650560086412653,44.11764879391193,-100.26678939585686,80.21211738781929
2024-09-23 08:53:23.379471,44.68,7.849199,-0.0028852147413806935,-0.023827930413011865,0.09650560086412653,44.11764879391193,-96.25519929585457,84.22370748782159
2024-09-23 08:53:23.390802,44.68,7.849199,-0.0028852147413806935,-0.024076653729884996,0.09715228999426605,44.11764879391193,-96.25519929585457,84.22370748782159
2024-09-23 08:53:23.422626,44.68,7.849199,-0.0028852147413806935,-0.024076653729884996,0.09715228999426605,36.09446859390736,-96.25519929585457,84.22370748782159
2024-09-23 08:53:23.476049,44.68,7.849199,-0.0028852147413806935,-0.024076653729884996,0.09715228999426605,36.09446859390736,-96.25519929585457,84.22370748782159
2024-09-23 08:53:23.487675,44.68,7.84925,-0.0031339382481259063,-0.023330473146428877,0.09675432418099966,36.09446859390736,-96.25519929585457,84.22370748782159
2024-09-23 08:53:23.530100,44.68,7.8493,-0.0031836870127375577,-0.02362894446842532,0.09675432418099966,32.08287849390507,-92.24360919585227,84.22370748782159
2024-09-23 08:53:23.573218,44.68,7.8493,-0.0031836870127375577,-0.02362894446842532,0.0973512698629459,36.09446859390736,-96.25519929585457,84.22370748782159
2024-09-23 08:53:23.584245,44.68,7.849388,-0.0028852147413806935,-0.02362894446842532,0.0973512698629459,36.09446859390736,-96.25519929585457,84.22370748782159
2024-09-23 08:53:23.626508,44.68,7.849439,-0.0028852147413806935,-0.023330473146428877,0.09725178296655933,32.08287849390507,-100.26678939585686,76.200527287817
2024-09-23 08:53:23.668948,44.68,7.849439,-0.003382661564999035,-0.02362894446842532,0.09725178296655933,32.08287849390507,-100.26678939585686,76.200527287817
2024-09-23 08:53:23.681949,44.68,7.849439,-0.003382661564999035,-0.02362894446842532,0.09680407370509965,36.09446859390736,-104.27510100388527,76.200527287817
2024-09-23 08:53:23.724908,44.68,7.849534,-0.003233425524256645,-0.02338022115155219,0.09720203344245934,32.08287849390507,-100.26678939585686,76.200527287817
2024-09-23 08:53:23.768291,44.68,7.849586,-0.0031339382481259063,-0.02338022115155219,0.09720203344245934,32.08287849390507,-100.26678939585686,84.22370748782159
2024-09-23 08:53:23.779716,44.68,7.849586,-0.0031339382481259063,-0.023230986250042305,0.09715228999426605,32.08287849390507,-100.26678939585686,84.22370748782159
2024-09-23 08:53:23.822573,44.68,7.849636,-0.0027359787006383035,-0.02352945757203875,0.09695331012558621,32.08287849390507,-96.25519929585457,88.23529758782387
2024-09-23 08:53:23.864984,44.68,7.849636,-0.0027359787006383035,-0.02352945757203875,0.09695331012558621,36.09446859390736,-104.27510100388527,80.21211738781929
2024-09-23 08:53:23.876312,44.68,7.849687,-0.0036811340262279837,-0.023927417309398437,0.09695331012558621,36.09446859390736,-104.27510100388527,80.21211738781929
2024-09-23 08:53:23.918710,44.68,7.849738,-0.0030344509719951677,-0.023927417309398437,0.09655535038822652,32.08287849390507,-104.27510100388527,72.1922225099802
2024-09-23 08:53:23.962005,44.68,7.849738,-0.0030344509719951677,-0.02352945757203875,0.09705279702197278,32.08287849390507,-104.27510100388527,72.1922225099802
2024-09-23 08:53:23.972976,44.68,7.849826,-0.0030344509719951677,-0.02352945757203875,0.09705279702197278,36.09446859390736,-104.27510100388527,80.21211738781929
2024-09-23 08:53:24.016230,44.68,7.849826,-0.0030841997366068195,-0.024225890150371555,0.09710254654607277,36.09446859390736,-96.25519929585457,80.21211738781929
2024-09-23 08:53:24.058674,44.68,7.849878,-0.003482159473966507,-0.024225890150371555,0.09710254654607277,36.09446859390736,-96.25519929585457,80.21211738781929
2024-09-23 08:53:24.070628,44.68,7.849878,-0.003482159473966507,-0.024026904205785005,0.09710254654607277,28.07457030097246,-96.25519929585457,80.21211738781929
2024-09-23 08:53:24.113633,44.68,7.849929,-0.0031339382481259063,-0.023330473146428877,0.09650560086412653,28.07457030097246,-96.25519929585457,80.21211738781929
2024-09-23 08:53:24.125006,44.68,7.849929,-0.0031339382481259063,-0.023330473146428877,0.09650560086412653,28.07457030097246,-96.25519929585457,80.21211738781929
2024-09-23 08:53:24.156462,44.68,7.849929,-0.0031339382481259063,-0.023330473146428877,0.09650560086412653,28.07457030097246,-96.25519929585457,80.21211738781929
2024-09-23 08:53:24.167541,44.68,7.849979,-0.002785727465249955,-0.02352945757203875,0.09720203344245934,28.07457030097246,-96.25519929585457,80.21211738781929
2024-09-23 08:53:24.210456,44.68,7.85003,-0.002785727465249955,-0.02352945757203875,0.09720203344245934,44.11764879391193,-92.24360919585227,76.200527287817
2024-09-23 08:53:24.221760,44.68,7.85003,-0.0035318979854855937,-0.02412639262114825,0.09720203344245934,44.11764879391193,-92.24360919585227,76.200527287817
2024-09-23 08:53:24.254056,44.68,7.85003,-0.0035318979854855937,-0.02412639262114825,0.09705279702197278,40.106058693909645,-92.24360919585227,76.200527287817
2024-09-23 08:53:24.265260,44.68,7.850081,-0.0030841997366068195,-0.02412639262114825,0.09705279702197278,40.106058693909645,-96.25519929585457,80.21211738781929
2024-09-23 08:53:24.307243,44.68,7.850081,-0.0030841997366068195,-0.024275627522658133,0.09695331012558621,36.09446859390736,-96.25519929585457,84.22370748782159
2024-09-23 08:53:24.319279,44.68,7.850168,-0.0030841997366068195,-0.024275627522658133,0.09695331012558621,36.09446859390736,-96.25519929585457,84.22370748782159
2024-09-23 08:53:24.350965,44.55,7.850168,-0.003631395514708897,-0.023579196463302005,0.09695331012558621,36.09446859390736,-96.25519929585457,84.22370748782159
2024-09-23 08:53:24.362558,44.55,7.850168,-0.003631395514708897,-0.023579196463302005,0.09715228999426605,36.09446859390736,-92.24360919585227,80.21211738781929
2024-09-23 08:53:24.405117,44.55,7.850219,-0.0031339382481259063,-0.02362894446842532,0.09725178296655933,48.12595698684454,-92.24360919585227,80.21211738781929
2024-09-23 08:53:24.417368,44.55,7.850219,-0.0031339382481259063,-0.02362894446842532,0.09725178296655933,48.12595698684454,-96.25519929585457,80.21211738781929
2024-09-23 08:53:24.451024,44.55,7.85027,-0.0036811340262279837,-0.02362894446842532,0.09725178296655933,48.12595698684454,-96.25519929585457,72.1922225099802
2024-09-23 08:53:24.462380,44.55,7.85027,-0.0036811340262279837,-0.023877669304275123,0.09720203344245934,40.106058693909645,-96.25519929585457,72.1922225099802
2024-09-23 08:53:24.505407,44.55,7.850321,-0.002785727465249955,-0.02362894446842532,0.09670458680871308,40.106058693909645,-100.26678939585686,76.200527287817
2024-09-23 08:53:24.547787,44.55,7.850321,-0.002785727465249955,-0.02362894446842532,0.09670458680871308,24.06297849342227,-100.26678939585686,80.21211738781929
2024-09-23 08:53:24.559668,44.55,7.850371,-0.0031836870127375577,-0.023280723622328886,0.09670458680871308,24.06297849342227,-100.26678939585686,80.21211738781929
2024-09-23 08:53:24.603561,44.55,7.850422,-0.003382661564999035,-0.023280723622328886,0.0973512698629459,44.11764879391193,-92.24360919585227,76.200527287817
2024-09-23 08:53:24.645921,44.55,7.850422,-0.003382661564999035,-0.023479709566915436,0.09675432418099966,32.08287849390507,-92.24360919585227,76.200527287817
2024-09-23 08:53:24.657208,44.55,7.850509,-0.003382661564999035,-0.023479709566915436,0.09675432418099966,32.08287849390507,-92.24360919585227,84.22370748782159
2024-09-23 08:53:24.700620,44.55,7.850509,-0.0035318979854855937,-0.023330473146428877,0.09725178296655933,28.07457030097246,-100.26678939585686,76.200527287817
2024-09-23 08:53:24.742653,44.55,7.85056,-0.0030841997366068195,-0.024176140626271565,0.09725178296655933,28.07457030097246,-100.26678939585686,76.200527287817
2024-09-23 08:53:24.753820,44.55,7.85056,-0.0030841997366068195,-0.024176140626271565,0.09740101331113918,36.09446859390736,-100.26678939585686,76.200527287817
2024-09-23 08:53:24.796676,44.55,7.850611,-0.003631395514708897,-0.02367869399252531,0.09690356060148622,44.11764879391193,-100.26678939585686,80.21211738781929
2024-09-23 08:53:24.840323,44.55,7.850662,-0.003631395514708897,-0.02367869399252531,0.09690356060148622,44.11764879391193,-104.27510100388527,80.21211738781929
2024-09-23 08:53:24.851497,44.55,7.850662,-0.0035318979854855937,-0.02362894446842532,0.09745075675933246,44.11764879391193,-104.27510100388527,80.21211738781929
2024-09-23 08:53:24.894785,44.55,7.850712,-0.0032831742888682963,-0.023429960042815445,0.09745075675933246,40.106058693909645,-96.25519929585457,80.21211738781929
2024-09-23 08:53:24.937355,44.55,7.850712,-0.0032831742888682963,-0.023429960042815445,0.09720203344245934,40.106058693909645,-92.24360919585227,80.21211738781929
2024-09-23 08:53:24.948678,44.55,7.850763,-0.0030344509719951677,-0.023429960042815445,0.09720203344245934,40.106058693909645,-92.24360919585227,84.22370748782159
2024-09-23 08:53:24.991446,44.55,7.850763,-0.0030344509719951677,-0.02367869399252531,0.09685382322919964,40.106058693909645,-92.24360919585227,84.22370748782159
2024-09-23 08:53:25.034161,44.55,7.850763,-0.0030344509719951677,-0.02367869399252531,0.09685382322919964,36.09446859390736,-100.26678939585686,84.22370748782159
2024-09-23 08:53:25.045390,44.55,7.85085,-0.003233425524256645,-0.023927417309398437,0.09685382322919964,36.09446859390736,-100.26678939585686,72.1922225099802
2024-09-23 08:53:25.089806,44.55,7.850902,-0.0033329230534799477,-0.023927417309398437,0.09685382322919964,32.08287849390507,-104.27510100388527,76.200527287817
2024-09-23 08:53:25.133746,44.55,7.850902,-0.0033329230534799477,-0.023579196463302005,0.09655535038822652,44.11764879391193,-104.27510100388527,76.200527287817
2024-09-23 08:53:25.145452,44.55,7.850952,-0.0033329230534799477,-0.023579196463302005,0.09655535038822652,44.11764879391193,-96.25519929585457,80.21211738781929
2024-09-23 08:53:25.187937,44.55,7.850952,-0.0034324103296106863,-0.024026904205785005,0.09720203344245934,44.11764879391193,-96.25519929585457,84.22370748782159
2024-09-23 08:53:25.231049,44.55,7.851003,-0.003631395514708897,-0.02352945757203875,0.09720203344245934,44.11764879391193,-96.25519929585457,84.22370748782159
2024-09-23 08:53:25.242156,44.55,7.851003,-0.003631395514708897,-0.02352945757203875,0.09650560086412653,32.08287849390507,-92.24360919585227,84.22370748782159
2024-09-23 08:53:25.284691,44.55,7.851095,-0.003382661564999035,-0.023778180888911878,0.09675432418099966,36.09446859390736,-92.24360919585227,84.22370748782159
2024-09-23 08:53:25.326916,44.55,7.851095,-0.003382661564999035,-0.023778180888911878,0.09675432418099966,36.09446859390736,-100.26678939585686,84.22370748782159
2024-09-23 08:53:25.339148,44.55,7.851146,-0.0029349636958644295,-0.023877669304275123,0.0970030596496862,36.09446859390736,-100.26678939585686,84.22370748782159
2024-09-23 08:53:25.382077,43.76,7.851197,-0.0033329230534799477,-0.023877669304275123,0.0970030596496862,36.09446859390736,-92.24360919585227,80.21211738781929
2024-09-23 08:53:25.393626,43.76,7.851197,-0.0033329230534799477,-0.02352945757203875,0.0970030596496862,36.09446859390736,-92.24360919585227,80.21211738781929
2024-09-23 08:53:25.426080,43.76,7.851197,-0.0033329230534799477,-0.02352945757203875,0.0973512698629459,40.106058693909645,-100.26678939585686,80.21211738781929
2024-09-23 08:53:25.437653,43.76,7.851247,-0.003233425524256645,-0.02352945757203875,0.0973512698629459,40.106058693909645,-100.26678939585686,76.200527287817
2024-09-23 08:53:25.470581,43.76,7.851247,-0.003233425524256645,-0.024176140626271565,0.0973512698629459,40.106058693909645,-100.26678939585686,76.200527287817
2024-09-23 08:53:25.482554,43.76,7.851338,-0.003233425524256645,-0.024176140626271565,0.09740101331113918,36.09446859390736,-92.24360919585227,76.200527287817
2024-09-23 08:53:25.524314,43.76,7.851338,-0.0028852147413806935,-0.02367869399252531,0.09680407370509965,36.09446859390736,-92.24360919585227,76.200527287817
2024-09-23 08:53:25.535736,43.76,7.851338,-0.0028852147413806935,-0.02367869399252531,0.09680407370509965,36.09446859390736,-88.23529758782387,84.22370748782159
2024-09-23 08:53:25.567654,43.76,7.851389,-0.0028852147413806935,-0.02367869399252531,0.09680407370509965,36.09446859390736,-88.23529758782387,84.22370748782159
2024-09-23 08:53:25.579501,43.76,7.851389,-0.0033329230534799477,-0.023479709566915436,0.09665483728461309,40.106058693909645,-96.25519929585457,84.22370748782159
2024-09-23 08:53:25.621749,43.76,7.85144,-0.003482159473966507,-0.023479709566915436,0.09665483728461309,40.106058693909645,-96.25519929585457,84.22370748782159
2024-09-23 08:53:25.633771,43.76,7.85144,-0.003482159473966507,-0.02308174982955575,0.0962568775472534,40.106058693909645,-96.25519929585457,84.22370748782159
2024-09-23 08:53:25.665477,43.76,7.85144,-0.003482159473966507,-0.02308174982955575,0.0962568775472534,40.106058693909645,-96.25519929585457,84.22370748782159
2024-09-23 08:53:25.676676,43.76,7.85149,-0.0029847020175114316,-0.023877669304275123,0.09740101331113918,40.106058693909645,-96.25519929585457,80.21211738781929
2024-09-23 08:53:25.720010,43.76,7.851541,-0.0029847020175114316,-0.023877669304275123,0.09740101331113918,32.08287849390507,-100.26678939585686,80.21211738781929
2024-09-23 08:53:25.731624,43.76,7.851541,-0.0030344509719951677,-0.02397715620066169,0.09740101331113918,32.08287849390507,-100.26678939585686,80.21211738781929
2024-09-23 08:53:25.764285,43.76,7.851541,-0.0030344509719951677,-0.02397715620066169,0.09695331012558621,32.08287849390507,-100.26678939585686,80.21211738781929
2024-09-23 08:53:25.775460,43.76,7.851592,-0.0032831742888682963,-0.02397715620066169,0.09695331012558621,40.106058693909645,-104.27510100388527,80.21211738781929
2024-09-23 08:53:25.817028,43.76,7.851592,-0.0032831742888682963,-0.02362894446842532,0.09675432418099966,40.106058693909645,-104.27510100388527,80.21211738781929
2024-09-23 08:53:25.828957,43.76,7.851679,-0.0032831742888682963,-0.02362894446842532,0.09675432418099966,40.106058693909645,-104.27510100388527,80.21211738781929
2024-09-23 08:53:25.862094,43.76,7.851679,-0.003482159473966507,-0.02362894446842532,0.09675432418099966,40.106058693909645,-104.27510100388527,80.21211738781929
2024-09-23 08:53:25.873974,43.76,7.851679,-0.003482159473966507,-0.024026904205785005,0.09745075675933246,36.09446859390736,-100.26678939585686,80.21211738781929
2024-09-23 08:53:25.916761,43.76,7.85173,-0.0033329230534799477,-0.023728432883788564,0.09715228999426605,44.11764879391193,-100.26678939585686,80.21211738781929
2024-09-23 08:53:25.928799,43.76,7.85173,-0.0033329230534799477,-0.023728432883788564,0.09715228999426605,44.11764879391193,-92.24360919585227,80.21211738781929
2024-09-23 08:53:25.962069,43.76,7.851781,-0.003382661564999035,-0.023728432883788564,0.09715228999426605,44.11764879391193,-92.24360919585227,84.22370748782159
2024-09-23 08:53:25.973559,43.76,7.851781,-0.003382661564999035,-0.02352945757203875,0.09750050628343246,40.106058693909645,-92.24360919585227,84.22370748782159
2024-09-23 08:53:26.016183,43.76,7.851832,-0.0032831742888682963,-0.02352945757203875,0.09759999317981902,40.106058693909645,-96.25519929585457,80.21211738781929
2024-09-23 08:53:26.058066,43.76,7.851832,-0.0032831742888682963,-0.02352945757203875,0.09759999317981902,32.08287849390507,-100.26678939585686,80.21211738781929
2024-09-23 08:53:26.070110,43.76,7.851882,-0.0035816467500972456,-0.023927417309398437,0.09759999317981902,32.08287849390507,-100.26678939585686,76.200527287817
2024-09-23 08:53:26.113950,43.76,7.851933,-0.0035816467500972456,-0.023927417309398437,0.0973015264147526,44.11764879391193,-100.26678939585686,76.200527287817
2024-09-23 08:53:26.156605,43.76,7.851933,-0.0035816467500972456,-0.023827930413011865,0.09705279702197278,36.09446859390736,-100.26678939585686,76.200527287817
2024-09-23 08:53:26.168556,43.76,7.85202,-0.0035816467500972456,-0.023827930413011865,0.09705279702197278,36.09446859390736,-100.26678939585686,80.21211738781929
2024-09-23 08:53:26.211203,43.76,7.85202,-0.0030344509719951677,-0.02352945757203875,0.09685382322919964,40.106058693909645,-92.24360919585227,84.22370748782159
2024-09-23 08:53:26.254127,43.76,7.852072,-0.003482159473966507,-0.024026904205785005,0.09685382322919964,40.106058693909645,-92.24360919585227,84.22370748782159
2024-09-23 08:53:26.265069,43.76,7.852072,-0.003482159473966507,-0.024026904205785005,0.09715228999426605,36.09446859390736,-100.26678939585686,84.22370748782159
2024-09-23 08:53:26.308611,43.76,7.852122,-0.002785727465249955,-0.023330473146428877,0.09675432418099966,32.08287849390507,-100.26678939585686,84.22370748782159
2024-09-23 08:53:26.351315,43.76,7.852173,-0.002785727465249955,-0.023330473146428877,0.09675432418099966,32.08287849390507,-96.25519929585457,84.22370748782159
2024-09-23 08:53:26.362559,43.76,7.852173,-0.0033329230534799477,-0.023181236725942318,0.09670458680871308,32.08287849390507,-96.25519929585457,84.22370748782159
2024-09-23 08:53:26.404922,44.04,7.852224,-0.0030344509719951677,-0.02362894446842532,0.09670458680871308,28.07457030097246,-96.25519929585457,80.21211738781929
2024-09-23 08:53:26.448362,44.04,7.852224,-0.0030344509719951677,-0.02362894446842532,0.09715228999426605,36.09446859390736,-96.25519929585457,80.21211738781929
2024-09-23 08:53:26.460111,44.04,7.852274,-0.0029349636958644295,-0.02362894446842532,0.09715228999426605,36.09446859390736,-100.26678939585686,80.21211738781929
2024-09-23 08:53:26.503306,44.04,7.852361,-0.0029349636958644295,-0.02313149783467906,0.09745075675933246,36.09446859390736,-100.26678939585686,84.22370748782159
2024-09-23 08:53:26.546226,44.04,7.852361,-0.003382661564999035,-0.023877669304275123,0.09745075675933246,36.09446859390736,-100.26678939585686,84.22370748782159
2024-09-23 08:53:26.558127,44.04,7.852361,-0.003382661564999035,-0.023877669304275123,0.0973512698629459,36.09446859390736,-100.26678939585686,80.21211738781929
2024-09-23 08:53:26.601265,44.04,7.852413,-0.0031339382481259063,-0.023579196463302005,0.09725178296655933,32.08287849390507,-104.27510100388527,80.21211738781929
2024-09-23 08:53:26.643917,44.04,7.852464,-0.0029847020175114316,-0.023579196463302005,0.09725178296655933,32.08287849390507,-104.27510100388527,80.21211738781929
2024-09-23 08:53:26.655765,44.04,7.852464,-0.0029847020175114316,-0.02397715620066169,0.09715228999426605,32.08287849390507,-104.27510100388527,80.21211738781929
2024-09-23 08:53:26.698914,44.04,7.852514,-0.0029349636958644295,-0.023827930413011865,0.09715228999426605,36.09446859390736,-96.25519929585457,76.200527287817
2024-09-23 08:53:26.742161,44.04,7.852514,-0.0029349636958644295,-0.023827930413011865,0.0973512698629459,36.09446859390736,-104.27510100388527,76.200527287817
2024-09-23 08:53:26.753724,44.04,7.852565,-0.003631395514708897,-0.023827930413011865,0.0973512698629459,36.09446859390736,-104.27510100388527,72.1922225099802
2024-09-23 08:53:26.796379,44.04,7.852616,-0.003631395514708897,-0.023927417309398437,0.09705279702197278,44.11764879391193,-104.27510100388527,72.1922225099802
2024-09-23 08:53:26.839277,44.04,7.852616,-0.003233425524256645,-0.02352945757203875,0.09715228999426605,44.11764879391193,-104.27510100388527,72.1922225099802
2024-09-23 08:53:26.851335,44.04,7.852616,-0.003233425524256645,-0.02352945757203875,0.09715228999426605,36.09446859390736,-96.25519929585457,84.22370748782159
2024-09-23 08:53:26.894414,44.04,7.852703,-0.0031339382481259063,-0.023330473146428877,0.09645586349183995,44.11764879391193,-96.25519929585457,84.22370748782159
2024-09-23 08:53:26.936994,44.04,7.852754,-0.0031836870127375577,-0.023330473146428877,0.09645586349183995,44.11764879391193,-96.25519929585457,80.21211738781929
2024-09-23 08:53:26.948761,44.04,7.852754,-0.0031836870127375577,-0.02367869399252531,0.09745075675933246,44.11764879391193,-96.25519929585457,80.21211738781929
2024-09-23 08:53:26.992115,44.04,7.852805,-0.0029847020175114316,-0.02362894446842532,0.09720203344245934,44.11764879391193,-100.26678939585686,76.200527287817
2024-09-23 08:53:27.034590,44.04,7.852805,-0.0029847020175114316,-0.02362894446842532,0.09720203344245934,36.09446859390736,-96.25519929585457,84.22370748782159
2024-09-23 08:53:27.046318,44.04,7.852856,-0.003631395514708897,-0.02362894446842532,0.09720203344245934,36.09446859390736,-96.25519929585457,84.22370748782159
2024-09-23 08:53:27.088486,44.04,7.852906,-0.002785727465249955,-0.02362894446842532,0.09740101331113918,36.09446859390736,-92.24360919585227,84.22370748782159
2024-09-23 08:53:27.131409,44.04,7.852906,-0.002785727465249955,-0.02338022115155219,0.09685382322919964,40.106058693909645,-92.24360919585227,84.22370748782159
2024-09-23 08:53:27.142333,44.04,7.852995,-0.002785727465249955,-0.02338022115155219,0.09685382322919964,40.106058693909645,-100.26678939585686,80.21211738781929
2024-09-23 08:53:27.184658,44.04,7.852995,-0.0028354659767690416,-0.02362894446842532,0.09690356060148622,44.11764879391193,-104.27510100388527,76.200527287817
2024-09-23 08:53:27.227079,44.04,7.853047,-0.002586742470023829,-0.02362894446842532,0.09690356060148622,44.11764879391193,-104.27510100388527,76.200527287817
2024-09-23 08:53:27.239105,44.04,7.853047,-0.002586742470023829,-0.023877669304275123,0.09690356060148622,44.11764879391193,-104.27510100388527,76.200527287817
2024-09-23 08:53:27.281922,44.04,7.853097,-0.002586742470023829,-0.023877669304275123,0.0973015264147526,36.09446859390736,-100.26678939585686,84.22370748782159
2024-09-23 08:53:27.293689,44.04,7.853097,-0.0032831742888682963,-0.023877669304275123,0.0973015264147526,36.09446859390736,-100.26678939585686,84.22370748782159
2024-09-23 08:53:27.325171,44.04,7.853097,-0.0032831742888682963,-0.023479709566915436,0.09640611396773996,36.09446859390736,-100.26678939585686,84.22370748782159
2024-09-23 08:53:27.336489,44.04,7.853148,-0.0032831742888682963,-0.023479709566915436,0.09640611396773996,40.106058693909645,-104.27510100388527,80.21211738781929
2024-09-23 08:53:27.380557,44.04,7.853148,-0.0035816467500972456,-0.024076653729884996,0.0970030596496862,40.106058693909645,-96.25519929585457,76.200527287817
2024-09-23 08:53:27.423023,43.56,7.853199,-0.0029847020175114316,-0.024076653729884996,0.0970030596496862,40.106058693909645,-96.25519929585457,76.200527287817
2024-09-23 08:53:27.434150,43.56,7.853199,-0.0029847020175114316,-0.02362894446842532,0.09705279702197278,32.08287849390507,-96.25519929585457,76.200527287817
2024-09-23 08:53:27.475800,43.56,7.85325,-0.0033329230534799477,-0.023827930413011865,0.09645586349183995,32.08287849390507,-96.25519929585457,84.22370748782159
2024-09-23 08:53:27.487819,43.56,7.85325,-0.0033329230534799477,-0.023827930413011865,0.09645586349183995,32.08287849390507,-96.25519929585457,84.22370748782159
2024-09-23 08:53:27.519741,43.56,7.85325,-0.0033329230534799477,-0.023827930413011865,0.09645586349183995,32.08287849390507,-96.25519929585457,80.21211738781929
2024-09-23 08:53:27.531612,43.56,7.853338,-0.0032831742888682963,-0.02352945757203875,0.09779897304849887,32.08287849390507,-96.25519929585457,80.21211738781929
2024-09-23 08:53:27.575022,43.56,7.853389,-0.003233425524256645,-0.02352945757203875,0.09779897304849887,28.07457030097246,-96.25519929585457,80.21211738781929
2024-09-23 08:53:27.586663,43.56,7.853389,-0.003233425524256645,-0.023429960042815445,0.09779897304849887,28.07457030097246,-96.25519929585457,80.21211738781929
2024-09-23 08:53:27.620604,43.56,7.853389,-0.003233425524256645,-0.023429960042815445,0.09665483728461309,36.09446859390736,-92.24360919585227,80.21211738781929
2024-09-23 08:53:27.631525,43.56,7.85344,-0.0035318979854855937,-0.023429960042815445,0.09665483728461309,36.09446859390736,-92.24360919585227,80.21211738781929
2024-09-23 08:53:27.673788,43.56,7.853531,-0.0035318979854855937,-0.024325377046758124,0.0970030596496862,28.07457030097246,-104.27510100388527,88.23529758782387
2024-09-23 08:53:27.716009,43.56,7.853531,-0.003382661564999035,-0.02362894446842532,0.0970030596496862,28.07457030097246,-104.27510100388527,88.23529758782387
2024-09-23 08:53:27.727405,43.56,7.853531,-0.003382661564999035,-0.02362894446842532,0.09675432418099966,36.09446859390736,-100.26678939585686,88.23529758782387
2024-09-23 08:53:27.770675,43.56,7.853583,-0.0028354659767690416,-0.023728432883788564,0.09725178296655933,36.09446859390736,-100.26678939585686,76.200527287817
2024-09-23 08:53:27.782171,43.56,7.853583,-0.0028354659767690416,-0.023728432883788564,0.09725178296655933,44.11764879391193,-100.26678939585686,76.200527287817
2024-09-23 08:53:27.814440,43.56,7.853634,-0.0028354659767690416,-0.023728432883788564,0.09725178296655933,44.11764879391193,-104.27510100388527,80.21211738781929
2024-09-23 08:53:27.827367,43.56,7.853634,-0.0037308827908396356,-0.023778180888911878,0.09725178296655933,44.11764879391193,-104.27510100388527,80.21211738781929
2024-09-23 08:53:27.859401,43.56,7.853634,-0.0037308827908396356,-0.023778180888911878,0.09705279702197278,44.11764879391193,-104.27510100388527,80.21211738781929
2024-09-23 08:53:27.870794,43.56,7.853684,-0.0033329230534799477,-0.023778180888911878,0.09705279702197278,40.106058693909645,-92.24360919585227,76.200527287817
2024-09-23 08:53:27.913602,43.56,7.853684,-0.0033329230534799477,-0.023479709566915436,0.09710254654607277,44.11764879391193,-96.25519929585457,76.200527287817
2024-09-23 08:53:27.925535,43.56,7.853735,-0.0033329230534799477,-0.023479709566915436,0.09710254654607277,44.11764879391193,-96.25519929585457,76.200527287817
2024-09-23 08:53:27.958254,43.56,7.853735,-0.0032831742888682963,-0.023479709566915436,0.09710254654607277,44.11764879391193,-96.25519929585457,76.200527287817
2024-09-23 08:53:27.970541,43.56,7.853735,-0.0032831742888682963,-0.02352945757203875,0.09675432418099966,36.09446859390736,-104.27510100388527,84.22370748782159
2024-09-23 08:53:28.013428,43.56,7.853824,-0.0035318979854855937,-0.023827930413011865,0.09695331012558621,36.09446859390736,-100.26678939585686,84.22370748782159
2024-09-23 08:53:28.056226,43.56,7.853875,-0.0035318979854855937,-0.023827930413011865,0.09695331012558621,36.09446859390736,-100.26678939585686,80.21211738781929
2024-09-23 08:53:28.067880,43.56,7.853875,-0.0031339382481259063,-0.02352945757203875,0.09759999317981902,40.106058693909645,-100.26678939585686,80.21211738781929
2024-09-23 08:53:28.111949,43.56,7.853926,-0.0035318979854855937,-0.024176140626271565,0.09759999317981902,40.106058693909645,-100.26678939585686,80.21211738781929
2024-09-23 08:53:28.123833,43.56,7.853926,-0.0035318979854855937,-0.024176140626271565,0.09685382322919964,40.106058693909645,-100.26678939585686,80.21211738781929
2024-09-23 08:53:28.155558,43.56,7.853926,-0.0035318979854855937,-0.024176140626271565,0.09685382322919964,36.09446859390736,-104.27510100388527,76.200527287817
2024-09-23 08:53:28.167180,43.56,7.853977,-0.0037308827908396356,-0.023877669304275123,0.09685382322919964,36.09446859390736,-104.27510100388527,76.200527287817
2024-09-23 08:53:28.209881,43.56,7.854027,-0.0037308827908396356,-0.023877669304275123,0.09710254654607277,36.09446859390736,-92.24360919585227,80.21211738781929
2024-09-23 08:53:28.252427,43.56,7.854027,-0.0037308827908396356,-0.024026904205785005,0.09685382322919964,32.08287849390507,-92.24360919585227,80.21211738781929
2024-09-23 08:53:28.264326,43.56,7.854117,-0.0037308827908396356,-0.024026904205785005,0.09685382322919964,32.08287849390507,-104.27510100388527,80.21211738781929
2024-09-23 08:53:28.307451,43.56,7.854117,-0.003233425524256645,-0.023280723622328886,0.09745075675933246,40.106058693909645,-88.23529758782387,80.21211738781929
2024-09-23 08:53:28.350574,43.56,7.854168,-0.0030344509719951677,-0.023429960042815445,0.09745075675933246,40.106058693909645,-88.23529758782387,80.21211738781929
2024-09-23 08:53:28.361903,43.56,7.854168,-0.0030344509719951677,-0.023429960042815445,0.09690356060148622,40.106058693909645,-96.25519929585457,80.21211738781929
2024-09-23 08:53:28.404652,43.56,7.854219,-0.003780631555451287,-0.023579196463302005,0.09720203344245934,40.106058693909645,-96.25519929585457,80.21211738781929
2024-09-23 08:53:28.446849,43.49,7.854219,-0.003780631555451287,-0.023579196463302005,0.09720203344245934,40.106058693909645,-96.25519929585457,84.22370748782159
2024-09-23 08:53:28.458650,43.49,7.854269,-0.003482159473966507,-0.023877669304275123,0.09665483728461309,40.106058693909645,-96.25519929585457,84.22370748782159
2024-09-23 08:53:28.502154,43.49,7.85432,-0.0036811340262279837,-0.02367869399252531,0.09665483728461309,40.106058693909645,-100.26678939585686,80.21211738781929
2024-09-23 08:53:28.544107,43.49,7.85432,-0.0036811340262279837,-0.02367869399252531,0.0966050877605131,44.11764879391193,-100.26678939585686,80.21211738781929
2024-09-23 08:53:28.555423,43.49,7.854371,-0.003382661564999035,-0.02367869399252531,0.0966050877605131,44.11764879391193,-96.25519929585457,80.21211738781929
2024-09-23 08:53:28.597399,43.49,7.854371,-0.003382661564999035,-0.023579196463302005,0.09705279702197278,40.106058693909645,-100.26678939585686,84.22370748782159
2024-09-23 08:53:28.609574,43.49,7.854458,-0.003382661564999035,-0.023579196463302005,0.09705279702197278,40.106058693909645,-100.26678939585686,84.22370748782159
2024-09-23 08:53:28.642062,43.49,7.854458,-0.0028852147413806935,-0.02338022115155219,0.09705279702197278,40.106058693909645,-100.26678939585686,84.22370748782159
2024-09-23 08:53:28.653345,43.49,7.854458,-0.0028852147413806935,-0.02338022115155219,0.09705279702197278,44.11764879391193,-100.26678939585686,76.200527287817
2024-09-23 08:53:28.696231,43.49,7.854509,-0.0029847020175114316,-0.024176140626271565,0.09750050628343246,44.11764879391193,-100.26678939585686,76.200527287817
2024-09-23 08:53:28.707945,43.49,7.854509,-0.0029847020175114316,-0.024176140626271565,0.09750050628343246,44.11764879391193,-96.25519929585457,76.200527287817
2024-09-23 08:53:28.740885,43.49,7.85456,-0.0030344509719951677,-0.024176140626271565,0.09750050628343246,44.11764879391193,-96.25519929585457,80.21211738781929
2024-09-23 08:53:28.753086,43.49,7.85456,-0.0030344509719951677,-0.023827930413011865,0.0970030596496862,36.09446859390736,-96.25519929585457,80.21211738781929
2024-09-23 08:53:28.785385,43.49,7.85456,-0.0030344509719951677,-0.023827930413011865,0.0970030596496862,36.09446859390736,-96.25519929585457,80.21211738781929
2024-09-23 08:53:28.796636,43.49,7.854611,-0.0031339382481259063,-0.023579196463302005,0.09725178296655933,36.09446859390736,-96.25519929585457,80.21211738781929
2024-09-23 08:53:28.838669,43.49,7.854611,-0.0031339382481259063,-0.023579196463302005,0.09725178296655933,36.09446859390736,-96.25519929585457,76.200527287817
2024-09-23 08:53:28.853932,43.49,7.854661,-0.0026862297461545674,-0.023429960042815445,0.09725178296655933,36.09446859390736,-96.25519929585457,76.200527287817
2024-09-23 08:53:28.885977,43.49,7.854661,-0.0026862297461545674,-0.023429960042815445,0.0970030596496862,40.106058693909645,-96.25519929585457,76.200527287817
2024-09-23 08:53:28.897393,43.49,7.854712,-0.0029349636958644295,-0.023429960042815445,0.0970030596496862,40.106058693909645,-96.25519929585457,76.200527287817
2024-09-23 08:53:28.940597,43.49,7.854712,-0.0029349636958644295,-0.024076653729884996,0.0973512698629459,28.07457030097246,-96.25519929585457,80.21211738781929
2024-09-23 08:53:28.952878,43.49,7.854799,-0.0029349636958644295,-0.024076653729884996,0.0973512698629459,28.07457030097246,-96.25519929585457,80.21211738781929
2024-09-23 08:53:28.986738,43.49,7.854799,-0.003382661564999035,-0.023479709566915436,0.0970030596496862,28.07457030097246,-96.25519929585457,80.21211738781929
2024-09-23 08:53:28.997969,43.49,7.854799,-0.003382661564999035,-0.023479709566915436,0.0970030596496862,36.09446859390736,-100.26678939585686,80.21211738781929
2024-09-23 08:53:29.031176,43.49,7.854851,-0.0035816467500972456,-0.023479709566915436,0.0970030596496862,36.09446859390736,-100.26678939585686,80.21211738781929
2024-09-23 08:53:29.042899,43.49,7.854851,-0.0035816467500972456,-0.02352945757203875,0.0973015264147526,40.106058693909645,-104.27510100388527,80.21211738781929
2024-09-23 08:53:29.086527,43.49,7.854901,-0.0031339382481259063,-0.024076653729884996,0.09685382322919964,40.106058693909645,-104.27510100388527,72.1922225099802
2024-09-23 08:53:29.129307,43.49,7.854901,-0.0031339382481259063,-0.024076653729884996,0.09685382322919964,40.106058693909645,-100.26678939585686,76.200527287817
2024-09-23 08:53:29.141206,43.49,7.854952,-0.0031339382481259063,-0.023479709566915436,0.09670458680871308,40.106058693909645,-100.26678939585686,76.200527287817
2024-09-23 08:53:29.183484,43.49,7.855003,-0.0028852147413806935,-0.023479709566915436,0.09670458680871308,40.106058693909645,-104.27510100388527,80.21211738781929
2024-09-23 08:53:29.195396,43.49,7.855003,-0.0028852147413806935,-0.02362894446842532,0.09670458680871308,40.106058693909645,-104.27510100388527,80.21211738781929
2024-09-23 08:53:29.228218,43.49,7.855003,-0.0028852147413806935,-0.02362894446842532,0.09764974270391902,44.11764879391193,-104.27510100388527,80.21211738781929
2024-09-23 08:53:29.239170,43.49,7.855053,-0.0031339382481259063,-0.02362894446842532,0.09764974270391902,44.11764879391193,-104.27510100388527,76.200527287817
2024-09-23 08:53:29.281939,43.49,7.85514,-0.0031339382481259063,-0.023778180888911878,0.09710254654607277,36.09446859390736,-100.26678939585686,72.1922225099802
2024-09-23 08:53:29.324048,43.49,7.85514,-0.0030344509719951677,-0.02338022115155219,0.09710254654607277,36.09446859390736,-100.26678939585686,72.1922225099802
2024-09-23 08:53:29.335595,43.49,7.85514,-0.0030344509719951677,-0.02338022115155219,0.09690356060148622,36.09446859390736,-100.26678939585686,84.22370748782159
2024-09-23 08:53:29.378757,43.49,7.855192,-0.003233425524256645,-0.02352945757203875,0.09695331012558621,48.12595698684454,-100.26678939585686,84.22370748782159
2024-09-23 08:53:29.390205,43.49,7.855192,-0.003233425524256645,-0.02352945757203875,0.09695331012558621,48.12595698684454,-84.22370748782159,84.22370748782159
2024-09-23 08:53:29.422224,43.49,7.855243,-0.003233425524256645,-0.02352945757203875,0.09695331012558621,48.12595698684454,-84.22370748782159,84.22370748782159
2024-09-23 08:53:29.433629,43.49,7.855243,-0.0030841997366068195,-0.023877669304275123,0.09715228999426605,48.12595698684454,-84.22370748782159,84.22370748782159
2024-09-23 08:53:29.477438,43.46,7.855293,-0.0035816467500972456,-0.023877669304275123,0.09665483728461309,48.12595698684454,-92.24360919585227,80.21211738781929
2024-09-23 08:53:29.520399,43.46,7.855293,-0.0035816467500972456,-0.023877669304275123,0.09665483728461309,36.09446859390736,-92.24360919585227,80.21211738781929
2024-09-23 08:53:29.532105,43.46,7.855344,-0.0029349636958644295,-0.023877669304275123,0.09665483728461309,36.09446859390736,-92.24360919585227,80.21211738781929
2024-09-23 08:53:29.574950,43.46,7.855395,-0.0035816467500972456,-0.023877669304275123,0.09675432418099966,36.09446859390736,-96.25519929585457,76.200527287817
2024-09-23 08:53:29.617814,43.46,7.855395,-0.0035816467500972456,-0.024225890150371555,0.09710254654607277,40.106058693909645,-96.25519929585457,76.200527287817
2024-09-23 08:53:29.629117,43.46,7.855482,-0.0035816467500972456,-0.024225890150371555,0.09710254654607277,40.106058693909645,-92.24360919585227,80.21211738781929
2024-09-23 08:53:29.671734,43.46,7.855482,-0.0036811340262279837,-0.02362894446842532,0.09675432418099966,32.08287849390507,-96.25519929585457,80.21211738781929
2024-09-23 08:53:29.683483,43.46,7.855482,-0.0036811340262279837,-0.02362894446842532,0.09675432418099966,32.08287849390507,-96.25519929585457,80.21211738781929
2024-09-23 08:53:29.715553,43.46,7.855533,-0.0030841997366068195,-0.024076653729884996,0.09675432418099966,32.08287849390507,-96.25519929585457,80.21211738781929
2024-09-23 08:53:29.726471,43.46,7.855533,-0.0030841997366068195,-0.024076653729884996,0.09690356060148622,32.08287849390507,-100.26678939585686,80.21211738781929
2024-09-23 08:53:29.768665,43.46,7.855584,-0.0029847020175114316,-0.024325377046758124,0.09715228999426605,40.106058693909645,-100.26678939585686,80.21211738781929
2024-09-23 08:53:29.811428,43.46,7.855584,-0.0029847020175114316,-0.024325377046758124,0.09715228999426605,40.106058693909645,-96.25519929585457,88.23529758782387
2024-09-23 08:53:29.823165,43.46,7.855634,-0.0028354659767690416,-0.02367869399252531,0.09740101331113918,40.106058693909645,-96.25519929585457,88.23529758782387
2024-09-23 08:53:29.865835,43.46,7.855685,-0.003631395514708897,-0.02367869399252531,0.09740101331113918,36.09446859390736,-100.26678939585686,84.22370748782159
2024-09-23 08:53:29.877759,43.46,7.855685,-0.003631395514708897,-0.023778180888911878,0.09740101331113918,36.09446859390736,-100.26678939585686,84.22370748782159
2024-09-23 08:53:29.909373,43.46,7.855685,-0.003631395514708897,-0.023778180888911878,0.09680407370509965,32.08287849390507,-100.26678939585686,84.22370748782159
2024-09-23 08:53:29.920642,43.46,7.855736,-0.003233425524256645,-0.023778180888911878,0.09680407370509965,32.08287849390507,-92.24360919585227,84.22370748782159
2024-09-23 08:53:29.963436,43.46,7.855736,-0.003233425524256645,-0.023728432883788564,0.09680407370509965,32.08287849390507,-92.24360919585227,84.22370748782159
2024-09-23 08:53:30.005328,43.46,7.855736,-0.003233425524256645,-0.023728432883788564,0.09710254654607277,32.08287849390507,-92.24360919585227,84.22370748782159
2024-09-23 08:53:30.016780,43.46,7.855823,-0.003233425524256645,-0.023728432883788564,0.09710254654607277,28.07457030097246,-96.25519929585457,80.21211738781929
2024-09-23 08:53:30.058952,43.46,7.855823,-0.003233425524256645,-0.023330473146428877,0.0973015264147526,36.09446859390736,-96.25519929585457,80.21211738781929
2024-09-23 08:53:30.070872,43.46,7.855823,-0.003233425524256645,-0.023330473146428877,0.0973015264147526,36.09446859390736,-96.25519929585457,80.21211738781929
2024-09-23 08:53:30.102717,43.46,7.855874,-0.003233425524256645,-0.023330473146428877,0.0973015264147526,36.09446859390736,-96.25519929585457,80.21211738781929
2024-09-23 08:53:30.114927,43.46,7.855874,-0.0037308827908396356,-0.02362894446842532,0.09685382322919964,36.09446859390736,-104.27510100388527,80.21211738781929
2024-09-23 08:53:30.156940,43.46,7.855925,-0.0031836870127375577,-0.02338022115155219,0.09690356060148622,36.09446859390736,-104.27510100388527,80.21211738781929
2024-09-23 08:53:30.169032,43.46,7.855925,-0.0031836870127375577,-0.02338022115155219,0.09690356060148622,44.11764879391193,-104.27510100388527,80.21211738781929
2024-09-23 08:53:30.201332,43.46,7.855925,-0.0031836870127375577,-0.02338022115155219,0.09690356060148622,44.11764879391193,-104.27510100388527,84.22370748782159
2024-09-23 08:53:30.213032,43.46,7.855976,-0.0028852147413806935,-0.023429960042815445,0.09655535038822652,44.11764879391193,-104.27510100388527,84.22370748782159
2024-09-23 08:53:30.255536,43.46,7.856068,-0.0025369937054121774,-0.023429960042815445,0.09655535038822652,32.08287849390507,-104.27510100388527,84.22370748782159
2024-09-23 08:53:30.267640,43.46,7.856068,-0.0025369937054121774,-0.023778180888911878,0.09655535038822652,32.08287849390507,-104.27510100388527,84.22370748782159
2024-09-23 08:53:30.299296,43.46,7.856068,-0.0025369937054121774,-0.023778180888911878,0.0973015264147526,36.09446859390736,-104.27510100388527,84.22370748782159
2024-09-23 08:53:30.311445,43.46,7.856119,-0.0030344509719951677,-0.023778180888911878,0.0973015264147526,36.09446859390736,-96.25519929585457,88.23529758782387
2024-09-23 08:53:30.355108,43.46,7.856213,-0.0030344509719951677,-0.023778180888911878,0.09720203344245934,40.106058693909645,-96.25519929585457,72.1922225099802
2024-09-23 08:53:30.397441,43.46,7.856213,-0.0031339382481259063,-0.024026904205785005,0.09720203344245934,40.106058693909645,-96.25519929585457,72.1922225099802
2024-09-23 08:53:30.409581,43.46,7.856213,-0.0031339382481259063,-0.024026904205785005,0.0970030596496862,44.11764879391193,-92.24360919585227,80.21211738781929
2024-09-23 08:53:30.452528,43.46,7.856264,-0.0032831742888682963,-0.023181236725942318,0.09695331012558621,40.106058693909645,-100.26678939585686,80.21211738781929
2024-09-23 08:53:30.495525,43.46,7.856315,-0.0030344509719951677,-0.023181236725942318,0.09695331012558621,40.106058693909645,-100.26678939585686,84.22370748782159
2024-09-23 08:53:30.506564,43.46,7.856315,-0.0030344509719951677,-0.024026904205785005,0.09750050628343246,36.09446859390736,-100.26678939585686,84.22370748782159
2024-09-23 08:53:30.548153,43.46,7.856366,-0.0033329230534799477,-0.024026904205785005,0.09750050628343246,36.09446859390736,-92.24360919585227,80.21211738781929
2024-09-23 08:53:30.559603,43.46,7.856366,-0.0033329230534799477,-0.023280723622328886,0.09715228999426605,36.09446859390736,-92.24360919585227,80.21211738781929
2024-09-23 08:53:30.591666,43.46,7.856366,-0.0033329230534799477,-0.023280723622328886,0.09715228999426605,32.08287849390507,-96.25519929585457,80.21211738781929
2024-09-23 08:53:30.604263,43.46,7.856366,-0.0033329230534799477,-0.023280723622328886,0.09715228999426605,32.08287849390507,-96.25519929585457,72.1922225099802
2024-09-23 08:53:30.646854,43.46,7.856416,-0.0030344509719951677,-0.02397715620066169,0.09680407370509965,40.106058693909645,-100.26678939585686,72.1922225099802
2024-09-23 08:53:30.688770,43.46,7.856467,-0.0030344509719951677,-0.02397715620066169,0.09680407370509965,40.106058693909645,-100.26678939585686,80.21211738781929
2024-09-23 08:53:30.700794,43.46,7.856467,-0.0028852147413806935,-0.02367869399252531,0.09675432418099966,36.09446859390736,-100.26678939585686,80.21211738781929
2024-09-23 08:53:30.743756,43.46,7.856554,-0.0033329230534799477,-0.024026904205785005,0.09680407370509965,36.09446859390736,-100.26678939585686,76.200527287817
2024-09-23 08:53:30.786986,43.46,7.856554,-0.0033329230534799477,-0.024026904205785005,0.09680407370509965,36.09446859390736,-104.27510100388527,76.200527287817
2024-09-23 08:53:30.798121,43.46,7.856606,-0.0030841997366068195,-0.02367869399252531,0.09680407370509965,36.09446859390736,-104.27510100388527,72.1922225099802
2024-09-23 08:53:30.841689,43.46,7.856656,-0.002785727465249955,-0.02367869399252531,0.09745075675933246,28.07457030097246,-100.26678939585686,72.1922225099802
2024-09-23 08:53:30.884272,43.46,7.856656,-0.002785727465249955,-0.02397715620066169,0.09715228999426605,28.07457030097246,-100.26678939585686,72.1922225099802
2024-09-23 08:53:30.895504,43.46,7.856749,-0.002785727465249955,-0.02397715620066169,0.09715228999426605,28.07457030097246,-100.26678939585686,80.21211738781929
2024-09-23 08:53:30.938040,43.46,7.856749,-0.0035318979854855937,-0.02367869399252531,0.0976994861521123,32.08287849390507,-104.27510100388527,80.21211738781929
2024-09-23 08:53:30.950249,43.46,7.856749,-0.0035318979854855937,-0.02367869399252531,0.0976994861521123,32.08287849390507,-104.27510100388527,80.21211738781929
2024-09-23 08:53:30.982088,43.46,7.856801,-0.0030344509719951677,-0.02367869399252531,0.0976994861521123,32.08287849390507,-104.27510100388527,80.21211738781929
2024-09-23 08:53:30.993825,43.46,7.856801,-0.0030344509719951677,-0.023877669304275123,0.09665483728461309,40.106058693909645,-108.28669110388756,80.21211738781929
2024-09-23 08:53:31.036517,43.46,7.856851,-0.003233425524256645,-0.024275627522658133,0.09680407370509965,40.106058693909645,-108.28669110388756,76.200527287817
2024-09-23 08:53:31.048677,43.46,7.856851,-0.003233425524256645,-0.024275627522658133,0.09680407370509965,36.09446859390736,-108.28669110388756,76.200527287817
2024-09-23 08:53:31.082680,43.46,7.856902,-0.003233425524256645,-0.024275627522658133,0.09680407370509965,36.09446859390736,-96.25519929585457,88.23529758782387
2024-09-23 08:53:31.093993,43.46,7.856902,-0.003233425524256645,-0.023280723622328886,0.09665483728461309,36.09446859390736,-96.25519929585457,88.23529758782387
2024-09-23 08:53:31.126919,43.46,7.856902,-0.003233425524256645,-0.023280723622328886,0.09665483728461309,36.09446859390736,-96.25519929585457,88.23529758782387
2024-09-23 08:53:31.138465,43.46,7.856953,-0.0034324103296106863,-0.023778180888911878,0.09665483728461309,36.09446859390736,-100.26678939585686,80.21211738781929
2024-09-23 08:53:31.180110,43.46,7.856953,-0.0034324103296106863,-0.023778180888911878,0.09774922960030558,36.09446859390736,-104.27510100388527,84.22370748782159
2024-09-23 08:53:31.192005,43.46,7.857003,-0.0035816467500972456,-0.023778180888911878,0.09774922960030558,36.09446859390736,-104.27510100388527,84.22370748782159
2024-09-23 08:53:31.224845,43.46,7.857003,-0.0035816467500972456,-0.0228827638849692,0.09774922960030558,36.09446859390736,-104.27510100388527,84.22370748782159
2024-09-23 08:53:31.236759,43.46,7.85709,-0.0035816467500972456,-0.0228827638849692,0.0970030596496862,40.106058693909645,-100.26678939585686,76.200527287817
2024-09-23 08:53:31.279977,43.46,7.85709,-0.0030841997366068195,-0.023877669304275123,0.09695331012558621,40.106058693909645,-100.26678939585686,76.200527287817
2024-09-23 08:53:31.291683,43.46,7.85709,-0.0030841997366068195,-0.023877669304275123,0.09695331012558621,40.106058693909645,-100.26678939585686,84.22370748782159
2024-09-23 08:53:31.323560,43.46,7.857143,-0.0030344509719951677,-0.023877669304275123,0.09695331012558621,40.106058693909645,-100.26678939585686,84.22370748782159
2024-09-23 08:53:31.334521,43.46,7.857143,-0.0030344509719951677,-0.023280723622328886,0.09685382322919964,36.09446859390736,-96.25519929585457,84.22370748782159
2024-09-23 08:53:31.376331,43.46,7.857193,-0.0028354659767690416,-0.023230986250042305,0.09705279702197278,36.09446859390736,-96.25519929585457,80.21211738781929
2024-09-23 08:53:31.388358,43.46,7.857193,-0.0028354659767690416,-0.023230986250042305,0.09705279702197278,40.106058693909645,-96.25519929585457,80.21211738781929
2024-09-23 08:53:31.420384,43.46,7.857193,-0.0028354659767690416,-0.023230986250042305,0.09705279702197278,40.106058693909645,-100.26678939585686,76.200527287817
2024-09-23 08:53:31.431916,43.46,7.857244,-0.0029847020175114316,-0.023429960042815445,0.09715228999426605,40.106058693909645,-100.26678939585686,76.200527287817
2024-09-23 08:53:31.474656,43.46,7.857295,-0.003233425524256645,-0.023429960042815445,0.09715228999426605,36.09446859390736,-100.26678939585686,80.21211738781929
2024-09-23 08:53:31.487264,43.46,7.857295,-0.003233425524256645,-0.023778180888911878,0.09715228999426605,36.09446859390736,-100.26678939585686,80.21211738781929
2024-09-23 08:53:31.519596,43.58,7.857295,-0.003233425524256645,-0.023778180888911878,0.09695331012558621,44.11764879391193,-92.24360919585227,80.21211738781929
2024-09-23 08:53:31.531327,43.58,7.857345,-0.0029847020175114316,-0.023778180888911878,0.09695331012558621,44.11764879391193,-92.24360919585227,80.21211738781929
2024-09-23 08:53:31.615100,43.58,7.857345,-0.0029847020175114316,-0.023778180888911878,0.09725178296655933,44.11764879391193,-92.24360919585227,80.21211738781929
2024-09-23 08:53:31.626410,43.58,7.857432,-0.0029847020175114316,-0.023778180888911878,0.09725178296655933,36.09446859390736,-104.27510100388527,72.1922225099802
2024-09-23 08:53:31.721261,43.58,7.857432,-0.0031339382481259063,-0.023927417309398437,0.09690356060148622,36.09446859390736,-92.24360919585227,76.200527287817
2024-09-23 08:53:31.763840,43.58,7.857483,-0.0023380189632786156,-0.023181236725942318,0.09690356060148622,36.09446859390736,-92.24360919585227,76.200527287817
2024-09-23 08:53:31.774883,43.58,7.857483,-0.0023380189632786156,-0.023181236725942318,0.09720203344245934,36.09446859390736,-96.25519929585457,76.200527287817
2024-09-23 08:53:31.817257,43.58,7.857534,-0.0036811340262279837,-0.023728432883788564,0.09764974270391902,40.106058693909645,-96.25519929585457,80.21211738781929
2024-09-23 08:53:31.859494,43.58,7.857534,-0.0036811340262279837,-0.023728432883788564,0.09764974270391902,40.106058693909645,-100.26678939585686,76.200527287817
2024-09-23 08:53:31.871166,43.58,7.857585,-0.0032831742888682963,-0.02397715620066169,0.09595840470628028,40.106058693909645,-100.26678939585686,76.200527287817
2024-09-23 08:53:31.914272,43.58,7.857678,-0.0035318979854855937,-0.02397715620066169,0.09595840470628028,32.08287849390507,-100.26678939585686,84.22370748782159
2024-09-23 08:53:31.956563,43.58,7.857678,-0.0035318979854855937,-0.02397715620066169,0.0973512698629459,36.09446859390736,-100.26678939585686,84.22370748782159
2024-09-23 08:53:31.968238,43.58,7.857776,-0.003631395514708897,-0.02397715620066169,0.0973512698629459,36.09446859390736,-96.25519929585457,84.22370748782159
2024-09-23 08:53:32.011259,43.58,7.85787,-0.003631395514708897,-0.02362894446842532,0.09675432418099966,40.106058693909645,-100.26678939585686,76.200527287817
2024-09-23 08:53:32.053347,43.58,7.85787,-0.002785727465249955,-0.024076653729884996,0.09675432418099966,40.106058693909645,-100.26678939585686,76.200527287817
2024-09-23 08:53:32.065109,43.58,7.85787,-0.002785727465249955,-0.024076653729884996,0.09675432418099966,36.09446859390736,-104.27510100388527,80.21211738781929
2024-09-23 08:53:32.107154,43.58,7.857922,-0.003233425524256645,-0.02362894446842532,0.09695331012558621,36.09446859390736,-104.27510100388527,80.21211738781929
2024-09-23 08:53:32.119190,43.58,7.857922,-0.003233425524256645,-0.02362894446842532,0.09695331012558621,36.09446859390736,-96.25519929585457,80.21211738781929
2024-09-23 08:53:32.151268,43.58,7.857973,-0.003233425524256645,-0.02362894446842532,0.09695331012558621,36.09446859390736,-96.25519929585457,84.22370748782159
2024-09-23 08:53:32.162363,43.58,7.857973,-0.003979606107712764,-0.024225890150371555,0.0966050877605131,36.09446859390736,-96.25519929585457,84.22370748782159
2024-09-23 08:53:32.204244,43.58,7.857973,-0.003979606107712764,-0.024225890150371555,0.0966050877605131,40.106058693909645,-96.25519929585457,84.22370748782159
2024-09-23 08:53:32.257034,43.58,7.858023,-0.003382661564999035,-0.023579196463302005,0.09715228999426605,40.106058693909645,-100.26678939585686,76.200527287817
2024-09-23 08:53:32.300007,43.58,7.858023,-0.003382661564999035,-0.023579196463302005,0.09715228999426605,40.106058693909645,-104.27510100388527,76.200527287817
2024-09-23 08:53:32.310975,43.58,7.858074,-0.0030841997366068195,-0.02352945757203875,0.09715228999426605,40.106058693909645,-104.27510100388527,76.200527287817
2024-09-23 08:53:32.353850,43.58,7.858125,-0.002785727465249955,-0.02352945757203875,0.09755024973162574,40.106058693909645,-100.26678939585686,76.200527287817
2024-09-23 08:53:32.396159,43.58,7.858125,-0.002785727465249955,-0.023877669304275123,0.09745075675933246,40.106058693909645,-100.26678939585686,76.200527287817
2024-09-23 08:53:32.407463,43.58,7.858212,-0.002785727465249955,-0.023877669304275123,0.09745075675933246,40.106058693909645,-96.25519929585457,76.200527287817
2024-09-23 08:53:32.450056,43.58,7.858212,-0.0032831742888682963,-0.024076653729884996,0.09740101331113918,36.09446859390736,-92.24360919585227,84.22370748782159
2024-09-23 08:53:32.492857,43.58,7.85831,-0.003382661564999035,-0.024076653729884996,0.09740101331113918,36.09446859390736,-92.24360919585227,84.22370748782159
2024-09-23 08:53:32.504172,43.58,7.85831,-0.003382661564999035,-0.023827930413011865,0.09615739065086683,36.09446859390736,-92.24360919585227,84.22370748782159
2024-09-23 08:53:32.547120,42.79,7.858361,-0.0030344509719951677,-0.02397715620066169,0.09695331012558621,36.09446859390736,-92.24360919585227,84.22370748782159
2024-09-23 08:53:32.559122,42.79,7.858361,-0.0030344509719951677,-0.02397715620066169,0.09695331012558621,40.106058693909645,-92.24360919585227,84.22370748782159
2024-09-23 08:53:32.591563,42.79,7.858412,-0.0030344509719951677,-0.02397715620066169,0.09695331012558621,40.106058693909645,-100.26678939585686,84.22370748782159
2024-09-23 08:53:32.602720,42.79,7.858412,-0.0035318979854855937,-0.024623849887731242,0.09695331012558621,40.106058693909645,-100.26678939585686,84.22370748782159
2024-09-23 08:53:32.645316,42.79,7.858412,-0.0035318979854855937,-0.024623849887731242,0.09695331012558621,40.106058693909645,-92.24360919585227,80.21211738781929
2024-09-23 08:53:32.689752,42.79,7.858462,-0.0036811340262279837,-0.024623849887731242,0.09695331012558621,40.106058693909645,-92.24360919585227,80.21211738781929
