Ayaan's Suite
Timestamp,Sample Rate (Hz),Time,Ax,Ay,Az,Gx,Gy,Gz
2024-09-23 07:06:02.882604,0,1.408485,-0.0028852147413806935,-0.024474613467244683,0.09680407370509965,48.12595698684454,-100.26678939585686,76.200527287817
2024-09-23 07:06:02.915545,0,1.408535,-0.0031836870127375577,-0.024474613467244683,0.09680407370509965,48.12595698684454,-96.25519929585457,72.1922225099802
2024-09-23 07:06:02.926531,0,1.408535,-0.0031836870127375577,-0.02457410036363125,0.09630662707135339,48.12595698684454,-96.25519929585457,72.1922225099802
2024-09-23 07:06:02.958673,0,1.408535,-0.0031836870127375577,-0.02457410036363125,0.09630662707135339,48.12595698684454,-96.25519929585457,72.1922225099802
2024-09-23 07:06:02.970059,0,1.408629,-0.003631395514708897,-0.024375126570858115,0.09630662707135339,48.12595698684454,-96.25519929585457,80.21211738781929
2024-09-23 07:06:03.012857,0,1.408629,-0.003631395514708897,-0.024375126570858115,0.09690356060148622,44.11764879391193,-100.26678939585686,80.21211738781929
2024-09-23 07:06:03.024663,0,1.40868,-0.0029847020175114316,-0.024375126570858115,0.09690356060148622,44.11764879391193,-100.26678939585686,80.21211738781929
2024-09-23 07:06:03.057483,0,1.40868,-0.0029847020175114316,-0.023728432883788564,0.09690356060148622,44.11764879391193,-100.26678939585686,80.21211738781929
2024-09-23 07:06:03.069344,0,1.408731,-0.0029847020175114316,-0.023728432883788564,0.09655535038822652,40.106058693909645,-100.26678939585686,80.21211738781929
2024-09-23 07:06:03.112205,0,1.408731,-0.003631395514708897,-0.024176140626271565,0.0966050877605131,40.106058693909645,-96.25519929585457,80.21211738781929
2024-09-23 07:06:03.123979,0,1.408731,-0.003631395514708897,-0.024176140626271565,0.0966050877605131,40.106058693909645,-96.25519929585457,76.200527287817
2024-09-23 07:06:03.156326,0,1.408824,-0.002785727465249955,-0.024176140626271565,0.0966050877605131,40.106058693909645,-96.25519929585457,76.200527287817
2024-09-23 07:06:03.167628,0,1.408824,-0.002785727465249955,-0.02412639262114825,0.0970030596496862,36.09446859390736,-92.24360919585227,76.200527287817
2024-09-23 07:06:03.210867,0,1.408875,-0.003233425524256645,-0.024474613467244683,0.09685382322919964,48.12595698684454,-92.24360919585227,80.21211738781929
2024-09-23 07:06:03.252805,0,1.408875,-0.003233425524256645,-0.024474613467244683,0.09685382322919964,48.12595698684454,-88.23529758782387,80.21211738781929
2024-09-23 07:06:03.264696,0,1.408926,-0.0033329230534799477,-0.02472333678411781,0.0966050877605131,48.12595698684454,-88.23529758782387,80.21211738781929
2024-09-23 07:06:03.307089,0,1.408976,-0.0028852147413806935,-0.02472333678411781,0.0966050877605131,48.12595698684454,-88.23529758782387,76.200527287817
2024-09-23 07:06:03.318802,0,1.408976,-0.0028852147413806935,-0.02472333678411781,0.0966050877605131,48.12595698684454,-88.23529758782387,76.200527287817
2024-09-23 07:06:03.351179,0,1.408976,-0.0028852147413806935,-0.02472333678411781,0.09685382322919964,44.11764879391193,-88.23529758782387,76.200527287817
2024-09-23 07:06:03.362647,0,1.409027,-0.0037308827908396356,-0.02472333678411781,0.09685382322919964,44.11764879391193,-88.23529758782387,76.200527287817
2024-09-23 07:06:03.405902,0,1.409115,-0.0037308827908396356,-0.02412639262114825,0.09740101331113918,40.106058693909645,-92.24360919585227,80.21211738781929
2024-09-23 07:06:03.447641,0,1.409115,-0.0033329230534799477,-0.024225890150371555,0.09740101331113918,40.106058693909645,-92.24360919585227,80.21211738781929
2024-09-23 07:06:03.459437,0,1.409115,-0.0033329230534799477,-0.024225890150371555,0.09655535038822652,36.09446859390736,-92.24360919585227,76.200527287817
2024-09-23 07:06:03.501093,0,1.409167,-0.0035318979854855937,-0.023827930413011865,0.09745075675933246,44.11764879391193,-92.24360919585227,76.200527287817
2024-09-23 07:06:03.513158,0,1.409167,-0.0035318979854855937,-0.023827930413011865,0.09745075675933246,44.11764879391193,-88.23529758782387,76.200527287817
2024-09-23 07:06:03.545418,0,1.409218,-0.0035318979854855937,-0.023827930413011865,0.09745075675933246,44.11764879391193,-88.23529758782387,76.200527287817
2024-09-23 07:06:03.556942,0,1.409218,-0.0029349636958644295,-0.024275627522658133,0.09655535038822652,44.11764879391193,-88.23529758782387,76.200527287817
2024-09-23 07:06:03.598813,0,1.409268,-0.002636491424507565,-0.02367869399252531,0.09655535038822652,44.11764879391193,-104.27510100388527,68.18063240997792
2024-09-23 07:06:03.610492,0,1.409268,-0.002636491424507565,-0.02367869399252531,0.09720203344245934,44.11764879391193,-104.27510100388527,68.18063240997792
2024-09-23 07:06:03.643924,0,1.409268,-0.002636491424507565,-0.02367869399252531,0.09720203344245934,44.11764879391193,-100.26678939585686,68.18063240997792
2024-09-23 07:06:03.655367,0,1.409319,-0.003382661564999035,-0.024325377046758124,0.09720203344245934,44.11764879391193,-100.26678939585686,72.1922225099802
2024-09-23 07:06:03.699850,0,1.409319,-0.003382661564999035,-0.024325377046758124,0.09705279702197278,44.11764879391193,-100.26678939585686,72.1922225099802
2024-09-23 07:06:03.793358,0,1.409319,-0.003382661564999035,-0.024325377046758124,0.09705279702197278,36.09446859390736,-100.26678939585686,72.1922225099802
2024-09-23 07:06:03.887760,41.32,1.409319,-0.003382661564999035,-0.024325377046758124,0.09705279702197278,36.09446859390736,-96.25519929585457,76.200527287817
2024-09-23 07:06:03.898962,41.32,1.40937,-0.0030841997366068195,-0.02472333678411781,0.09695331012558621,36.09446859390736,-96.25519929585457,76.200527287817
2024-09-23 07:06:03.941854,41.32,1.409457,-0.0029349636958644295,-0.02472333678411781,0.09695331012558621,32.08287849390507,-100.26678939585686,80.21211738781929
2024-09-23 07:06:03.953636,41.32,1.409457,-0.0029349636958644295,-0.024275627522658133,0.09695331012558621,32.08287849390507,-100.26678939585686,80.21211738781929
2024-09-23 07:06:03.986211,41.32,1.409457,-0.0029349636958644295,-0.024275627522658133,0.09655535038822652,48.12595698684454,-96.25519929585457,80.21211738781929
2024-09-23 07:06:03.997800,41.32,1.409509,-0.0030344509719951677,-0.024275627522658133,0.09655535038822652,48.12595698684454,-96.25519929585457,76.200527287817
2024-09-23 07:06:04.040911,41.32,1.40956,-0.0030344509719951677,-0.024325377046758124,0.09680407370509965,40.106058693909645,-92.24360919585227,84.22370748782159
2024-09-23 07:06:04.083371,41.32,1.40956,-0.0030841997366068195,-0.024424863943144692,0.09680407370509965,40.106058693909645,-92.24360919585227,84.22370748782159
2024-09-23 07:06:04.095234,41.32,1.40956,-0.0030841997366068195,-0.024424863943144692,0.09645586349183995,40.106058693909645,-100.26678939585686,72.1922225099802
2024-09-23 07:06:04.138198,41.32,1.409799,-0.0027359787006383035,-0.02472333678411781,0.09680407370509965,40.106058693909645,-104.27510100388527,72.1922225099802
2024-09-23 07:06:04.180749,41.32,1.40985,-0.0031836870127375577,-0.02472333678411781,0.09680407370509965,40.106058693909645,-104.27510100388527,76.200527287817
2024-09-23 07:06:04.192643,41.32,1.40985,-0.0031836870127375577,-0.024773084789241125,0.0966050877605131,44.11764879391193,-104.27510100388527,76.200527287817
2024-09-23 07:06:04.235366,41.32,1.409901,-0.0029847020175114316,-0.024424863943144692,0.09595840470628028,44.11764879391193,-100.26678939585686,80.21211738781929
2024-09-23 07:06:04.278015,41.32,1.409901,-0.0029847020175114316,-0.024424863943144692,0.09595840470628028,52.137550501942634,-92.24360919585227,80.21211738781929
2024-09-23 07:06:04.289208,41.32,1.409951,-0.0029847020175114316,-0.024275627522658133,0.09595840470628028,52.137550501942634,-92.24360919585227,80.21211738781929
2024-09-23 07:06:04.332733,41.32,1.410002,-0.0037308827908396356,-0.024275627522658133,0.09665483728461309,40.106058693909645,-92.24360919585227,80.21211738781929
2024-09-23 07:06:04.374649,41.32,1.410002,-0.0037308827908396356,-0.024474613467244683,0.09705279702197278,40.106058693909645,-92.24360919585227,80.21211738781929
2024-09-23 07:06:04.386444,41.32,1.410091,-0.0037308827908396356,-0.024474613467244683,0.09705279702197278,44.11764879391193,-96.25519929585457,76.200527287817
2024-09-23 07:06:04.428438,41.32,1.410091,-0.002387757474797703,-0.024225890150371555,0.09685382322919964,48.12595698684454,-100.26678939585686,76.200527287817
2024-09-23 07:06:04.440913,41.32,1.410091,-0.002387757474797703,-0.024225890150371555,0.09685382322919964,48.12595698684454,-100.26678939585686,76.200527287817
2024-09-23 07:06:04.473880,41.32,1.410142,-0.0037308827908396356,-0.02412639262114825,0.09685382322919964,48.12595698684454,-100.26678939585686,76.200527287817
2024-09-23 07:06:04.485563,41.32,1.410142,-0.0037308827908396356,-0.02412639262114825,0.09705279702197278,40.106058693909645,-92.24360919585227,76.200527287817
2024-09-23 07:06:04.529399,41.32,1.410193,-0.003482159473966507,-0.024524361472367997,0.0966050877605131,44.11764879391193,-92.24360919585227,68.18063240997792
2024-09-23 07:06:04.572020,41.32,1.410243,-0.003482159473966507,-0.024524361472367997,0.0966050877605131,44.11764879391193,-96.25519929585457,68.18063240997792
2024-09-23 07:06:04.583238,41.32,1.410243,-0.0031339382481259063,-0.024176140626271565,0.09695331012558621,44.11764879391193,-96.25519929585457,68.18063240997792
2024-09-23 07:06:04.626792,41.32,1.410294,-0.0028852147413806935,-0.02457410036363125,0.09695331012558621,40.106058693909645,-96.25519929585457,72.1922225099802
2024-09-23 07:06:04.669601,41.32,1.410294,-0.0028852147413806935,-0.02457410036363125,0.09695331012558621,36.09446859390736,-96.25519929585457,76.200527287817
2024-09-23 07:06:04.681676,41.32,1.410345,-0.003233425524256645,-0.02457410036363125,0.09695331012558621,36.09446859390736,-96.25519929585457,76.200527287817
2024-09-23 07:06:04.715732,41.32,1.410345,-0.003233425524256645,-0.024773084789241125,0.09670458680871308,36.09446859390736,-96.25519929585457,76.200527287817
2024-09-23 07:06:04.726724,41.32,1.410432,-0.003233425524256645,-0.024773084789241125,0.09670458680871308,32.08287849390507,-96.25519929585457,76.200527287817
2024-09-23 07:06:04.820753,41.32,1.410432,-0.0027359787006383035,-0.024773084789241125,0.09670458680871308,32.08287849390507,-96.25519929585457,76.200527287817
2024-09-23 07:06:04.864063,41.32,1.410432,-0.0027359787006383035,-0.024076653729884996,0.09710254654607277,36.09446859390736,-96.25519929585457,76.200527287817
2024-09-23 07:06:04.875616,41.32,1.410483,-0.0027359787006383035,-0.024076653729884996,0.09710254654607277,36.09446859390736,-92.24360919585227,76.200527287817
2024-09-23 07:06:04.918904,40.54,1.410483,-0.0030344509719951677,-0.024424863943144692,0.09670458680871308,44.11764879391193,-96.25519929585457,76.200527287817
2024-09-23 07:06:04.930664,40.54,1.410483,-0.0030344509719951677,-0.024424863943144692,0.09670458680871308,44.11764879391193,-96.25519929585457,76.200527287817
2024-09-23 07:06:04.962844,40.54,1.410534,-0.0035318979854855937,-0.02397715620066169,0.09655535038822652,44.11764879391193,-96.25519929585457,76.200527287817
2024-09-23 07:06:04.974702,40.54,1.410534,-0.0035318979854855937,-0.02397715620066169,0.09655535038822652,40.106058693909645,-92.24360919585227,76.200527287817
2024-09-23 07:06:05.006310,40.54,1.410534,-0.0035318979854855937,-0.02397715620066169,0.09655535038822652,40.106058693909645,-92.24360919585227,80.21211738781929
2024-09-23 07:06:05.018269,40.54,1.410585,-0.0031339382481259063,-0.024474613467244683,0.09685382322919964,36.09446859390736,-92.24360919585227,80.21211738781929
2024-09-23 07:06:05.060505,40.54,1.410635,-0.0028354659767690416,-0.024474613467244683,0.09685382322919964,36.09446859390736,-96.25519929585457,80.21211738781929
2024-09-23 07:06:05.072388,40.54,1.410635,-0.0028354659767690416,-0.024524361472367997,0.0973512698629459,36.09446859390736,-96.25519929585457,80.21211738781929
2024-09-23 07:06:05.105910,40.54,1.410635,-0.0028354659767690416,-0.024524361472367997,0.0973512698629459,28.07457030097246,-104.27510100388527,80.21211738781929
2024-09-23 07:06:05.117142,40.54,1.410775,-0.003382661564999035,-0.024474613467244683,0.0973512698629459,28.07457030097246,-104.27510100388527,80.21211738781929
2024-09-23 07:06:05.160210,40.54,1.410826,-0.003382661564999035,-0.024474613467244683,0.09690356060148622,32.08287849390507,-96.25519929585457,80.21211738781929
2024-09-23 07:06:05.171788,40.54,1.410826,-0.0031339382481259063,-0.024474613467244683,0.09690356060148622,32.08287849390507,-96.25519929585457,80.21211738781929
2024-09-23 07:06:05.204800,40.54,1.410826,-0.0031339382481259063,-0.024375126570858115,0.09645586349183995,32.08287849390507,-96.25519929585457,80.21211738781929
2024-09-23 07:06:05.215869,40.54,1.410919,-0.0031339382481259063,-0.024375126570858115,0.09645586349183995,32.08287849390507,-96.25519929585457,76.200527287817
2024-09-23 07:06:05.259204,40.54,1.410919,-0.0033329230534799477,-0.02487257320460437,0.0973512698629459,48.12595698684454,-100.26678939585686,72.1922225099802
2024-09-23 07:06:05.302380,40.54,1.410971,-0.0028852147413806935,-0.024673597892854556,0.0973512698629459,48.12595698684454,-100.26678939585686,72.1922225099802
2024-09-23 07:06:05.314311,40.54,1.410971,-0.0028852147413806935,-0.024673597892854556,0.09695331012558621,36.09446859390736,-104.27510100388527,72.1922225099802
2024-09-23 07:06:05.356779,40.54,1.411022,-0.0028354659767690416,-0.024325377046758124,0.09665483728461309,40.106058693909645,-104.27510100388527,76.200527287817
2024-09-23 07:06:05.399998,40.54,1.411072,-0.0028354659767690416,-0.024325377046758124,0.09665483728461309,40.106058693909645,-100.26678939585686,76.200527287817
2024-09-23 07:06:05.411004,40.54,1.411072,-0.003233425524256645,-0.02412639262114825,0.09695331012558621,40.106058693909645,-100.26678939585686,76.200527287817
2024-09-23 07:06:05.454075,40.54,1.411123,-0.0032831742888682963,-0.024176140626271565,0.09695331012558621,44.11764879391193,-92.24360919585227,80.21211738781929
2024-09-23 07:06:05.495823,40.54,1.411123,-0.0032831742888682963,-0.024176140626271565,0.09645586349183995,44.11764879391193,-92.24360919585227,80.21211738781929
2024-09-23 07:06:05.507084,40.54,1.411174,-0.003382661564999035,-0.024176140626271565,0.09645586349183995,44.11764879391193,-92.24360919585227,84.22370748782159
2024-09-23 07:06:05.548734,40.54,1.411174,-0.003382661564999035,-0.024673597892854556,0.09655535038822652,36.09446859390736,-96.25519929585457,80.21211738781929
2024-09-23 07:06:05.560848,40.54,1.411261,-0.003382661564999035,-0.024673597892854556,0.09655535038822652,36.09446859390736,-96.25519929585457,80.21211738781929
2024-09-23 07:06:05.593795,40.54,1.411261,-0.0025369937054121774,-0.024225890150371555,0.09655535038822652,36.09446859390736,-96.25519929585457,80.21211738781929
2024-09-23 07:06:05.605303,40.54,1.411261,-0.0025369937054121774,-0.024225890150371555,0.09645586349183995,40.106058693909645,-96.25519929585457,72.1922225099802
2024-09-23 07:06:05.648128,40.54,1.411312,-0.0030841997366068195,-0.024176140626271565,0.09645586349183995,48.12595698684454,-100.26678939585686,72.1922225099802
2024-09-23 07:06:05.690685,40.54,1.411363,-0.0030841997366068195,-0.024176140626271565,0.09645586349183995,48.12595698684454,-100.26678939585686,72.1922225099802
2024-09-23 07:06:05.702251,40.54,1.411363,-0.003482159473966507,-0.024275627522658133,0.09690356060148622,36.09446859390736,-100.26678939585686,72.1922225099802
2024-09-23 07:06:05.744875,40.54,1.411413,-0.0031836870127375577,-0.024275627522658133,0.09690356060148622,36.09446859390736,-100.26678939585686,80.21211738781929
2024-09-23 07:06:05.787529,40.54,1.411413,-0.0031836870127375577,-0.024275627522658133,0.09690356060148622,36.09446859390736,-100.26678939585686,80.21211738781929
2024-09-23 07:06:05.798661,40.54,1.411464,-0.0031836870127375577,-0.024275627522658133,0.09670458680871308,44.11764879391193,-92.24360919585227,76.200527287817
2024-09-23 07:06:05.842333,40.54,1.411464,-0.0031836870127375577,-0.024623849887731242,0.0970030596496862,36.09446859390736,-92.24360919585227,76.200527287817
2024-09-23 07:06:05.854254,40.54,1.411464,-0.0031836870127375577,-0.024623849887731242,0.0970030596496862,36.09446859390736,-92.24360919585227,76.200527287817
2024-09-23 07:06:05.886249,40.54,1.411515,-0.0031836870127375577,-0.024623849887731242,0.0970030596496862,36.09446859390736,-92.24360919585227,76.200527287817
2024-09-23 07:06:05.939084,41.4,1.411515,-0.0028354659767690416,-0.024424863943144692,0.09645586349183995,32.08287849390507,-100.26678939585686,76.200527287817
2024-09-23 07:06:05.951288,41.4,1.411515,-0.0028354659767690416,-0.024424863943144692,0.09645586349183995,32.08287849390507,-100.26678939585686,72.1922225099802
2024-09-23 07:06:05.983387,41.4,1.411602,-0.003382661564999035,-0.024424863943144692,0.09645586349183995,32.08287849390507,-100.26678939585686,72.1922225099802
2024-09-23 07:06:05.995333,41.4,1.411602,-0.003382661564999035,-0.02457410036363125,0.09720203344245934,40.106058693909645,-96.25519929585457,72.1922225099802
2024-09-23 07:06:06.037211,41.4,1.411653,-0.0028852147413806935,-0.024225890150371555,0.09720203344245934,40.106058693909645,-96.25519929585457,76.200527287817
2024-09-23 07:06:06.048498,41.4,1.411653,-0.0028852147413806935,-0.024225890150371555,0.09695331012558621,44.11764879391193,-96.25519929585457,76.200527287817
2024-09-23 07:06:06.081064,41.4,1.411653,-0.0028852147413806935,-0.024225890150371555,0.09695331012558621,44.11764879391193,-100.26678939585686,76.200527287817
2024-09-23 07:06:06.092898,41.4,1.411704,-0.003382661564999035,-0.02397715620066169,0.09655535038822652,44.11764879391193,-100.26678939585686,76.200527287817
2024-09-23 07:06:06.135334,41.4,1.411755,-0.0038801188315820256,-0.024524361472367997,0.09655535038822652,48.12595698684454,-104.27510100388527,76.200527287817
2024-09-23 07:06:06.178072,41.4,1.411755,-0.0038801188315820256,-0.024524361472367997,0.09710254654607277,44.11764879391193,-104.27510100388527,76.200527287817
2024-09-23 07:06:06.189996,41.4,1.411848,-0.0028852147413806935,-0.024524361472367997,0.09710254654607277,44.11764879391193,-92.24360919585227,84.22370748782159
2024-09-23 07:06:06.233966,41.4,1.411943,-0.0028852147413806935,-0.02457410036363125,0.09670458680871308,44.11764879391193,-92.24360919585227,72.1922225099802
2024-09-23 07:06:06.328214,41.4,1.411943,-0.0028852147413806935,-0.024026904205785005,0.0970030596496862,48.12595698684454,-92.24360919585227,72.1922225099802
2024-09-23 07:06:06.339653,41.4,1.411943,-0.0028852147413806935,-0.024026904205785005,0.0970030596496862,48.12595698684454,-96.25519929585457,76.200527287817
2024-09-23 07:06:06.374924,41.4,1.411995,-0.0031339382481259063,-0.024026904205785005,0.0970030596496862,48.12595698684454,-96.25519929585457,76.200527287817
2024-09-23 07:06:06.386287,41.4,1.411995,-0.0031339382481259063,-0.024225890150371555,0.09680407370509965,40.106058693909645,-96.25519929585457,76.200527287817
2024-09-23 07:06:06.428682,41.4,1.412045,-0.0027359787006383035,-0.024225890150371555,0.0973512698629459,44.11764879391193,-96.25519929585457,76.200527287817
2024-09-23 07:06:06.471598,41.4,1.412045,-0.0027359787006383035,-0.024225890150371555,0.0973512698629459,44.11764879391193,-96.25519929585457,76.200527287817
2024-09-23 07:06:06.483307,41.4,1.412096,-0.0028852147413806935,-0.02412639262114825,0.09665483728461309,44.11764879391193,-96.25519929585457,76.200527287817
2024-09-23 07:06:06.525767,41.4,1.412147,-0.0028852147413806935,-0.02412639262114825,0.09665483728461309,40.106058693909645,-92.24360919585227,80.21211738781929
2024-09-23 07:06:06.537731,41.4,1.412147,-0.0028852147413806935,-0.024026904205785005,0.09665483728461309,40.106058693909645,-92.24360919585227,80.21211738781929
2024-09-23 07:06:06.571043,41.4,1.412147,-0.0028852147413806935,-0.024026904205785005,0.09690356060148622,32.08287849390507,-100.26678939585686,80.21211738781929
2024-09-23 07:06:06.582629,41.4,1.412238,-0.003233425524256645,-0.024026904205785005,0.09690356060148622,32.08287849390507,-100.26678939585686,76.200527287817
2024-09-23 07:06:06.614498,41.4,1.412238,-0.003233425524256645,-0.024275627522658133,0.09690356060148622,32.08287849390507,-100.26678939585686,76.200527287817
2024-09-23 07:06:06.626274,41.4,1.412333,-0.003233425524256645,-0.024275627522658133,0.09685382322919964,28.07457030097246,-96.25519929585457,80.21211738781929
2024-09-23 07:06:06.668381,41.4,1.412333,-0.0030344509719951677,-0.024026904205785005,0.0973015264147526,32.08287849390507,-96.25519929585457,80.21211738781929
2024-09-23 07:06:06.680260,41.4,1.412333,-0.0030344509719951677,-0.024026904205785005,0.0973015264147526,32.08287849390507,-96.25519929585457,76.200527287817
2024-09-23 07:06:06.712739,41.4,1.412385,-0.0030344509719951677,-0.024026904205785005,0.0973015264147526,32.08287849390507,-96.25519929585457,76.200527287817
2024-09-23 07:06:06.724017,41.4,1.412385,-0.0031836870127375577,-0.024026904205785005,0.09685382322919964,48.12595698684454,-92.24360919585227,76.200527287817
2024-09-23 07:06:06.767046,41.4,1.412435,-0.0029847020175114316,-0.02397715620066169,0.09685382322919964,48.12595698684454,-92.24360919585227,76.200527287817
2024-09-23 07:06:06.778917,41.4,1.412435,-0.0029847020175114316,-0.02397715620066169,0.0970030596496862,32.08287849390507,-92.24360919585227,76.200527287817
2024-09-23 07:06:06.812138,41.4,1.412435,-0.0029847020175114316,-0.02397715620066169,0.0970030596496862,32.08287849390507,-104.27510100388527,72.1922225099802
2024-09-23 07:06:06.823070,41.4,1.412486,-0.0031836870127375577,-0.024176140626271565,0.09675432418099966,32.08287849390507,-104.27510100388527,72.1922225099802
2024-09-23 07:06:06.865072,41.4,1.412537,-0.0035318979854855937,-0.024176140626271565,0.09675432418099966,40.106058693909645,-92.24360919585227,76.200527287817
2024-09-23 07:06:06.876768,41.4,1.412537,-0.0035318979854855937,-0.024623849887731242,0.09675432418099966,40.106058693909645,-92.24360919585227,76.200527287817
2024-09-23 07:06:06.909380,41.4,1.412537,-0.0035318979854855937,-0.024623849887731242,0.09705279702197278,40.106058693909645,-92.24360919585227,76.200527287817
2024-09-23 07:06:06.921782,41.4,1.412537,-0.0035318979854855937,-0.024623849887731242,0.09705279702197278,40.106058693909645,-108.28669110388756,76.200527287817
2024-09-23 07:06:06.965413,42.26,1.412587,-0.0029847020175114316,-0.024474613467244683,0.09675432418099966,40.106058693909645,-108.28669110388756,64.16903547978401
2024-09-23 07:06:07.007477,42.26,1.412587,-0.0029847020175114316,-0.024474613467244683,0.09675432418099966,48.12595698684454,-92.24360919585227,64.16903547978401
2024-09-23 07:06:07.019267,42.26,1.412674,-0.0028852147413806935,-0.024275627522658133,0.09675432418099966,48.12595698684454,-92.24360919585227,72.1922225099802
2024-09-23 07:06:07.061915,42.26,1.412726,-0.0028852147413806935,-0.024275627522658133,0.09720203344245934,40.106058693909645,-96.25519929585457,76.200527287817
2024-09-23 07:06:07.074307,42.26,1.412726,-0.0029847020175114316,-0.024275627522658133,0.09720203344245934,40.106058693909645,-96.25519929585457,76.200527287817
2024-09-23 07:06:07.106978,42.26,1.412726,-0.0029847020175114316,-0.024922321209727684,0.0973512698629459,28.07457030097246,-96.25519929585457,76.200527287817
2024-09-23 07:06:07.117979,42.26,1.412777,-0.0029847020175114316,-0.024922321209727684,0.0973512698629459,28.07457030097246,-96.25519929585457,76.200527287817
2024-09-23 07:06:07.150670,42.26,1.412777,-0.0028354659767690416,-0.024922321209727684,0.0973512698629459,28.07457030097246,-96.25519929585457,76.200527287817
2024-09-23 07:06:07.162173,42.26,1.412777,-0.0028354659767690416,-0.023927417309398437,0.0973512698629459,28.07457030097246,-92.24360919585227,76.200527287817
2024-09-23 07:06:07.206030,42.26,1.412827,-0.0031836870127375577,-0.024375126570858115,0.0966050877605131,28.07457030097246,-92.24360919585227,76.200527287817
2024-09-23 07:06:07.218956,42.26,1.412827,-0.0031836870127375577,-0.024375126570858115,0.0966050877605131,40.106058693909645,-96.25519929585457,76.200527287817
2024-09-23 07:06:07.250296,42.26,1.412919,-0.0031836870127375577,-0.024375126570858115,0.0966050877605131,40.106058693909645,-96.25519929585457,80.21211738781929
2024-09-23 07:06:07.261948,42.26,1.412919,-0.0031339382481259063,-0.023827930413011865,0.0970030596496862,44.11764879391193,-96.25519929585457,80.21211738781929
2024-09-23 07:06:07.305388,42.26,1.41297,-0.0031339382481259063,-0.024026904205785005,0.09655535038822652,44.11764879391193,-104.27510100388527,80.21211738781929
2024-09-23 07:06:07.347932,42.26,1.41297,-0.0031339382481259063,-0.024026904205785005,0.09655535038822652,40.106058693909645,-100.26678939585686,80.21211738781929
2024-09-23 07:06:07.359614,42.26,1.413021,-0.0031339382481259063,-0.024076653729884996,0.09655535038822652,40.106058693909645,-100.26678939585686,72.1922225099802
2024-09-23 07:06:07.402251,42.26,1.413021,-0.0031339382481259063,-0.024076653729884996,0.09645586349183995,44.11764879391193,-96.25519929585457,80.21211738781929
2024-09-23 07:06:07.414793,42.26,1.413072,-0.0031836870127375577,-0.024076653729884996,0.09645586349183995,44.11764879391193,-96.25519929585457,80.21211738781929
2024-09-23 07:06:07.447290,42.26,1.413072,-0.0031836870127375577,-0.024076653729884996,0.09620712802315341,40.106058693909645,-96.25519929585457,80.21211738781929
2024-09-23 07:06:07.458961,42.26,1.413162,-0.0031836870127375577,-0.024076653729884996,0.09620712802315341,40.106058693909645,-92.24360919585227,72.1922225099802
2024-09-23 07:06:07.501398,42.26,1.413162,-0.0030841997366068195,-0.024176140626271565,0.0970030596496862,48.12595698684454,-92.24360919585227,72.1922225099802
2024-09-23 07:06:07.544978,42.26,1.413213,-0.002785727465249955,-0.024176140626271565,0.0970030596496862,48.12595698684454,-92.24360919585227,72.1922225099802
2024-09-23 07:06:07.556518,42.26,1.413213,-0.002785727465249955,-0.024176140626271565,0.09705279702197278,44.11764879391193,-92.24360919585227,72.1922225099802
2024-09-23 07:06:07.600346,42.26,1.413264,-0.0028852147413806935,-0.024524361472367997,0.09710254654607277,40.106058693909645,-92.24360919585227,76.200527287817
2024-09-23 07:06:07.642566,42.26,1.413315,-0.0028852147413806935,-0.024524361472367997,0.09710254654607277,40.106058693909645,-96.25519929585457,84.22370748782159
2024-09-23 07:06:07.654038,42.26,1.413315,-0.0035816467500972456,-0.024474613467244683,0.09685382322919964,40.106058693909645,-96.25519929585457,84.22370748782159
2024-09-23 07:06:07.696967,42.26,1.413365,-0.0031339382481259063,-0.024225890150371555,0.09685382322919964,44.11764879391193,-88.23529758782387,76.200527287817
2024-09-23 07:06:07.739902,42.26,1.413365,-0.0031339382481259063,-0.024225890150371555,0.09715228999426605,36.09446859390736,-92.24360919585227,76.200527287817
2024-09-23 07:06:07.751660,42.26,1.413416,-0.0030344509719951677,-0.024225890150371555,0.09715228999426605,36.09446859390736,-92.24360919585227,80.21211738781929
2024-09-23 07:06:07.794324,42.26,1.413503,-0.0030344509719951677,-0.024474613467244683,0.09715228999426605,40.106058693909645,-104.27510100388527,76.200527287817
2024-09-23 07:06:07.836925,42.26,1.413503,-0.003233425524256645,-0.024424863943144692,0.09725178296655933,40.106058693909645,-104.27510100388527,76.200527287817
2024-09-23 07:06:07.848181,42.26,1.413503,-0.003233425524256645,-0.024424863943144692,0.09725178296655933,44.11764879391193,-100.26678939585686,76.200527287817
2024-09-23 07:06:07.890801,42.26,1.413555,-0.0031836870127375577,-0.024773084789241125,0.09680407370509965,48.12595698684454,-100.26678939585686,76.200527287817
2024-09-23 07:06:07.933315,42.26,1.413606,-0.0031836870127375577,-0.024773084789241125,0.09680407370509965,48.12595698684454,-100.26678939585686,80.21211738781929
2024-09-23 07:06:07.986433,42.03,1.413606,-0.0033329230534799477,-0.024325377046758124,0.09635636444363997,48.12595698684454,-100.26678939585686,80.21211738781929
2024-09-23 07:06:08.028574,42.03,1.413606,-0.0033329230534799477,-0.024325377046758124,0.09635636444363997,48.12595698684454,-104.27510100388527,80.21211738781929
2024-09-23 07:06:08.040048,42.03,1.413657,-0.003233425524256645,-0.023728432883788564,0.09645586349183995,48.12595698684454,-104.27510100388527,80.21211738781929
2024-09-23 07:06:08.082928,42.03,1.413707,-0.003233425524256645,-0.023728432883788564,0.09645586349183995,36.09446859390736,-96.25519929585457,76.200527287817
2024-09-23 07:06:08.094083,42.03,1.413707,-0.0030841997366068195,-0.02412639262114825,0.09645586349183995,36.09446859390736,-96.25519929585457,76.200527287817
2024-09-23 07:06:08.126817,42.03,1.413707,-0.0030841997366068195,-0.02412639262114825,0.09670458680871308,36.09446859390736,-96.25519929585457,76.200527287817
2024-09-23 07:06:08.138579,42.03,1.413758,-0.0038801188315820256,-0.02412639262114825,0.09670458680871308,36.09446859390736,-92.24360919585227,80.21211738781929
2024-09-23 07:06:08.181292,42.03,1.413758,-0.0038801188315820256,-0.024524361472367997,0.09690356060148622,32.08287849390507,-96.25519929585457,76.200527287817
2024-09-23 07:06:08.193374,42.03,1.413844,-0.0038801188315820256,-0.024524361472367997,0.09690356060148622,32.08287849390507,-96.25519929585457,76.200527287817
2024-09-23 07:06:08.276798,42.03,1.413844,-0.0035816467500972456,-0.024325377046758124,0.09695331012558621,32.08287849390507,-96.25519929585457,76.200527287817
2024-09-23 07:06:08.287821,42.03,1.413844,-0.0035816467500972456,-0.024325377046758124,0.09695331012558621,40.106058693909645,-96.25519929585457,84.22370748782159
2024-09-23 07:06:08.331488,42.03,1.413942,-0.0031836870127375577,-0.024325377046758124,0.09705279702197278,36.09446859390736,-96.25519929585457,84.22370748782159
2024-09-23 07:06:08.373399,42.03,1.413994,-0.0031836870127375577,-0.024325377046758124,0.09705279702197278,36.09446859390736,-96.25519929585457,76.200527287817
2024-09-23 07:06:08.384675,42.03,1.413994,-0.003233425524256645,-0.024176140626271565,0.09705279702197278,40.106058693909645,-96.25519929585457,76.200527287817
2024-09-23 07:06:08.427917,42.03,1.414045,-0.002636491424507565,-0.024673597892854556,0.09620712802315341,40.106058693909645,-96.25519929585457,72.1922225099802
2024-09-23 07:06:08.470375,42.03,1.414045,-0.002636491424507565,-0.024673597892854556,0.09620712802315341,44.11764879391193,-96.25519929585457,72.1922225099802
2024-09-23 07:06:08.481805,42.03,1.414095,-0.0029847020175114316,-0.024176140626271565,0.09620712802315341,44.11764879391193,-96.25519929585457,76.200527287817
2024-09-23 07:06:08.525309,42.03,1.414188,-0.0034324103296106863,-0.024176140626271565,0.09695331012558621,44.11764879391193,-96.25519929585457,72.1922225099802
2024-09-23 07:06:08.568719,42.03,1.414188,-0.0034324103296106863,-0.024325377046758124,0.09725178296655933,40.106058693909645,-96.25519929585457,72.1922225099802
2024-09-23 07:06:08.580106,42.03,1.414283,-0.0034324103296106863,-0.024325377046758124,0.09725178296655933,40.106058693909645,-108.28669110388756,72.1922225099802
2024-09-23 07:06:08.622739,42.03,1.414283,-0.0032831742888682963,-0.02502180962509093,0.09720203344245934,48.12595698684454,-96.25519929585457,80.21211738781929
2024-09-23 07:06:08.665937,42.03,1.414335,-0.003382661564999035,-0.02412639262114825,0.09720203344245934,48.12595698684454,-96.25519929585457,80.21211738781929
2024-09-23 07:06:08.677470,42.03,1.414335,-0.003382661564999035,-0.02412639262114825,0.09650560086412653,44.11764879391193,-96.25519929585457,80.21211738781929
2024-09-23 07:06:08.721329,42.03,1.414385,-0.0030344509719951677,-0.02482282368050438,0.09665483728461309,40.106058693909645,-96.25519929585457,84.22370748782159
2024-09-23 07:06:08.763621,42.03,1.414436,-0.0030344509719951677,-0.02482282368050438,0.09665483728461309,40.106058693909645,-100.26678939585686,68.18063240997792
2024-09-23 07:06:08.775084,42.03,1.414436,-0.003382661564999035,-0.024325377046758124,0.09665483728461309,40.106058693909645,-100.26678939585686,68.18063240997792
2024-09-23 07:06:08.817870,42.03,1.414487,-0.0031339382481259063,-0.024524361472367997,0.09665483728461309,56.14914060194492,-100.26678939585686,68.18063240997792
2024-09-23 07:06:08.860832,42.03,1.414487,-0.0031339382481259063,-0.024524361472367997,0.0966050877605131,64.16903547978401,-100.26678939585686,68.18063240997792
2024-09-23 07:06:08.872285,42.03,1.414537,-0.0028852147413806935,-0.024524361472367997,0.0966050877605131,64.16903547978401,-100.26678939585686,76.200527287817
2024-09-23 07:06:08.916239,42.03,1.414624,-0.0028852147413806935,-0.02457410036363125,0.09670458680871308,28.07457030097246,-96.25519929585457,80.21211738781929
2024-09-23 07:06:08.958361,42.03,1.414624,-0.002785727465249955,-0.02457410036363125,0.09710254654607277,28.07457030097246,-96.25519929585457,80.21211738781929
2024-09-23 07:06:08.970620,42.03,1.414624,-0.002785727465249955,-0.02457410036363125,0.09710254654607277,16.039798293417693,-100.26678939585686,76.200527287817
2024-09-23 07:06:09.013038,41.52,1.414676,-0.0027359787006383035,-0.02457410036363125,0.09750050628343246,28.07457030097246,-104.27510100388527,76.200527287817
2024-09-23 07:06:09.055231,41.52,1.414727,-0.0027359787006383035,-0.02457410036363125,0.09750050628343246,28.07457030097246,-104.27510100388527,72.1922225099802
2024-09-23 07:06:09.066770,41.52,1.414727,-0.0033329230534799477,-0.024524361472367997,0.09725178296655933,44.11764879391193,-104.27510100388527,72.1922225099802
2024-09-23 07:06:09.110485,41.52,1.414777,-0.0037308827908396356,-0.024325377046758124,0.09640611396773996,44.11764879391193,-96.25519929585457,76.200527287817
2024-09-23 07:06:09.153054,41.52,1.414777,-0.0037308827908396356,-0.024325377046758124,0.09640611396773996,36.09446859390736,-96.25519929585457,76.200527287817
2024-09-23 07:06:09.165066,41.52,1.414828,-0.0034324103296106863,-0.024275627522658133,0.09640611396773996,36.09446859390736,-96.25519929585457,76.200527287817
2024-09-23 07:06:09.207705,41.52,1.414879,-0.0038303700669703737,-0.024275627522658133,0.09720203344245934,24.06297849342227,-100.26678939585686,80.21211738781929
2024-09-23 07:06:09.251484,41.52,1.414879,-0.0038303700669703737,-0.023927417309398437,0.09705279702197278,44.11764879391193,-100.26678939585686,80.21211738781929
2024-09-23 07:06:09.262848,41.52,1.414966,-0.0038303700669703737,-0.023927417309398437,0.09705279702197278,44.11764879391193,-92.24360919585227,76.200527287817
2024-09-23 07:06:09.305743,41.52,1.414966,-0.003482159473966507,-0.024176140626271565,0.09610764112676684,36.09446859390736,-96.25519929585457,80.21211738781929
2024-09-23 07:06:09.350091,41.52,1.415017,-0.0029349636958644295,-0.02472333678411781,0.09610764112676684,36.09446859390736,-96.25519929585457,80.21211738781929
2024-09-23 07:06:09.362249,41.52,1.415017,-0.0029349636958644295,-0.02472333678411781,0.09650560086412653,40.106058693909645,-96.25519929585457,80.21211738781929
2024-09-23 07:06:09.396613,41.52,1.415068,-0.0029349636958644295,-0.02472333678411781,0.09650560086412653,40.106058693909645,-96.25519929585457,84.22370748782159
2024-09-23 07:06:09.408001,41.52,1.415068,-0.0030841997366068195,-0.024275627522658133,0.0973512698629459,36.09446859390736,-96.25519929585457,84.22370748782159
2024-09-23 07:06:09.451728,41.52,1.415119,-0.003233425524256645,-0.024623849887731242,0.09705279702197278,36.09446859390736,-100.26678939585686,80.21211738781929
2024-09-23 07:06:09.497201,41.52,1.415169,-0.003233425524256645,-0.024623849887731242,0.09705279702197278,36.09446859390736,-96.25519929585457,84.22370748782159
2024-09-23 07:06:09.508943,41.52,1.415169,-0.0033329230534799477,-0.024673597892854556,0.09705279702197278,36.09446859390736,-96.25519929585457,84.22370748782159
2024-09-23 07:06:09.543148,41.52,1.415169,-0.0033329230534799477,-0.024673597892854556,0.09745075675933246,44.11764879391193,-96.25519929585457,84.22370748782159
2024-09-23 07:06:09.554772,41.52,1.41522,-0.0027359787006383035,-0.024673597892854556,0.09745075675933246,44.11764879391193,-96.25519929585457,80.21211738781929
2024-09-23 07:06:09.599548,41.52,1.415307,-0.0027359787006383035,-0.024623849887731242,0.09630662707135339,40.106058693909645,-104.27510100388527,80.21211738781929
2024-09-23 07:06:09.642458,41.52,1.415307,-0.0028852147413806935,-0.024076653729884996,0.0973015264147526,28.07457030097246,-104.27510100388527,80.21211738781929
2024-09-23 07:06:09.653695,41.52,1.415307,-0.0028852147413806935,-0.024076653729884996,0.0973015264147526,28.07457030097246,-96.25519929585457,76.200527287817
2024-09-23 07:06:09.696729,41.52,1.415359,-0.0030344509719951677,-0.024375126570858115,0.09725178296655933,28.07457030097246,-92.24360919585227,76.200527287817
2024-09-23 07:06:09.738998,41.52,1.415409,-0.0034324103296106863,-0.024375126570858115,0.09725178296655933,28.07457030097246,-92.24360919585227,80.21211738781929
2024-09-23 07:06:09.750659,41.52,1.415409,-0.0034324103296106863,-0.024474613467244683,0.09645586349183995,40.106058693909645,-92.24360919585227,80.21211738781929
2024-09-23 07:06:09.793006,41.52,1.41546,-0.0031836870127375577,-0.024275627522658133,0.09670458680871308,40.106058693909645,-100.26678939585686,76.200527287817
2024-09-23 07:06:09.836125,41.52,1.41546,-0.0031836870127375577,-0.024275627522658133,0.09670458680871308,40.106058693909645,-100.26678939585686,80.21211738781929
2024-09-23 07:06:09.847725,41.52,1.415511,-0.0031836870127375577,-0.024474613467244683,0.09670458680871308,40.106058693909645,-100.26678939585686,80.21211738781929
2024-09-23 07:06:09.890823,41.52,1.415561,-0.0031836870127375577,-0.024474613467244683,0.0973512698629459,36.09446859390736,-92.24360919585227,80.21211738781929
2024-09-23 07:06:09.933030,41.52,1.415561,-0.0031836870127375577,-0.02397715620066169,0.09685382322919964,44.11764879391193,-92.24360919585227,80.21211738781929
2024-09-23 07:06:09.944290,41.52,1.415648,-0.0031836870127375577,-0.02397715620066169,0.09685382322919964,44.11764879391193,-92.24360919585227,84.22370748782159
2024-09-23 07:06:09.988483,41.52,1.415648,-0.0030344509719951677,-0.02397715620066169,0.09685382322919964,44.11764879391193,-92.24360919585227,84.22370748782159
2024-09-23 07:06:10.030937,41.2,1.415648,-0.0030344509719951677,-0.02457410036363125,0.09690356060148622,32.08287849390507,-92.24360919585227,84.22370748782159
2024-09-23 07:06:10.042833,41.2,1.415648,-0.0030344509719951677,-0.02457410036363125,0.09690356060148622,32.08287849390507,-100.26678939585686,84.22370748782159
2024-09-23 07:06:10.085231,41.2,1.4157,-0.0032831742888682963,-0.024325377046758124,0.09685382322919964,40.106058693909645,-100.26678939585686,80.21211738781929
2024-09-23 07:06:10.129330,41.2,1.41575,-0.0032831742888682963,-0.024325377046758124,0.09685382322919964,40.106058693909645,-96.25519929585457,80.21211738781929
2024-09-23 07:06:10.141088,41.2,1.41575,-0.002586742470023829,-0.024176140626271565,0.09715228999426605,40.106058693909645,-96.25519929585457,80.21211738781929
2024-09-23 07:06:10.174569,41.2,1.41575,-0.002586742470023829,-0.024176140626271565,0.09715228999426605,36.09446859390736,-96.25519929585457,80.21211738781929
2024-09-23 07:06:10.186468,41.2,1.415801,-0.003382661564999035,-0.023927417309398437,0.09715228999426605,36.09446859390736,-100.26678939585686,76.200527287817
2024-09-23 07:06:10.229348,41.2,1.415852,-0.003382661564999035,-0.023927417309398437,0.0966050877605131,28.07457030097246,-96.25519929585457,80.21211738781929
2024-09-23 07:06:10.240966,41.2,1.415852,-0.002636491424507565,-0.023927417309398437,0.0966050877605131,28.07457030097246,-96.25519929585457,80.21211738781929
2024-09-23 07:06:10.272743,41.2,1.415852,-0.002636491424507565,-0.024225890150371555,0.09710254654607277,28.07457030097246,-96.25519929585457,80.21211738781929
2024-09-23 07:06:10.284524,41.2,1.415943,-0.002636491424507565,-0.024225890150371555,0.09710254654607277,48.12595698684454,-96.25519929585457,76.200527287817
2024-09-23 07:06:10.327347,41.2,1.415943,-0.0030841997366068195,-0.024673597892854556,0.0962568775472534,40.106058693909645,-96.25519929585457,76.200527287817
2024-09-23 07:06:10.339576,41.2,1.415943,-0.0030841997366068195,-0.024673597892854556,0.0962568775472534,40.106058693909645,-96.25519929585457,80.21211738781929
2024-09-23 07:06:10.371799,41.2,1.416039,-0.0031339382481259063,-0.024673597892854556,0.0962568775472534,40.106058693909645,-96.25519929585457,80.21211738781929
2024-09-23 07:06:10.383463,41.2,1.416039,-0.0031339382481259063,-0.024325377046758124,0.09725178296655933,36.09446859390736,-108.28669110388756,80.21211738781929
2024-09-23 07:06:10.425887,41.2,1.41609,-0.0030841997366068195,-0.024474613467244683,0.09710254654607277,36.09446859390736,-108.28669110388756,72.1922225099802
2024-09-23 07:06:10.468329,41.2,1.41609,-0.0030841997366068195,-0.024474613467244683,0.09710254654607277,36.09446859390736,-100.26678939585686,76.200527287817
2024-09-23 07:06:10.479611,41.2,1.416141,-0.0030841997366068195,-0.024623849887731242,0.0962568775472534,36.09446859390736,-100.26678939585686,76.200527287817
2024-09-23 07:06:10.523135,41.2,1.416192,-0.0036811340262279837,-0.023877669304275123,0.0962568775472534,52.137550501942634,-96.25519929585457,76.200527287817
2024-09-23 07:06:10.565217,41.2,1.416192,-0.0036811340262279837,-0.023877669304275123,0.09720203344245934,44.11764879391193,-96.25519929585457,76.200527287817
2024-09-23 07:06:10.576907,41.2,1.416242,-0.0029349636958644295,-0.023877669304275123,0.09720203344245934,44.11764879391193,-92.24360919585227,80.21211738781929
2024-09-23 07:06:10.619157,41.2,1.416242,-0.0029349636958644295,-0.024176140626271565,0.0966050877605131,36.09446859390736,-96.25519929585457,76.200527287817
2024-09-23 07:06:10.630928,41.2,1.416331,-0.0029349636958644295,-0.024176140626271565,0.0966050877605131,36.09446859390736,-96.25519929585457,76.200527287817
2024-09-23 07:06:10.664144,41.2,1.416331,-0.0030841997366068195,-0.02412639262114825,0.0966050877605131,36.09446859390736,-96.25519929585457,76.200527287817
2024-09-23 07:06:10.675447,41.2,1.416331,-0.0030841997366068195,-0.02412639262114825,0.09665483728461309,40.106058693909645,-100.26678939585686,72.1922225099802
2024-09-23 07:06:10.717290,41.2,1.416382,-0.0031339382481259063,-0.024225890150371555,0.09690356060148622,44.11764879391193,-100.26678939585686,72.1922225099802
2024-09-23 07:06:10.729379,41.2,1.416382,-0.0031339382481259063,-0.024225890150371555,0.09690356060148622,44.11764879391193,-100.26678939585686,72.1922225099802
2024-09-23 07:06:10.762058,41.2,1.416433,-0.0030841997366068195,-0.024225890150371555,0.09690356060148622,44.11764879391193,-100.26678939585686,80.21211738781929
2024-09-23 07:06:10.773937,41.2,1.416433,-0.0030841997366068195,-0.024474613467244683,0.09680407370509965,48.12595698684454,-100.26678939585686,80.21211738781929
2024-09-23 07:06:10.817768,41.2,1.416484,-0.0027359787006383035,-0.024524361472367997,0.09710254654607277,48.12595698684454,-96.25519929585457,80.21211738781929
2024-09-23 07:06:10.861256,41.2,1.416535,-0.0027359787006383035,-0.024524361472367997,0.09710254654607277,40.106058693909645,-96.25519929585457,80.21211738781929
2024-09-23 07:06:10.872860,41.2,1.416535,-0.0026862297461545674,-0.02472333678411781,0.09710254654607277,40.106058693909645,-96.25519929585457,80.21211738781929
2024-09-23 07:06:10.904676,41.2,1.416535,-0.0026862297461545674,-0.02472333678411781,0.09685382322919964,40.106058693909645,-96.25519929585457,80.21211738781929
2024-09-23 07:06:10.916589,41.2,1.416586,-0.0031836870127375577,-0.02472333678411781,0.09685382322919964,40.106058693909645,-92.24360919585227,80.21211738781929
2024-09-23 07:06:10.958625,41.2,1.416586,-0.0031836870127375577,-0.024474613467244683,0.0966050877605131,32.08287849390507,-96.25519929585457,80.21211738781929
2024-09-23 07:06:10.970251,41.2,1.416672,-0.0031836870127375577,-0.024474613467244683,0.0966050877605131,32.08287849390507,-96.25519929585457,80.21211738781929
2024-09-23 07:06:11.002335,41.2,1.416672,-0.0030841997366068195,-0.024474613467244683,0.0966050877605131,32.08287849390507,-96.25519929585457,80.21211738781929
2024-09-23 07:06:11.013323,41.2,1.416672,-0.0030841997366068195,-0.024325377046758124,0.09620712802315341,40.106058693909645,-92.24360919585227,76.200527287817
2024-09-23 07:06:11.056086,41.66,1.416724,-0.0028354659767690416,-0.024325377046758124,0.09620712802315341,40.106058693909645,-92.24360919585227,76.200527287817
2024-09-23 07:06:11.109408,41.66,1.416774,-0.0028354659767690416,-0.02412639262114825,0.09720203344245934,40.106058693909645,-96.25519929585457,72.1922225099802
2024-09-23 07:06:11.152627,41.66,1.416774,-0.003482159473966507,-0.02472333678411781,0.09630662707135339,40.106058693909645,-96.25519929585457,72.1922225099802
2024-09-23 07:06:11.164104,41.66,1.416774,-0.003482159473966507,-0.02472333678411781,0.09630662707135339,40.106058693909645,-100.26678939585686,68.18063240997792
2024-09-23 07:06:11.206898,41.66,1.416825,-0.002785727465249955,-0.02412639262114825,0.09745075675933246,28.07457030097246,-100.26678939585686,68.18063240997792
2024-09-23 07:06:11.250208,41.66,1.416876,-0.0028852147413806935,-0.02412639262114825,0.09745075675933246,28.07457030097246,-100.26678939585686,76.200527287817
2024-09-23 07:06:11.261926,41.66,1.416876,-0.0028852147413806935,-0.024076653729884996,0.09715228999426605,40.106058693909645,-100.26678939585686,76.200527287817
2024-09-23 07:06:11.305215,41.66,1.416926,-0.0030344509719951677,-0.023927417309398437,0.09675432418099966,40.106058693909645,-84.22370748782159,80.21211738781929
2024-09-23 07:06:11.347404,41.66,1.416926,-0.0030344509719951677,-0.023927417309398437,0.09675432418099966,28.07457030097246,-96.25519929585457,80.21211738781929
2024-09-23 07:06:11.358915,41.66,1.417016,-0.0028852147413806935,-0.024325377046758124,0.09675432418099966,28.07457030097246,-96.25519929585457,80.21211738781929
2024-09-23 07:06:11.402629,41.66,1.417066,-0.0035816467500972456,-0.024325377046758124,0.09725178296655933,32.08287849390507,-92.24360919585227,76.200527287817
2024-09-23 07:06:11.445264,41.66,1.417066,-0.0035816467500972456,-0.024623849887731242,0.09680407370509965,48.12595698684454,-92.24360919585227,76.200527287817
2024-09-23 07:06:11.456435,41.66,1.41716,-0.0035816467500972456,-0.024623849887731242,0.09680407370509965,48.12595698684454,-92.24360919585227,80.21211738781929
2024-09-23 07:06:11.499203,41.66,1.41716,-0.003233425524256645,-0.024375126570858115,0.09685382322919964,36.09446859390736,-92.24360919585227,76.200527287817
2024-09-23 07:06:11.542476,41.66,1.417211,-0.0032831742888682963,-0.024474613467244683,0.09685382322919964,36.09446859390736,-92.24360919585227,76.200527287817
2024-09-23 07:06:11.554120,41.66,1.417211,-0.0032831742888682963,-0.024474613467244683,0.0970030596496862,44.11764879391193,-92.24360919585227,76.200527287817
2024-09-23 07:06:11.597147,41.66,1.417262,-0.003233425524256645,-0.024325377046758124,0.09680407370509965,48.12595698684454,-92.24360919585227,80.21211738781929
2024-09-23 07:06:11.640327,41.66,1.417312,-0.003233425524256645,-0.024325377046758124,0.09680407370509965,48.12595698684454,-92.24360919585227,88.23529758782387
2024-09-23 07:06:11.651741,41.66,1.417312,-0.0031339382481259063,-0.024673597892854556,0.09745075675933246,48.12595698684454,-92.24360919585227,88.23529758782387
2024-09-23 07:06:11.694313,41.66,1.417363,-0.003233425524256645,-0.024524361472367997,0.09745075675933246,36.09446859390736,-104.27510100388527,76.200527287817
2024-09-23 07:06:11.737347,41.66,1.417363,-0.003233425524256645,-0.024524361472367997,0.09720203344245934,32.08287849390507,-96.25519929585457,76.200527287817
2024-09-23 07:06:11.749312,41.66,1.417414,-0.0029349636958644295,-0.024524361472367997,0.09720203344245934,32.08287849390507,-96.25519929585457,76.200527287817
2024-09-23 07:06:11.782122,41.66,1.417414,-0.0029349636958644295,-0.024026904205785005,0.09720203344245934,32.08287849390507,-96.25519929585457,76.200527287817
2024-09-23 07:06:11.793816,41.66,1.417501,-0.0029349636958644295,-0.024026904205785005,0.0973015264147526,40.106058693909645,-100.26678939585686,76.200527287817
2024-09-23 07:06:11.835779,41.66,1.417501,-0.0030841997366068195,-0.024325377046758124,0.09710254654607277,44.11764879391193,-100.26678939585686,76.200527287817
2024-09-23 07:06:11.846976,41.66,1.417501,-0.0030841997366068195,-0.024325377046758124,0.09710254654607277,44.11764879391193,-104.27510100388527,64.16903547978401
2024-09-23 07:06:11.889310,41.66,1.417552,-0.0030841997366068195,-0.023927417309398437,0.09745075675933246,44.11764879391193,-100.26678939585686,64.16903547978401
2024-09-23 07:06:11.933250,41.66,1.417603,-0.0031339382481259063,-0.024474613467244683,0.09745075675933246,44.11764879391193,-100.26678939585686,76.200527287817
2024-09-23 07:06:11.945030,41.66,1.417603,-0.0031339382481259063,-0.024474613467244683,0.09710254654607277,36.09446859390736,-100.26678939585686,76.200527287817
2024-09-23 07:06:11.977858,41.66,1.417603,-0.0031339382481259063,-0.024474613467244683,0.09710254654607277,36.09446859390736,-96.25519929585457,76.200527287817
2024-09-23 07:06:11.989734,41.66,1.417654,-0.0032831742888682963,-0.024275627522658133,0.09720203344245934,36.09446859390736,-96.25519929585457,80.21211738781929
2024-09-23 07:06:12.031571,41.66,1.417704,-0.0032831742888682963,-0.024275627522658133,0.09720203344245934,36.09446859390736,-96.25519929585457,84.22370748782159
2024-09-23 07:06:12.043620,41.66,1.417704,-0.0032831742888682963,-0.024176140626271565,0.09720203344245934,36.09446859390736,-96.25519929585457,84.22370748782159
2024-09-23 07:06:12.075614,41.5,1.417704,-0.0032831742888682963,-0.024176140626271565,0.09745075675933246,36.09446859390736,-96.25519929585457,84.22370748782159
2024-09-23 07:06:12.128409,41.5,1.417704,-0.0032831742888682963,-0.024176140626271565,0.09745075675933246,44.11764879391193,-96.25519929585457,76.200527287817
2024-09-23 07:06:12.140228,41.5,1.417755,-0.0028852147413806935,-0.024225890150371555,0.09745075675933246,44.11764879391193,-96.25519929585457,76.200527287817
2024-09-23 07:06:12.172635,41.5,1.417755,-0.0028852147413806935,-0.024225890150371555,0.09715228999426605,44.11764879391193,-96.25519929585457,76.200527287817
2024-09-23 07:06:12.183973,41.5,1.417842,-0.0036811340262279837,-0.024225890150371555,0.09715228999426605,40.106058693909645,-96.25519929585457,76.200527287817
2024-09-23 07:06:12.226573,41.5,1.417842,-0.0036811340262279837,-0.024026904205785005,0.0973512698629459,48.12595698684454,-96.25519929585457,76.200527287817
2024-09-23 07:06:12.238504,41.5,1.417894,-0.0036811340262279837,-0.024026904205785005,0.0973512698629459,48.12595698684454,-96.25519929585457,72.1922225099802
2024-09-23 07:06:12.271708,41.5,1.417894,-0.0031836870127375577,-0.024176140626271565,0.0973512698629459,48.12595698684454,-96.25519929585457,72.1922225099802
2024-09-23 07:06:12.283607,41.5,1.417894,-0.0031836870127375577,-0.024176140626271565,0.09685382322919964,36.09446859390736,-104.27510100388527,76.200527287817
2024-09-23 07:06:12.326732,41.5,1.417944,-0.0032831742888682963,-0.024375126570858115,0.09675432418099966,44.11764879391193,-96.25519929585457,76.200527287817
2024-09-23 07:06:12.369342,41.5,1.418038,-0.0032831742888682963,-0.024375126570858115,0.09675432418099966,44.11764879391193,-96.25519929585457,68.18063240997792
2024-09-23 07:06:12.380535,41.5,1.418038,-0.0029847020175114316,-0.024922321209727684,0.09715228999426605,40.106058693909645,-96.25519929585457,68.18063240997792
2024-09-23 07:06:12.423351,41.5,1.418089,-0.0030841997366068195,-0.024176140626271565,0.09715228999426605,40.106058693909645,-100.26678939585686,72.1922225099802
2024-09-23 07:06:12.435133,41.5,1.418089,-0.0030841997366068195,-0.024176140626271565,0.09680407370509965,40.106058693909645,-100.26678939585686,72.1922225099802
2024-09-23 07:06:12.467084,41.5,1.418089,-0.0030841997366068195,-0.024176140626271565,0.09680407370509965,36.09446859390736,-92.24360919585227,72.1922225099802
2024-09-23 07:06:12.478621,41.5,1.41814,-0.0030841997366068195,-0.02367869399252531,0.09680407370509965,36.09446859390736,-92.24360919585227,84.22370748782159
2024-09-23 07:06:12.521370,41.5,1.418191,-0.0028852147413806935,-0.02367869399252531,0.0973512698629459,32.08287849390507,-88.23529758782387,84.22370748782159
2024-09-23 07:06:12.564932,41.5,1.418191,-0.0028852147413806935,-0.024922321209727684,0.09705279702197278,32.08287849390507,-88.23529758782387,84.22370748782159
2024-09-23 07:06:12.576685,41.5,1.418281,-0.0028852147413806935,-0.024922321209727684,0.09705279702197278,36.09446859390736,-100.26678939585686,80.21211738781929
2024-09-23 07:06:12.620075,41.5,1.418281,-0.0035318979854855937,-0.024325377046758124,0.09675432418099966,36.09446859390736,-92.24360919585227,80.21211738781929
2024-09-23 07:06:12.662329,41.5,1.418332,-0.0034324103296106863,-0.024325377046758124,0.09675432418099966,36.09446859390736,-92.24360919585227,80.21211738781929
2024-09-23 07:06:12.674139,41.5,1.418332,-0.0034324103296106863,-0.024375126570858115,0.0970030596496862,24.06297849342227,-100.26678939585686,80.21211738781929
2024-09-23 07:06:12.716603,41.5,1.418383,-0.0031339382481259063,-0.024474613467244683,0.09680407370509965,40.106058693909645,-100.26678939585686,76.200527287817
2024-09-23 07:06:12.759768,41.5,1.418383,-0.0031339382481259063,-0.024474613467244683,0.09680407370509965,40.106058693909645,-96.25519929585457,80.21211738781929
2024-09-23 07:06:12.771257,41.5,1.418434,-0.0036811340262279837,-0.024225890150371555,0.09630662707135339,40.106058693909645,-96.25519929585457,80.21211738781929
2024-09-23 07:06:12.813970,41.5,1.418484,-0.0034324103296106863,-0.02412639262114825,0.09630662707135339,44.11764879391193,-100.26678939585686,72.1922225099802
2024-09-23 07:06:12.856624,41.5,1.418484,-0.0034324103296106863,-0.02412639262114825,0.09665483728461309,36.09446859390736,-100.26678939585686,72.1922225099802
2024-09-23 07:06:12.868408,41.5,1.418535,-0.0034324103296106863,-0.02412639262114825,0.09665483728461309,36.09446859390736,-100.26678939585686,80.21211738781929
2024-09-23 07:06:12.911172,41.5,1.418535,-0.0034324103296106863,-0.024275627522658133,0.09670458680871308,44.11764879391193,-92.24360919585227,76.200527287817
2024-09-23 07:06:12.923260,41.5,1.418622,-0.0034324103296106863,-0.024275627522658133,0.09670458680871308,44.11764879391193,-92.24360919585227,76.200527287817
2024-09-23 07:06:12.956592,41.5,1.418622,-0.0028852147413806935,-0.024424863943144692,0.09725178296655933,44.11764879391193,-92.24360919585227,76.200527287817
2024-09-23 07:06:12.968544,41.5,1.418622,-0.0028852147413806935,-0.024424863943144692,0.09725178296655933,40.106058693909645,-96.25519929585457,72.1922225099802
2024-09-23 07:06:13.001973,41.5,1.418674,-0.0028852147413806935,-0.024424863943144692,0.09725178296655933,40.106058693909645,-96.25519929585457,72.1922225099802
2024-09-23 07:06:13.013797,41.5,1.418674,-0.002785727465249955,-0.024176140626271565,0.09665483728461309,36.09446859390736,-92.24360919585227,72.1922225099802
2024-09-23 07:06:13.057672,41.5,1.418724,-0.003382661564999035,-0.02397715620066169,0.09655535038822652,36.09446859390736,-92.24360919585227,76.200527287817
2024-09-23 07:06:13.069007,41.5,1.418724,-0.003382661564999035,-0.02397715620066169,0.09655535038822652,56.14914060194492,-92.24360919585227,76.200527287817
2024-09-23 07:06:13.100381,41.64,1.418724,-0.003382661564999035,-0.02397715620066169,0.09655535038822652,56.14914060194492,-100.26678939585686,76.200527287817
2024-09-23 07:06:13.152340,41.64,1.418775,-0.0032831742888682963,-0.024176140626271565,0.09655535038822652,56.14914060194492,-100.26678939585686,72.1922225099802
2024-09-23 07:06:13.164116,41.64,1.418775,-0.0032831742888682963,-0.024176140626271565,0.09774922960030558,-20.05138839341998,-100.26678939585686,72.1922225099802
2024-09-23 07:06:13.196533,41.64,1.418775,-0.0032831742888682963,-0.024176140626271565,0.09774922960030558,-20.05138839341998,-108.28669110388756,72.1922225099802
2024-09-23 07:06:13.207770,41.64,1.418826,-0.0031836870127375577,-0.024176140626271565,0.0970030596496862,-20.05138839341998,-108.28669110388756,72.1922225099802
2024-09-23 07:06:13.249684,41.64,1.418826,-0.0031836870127375577,-0.024176140626271565,0.0970030596496862,48.12595698684454,-100.26678939585686,80.21211738781929
2024-09-23 07:06:13.261550,41.64,1.418876,-0.0028354659767690416,-0.024275627522658133,0.0970030596496862,48.12595698684454,-100.26678939585686,80.21211738781929
2024-09-23 07:06:13.294177,41.64,1.418876,-0.0028354659767690416,-0.024275627522658133,0.09690356060148622,48.12595698684454,-100.26678939585686,80.21211738781929
2024-09-23 07:06:13.306260,41.64,1.418963,-0.003233425524256645,-0.024275627522658133,0.09690356060148622,32.08287849390507,-96.25519929585457,80.21211738781929
2024-09-23 07:06:13.348121,41.64,1.418963,-0.003233425524256645,-0.024474613467244683,0.09740101331113918,28.07457030097246,-100.26678939585686,80.21211738781929
2024-09-23 07:06:13.360061,41.64,1.419061,-0.003233425524256645,-0.024474613467244683,0.09740101331113918,28.07457030097246,-100.26678939585686,80.21211738781929
2024-09-23 07:06:13.393415,41.64,1.419061,-0.0031836870127375577,-0.024225890150371555,0.09740101331113918,28.07457030097246,-100.26678939585686,80.21211738781929
2024-09-23 07:06:13.405818,41.64,1.419061,-0.0031836870127375577,-0.024225890150371555,0.09715228999426605,40.106058693909645,-92.24360919585227,72.1922225099802
2024-09-23 07:06:13.448223,41.64,1.419112,-0.002586742470023829,-0.024922321209727684,0.09640611396773996,36.09446859390736,-88.23529758782387,72.1922225099802
2024-09-23 07:06:13.490866,41.64,1.419163,-0.002586742470023829,-0.024922321209727684,0.09640611396773996,36.09446859390736,-88.23529758782387,80.21211738781929
2024-09-23 07:06:13.502007,41.64,1.419163,-0.0030841997366068195,-0.024176140626271565,0.09715228999426605,36.09446859390736,-88.23529758782387,80.21211738781929
2024-09-23 07:06:13.544773,41.64,1.419214,-0.0032831742888682963,-0.024076653729884996,0.09715228999426605,36.09446859390736,-88.23529758782387,88.23529758782387
2024-09-23 07:06:13.556821,41.64,1.419214,-0.0032831742888682963,-0.024076653729884996,0.09779897304849887,36.09446859390736,-88.23529758782387,88.23529758782387
2024-09-23 07:06:13.640127,41.64,1.419264,-0.0032831742888682963,-0.024076653729884996,0.09779897304849887,48.12595698684454,-84.22370748782159,76.200527287817
2024-09-23 07:06:13.651440,41.64,1.419264,-0.0035816467500972456,-0.024076653729884996,0.09779897304849887,48.12595698684454,-84.22370748782159,76.200527287817
2024-09-23 07:06:13.684394,41.64,1.419264,-0.0035816467500972456,-0.024076653729884996,0.09710254654607277,48.12595698684454,-84.22370748782159,76.200527287817
2024-09-23 07:06:13.695474,41.64,1.419315,-0.003233425524256645,-0.024076653729884996,0.09710254654607277,36.09446859390736,-96.25519929585457,80.21211738781929
2024-09-23 07:06:13.737469,41.64,1.419315,-0.003233425524256645,-0.024673597892854556,0.09710254654607277,52.137550501942634,-92.24360919585227,80.21211738781929
2024-09-23 07:06:13.748600,41.64,1.419402,-0.003233425524256645,-0.024673597892854556,0.09710254654607277,52.137550501942634,-92.24360919585227,76.200527287817
2024-09-23 07:06:13.832476,41.64,1.419402,-0.0028852147413806935,-0.024524361472367997,0.09710254654607277,52.137550501942634,-92.24360919585227,76.200527287817
2024-09-23 07:06:13.843705,41.64,1.419402,-0.0028852147413806935,-0.024524361472367997,0.09725178296655933,40.106058693909645,-100.26678939585686,76.200527287817
2024-09-23 07:06:13.886085,41.64,1.419454,-0.0032831742888682963,-0.02472333678411781,0.09670458680871308,40.106058693909645,-100.26678939585686,76.200527287817
2024-09-23 07:06:13.901676,41.64,1.419454,-0.0032831742888682963,-0.02472333678411781,0.09670458680871308,40.106058693909645,-100.26678939585686,76.200527287817
2024-09-23 07:06:13.933440,41.64,1.419549,-0.003482159473966507,-0.02397715620066169,0.09670458680871308,40.106058693909645,-100.26678939585686,84.22370748782159
2024-09-23 07:06:13.944684,41.64,1.419549,-0.003482159473966507,-0.02397715620066169,0.09670458680871308,36.09446859390736,-100.26678939585686,84.22370748782159
2024-09-23 07:06:13.976574,41.64,1.419549,-0.003482159473966507,-0.02397715620066169,0.09670458680871308,36.09446859390736,-96.25519929585457,84.22370748782159
2024-09-23 07:06:13.988568,41.64,1.419601,-0.003382661564999035,-0.024076653729884996,0.0970030596496862,36.09446859390736,-96.25519929585457,72.1922225099802
2024-09-23 07:06:14.031657,41.64,1.419651,-0.0029349636958644295,-0.024076653729884996,0.0970030596496862,36.09446859390736,-100.26678939585686,76.200527287817
2024-09-23 07:06:14.043308,41.64,1.419651,-0.0029349636958644295,-0.024673597892854556,0.0970030596496862,36.09446859390736,-100.26678939585686,76.200527287817
2024-09-23 07:06:14.075723,41.64,1.419651,-0.0029349636958644295,-0.024673597892854556,0.09655535038822652,32.08287849390507,-100.26678939585686,76.200527287817
2024-09-23 07:06:14.086780,41.64,1.419746,-0.0032831742888682963,-0.024673597892854556,0.09655535038822652,32.08287849390507,-100.26678939585686,72.1922225099802
2024-09-23 07:06:14.180354,41.59,1.419841,-0.0032831742888682963,-0.02487257320460437,0.09715228999426605,52.137550501942634,-100.26678939585686,76.200527287817
2024-09-23 07:06:14.276007,41.59,1.419841,-0.0028852147413806935,-0.024474613467244683,0.09759999317981902,44.11764879391193,-100.26678939585686,76.200527287817
2024-09-23 07:06:14.288116,41.59,1.419841,-0.0028852147413806935,-0.024474613467244683,0.09759999317981902,44.11764879391193,-100.26678939585686,76.200527287817
2024-09-23 07:06:14.320058,41.59,1.419892,-0.0031836870127375577,-0.024474613467244683,0.09759999317981902,44.11764879391193,-100.26678939585686,76.200527287817
2024-09-23 07:06:14.331207,41.59,1.419892,-0.0031836870127375577,-0.024524361472367997,0.09635636444363997,44.11764879391193,-108.28669110388756,76.200527287817
2024-09-23 07:06:14.373829,41.59,1.419943,-0.002785727465249955,-0.02472333678411781,0.09635636444363997,44.11764879391193,-108.28669110388756,60.15744537978172
2024-09-23 07:06:14.385684,41.59,1.419943,-0.002785727465249955,-0.02472333678411781,0.09635636444363997,40.106058693909645,-108.28669110388756,60.15744537978172
2024-09-23 07:06:14.417131,41.59,1.419943,-0.002785727465249955,-0.02472333678411781,0.09635636444363997,40.106058693909645,-96.25519929585457,76.200527287817
2024-09-23 07:06:14.428867,41.59,1.419994,-0.003631395514708897,-0.02412639262114825,0.09710254654607277,40.106058693909645,-96.25519929585457,76.200527287817
2024-09-23 07:06:14.471876,41.59,1.420087,-0.0031836870127375577,-0.024474613467244683,0.09710254654607277,40.106058693909645,-100.26678939585686,76.200527287817
2024-09-23 07:06:14.514588,41.59,1.420087,-0.0031836870127375577,-0.024474613467244683,0.09705279702197278,40.106058693909645,-100.26678939585686,76.200527287817
2024-09-23 07:06:14.525414,41.59,1.420185,-0.003482159473966507,-0.024474613467244683,0.09705279702197278,40.106058693909645,-96.25519929585457,84.22370748782159
2024-09-23 07:06:14.568336,41.59,1.420185,-0.003482159473966507,-0.024623849887731242,0.09690356060148622,40.106058693909645,-96.25519929585457,84.22370748782159
2024-09-23 07:06:14.579685,41.59,1.42028,-0.003482159473966507,-0.024623849887731242,0.09690356060148622,40.106058693909645,-96.25519929585457,84.22370748782159
2024-09-23 07:06:14.611860,41.59,1.42028,-0.0031836870127375577,-0.024424863943144692,0.09690356060148622,40.106058693909645,-96.25519929585457,84.22370748782159
2024-09-23 07:06:14.623205,41.59,1.42028,-0.0031836870127375577,-0.024424863943144692,0.09670458680871308,32.08287849390507,-96.25519929585457,80.21211738781929
2024-09-23 07:06:14.665164,41.59,1.420331,-0.0031339382481259063,-0.024773084789241125,0.09705279702197278,44.11764879391193,-96.25519929585457,80.21211738781929
2024-09-23 07:06:14.677223,41.59,1.420331,-0.0031339382481259063,-0.024773084789241125,0.09705279702197278,44.11764879391193,-92.24360919585227,80.21211738781929
2024-09-23 07:06:14.709977,41.59,1.420382,-0.0031339382481259063,-0.024773084789241125,0.09705279702197278,44.11764879391193,-92.24360919585227,80.21211738781929
2024-09-23 07:06:14.721194,41.59,1.420382,-0.003631395514708897,-0.024375126570858115,0.09680407370509965,40.106058693909645,-92.24360919585227,80.21211738781929
2024-09-23 07:06:14.763077,41.59,1.420432,-0.0035816467500972456,-0.024176140626271565,0.09680407370509965,40.106058693909645,-96.25519929585457,76.200527287817
2024-09-23 07:06:14.774492,41.59,1.420432,-0.0035816467500972456,-0.024176140626271565,0.09710254654607277,40.106058693909645,-96.25519929585457,76.200527287817
2024-09-23 07:06:14.808785,41.59,1.420432,-0.0035816467500972456,-0.024176140626271565,0.09710254654607277,28.07457030097246,-96.25519929585457,80.21211738781929
2024-09-23 07:06:14.820613,41.59,1.420483,-0.0029349636958644295,-0.024375126570858115,0.09710254654607277,28.07457030097246,-96.25519929585457,80.21211738781929
2024-09-23 07:06:14.863127,41.59,1.420534,-0.0027359787006383035,-0.024375126570858115,0.09695331012558621,36.09446859390736,-92.24360919585227,80.21211738781929
2024-09-23 07:06:14.905676,41.59,1.420534,-0.0027359787006383035,-0.024424863943144692,0.09615739065086683,36.09446859390736,-92.24360919585227,80.21211738781929
2024-09-23 07:06:14.917028,41.59,1.420621,-0.0027359787006383035,-0.024424863943144692,0.09615739065086683,36.09446859390736,-100.26678939585686,80.21211738781929
2024-09-23 07:06:14.960417,41.59,1.420621,-0.0035318979854855937,-0.024076653729884996,0.09705279702197278,44.11764879391193,-88.23529758782387,84.22370748782159
2024-09-23 07:06:15.003634,41.59,1.420672,-0.0031339382481259063,-0.02472333678411781,0.09705279702197278,44.11764879391193,-88.23529758782387,84.22370748782159
2024-09-23 07:06:15.015011,41.59,1.420672,-0.0031339382481259063,-0.02472333678411781,0.09620712802315341,40.106058693909645,-108.28669110388756,84.22370748782159
2024-09-23 07:06:15.058181,41.59,1.420724,-0.003233425524256645,-0.024325377046758124,0.0966050877605131,40.106058693909645,-108.28669110388756,72.1922225099802
2024-09-23 07:06:15.101054,41.59,1.420724,-0.003233425524256645,-0.024325377046758124,0.0966050877605131,40.106058693909645,-100.26678939585686,80.21211738781929
2024-09-23 07:06:15.112543,41.59,1.420774,-0.003631395514708897,-0.024176140626271565,0.09695331012558621,40.106058693909645,-100.26678939585686,80.21211738781929
2024-09-23 07:06:15.154771,41.59,1.420825,-0.0030344509719951677,-0.02397715620066169,0.09695331012558621,40.106058693909645,-96.25519929585457,80.21211738781929
2024-09-23 07:06:15.197117,41.84,1.420825,-0.0030344509719951677,-0.02397715620066169,0.09725178296655933,56.14914060194492,-96.25519929585457,80.21211738781929
2024-09-23 07:06:15.208868,41.84,1.420825,-0.0030344509719951677,-0.02397715620066169,0.09725178296655933,56.14914060194492,-100.26678939585686,80.21211738781929
2024-09-23 07:06:15.250792,41.84,1.420876,-0.0034324103296106863,-0.02412639262114825,0.09725178296655933,56.14914060194492,-100.26678939585686,72.1922225099802
2024-09-23 07:06:15.262523,41.84,1.420876,-0.0034324103296106863,-0.02412639262114825,0.09680407370509965,24.06297849342227,-100.26678939585686,72.1922225099802
2024-09-23 07:06:15.295527,41.84,1.420876,-0.0034324103296106863,-0.02412639262114825,0.09680407370509965,24.06297849342227,-96.25519929585457,72.1922225099802
2024-09-23 07:06:15.306574,41.84,1.420962,-0.003482159473966507,-0.02397715620066169,0.09710254654607277,24.06297849342227,-96.25519929585457,72.1922225099802
2024-09-23 07:06:15.349317,41.84,1.421014,-0.0032831742888682963,-0.024076653729884996,0.09710254654607277,36.09446859390736,-100.26678939585686,68.18063240997792
2024-09-23 07:06:15.392096,41.84,1.421014,-0.0032831742888682963,-0.024076653729884996,0.09675432418099966,40.106058693909645,-100.26678939585686,68.18063240997792
2024-09-23 07:06:15.403721,41.84,1.421064,-0.0030841997366068195,-0.024076653729884996,0.09675432418099966,40.106058693909645,-104.27510100388527,76.200527287817
2024-09-23 07:06:15.446873,41.84,1.421115,-0.0030841997366068195,-0.024325377046758124,0.09685382322919964,40.106058693909645,-96.25519929585457,76.200527287817
2024-09-23 07:06:15.488783,41.84,1.421115,-0.0032831742888682963,-0.023728432883788564,0.09685382322919964,40.106058693909645,-96.25519929585457,76.200527287817
2024-09-23 07:06:15.542160,41.84,1.421115,-0.0032831742888682963,-0.023728432883788564,0.09715228999426605,36.09446859390736,-96.25519929585457,72.1922225099802
2024-09-23 07:06:15.554829,41.84,1.421206,-0.0028354659767690416,-0.023728432883788564,0.09715228999426605,36.09446859390736,-96.25519929585457,72.1922225099802
2024-09-23 07:06:15.587426,41.84,1.421206,-0.0028354659767690416,-0.024424863943144692,0.09715228999426605,36.09446859390736,-96.25519929585457,72.1922225099802
2024-09-23 07:06:15.598656,41.84,1.421258,-0.0028354659767690416,-0.024424863943144692,0.09715228999426605,32.08287849390507,-100.26678939585686,76.200527287817
2024-09-23 07:06:15.641268,41.84,1.421258,-0.0030841997366068195,-0.02482282368050438,0.09680407370509965,32.08287849390507,-100.26678939585686,76.200527287817
2024-09-23 07:06:15.653180,41.84,1.421258,-0.0030841997366068195,-0.02482282368050438,0.09680407370509965,32.08287849390507,-100.26678939585686,80.21211738781929
2024-09-23 07:06:15.686217,41.84,1.421309,-0.0031339382481259063,-0.024225890150371555,0.09680407370509965,32.08287849390507,-100.26678939585686,80.21211738781929
2024-09-23 07:06:15.697684,41.84,1.421309,-0.0031339382481259063,-0.024225890150371555,0.09690356060148622,36.09446859390736,-100.26678939585686,80.21211738781929
2024-09-23 07:06:15.740307,41.84,1.421359,-0.0030841997366068195,-0.024225890150371555,0.09670458680871308,36.09446859390736,-88.23529758782387,76.200527287817
2024-09-23 07:06:15.782321,41.84,1.421359,-0.0030841997366068195,-0.024225890150371555,0.09670458680871308,36.09446859390736,-108.28669110388756,76.200527287817
2024-09-23 07:06:15.794010,41.84,1.421451,-0.0036811340262279837,-0.024524361472367997,0.09670458680871308,36.09446859390736,-108.28669110388756,80.21211738781929
2024-09-23 07:06:15.837470,41.84,1.421502,-0.0036811340262279837,-0.024524361472367997,0.09655535038822652,44.11764879391193,-96.25519929585457,76.200527287817
2024-09-23 07:06:15.849270,41.84,1.421502,-0.0024872551938930902,-0.024524361472367997,0.09655535038822652,44.11764879391193,-96.25519929585457,76.200527287817
2024-09-23 07:06:15.880897,41.84,1.421502,-0.0024872551938930902,-0.02457410036363125,0.09720203344245934,48.12595698684454,-96.25519929585457,76.200527287817
2024-09-23 07:06:15.892668,41.84,1.421553,-0.0024872551938930902,-0.02457410036363125,0.09720203344245934,48.12595698684454,-92.24360919585227,76.200527287817
2024-09-23 07:06:15.935430,41.84,1.421553,-0.0029847020175114316,-0.02457410036363125,0.09725178296655933,36.09446859390736,-100.26678939585686,84.22370748782159
2024-09-23 07:06:15.977223,41.84,1.421645,-0.0031339382481259063,-0.02457410036363125,0.09725178296655933,36.09446859390736,-100.26678939585686,84.22370748782159
2024-09-23 07:06:15.988381,41.84,1.421645,-0.0031339382481259063,-0.024524361472367997,0.09675432418099966,36.09446859390736,-100.26678939585686,84.22370748782159
2024-09-23 07:06:16.082705,41.84,1.421697,-0.0026862297461545674,-0.02412639262114825,0.09685382322919964,36.09446859390736,-100.26678939585686,80.21211738781929
2024-09-23 07:06:16.126761,41.84,1.421747,-0.0034324103296106863,-0.02412639262114825,0.09685382322919964,36.09446859390736,-96.25519929585457,80.21211738781929
2024-09-23 07:06:16.138600,41.84,1.421747,-0.0034324103296106863,-0.024176140626271565,0.09645586349183995,36.09446859390736,-96.25519929585457,80.21211738781929
2024-09-23 07:06:16.172445,41.84,1.421747,-0.0034324103296106863,-0.024176140626271565,0.09645586349183995,36.09446859390736,-92.24360919585227,80.21211738781929
2024-09-23 07:06:16.183852,41.84,1.421798,-0.0031836870127375577,-0.024176140626271565,0.09645586349183995,36.09446859390736,-92.24360919585227,76.200527287817
2024-09-23 07:06:16.226904,41.61,1.421798,-0.0031836870127375577,-0.024176140626271565,0.0966050877605131,36.09446859390736,-88.23529758782387,76.200527287817
2024-09-23 07:06:16.269782,41.61,1.421849,-0.0031836870127375577,-0.024176140626271565,0.0966050877605131,36.09446859390736,-88.23529758782387,76.200527287817
2024-09-23 07:06:16.280750,41.61,1.421849,-0.0032831742888682963,-0.024623849887731242,0.09665483728461309,40.106058693909645,-88.23529758782387,76.200527287817
2024-09-23 07:06:16.323897,41.61,1.421986,-0.0025369937054121774,-0.024076653729884996,0.09665483728461309,40.106058693909645,-100.26678939585686,76.200527287817
2024-09-23 07:06:16.336550,41.61,1.421986,-0.0025369937054121774,-0.024076653729884996,0.09650560086412653,40.106058693909645,-100.26678939585686,76.200527287817
2024-09-23 07:06:16.368783,41.61,1.421986,-0.0025369937054121774,-0.024076653729884996,0.09650560086412653,40.106058693909645,-96.25519929585457,80.21211738781929
2024-09-23 07:06:16.380027,41.61,1.422037,-0.002785727465249955,-0.024623849887731242,0.09650560086412653,40.106058693909645,-96.25519929585457,80.21211738781929
2024-09-23 07:06:16.421935,41.61,1.422088,-0.0032831742888682963,-0.024623849887731242,0.0970030596496862,40.106058693909645,-96.25519929585457,76.200527287817
2024-09-23 07:06:16.463914,41.61,1.422088,-0.0032831742888682963,-0.024474613467244683,0.09655535038822652,40.106058693909645,-96.25519929585457,76.200527287817
2024-09-23 07:06:16.475113,41.61,1.422181,-0.0032831742888682963,-0.024474613467244683,0.09655535038822652,36.09446859390736,-92.24360919585227,80.21211738781929
2024-09-23 07:06:16.518782,41.61,1.422181,-0.002437506429281439,-0.023927417309398437,0.0976994861521123,40.106058693909645,-88.23529758782387,76.200527287817
2024-09-23 07:06:16.560830,41.61,1.422233,-0.002437506429281439,-0.023927417309398437,0.0976994861521123,40.106058693909645,-88.23529758782387,76.200527287817
2024-09-23 07:06:16.572272,41.61,1.422233,-0.0030841997366068195,-0.024225890150371555,0.09720203344245934,40.106058693909645,-104.27510100388527,76.200527287817
2024-09-23 07:06:16.614776,41.61,1.422283,-0.0035318979854855937,-0.02412639262114825,0.09720203344245934,40.106058693909645,-104.27510100388527,68.18063240997792
2024-09-23 07:06:16.627501,41.61,1.422283,-0.0035318979854855937,-0.02412639262114825,0.09740101331113918,36.09446859390736,-104.27510100388527,68.18063240997792
2024-09-23 07:06:16.659435,41.61,1.422283,-0.0035318979854855937,-0.02412639262114825,0.09740101331113918,36.09446859390736,-88.23529758782387,88.23529758782387
2024-09-23 07:06:16.670795,41.61,1.422334,-0.0028852147413806935,-0.024076653729884996,0.09695331012558621,36.09446859390736,-88.23529758782387,88.23529758782387
2024-09-23 07:06:16.713426,41.61,1.422384,-0.0031339382481259063,-0.024076653729884996,0.09695331012558621,48.12595698684454,-92.24360919585227,76.200527287817
2024-09-23 07:06:16.725655,41.61,1.422384,-0.0031339382481259063,-0.02457410036363125,0.09695331012558621,48.12595698684454,-92.24360919585227,76.200527287817
2024-09-23 07:06:16.759062,41.61,1.422384,-0.0031339382481259063,-0.02457410036363125,0.09630662707135339,44.11764879391193,-88.23529758782387,76.200527287817
2024-09-23 07:06:16.770602,41.61,1.422435,-0.003631395514708897,-0.02457410036363125,0.09630662707135339,44.11764879391193,-88.23529758782387,80.21211738781929
2024-09-23 07:06:16.804295,41.61,1.422435,-0.003631395514708897,-0.024225890150371555,0.09630662707135339,44.11764879391193,-88.23529758782387,80.21211738781929
2024-09-23 07:06:16.816078,41.61,1.422522,-0.003631395514708897,-0.024225890150371555,0.09725178296655933,44.11764879391193,-80.21211738781929,92.24360919585227
2024-09-23 07:06:16.858942,41.61,1.422522,-0.0030344509719951677,-0.024424863943144692,0.09655535038822652,48.12595698684454,-80.21211738781929,92.24360919585227
2024-09-23 07:06:16.870200,41.61,1.422522,-0.0030344509719951677,-0.024424863943144692,0.09655535038822652,48.12595698684454,-92.24360919585227,84.22370748782159
2024-09-23 07:06:16.902024,41.61,1.422574,-0.0030344509719951677,-0.024424863943144692,0.09655535038822652,48.12595698684454,-92.24360919585227,84.22370748782159
2024-09-23 07:06:16.955764,41.61,1.422574,-0.0026862297461545674,-0.024076653729884996,0.09695331012558621,56.14914060194492,-92.24360919585227,84.22370748782159
2024-09-23 07:06:16.967542,41.61,1.422574,-0.0026862297461545674,-0.024076653729884996,0.09695331012558621,56.14914060194492,-88.23529758782387,80.21211738781929
2024-09-23 07:06:16.999740,41.61,1.422625,-0.0026862297461545674,-0.024076653729884996,0.09695331012558621,56.14914060194492,-88.23529758782387,80.21211738781929
2024-09-23 07:06:17.011595,41.61,1.422625,-0.0027359787006383035,-0.023280723622328886,0.0966050877605131,28.07457030097246,-96.25519929585457,80.21211738781929
2024-09-23 07:06:17.054669,41.61,1.422676,-0.0032831742888682963,-0.02497206010099094,0.0966050877605131,28.07457030097246,-96.25519929585457,76.200527287817
2024-09-23 07:06:17.067521,41.61,1.422676,-0.0032831742888682963,-0.02497206010099094,0.09600815423038027,40.106058693909645,-96.25519929585457,76.200527287817
2024-09-23 07:06:17.100128,41.61,1.422726,-0.0032831742888682963,-0.02497206010099094,0.09600815423038027,40.106058693909645,-96.25519929585457,80.21211738781929
2024-09-23 07:06:17.111807,41.61,1.422726,-0.003382661564999035,-0.024325377046758124,0.09705279702197278,40.106058693909645,-96.25519929585457,80.21211738781929
2024-09-23 07:06:17.154355,41.61,1.422777,-0.003382661564999035,-0.023927417309398437,0.09705279702197278,44.11764879391193,-100.26678939585686,76.200527287817
2024-09-23 07:06:17.196470,41.61,1.422777,-0.003382661564999035,-0.023927417309398437,0.09665483728461309,44.11764879391193,-100.26678939585686,76.200527287817
2024-09-23 07:06:17.208527,41.61,1.422866,-0.0033329230534799477,-0.023927417309398437,0.09665483728461309,44.11764879391193,-100.26678939585686,76.200527287817
2024-09-23 07:06:17.251357,41.52,1.422866,-0.0033329230534799477,-0.024375126570858115,0.09750050628343246,40.106058693909645,-100.26678939585686,76.200527287817
2024-09-23 07:06:17.293367,41.52,1.422866,-0.0033329230534799477,-0.024375126570858115,0.09750050628343246,40.106058693909645,-100.26678939585686,76.200527287817
2024-09-23 07:06:17.305262,41.52,1.422961,-0.003482159473966507,-0.02472333678411781,0.09670458680871308,40.106058693909645,-100.26678939585686,80.21211738781929
2024-09-23 07:06:17.348460,41.52,1.423013,-0.003382661564999035,-0.02472333678411781,0.09670458680871308,40.106058693909645,-96.25519929585457,72.1922225099802
2024-09-23 07:06:17.360345,41.52,1.423013,-0.003382661564999035,-0.02497206010099094,0.09670458680871308,40.106058693909645,-96.25519929585457,72.1922225099802
2024-09-23 07:06:17.392945,41.52,1.423013,-0.003382661564999035,-0.02497206010099094,0.09680407370509965,44.11764879391193,-96.25519929585457,72.1922225099802
2024-09-23 07:06:17.403982,41.52,1.423063,-0.0037308827908396356,-0.02497206010099094,0.09680407370509965,44.11764879391193,-92.24360919585227,76.200527287817
2024-09-23 07:06:17.446973,41.52,1.423114,-0.0037308827908396356,-0.024275627522658133,0.09680407370509965,48.12595698684454,-92.24360919585227,76.200527287817
2024-09-23 07:06:17.490041,41.52,1.423114,-0.0038303700669703737,-0.024623849887731242,0.0966050877605131,48.12595698684454,-92.24360919585227,76.200527287817
2024-09-23 07:06:17.501714,41.52,1.423114,-0.0038303700669703737,-0.024623849887731242,0.0966050877605131,28.07457030097246,-92.24360919585227,76.200527287817
2024-09-23 07:06:17.544439,41.52,1.423205,-0.0031339382481259063,-0.024076653729884996,0.09685382322919964,36.09446859390736,-96.25519929585457,76.200527287817
2024-09-23 07:06:17.587705,41.52,1.423257,-0.0031339382481259063,-0.024076653729884996,0.09685382322919964,36.09446859390736,-96.25519929585457,76.200527287817
2024-09-23 07:06:17.599367,41.52,1.423257,-0.0031339382481259063,-0.02472333678411781,0.09695331012558621,44.11764879391193,-96.25519929585457,76.200527287817
2024-09-23 07:06:17.642834,41.52,1.423307,-0.0029847020175114316,-0.024076653729884996,0.09710254654607277,44.11764879391193,-92.24360919585227,76.200527287817
2024-09-23 07:06:17.685185,41.52,1.423307,-0.0029847020175114316,-0.024076653729884996,0.09710254654607277,52.137550501942634,-108.28669110388756,68.18063240997792
2024-09-23 07:06:17.696360,41.52,1.423358,-0.0030344509719951677,-0.024225890150371555,0.09710254654607277,52.137550501942634,-108.28669110388756,68.18063240997792
2024-09-23 07:06:17.780232,41.52,1.423358,-0.0030344509719951677,-0.024225890150371555,0.09670458680871308,48.12595698684454,-108.28669110388756,68.18063240997792
2024-09-23 07:06:17.791955,41.52,1.423409,-0.003382661564999035,-0.024225890150371555,0.09670458680871308,48.12595698684454,-92.24360919585227,72.1922225099802
2024-09-23 07:06:17.834616,41.52,1.423409,-0.003382661564999035,-0.024673597892854556,0.0973512698629459,36.09446859390736,-92.24360919585227,76.200527287817
2024-09-23 07:06:17.846678,41.52,1.423497,-0.003382661564999035,-0.024673597892854556,0.0973512698629459,36.09446859390736,-92.24360919585227,76.200527287817
2024-09-23 07:06:17.879924,41.52,1.423497,-0.002785727465249955,-0.024325377046758124,0.0973015264147526,36.09446859390736,-92.24360919585227,76.200527287817
2024-09-23 07:06:17.891600,41.52,1.423497,-0.002785727465249955,-0.024325377046758124,0.0973015264147526,48.12595698684454,-92.24360919585227,84.22370748782159
2024-09-23 07:06:17.934581,41.52,1.423549,-0.003382661564999035,-0.024524361472367997,0.09750050628343246,48.12595698684454,-88.23529758782387,84.22370748782159
2024-09-23 07:06:17.977360,41.52,1.423599,-0.0031339382481259063,-0.024524361472367997,0.09750050628343246,48.12595698684454,-88.23529758782387,76.200527287817
2024-09-23 07:06:17.989071,41.52,1.423599,-0.0031339382481259063,-0.023927417309398437,0.09670458680871308,44.11764879391193,-88.23529758782387,76.200527287817
2024-09-23 07:06:18.032819,41.52,1.423694,-0.0035816467500972456,-0.02487257320460437,0.09690356060148622,44.11764879391193,-96.25519929585457,72.1922225099802
2024-09-23 07:06:18.075563,41.52,1.423694,-0.0035816467500972456,-0.02487257320460437,0.09690356060148622,44.11764879391193,-96.25519929585457,72.1922225099802
2024-09-23 07:06:18.086726,41.52,1.423745,-0.0030841997366068195,-0.024076653729884996,0.09690356060148622,44.11764879391193,-96.25519929585457,72.1922225099802
2024-09-23 07:06:18.130416,41.52,1.423795,-0.0034324103296106863,-0.024076653729884996,0.09640611396773996,36.09446859390736,-92.24360919585227,76.200527287817
2024-09-23 07:06:18.173190,41.52,1.423795,-0.0034324103296106863,-0.024275627522658133,0.09695331012558621,36.09446859390736,-92.24360919585227,76.200527287817
2024-09-23 07:06:18.184881,41.52,1.423887,-0.0034324103296106863,-0.024275627522658133,0.09695331012558621,36.09446859390736,-100.26678939585686,76.200527287817
2024-09-23 07:06:18.217042,41.52,1.423887,-0.0029349636958644295,-0.024275627522658133,0.09695331012558621,36.09446859390736,-100.26678939585686,76.200527287817
2024-09-23 07:06:18.228721,41.52,1.423887,-0.0029349636958644295,-0.024275627522658133,0.09725178296655933,40.106058693909645,-108.28669110388756,76.200527287817
2024-09-23 07:06:18.271634,41.42,1.423939,-0.0029349636958644295,-0.024275627522658133,0.09725178296655933,40.106058693909645,-108.28669110388756,76.200527287817
2024-09-23 07:06:18.324039,41.42,1.423939,-0.0030841997366068195,-0.024375126570858115,0.09690356060148622,40.106058693909645,-104.27510100388527,76.200527287817
2024-09-23 07:06:18.367454,41.42,1.423989,-0.003482159473966507,-0.024474613467244683,0.09690356060148622,40.106058693909645,-104.27510100388527,76.200527287817
2024-09-23 07:06:18.379061,41.42,1.423989,-0.003482159473966507,-0.024474613467244683,0.09710254654607277,36.09446859390736,-100.26678939585686,76.200527287817
2024-09-23 07:06:18.422034,41.42,1.42404,-0.003382661564999035,-0.02397715620066169,0.09720203344245934,32.08287849390507,-100.26678939585686,76.200527287817
2024-09-23 07:06:18.465681,41.42,1.424091,-0.003382661564999035,-0.02397715620066169,0.09720203344245934,32.08287849390507,-96.25519929585457,80.21211738781929
2024-09-23 07:06:18.477013,41.42,1.424091,-0.0035816467500972456,-0.024424863943144692,0.09665483728461309,32.08287849390507,-96.25519929585457,80.21211738781929
2024-09-23 07:06:18.511264,41.42,1.424091,-0.0035816467500972456,-0.024424863943144692,0.09665483728461309,36.09446859390736,-96.25519929585457,80.21211738781929
2024-09-23 07:06:18.522860,41.42,1.424141,-0.0029847020175114316,-0.024424863943144692,0.09665483728461309,36.09446859390736,-92.24360919585227,76.200527287817
2024-09-23 07:06:18.566222,41.42,1.424141,-0.0029847020175114316,-0.024424863943144692,0.09655535038822652,40.106058693909645,-104.27510100388527,76.200527287817
2024-09-23 07:06:18.577839,41.42,1.424232,-0.0034324103296106863,-0.024424863943144692,0.09655535038822652,40.106058693909645,-104.27510100388527,76.200527287817
2024-09-23 07:06:18.610224,41.42,1.424232,-0.0034324103296106863,-0.024424863943144692,0.09650560086412653,40.106058693909645,-104.27510100388527,76.200527287817
2024-09-23 07:06:18.621896,41.42,1.424326,-0.0034324103296106863,-0.024424863943144692,0.09650560086412653,32.08287849390507,-92.24360919585227,80.21211738781929
2024-09-23 07:06:18.664239,41.42,1.424326,-0.0033329230534799477,-0.024474613467244683,0.09620712802315341,48.12595698684454,-96.25519929585457,80.21211738781929
2024-09-23 07:06:18.706870,41.42,1.424377,-0.0033329230534799477,-0.024474613467244683,0.09620712802315341,48.12595698684454,-96.25519929585457,80.21211738781929
2024-09-23 07:06:18.718405,41.42,1.424377,-0.0030344509719951677,-0.024275627522658133,0.09665483728461309,44.11764879391193,-88.23529758782387,80.21211738781929
2024-09-23 07:06:18.761678,41.42,1.424428,-0.003482159473966507,-0.024176140626271565,0.09690356060148622,40.106058693909645,-88.23529758782387,80.21211738781929
2024-09-23 07:06:18.803935,41.42,1.424428,-0.003482159473966507,-0.024176140626271565,0.09690356060148622,40.106058693909645,-88.23529758782387,76.200527287817
2024-09-23 07:06:18.815938,41.42,1.424479,-0.0033329230534799477,-0.024325377046758124,0.09690356060148622,40.106058693909645,-88.23529758782387,76.200527287817
2024-09-23 07:06:18.858401,41.42,1.424529,-0.003382661564999035,-0.024325377046758124,0.09690356060148622,36.09446859390736,-96.25519929585457,76.200527287817
2024-09-23 07:06:18.870447,41.42,1.424529,-0.003382661564999035,-0.024225890150371555,0.09690356060148622,36.09446859390736,-96.25519929585457,76.200527287817
2024-09-23 07:06:18.902733,41.42,1.424529,-0.003382661564999035,-0.024225890150371555,0.09675432418099966,32.08287849390507,-96.25519929585457,76.200527287817
2024-09-23 07:06:18.914489,41.42,1.42458,-0.0029847020175114316,-0.024225890150371555,0.09675432418099966,32.08287849390507,-88.23529758782387,80.21211738781929
2024-09-23 07:06:18.957118,41.42,1.42458,-0.0029847020175114316,-0.024275627522658133,0.09725178296655933,28.07457030097246,-96.25519929585457,72.1922225099802
2024-09-23 07:06:18.969007,41.42,1.424667,-0.0029847020175114316,-0.024275627522658133,0.09725178296655933,28.07457030097246,-96.25519929585457,72.1922225099802
2024-09-23 07:06:19.001148,41.42,1.424667,-0.0029349636958644295,-0.023827930413011865,0.09695331012558621,28.07457030097246,-96.25519929585457,72.1922225099802
2024-09-23 07:06:19.012698,41.42,1.424667,-0.0029349636958644295,-0.023827930413011865,0.09695331012558621,40.106058693909645,-100.26678939585686,72.1922225099802
2024-09-23 07:06:19.055356,41.42,1.424719,-0.0028354659767690416,-0.024673597892854556,0.09680407370509965,40.106058693909645,-100.26678939585686,72.1922225099802
2024-09-23 07:06:19.098602,41.42,1.424769,-0.003233425524256645,-0.024673597892854556,0.09680407370509965,40.106058693909645,-100.26678939585686,80.21211738781929
2024-09-23 07:06:19.110325,41.42,1.424769,-0.003233425524256645,-0.023877669304275123,0.09635636444363997,36.09446859390736,-100.26678939585686,80.21211738781929
2024-09-23 07:06:19.153999,41.42,1.42482,-0.0033329230534799477,-0.02457410036363125,0.09695331012558621,36.09446859390736,-96.25519929585457,72.1922225099802
2024-09-23 07:06:19.196414,41.42,1.42482,-0.0033329230534799477,-0.02457410036363125,0.09695331012558621,40.106058693909645,-92.24360919585227,72.1922225099802
2024-09-23 07:06:19.207785,41.42,1.424871,-0.0032831742888682963,-0.024225890150371555,0.09695331012558621,40.106058693909645,-92.24360919585227,72.1922225099802
2024-09-23 07:06:19.251934,41.42,1.424921,-0.0022385316871478774,-0.024225890150371555,0.09595840470628028,32.08287849390507,-92.24360919585227,88.23529758782387
2024-09-23 07:06:19.294375,41.63,1.424921,-0.0022385316871478774,-0.024424863943144692,0.09595840470628028,32.08287849390507,-92.24360919585227,88.23529758782387
2024-09-23 07:06:19.346793,41.63,1.425008,-0.0022385316871478774,-0.024424863943144692,0.09675432418099966,40.106058693909645,-104.27510100388527,76.200527287817
2024-09-23 07:06:19.358496,41.63,1.425008,-0.0029349636958644295,-0.024424863943144692,0.09675432418099966,40.106058693909645,-104.27510100388527,76.200527287817
2024-09-23 07:06:19.391475,41.63,1.425008,-0.0029349636958644295,-0.024325377046758124,0.09690356060148622,40.106058693909645,-104.27510100388527,76.200527287817
2024-09-23 07:06:19.402794,41.63,1.42506,-0.0029349636958644295,-0.024325377046758124,0.09690356060148622,40.106058693909645,-96.25519929585457,76.200527287817
2024-09-23 07:06:19.445283,41.63,1.42506,-0.0034324103296106863,-0.024325377046758124,0.09725178296655933,48.12595698684454,-104.27510100388527,76.200527287817
2024-09-23 07:06:19.487990,41.63,1.425111,-0.0029847020175114316,-0.02457410036363125,0.09725178296655933,48.12595698684454,-104.27510100388527,76.200527287817
2024-09-23 07:06:19.499218,41.63,1.425111,-0.0029847020175114316,-0.02457410036363125,0.0970030596496862,40.106058693909645,-100.26678939585686,76.200527287817
2024-09-23 07:06:19.541954,41.63,1.425161,-0.002785727465249955,-0.025121296521477498,0.09720203344245934,40.106058693909645,-100.26678939585686,76.200527287817
2024-09-23 07:06:19.584193,41.63,1.425161,-0.002785727465249955,-0.025121296521477498,0.09720203344245934,40.106058693909645,-92.24360919585227,76.200527287817
2024-09-23 07:06:19.595724,41.63,1.425254,-0.0035318979854855937,-0.024524361472367997,0.09720203344245934,40.106058693909645,-92.24360919585227,76.200527287817
2024-09-23 07:06:19.639208,41.63,1.425305,-0.0032831742888682963,-0.024524361472367997,0.09665483728461309,36.09446859390736,-96.25519929585457,76.200527287817
2024-09-23 07:06:19.734137,41.63,1.425305,-0.0032831742888682963,-0.024225890150371555,0.09710254654607277,44.11764879391193,-88.23529758782387,76.200527287817
2024-09-23 07:06:19.746036,41.63,1.425355,-0.0032831742888682963,-0.024225890150371555,0.09710254654607277,44.11764879391193,-88.23529758782387,76.200527287817
2024-09-23 07:06:19.779045,41.63,1.425355,-0.0030344509719951677,-0.023927417309398437,0.09710254654607277,44.11764879391193,-88.23529758782387,76.200527287817
2024-09-23 07:06:19.831589,41.63,1.425355,-0.0030344509719951677,-0.023927417309398437,0.09640611396773996,36.09446859390736,-92.24360919585227,80.21211738781929
2024-09-23 07:06:19.843542,41.63,1.425447,-0.0029349636958644295,-0.023927417309398437,0.09640611396773996,36.09446859390736,-92.24360919585227,80.21211738781929
2024-09-23 07:06:19.876473,41.63,1.425447,-0.0029349636958644295,-0.024026904205785005,0.09640611396773996,36.09446859390736,-92.24360919585227,80.21211738781929
2024-09-23 07:06:19.888455,41.63,1.425499,-0.0029349636958644295,-0.024026904205785005,0.09680407370509965,32.08287849390507,-96.25519929585457,80.21211738781929
2024-09-23 07:06:19.930744,41.63,1.425499,-0.003482159473966507,-0.024076653729884996,0.09670458680871308,36.09446859390736,-96.25519929585457,80.21211738781929
2024-09-23 07:06:19.942829,41.63,1.425499,-0.003482159473966507,-0.024076653729884996,0.09670458680871308,36.09446859390736,-96.25519929585457,84.22370748782159
2024-09-23 07:06:19.974465,41.63,1.425549,-0.0029349636958644295,-0.024076653729884996,0.09670458680871308,36.09446859390736,-96.25519929585457,84.22370748782159
2024-09-23 07:06:19.985801,41.63,1.425549,-0.0029349636958644295,-0.024176140626271565,0.09720203344245934,40.106058693909645,-104.27510100388527,84.22370748782159
2024-09-23 07:06:20.027595,41.63,1.425644,-0.0030841997366068195,-0.024524361472367997,0.09720203344245934,40.106058693909645,-104.27510100388527,72.1922225099802
2024-09-23 07:06:20.038882,41.63,1.425644,-0.0030841997366068195,-0.024524361472367997,0.0970030596496862,44.11764879391193,-104.27510100388527,72.1922225099802
2024-09-23 07:06:20.072344,41.63,1.425644,-0.0030841997366068195,-0.024524361472367997,0.0970030596496862,44.11764879391193,-96.25519929585457,72.1922225099802
2024-09-23 07:06:20.083548,41.63,1.425741,-0.0038801188315820256,-0.024076653729884996,0.09650560086412653,44.11764879391193,-96.25519929585457,72.1922225099802
2024-09-23 07:06:20.127855,41.63,1.425792,-0.0030841997366068195,-0.024424863943144692,0.09650560086412653,44.11764879391193,-96.25519929585457,80.21211738781929
2024-09-23 07:06:20.171410,41.63,1.425792,-0.0030841997366068195,-0.024424863943144692,0.09645586349183995,36.09446859390736,-88.23529758782387,80.21211738781929
2024-09-23 07:06:20.183081,41.63,1.425843,-0.003233425524256645,-0.024424863943144692,0.09645586349183995,36.09446859390736,-88.23529758782387,80.21211738781929
2024-09-23 07:06:20.225610,41.63,1.425935,-0.003233425524256645,-0.024275627522658133,0.09705279702197278,40.106058693909645,-100.26678939585686,76.200527287817
2024-09-23 07:06:20.319993,41.5,1.425935,-0.0028852147413806935,-0.024623849887731242,0.09695331012558621,36.09446859390736,-100.26678939585686,76.200527287817
2024-09-23 07:06:20.362350,41.5,1.425935,-0.0028852147413806935,-0.024623849887731242,0.09695331012558621,36.09446859390736,-96.25519929585457,76.200527287817
2024-09-23 07:06:20.374211,41.5,1.425986,-0.0029349636958644295,-0.024623849887731242,0.09695331012558621,36.09446859390736,-96.25519929585457,76.200527287817
2024-09-23 07:06:20.416529,41.5,1.425986,-0.0029349636958644295,-0.024325377046758124,0.09705279702197278,40.106058693909645,-100.26678939585686,76.200527287817
2024-09-23 07:06:20.428366,41.5,1.426037,-0.0029349636958644295,-0.024325377046758124,0.09705279702197278,40.106058693909645,-100.26678939585686,76.200527287817
2024-09-23 07:06:20.461135,41.5,1.426037,-0.0030344509719951677,-0.024325377046758124,0.09705279702197278,40.106058693909645,-100.26678939585686,76.200527287817
2024-09-23 07:06:20.472263,41.5,1.426037,-0.0030344509719951677,-0.024424863943144692,0.09640611396773996,44.11764879391193,-104.27510100388527,76.200527287817
2024-09-23 07:06:20.516033,41.5,1.426088,-0.0034324103296106863,-0.024424863943144692,0.09695331012558621,40.106058693909645,-104.27510100388527,76.200527287817
2024-09-23 07:06:20.528037,41.5,1.426088,-0.0034324103296106863,-0.024424863943144692,0.09695331012558621,40.106058693909645,-100.26678939585686,76.200527287817
2024-09-23 07:06:20.559536,41.5,1.426138,-0.0034324103296106863,-0.024424863943144692,0.09695331012558621,40.106058693909645,-100.26678939585686,76.200527287817
2024-09-23 07:06:20.570692,41.5,1.426138,-0.0031339382481259063,-0.024026904205785005,0.09705279702197278,36.09446859390736,-100.26678939585686,76.200527287817
2024-09-23 07:06:20.612628,41.5,1.426277,-0.0031339382481259063,-0.024076653729884996,0.09705279702197278,36.09446859390736,-100.26678939585686,76.200527287817
2024-09-23 07:06:20.624533,41.5,1.426277,-0.0031339382481259063,-0.024076653729884996,0.09710254654607277,36.09446859390736,-100.26678939585686,76.200527287817
2024-09-23 07:06:20.656885,41.5,1.426277,-0.0031339382481259063,-0.024076653729884996,0.09710254654607277,44.11764879391193,-96.25519929585457,76.200527287817
2024-09-23 07:06:20.668322,41.5,1.426328,-0.0029847020175114316,-0.024424863943144692,0.09710254654607277,44.11764879391193,-96.25519929585457,76.200527287817
2024-09-23 07:06:20.711318,41.5,1.426328,-0.0029847020175114316,-0.024424863943144692,0.09685382322919964,36.09446859390736,-104.27510100388527,68.18063240997792
2024-09-23 07:06:20.722524,41.5,1.426379,-0.0035318979854855937,-0.024424863943144692,0.09685382322919964,36.09446859390736,-104.27510100388527,68.18063240997792
2024-09-23 07:06:20.754845,41.5,1.426379,-0.0035318979854855937,-0.02457410036363125,0.09685382322919964,36.09446859390736,-104.27510100388527,68.18063240997792
2024-09-23 07:06:20.766597,41.5,1.426471,-0.0035318979854855937,-0.02457410036363125,0.09740101331113918,44.11764879391193,-100.26678939585686,80.21211738781929
2024-09-23 07:06:20.809677,41.5,1.426471,-0.0035318979854855937,-0.024176140626271565,0.09690356060148622,48.12595698684454,-92.24360919585227,80.21211738781929
2024-09-23 07:06:20.852528,41.5,1.426523,-0.0029847020175114316,-0.024176140626271565,0.09690356060148622,48.12595698684454,-92.24360919585227,80.21211738781929
2024-09-23 07:06:20.865145,41.5,1.426523,-0.0029847020175114316,-0.024325377046758124,0.09715228999426605,36.09446859390736,-104.27510100388527,80.21211738781929
2024-09-23 07:06:20.908342,41.5,1.426573,-0.003482159473966507,-0.024026904205785005,0.09755024973162574,44.11764879391193,-104.27510100388527,68.18063240997792
2024-09-23 07:06:20.952407,41.5,1.426624,-0.003482159473966507,-0.024026904205785005,0.09755024973162574,44.11764879391193,-96.25519929585457,80.21211738781929
2024-09-23 07:06:20.963619,41.5,1.426624,-0.0030344509719951677,-0.02457410036363125,0.09585891780989371,44.11764879391193,-96.25519929585457,80.21211738781929
2024-09-23 07:06:20.996939,41.5,1.426624,-0.0030344509719951677,-0.02457410036363125,0.09585891780989371,40.106058693909645,-92.24360919585227,80.21211738781929
2024-09-23 07:06:21.050683,41.5,1.426675,-0.0027359787006383035,-0.024275627522658133,0.09585891780989371,40.106058693909645,-92.24360919585227,76.200527287817
2024-09-23 07:06:21.062367,41.5,1.426675,-0.0027359787006383035,-0.024275627522658133,0.09685382322919964,40.106058693909645,-92.24360919585227,76.200527287817
2024-09-23 07:06:21.093894,41.5,1.426675,-0.0027359787006383035,-0.024275627522658133,0.09685382322919964,40.106058693909645,-88.23529758782387,76.200527287817
2024-09-23 07:06:21.109566,41.5,1.426725,-0.0031836870127375577,-0.023927417309398437,0.09685382322919964,40.106058693909645,-88.23529758782387,80.21211738781929
2024-09-23 07:06:21.193408,41.5,1.426725,-0.0031836870127375577,-0.023927417309398437,0.09685382322919964,40.106058693909645,-100.26678939585686,80.21211738781929
2024-09-23 07:06:21.205589,41.5,1.426813,-0.003482159473966507,-0.024225890150371555,0.09685382322919964,40.106058693909645,-100.26678939585686,80.21211738781929
2024-09-23 07:06:21.248995,41.5,1.426864,-0.0031836870127375577,-0.024225890150371555,0.0966050877605131,36.09446859390736,-96.25519929585457,76.200527287817
2024-09-23 07:06:21.292472,41.5,1.426864,-0.0031836870127375577,-0.024375126570858115,0.09655535038822652,44.11764879391193,-96.25519929585457,76.200527287817
2024-09-23 07:06:21.303423,41.5,1.426915,-0.0031836870127375577,-0.024375126570858115,0.09655535038822652,44.11764879391193,-96.25519929585457,76.200527287817
2024-09-23 07:06:21.387242,41.05,1.426915,-0.0030344509719951677,-0.024375126570858115,0.09655535038822652,44.11764879391193,-96.25519929585457,76.200527287817
2024-09-23 07:06:21.399094,41.05,1.426915,-0.0030344509719951677,-0.02537003047118736,0.09715228999426605,40.106058693909645,-100.26678939585686,72.1922225099802
2024-09-23 07:06:21.442544,41.05,1.427008,-0.003233425524256645,-0.024524361472367997,0.0966050877605131,28.07457030097246,-100.26678939585686,72.1922225099802
2024-09-23 07:06:21.454456,41.05,1.427008,-0.003233425524256645,-0.024524361472367997,0.0966050877605131,28.07457030097246,-100.26678939585686,72.1922225099802
2024-09-23 07:06:21.487709,41.05,1.427106,-0.0032831742888682963,-0.024524361472367997,0.0966050877605131,28.07457030097246,-100.26678939585686,80.21211738781929
2024-09-23 07:06:21.499059,41.05,1.427106,-0.0032831742888682963,-0.024424863943144692,0.0962568775472534,40.106058693909645,-100.26678939585686,80.21211738781929
2024-09-23 07:06:21.541627,41.05,1.427157,-0.003929857343101113,-0.02457410036363125,0.09690356060148622,40.106058693909645,-92.24360919585227,72.1922225099802
2024-09-23 07:06:21.584538,41.05,1.427157,-0.003929857343101113,-0.02457410036363125,0.09690356060148622,36.09446859390736,-100.26678939585686,80.21211738781929
2024-09-23 07:06:21.595918,41.05,1.427208,-0.0030841997366068195,-0.024275627522658133,0.09690356060148622,36.09446859390736,-100.26678939585686,80.21211738781929
2024-09-23 07:06:21.639044,41.05,1.427303,-0.0038801188315820256,-0.024275627522658133,0.09710254654607277,44.11764879391193,-96.25519929585457,64.16903547978401
2024-09-23 07:06:21.682467,41.05,1.427303,-0.0038801188315820256,-0.023927417309398437,0.09670458680871308,40.106058693909645,-96.25519929585457,64.16903547978401
2024-09-23 07:06:21.694114,41.05,1.427397,-0.0038801188315820256,-0.023927417309398437,0.09670458680871308,40.106058693909645,-96.25519929585457,76.200527287817
2024-09-23 07:06:21.737416,41.05,1.427397,-0.002636491424507565,-0.024325377046758124,0.09725178296655933,44.11764879391193,-88.23529758782387,76.200527287817
2024-09-23 07:06:21.779948,41.05,1.427449,-0.003233425524256645,-0.02457410036363125,0.09725178296655933,44.11764879391193,-88.23529758782387,76.200527287817
2024-09-23 07:06:21.791429,41.05,1.427449,-0.003233425524256645,-0.02457410036363125,0.09710254654607277,44.11764879391193,-96.25519929585457,76.200527287817
2024-09-23 07:06:21.834029,41.05,1.427499,-0.003482159473966507,-0.024325377046758124,0.09705279702197278,48.12595698684454,-96.25519929585457,68.18063240997792
2024-09-23 07:06:21.875677,41.05,1.427499,-0.003482159473966507,-0.024325377046758124,0.09705279702197278,48.12595698684454,-100.26678939585686,72.1922225099802
2024-09-23 07:06:21.889911,41.05,1.42755,-0.0029349636958644295,-0.02487257320460437,0.09690356060148622,48.12595698684454,-100.26678939585686,72.1922225099802
2024-09-23 07:06:21.922807,41.05,1.42755,-0.0029349636958644295,-0.02487257320460437,0.09690356060148622,40.106058693909645,-100.26678939585686,72.1922225099802
2024-09-23 07:06:21.934609,41.05,1.427601,-0.0030344509719951677,-0.023877669304275123,0.09690356060148622,40.106058693909645,-100.26678939585686,80.21211738781929
2024-09-23 07:06:22.028868,41.05,1.427651,-0.0029847020175114316,-0.023877669304275123,0.09650560086412653,40.106058693909645,-96.25519929585457,76.200527287817
2024-09-23 07:06:22.072447,41.05,1.427651,-0.0029847020175114316,-0.024524361472367997,0.09655535038822652,48.12595698684454,-96.25519929585457,76.200527287817
2024-09-23 07:06:22.083679,41.05,1.427739,-0.0029847020175114316,-0.024524361472367997,0.09655535038822652,48.12595698684454,-96.25519929585457,84.22370748782159
2024-09-23 07:06:22.126653,41.05,1.427739,-0.0037308827908396356,-0.02487257320460437,0.09690356060148622,44.11764879391193,-100.26678939585686,80.21211738781929
2024-09-23 07:06:22.168955,41.05,1.42779,-0.0031836870127375577,-0.024474613467244683,0.09690356060148622,44.11764879391193,-100.26678939585686,80.21211738781929
2024-09-23 07:06:22.180552,41.05,1.42779,-0.0031836870127375577,-0.024474613467244683,0.09710254654607277,40.106058693909645,-96.25519929585457,80.21211738781929
2024-09-23 07:06:22.224006,41.05,1.427841,-0.0032831742888682963,-0.024424863943144692,0.09695331012558621,36.09446859390736,-96.25519929585457,72.1922225099802
2024-09-23 07:06:22.267570,41.05,1.427935,-0.0032831742888682963,-0.024424863943144692,0.09695331012558621,36.09446859390736,-96.25519929585457,76.200527287817
2024-09-23 07:06:22.278695,41.05,1.427935,-0.0030841997366068195,-0.024275627522658133,0.09680407370509965,36.09446859390736,-96.25519929585457,76.200527287817
2024-09-23 07:06:22.322146,41.05,1.427986,-0.0028354659767690416,-0.024524361472367997,0.09680407370509965,40.106058693909645,-100.26678939585686,88.23529758782387
2024-09-23 07:06:22.415685,40.72,1.427986,-0.0028354659767690416,-0.024524361472367997,0.0973015264147526,36.09446859390736,-92.24360919585227,80.21211738781929
2024-09-23 07:06:22.427629,40.72,1.428037,-0.003482159473966507,-0.024524361472367997,0.0973015264147526,36.09446859390736,-92.24360919585227,80.21211738781929
2024-09-23 07:06:22.460823,40.72,1.428037,-0.003482159473966507,-0.024176140626271565,0.09635636444363997,36.09446859390736,-92.24360919585227,80.21211738781929
2024-09-23 07:06:22.471946,40.72,1.428129,-0.003482159473966507,-0.024176140626271565,0.09635636444363997,44.11764879391193,-100.26678939585686,72.1922225099802
2024-09-23 07:06:22.514126,40.72,1.428129,-0.003233425524256645,-0.024225890150371555,0.09695331012558621,44.11764879391193,-92.24360919585227,72.1922225099802
2024-09-23 07:06:22.526027,40.72,1.428129,-0.003233425524256645,-0.024225890150371555,0.09695331012558621,44.11764879391193,-92.24360919585227,80.21211738781929
2024-09-23 07:06:22.558592,40.72,1.42818,-0.0030841997366068195,-0.024225890150371555,0.09695331012558621,44.11764879391193,-92.24360919585227,80.21211738781929
2024-09-23 07:06:22.612646,40.72,1.428231,-0.0030841997366068195,-0.02352945757203875,0.09690356060148622,44.11764879391193,-96.25519929585457,76.200527287817
2024-09-23 07:06:22.655769,40.72,1.428231,-0.0031339382481259063,-0.02352945757203875,0.09690356060148622,44.11764879391193,-96.25519929585457,76.200527287817
2024-09-23 07:06:22.667683,40.72,1.428231,-0.0031339382481259063,-0.023877669304275123,0.09665483728461309,32.08287849390507,-100.26678939585686,76.200527287817
2024-09-23 07:06:22.710251,40.72,1.428325,-0.0029847020175114316,-0.024524361472367997,0.09690356060148622,36.09446859390736,-100.26678939585686,76.200527287817
2024-09-23 07:06:22.722042,40.72,1.428325,-0.0029847020175114316,-0.024524361472367997,0.09690356060148622,36.09446859390736,-100.26678939585686,76.200527287817
2024-09-23 07:06:22.755323,40.72,1.428376,-0.0030344509719951677,-0.024524361472367997,0.09690356060148622,36.09446859390736,-100.26678939585686,76.200527287817
2024-09-23 07:06:22.766499,40.72,1.428376,-0.0030344509719951677,-0.024176140626271565,0.09720203344245934,36.09446859390736,-100.26678939585686,76.200527287817
2024-09-23 07:06:22.809277,40.72,1.428427,-0.0029847020175114316,-0.024375126570858115,0.09670458680871308,36.09446859390736,-96.25519929585457,72.1922225099802
2024-09-23 07:06:22.851858,40.72,1.428427,-0.0029847020175114316,-0.024375126570858115,0.09670458680871308,32.08287849390507,-92.24360919585227,80.21211738781929
2024-09-23 07:06:22.862869,40.72,1.428521,-0.0029349636958644295,-0.02482282368050438,0.09670458680871308,32.08287849390507,-92.24360919585227,80.21211738781929
2024-09-23 07:06:22.905447,40.72,1.428571,-0.0037308827908396356,-0.02482282368050438,0.09710254654607277,36.09446859390736,-96.25519929585457,80.21211738781929
2024-09-23 07:06:22.950041,40.72,1.428571,-0.0037308827908396356,-0.024375126570858115,0.09695331012558621,40.106058693909645,-96.25519929585457,80.21211738781929
2024-09-23 07:06:22.961547,40.72,1.428665,-0.0037308827908396356,-0.024375126570858115,0.09695331012558621,40.106058693909645,-92.24360919585227,76.200527287817
2024-09-23 07:06:23.004189,40.72,1.428665,-0.0034324103296106863,-0.024375126570858115,0.09750050628343246,36.09446859390736,-92.24360919585227,76.200527287817
2024-09-23 07:06:23.046505,40.72,1.428716,-0.0029349636958644295,-0.024375126570858115,0.09750050628343246,36.09446859390736,-92.24360919585227,76.200527287817
2024-09-23 07:06:23.061873,40.72,1.428716,-0.0029349636958644295,-0.024375126570858115,0.0973015264147526,44.11764879391193,-96.25519929585457,76.200527287817
2024-09-23 07:06:23.093874,40.72,1.428716,-0.0029349636958644295,-0.024375126570858115,0.0973015264147526,44.11764879391193,-96.25519929585457,72.1922225099802
2024-09-23 07:06:23.105006,40.72,1.428767,-0.002636491424507565,-0.024424863943144692,0.09710254654607277,36.09446859390736,-96.25519929585457,72.1922225099802
2024-09-23 07:06:23.147343,40.72,1.428818,-0.0031836870127375577,-0.024275627522658133,0.09710254654607277,36.09446859390736,-92.24360919585227,76.200527287817
2024-09-23 07:06:23.159305,40.72,1.428818,-0.0031836870127375577,-0.024275627522658133,0.09710254654607277,36.09446859390736,-92.24360919585227,76.200527287817
2024-09-23 07:06:23.192418,40.72,1.428818,-0.0031836870127375577,-0.024275627522658133,0.09710254654607277,44.11764879391193,-96.25519929585457,76.200527287817
2024-09-23 07:06:23.203637,40.72,1.428868,-0.0033329230534799477,-0.024375126570858115,0.09710254654607277,44.11764879391193,-96.25519929585457,80.21211738781929
2024-09-23 07:06:23.245970,40.72,1.428919,-0.0033329230534799477,-0.024375126570858115,0.0973512698629459,44.11764879391193,-92.24360919585227,72.1922225099802
2024-09-23 07:06:23.257939,40.72,1.428919,-0.0030344509719951677,-0.024375126570858115,0.0973512698629459,44.11764879391193,-92.24360919585227,72.1922225099802
2024-09-23 07:06:23.291716,40.72,1.428919,-0.0030344509719951677,-0.024375126570858115,0.09680407370509965,32.08287849390507,-92.24360919585227,72.1922225099802
2024-09-23 07:06:23.302996,40.72,1.429006,-0.0030344509719951677,-0.024375126570858115,0.09680407370509965,32.08287849390507,-92.24360919585227,80.21211738781929
2024-09-23 07:06:23.346004,40.72,1.429006,-0.0031339382481259063,-0.024922321209727684,0.09690356060148622,36.09446859390736,-92.24360919585227,80.21211738781929
2024-09-23 07:06:23.388033,40.72,1.429058,-0.0031339382481259063,-0.02472333678411781,0.09690356060148622,36.09446859390736,-92.24360919585227,80.21211738781929
2024-09-23 07:06:23.399126,40.72,1.429058,-0.0031339382481259063,-0.02472333678411781,0.09655535038822652,40.106058693909645,-100.26678939585686,80.21211738781929
2024-09-23 07:06:23.441037,40.81,1.429108,-0.0028354659767690416,-0.02397715620066169,0.09605789160266685,40.106058693909645,-100.26678939585686,80.21211738781929
2024-09-23 07:06:23.452915,40.81,1.429108,-0.0028354659767690416,-0.02397715620066169,0.09605789160266685,44.11764879391193,-100.26678939585686,80.21211738781929
2024-09-23 07:06:23.484580,40.81,1.429108,-0.0028354659767690416,-0.02397715620066169,0.09605789160266685,44.11764879391193,-96.25519929585457,80.21211738781929
2024-09-23 07:06:23.495999,40.81,1.429159,-0.0028852147413806935,-0.024474613467244683,0.09685382322919964,44.11764879391193,-96.25519929585457,80.21211738781929
2024-09-23 07:06:23.538677,40.81,1.42921,-0.002636491424507565,-0.024474613467244683,0.09685382322919964,40.106058693909645,-96.25519929585457,80.21211738781929
2024-09-23 07:06:23.550529,40.81,1.42921,-0.002636491424507565,-0.024325377046758124,0.09685382322919964,40.106058693909645,-96.25519929585457,80.21211738781929
2024-09-23 07:06:23.581943,40.81,1.42921,-0.002636491424507565,-0.024325377046758124,0.09635636444363997,40.106058693909645,-96.25519929585457,80.21211738781929
2024-09-23 07:06:23.593212,40.81,1.42926,-0.0031836870127375577,-0.024325377046758124,0.09635636444363997,40.106058693909645,-100.26678939585686,80.21211738781929
2024-09-23 07:06:23.634929,40.81,1.42926,-0.0031836870127375577,-0.02397715620066169,0.09620712802315341,36.09446859390736,-96.25519929585457,80.21211738781929
2024-09-23 07:06:23.677396,40.81,1.429347,-0.0031836870127375577,-0.02397715620066169,0.09620712802315341,36.09446859390736,-96.25519929585457,80.21211738781929
2024-09-23 07:06:23.688666,40.81,1.429347,-0.0030841997366068195,-0.024026904205785005,0.09720203344245934,40.106058693909645,-96.25519929585457,80.21211738781929
2024-09-23 07:06:23.731281,40.81,1.429347,-0.0030841997366068195,-0.024026904205785005,0.09720203344245934,40.106058693909645,-96.25519929585457,76.200527287817
2024-09-23 07:06:23.784869,40.81,1.429399,-0.0030841997366068195,-0.024026904205785005,0.09720203344245934,40.106058693909645,-96.25519929585457,76.200527287817
2024-09-23 07:06:23.827683,40.81,1.429399,-0.0033329230534799477,-0.024225890150371555,0.09665483728461309,40.106058693909645,-96.25519929585457,76.200527287817
2024-09-23 07:06:23.838915,40.81,1.429399,-0.0033329230534799477,-0.024225890150371555,0.09665483728461309,36.09446859390736,-92.24360919585227,80.21211738781929
2024-09-23 07:06:23.924160,40.81,1.42945,-0.003233425524256645,-0.024225890150371555,0.09665483728461309,36.09446859390736,-92.24360919585227,80.21211738781929
2024-09-23 07:06:23.936235,40.81,1.42945,-0.003233425524256645,-0.024225890150371555,0.09720203344245934,40.106058693909645,-92.24360919585227,80.21211738781929
2024-09-23 07:06:23.979557,40.81,1.4295,-0.0030841997366068195,-0.024176140626271565,0.09650560086412653,36.09446859390736,-92.24360919585227,80.21211738781929
2024-09-23 07:06:24.022367,40.81,1.429551,-0.0030841997366068195,-0.024176140626271565,0.09650560086412653,36.09446859390736,-92.24360919585227,80.21211738781929
2024-09-23 07:06:24.033920,40.81,1.429551,-0.0029847020175114316,-0.024773084789241125,0.09750050628343246,36.09446859390736,-92.24360919585227,80.21211738781929
2024-09-23 07:06:24.077863,40.81,1.42964,-0.0030344509719951677,-0.024474613467244683,0.09750050628343246,40.106058693909645,-92.24360919585227,72.1922225099802
2024-09-23 07:06:24.120720,40.81,1.42964,-0.0030344509719951677,-0.024474613467244683,0.09685382322919964,36.09446859390736,-96.25519929585457,72.1922225099802
2024-09-23 07:06:24.132377,40.81,1.42974,-0.0030841997366068195,-0.024474613467244683,0.09685382322919964,36.09446859390736,-96.25519929585457,80.21211738781929
2024-09-23 07:06:24.175400,40.81,1.429884,-0.0030841997366068195,-0.024225890150371555,0.09670458680871308,44.11764879391193,-92.24360919585227,76.200527287817
2024-09-23 07:06:24.219119,40.81,1.429884,-0.003233425524256645,-0.024424863943144692,0.09670458680871308,36.09446859390736,-92.24360919585227,76.200527287817
2024-09-23 07:06:24.231096,40.81,1.429884,-0.003233425524256645,-0.024424863943144692,0.09670458680871308,36.09446859390736,-92.24360919585227,80.21211738781929
2024-09-23 07:06:24.263814,40.81,1.429936,-0.003233425524256645,-0.024424863943144692,0.09670458680871308,36.09446859390736,-92.24360919585227,80.21211738781929
2024-09-23 07:06:24.275720,40.81,1.429936,-0.0031836870127375577,-0.024424863943144692,0.09725178296655933,36.09446859390736,-96.25519929585457,80.21211738781929
2024-09-23 07:06:24.319150,40.81,1.429986,-0.0024872551938930902,-0.024275627522658133,0.09670458680871308,36.09446859390736,-96.25519929585457,76.200527287817
2024-09-23 07:06:24.330884,40.81,1.429986,-0.0024872551938930902,-0.024275627522658133,0.09670458680871308,32.08287849390507,-96.25519929585457,76.200527287817
2024-09-23 07:06:24.363521,40.81,1.430037,-0.0024872551938930902,-0.024275627522658133,0.09670458680871308,32.08287849390507,-96.25519929585457,72.1922225099802
2024-09-23 07:06:24.374620,40.81,1.430037,-0.003233425524256645,-0.024673597892854556,0.09710254654607277,32.08287849390507,-96.25519929585457,72.1922225099802
2024-09-23 07:06:24.416591,40.81,1.430088,-0.003482159473966507,-0.02412639262114825,0.09710254654607277,40.106058693909645,-96.25519929585457,72.1922225099802
2024-09-23 07:06:24.459799,40.77,1.430088,-0.003482159473966507,-0.02412639262114825,0.09655535038822652,44.11764879391193,-96.25519929585457,72.1922225099802
2024-09-23 07:06:24.512016,40.77,1.430138,-0.0031339382481259063,-0.02412639262114825,0.09655535038822652,44.11764879391193,-100.26678939585686,76.200527287817
2024-09-23 07:06:24.523786,40.77,1.430138,-0.0031339382481259063,-0.02472333678411781,0.09615739065086683,44.11764879391193,-100.26678939585686,76.200527287817
2024-09-23 07:06:24.556370,40.77,1.430138,-0.0031339382481259063,-0.02472333678411781,0.09615739065086683,36.09446859390736,-100.26678939585686,76.200527287817
2024-09-23 07:06:24.567738,40.77,1.430225,-0.003382661564999035,-0.024225890150371555,0.09615739065086683,36.09446859390736,-96.25519929585457,76.200527287817
2024-09-23 07:06:24.609927,40.77,1.430225,-0.003382661564999035,-0.024225890150371555,0.09650560086412653,44.11764879391193,-92.24360919585227,84.22370748782159
2024-09-23 07:06:24.621562,40.77,1.430276,-0.0028354659767690416,-0.024225890150371555,0.09650560086412653,44.11764879391193,-92.24360919585227,84.22370748782159
2024-09-23 07:06:24.654523,40.77,1.430276,-0.0028354659767690416,-0.024225890150371555,0.09705279702197278,44.11764879391193,-92.24360919585227,84.22370748782159
2024-09-23 07:06:24.666522,40.77,1.430327,-0.0028354659767690416,-0.024225890150371555,0.09705279702197278,44.11764879391193,-96.25519929585457,84.22370748782159
2024-09-23 07:06:24.710091,40.77,1.430327,-0.003631395514708897,-0.024275627522658133,0.09759999317981902,48.12595698684454,-96.25519929585457,76.200527287817
2024-09-23 07:06:24.752210,40.77,1.43042,-0.003780631555451287,-0.024275627522658133,0.09759999317981902,48.12595698684454,-96.25519929585457,76.200527287817
2024-09-23 07:06:24.763975,40.77,1.43042,-0.003780631555451287,-0.024474613467244683,0.09650560086412653,36.09446859390736,-92.24360919585227,76.200527287817
2024-09-23 07:06:24.807991,40.77,1.430472,-0.0032831742888682963,-0.023927417309398437,0.09655535038822652,40.106058693909645,-92.24360919585227,80.21211738781929
2024-09-23 07:06:24.851039,40.77,1.430522,-0.0032831742888682963,-0.023927417309398437,0.09655535038822652,40.106058693909645,-100.26678939585686,72.1922225099802
2024-09-23 07:06:24.862691,40.77,1.430522,-0.003233425524256645,-0.024375126570858115,0.09635636444363997,40.106058693909645,-100.26678939585686,72.1922225099802
2024-09-23 07:06:24.905462,40.77,1.430573,-0.003233425524256645,-0.024375126570858115,0.09635636444363997,36.09446859390736,-100.26678939585686,76.200527287817
2024-09-23 07:06:24.918395,40.77,1.430573,-0.0032831742888682963,-0.024076653729884996,0.09635636444363997,36.09446859390736,-100.26678939585686,76.200527287817
2024-09-23 07:06:24.950570,40.77,1.430573,-0.0032831742888682963,-0.024076653729884996,0.09685382322919964,36.09446859390736,-96.25519929585457,76.200527287817
2024-09-23 07:06:24.962154,40.77,1.430624,-0.003482159473966507,-0.024076653729884996,0.09685382322919964,36.09446859390736,-96.25519929585457,76.200527287817
2024-09-23 07:06:24.994860,40.77,1.430624,-0.003482159473966507,-0.024375126570858115,0.09685382322919964,36.09446859390736,-96.25519929585457,76.200527287817
2024-09-23 07:06:25.005875,40.77,1.430712,-0.003482159473966507,-0.024375126570858115,0.0970030596496862,36.09446859390736,-96.25519929585457,76.200527287817
2024-09-23 07:06:25.048083,40.77,1.430712,-0.0032831742888682963,-0.02487257320460437,0.09665483728461309,40.106058693909645,-96.25519929585457,76.200527287817
2024-09-23 07:06:25.060216,40.77,1.430712,-0.0032831742888682963,-0.02487257320460437,0.09665483728461309,40.106058693909645,-100.26678939585686,72.1922225099802
2024-09-23 07:06:25.093141,40.77,1.430764,-0.0031339382481259063,-0.02487257320460437,0.09665483728461309,40.106058693909645,-100.26678939585686,72.1922225099802
2024-09-23 07:06:25.104663,40.77,1.430764,-0.0031339382481259063,-0.024673597892854556,0.09705279702197278,40.106058693909645,-92.24360919585227,72.1922225099802
