Ayaan's Suite
Timestamp,Sample Rate (Hz),Time,Ax,Ay,Az,Gx,Gy,Gz
2024-09-23 01:23:52.237816,0,6.455195,-0.01481783924724956,0.020306014382754138,1.0146322843374704,0.3193667930966243,-1.1549687530383468,-1.4087318225037306
2024-09-23 01:23:52.270410,0,6.455245,-0.010671253932239326,0.020306014382754138,1.0146322843374704,0.3193667930966243,-1.1549687530383468,-1.3037086618389935
2024-09-23 01:23:52.282174,0,6.455245,-0.010671253932239326,0.018598572194393984,1.0117664006628877,0.4768156230898574,-1.1549687530383468,-1.3037086618389935
2024-09-23 01:23:52.324455,0,6.455296,-0.012134760618209839,0.020245056329760223,1.0117664006628877,0.4768156230898574,-1.1812102424908428,-1.4437395427253097
2024-09-23 01:23:52.368011,0,6.455296,-0.012134760618209839,0.020245056329760223,1.0117664006628877,0.24935132597303017,-1.1637349838074296,-1.491868061034009
2024-09-23 01:23:52.379357,0,6.455347,-0.016037512202267738,0.021708563015730736,1.0117664006628877,0.24935132597303017,-1.1637349838074296,-1.491868061034009
2024-09-23 01:23:52.422620,0,6.455397,-0.01146401621393715,0.021708563015730736,1.015546975636458,0.24499683869630098,-1.0630662837389857,-1.3824903330512346
2024-09-23 01:23:52.465075,0,6.455397,-0.01146401621393715,0.019452293288574063,1.0137175930384832,0.3456082558686845,-1.0630662837389857,-1.3824903330512346
2024-09-23 01:23:52.476819,0,6.455484,-0.01146401621393715,0.019452293288574063,1.0137175930384832,0.3456082558686845,-1.207451731943339,-1.4174980532728136
2024-09-23 01:23:52.520248,0,6.455484,-0.01182986782231462,0.022440264713509,1.012498037044669,0.223109849860752,-1.1549687530383468,-1.3649578715130686
2024-09-23 01:23:52.562378,0,6.455536,-0.015915494324842603,0.01853761414140007,1.012498037044669,0.223109849860752,-1.1549687530383468,-1.3649578715130686
2024-09-23 01:23:52.573652,0,6.455536,-0.015915494324842603,0.01853761414140007,1.015973941752427,0.3499627431454137,-1.1024857741333545,-1.3649578715130686
2024-09-23 01:23:52.616107,0,6.455587,-0.013232416455291218,0.02201345505213762,1.0138396944596255,0.3237212803733535,-1.1024857741333545,-1.3562488435987383
2024-09-23 01:23:52.659635,0,6.455637,-0.013232416455291218,0.02201345505213762,1.0138396944596255,0.3237212803733535,-1.0937195433642715,-1.4218526205908506
2024-09-23 01:23:52.670824,0,6.455637,-0.012622630104012445,0.01963527073796979,1.0147542885441054,0.3237212803733535,-1.0937195433642715,-1.4218526205908506
2024-09-23 01:23:52.713355,0,6.455688,-0.013171458402297304,0.020610907938137694,1.0147542885441054,0.3237212803733535,-1.1156065722204744,-1.3387163820605725
2024-09-23 01:23:52.756608,0,6.455688,-0.013171458402297304,0.020610907938137694,1.0119492611510794,0.3193667930966243,-1.1156065722204744,-1.3387163820605725
2024-09-23 01:23:52.768525,0,6.455739,-0.011768909009832369,0.020610907938137694,1.0119492611510794,0.3193667930966243,-1.1111946953259408,-1.3868447936475277
2024-09-23 01:23:52.811701,0,6.455825,-0.011768909009832369,0.017744852619190586,1.0133517748475924,0.3062460483703762,-1.1111946953259408,-1.3212411233771593
2024-09-23 01:23:52.853892,0,6.455825,-0.015488684663471218,0.02097675802753849,1.0133517748475924,0.3062460483703762,-1.1111946953259408,-1.3212411233771593
2024-09-23 01:23:52.864973,0,6.455825,-0.015488684663471218,0.02097675802753849,1.0121931723498423,0.4155664400962181,-0.9668666634198279,-1.4568603408124299
2024-09-23 01:23:52.908648,0,6.455877,-0.01146401621393715,0.021281651582922046,1.0148762927507406,0.3543172304221429,-0.9668666634198279,-1.4568603408124299
2024-09-23 01:23:52.920196,0,6.455877,-0.01146401621393715,0.021281651582922046,1.0148762927507406,0.3543172304221429,-1.1068402347296475,-1.4568603408124299
2024-09-23 01:23:52.952974,0,6.455928,-0.011098165365048018,0.021281651582922046,1.0148762927507406,0.3543172304221429,-1.1068402347296475,-1.3606034109167755
2024-09-23 01:23:52.964748,0,6.455928,-0.011098165365048018,0.020549948366167105,1.012498037044669,0.3149550229238346,-1.1068402347296475,-1.3606034109167755
2024-09-23 01:23:53.008687,0,6.455978,-0.011951885699739756,0.021830479121718566,1.0151811574455674,0.3149550229238346,-1.1549687530383468,-1.518109550486505
2024-09-23 01:23:53.052122,0,6.456029,-0.011951885699739756,0.021830479121718566,1.0151811574455674,0.40244569536997005,-1.203097164625302,-1.469981032177806
2024-09-23 01:23:53.063827,0,6.456029,-0.012805606793919833,0.021037716080532405,1.0151811574455674,0.40244569536997005,-1.203097164625302,-1.469981032177806
2024-09-23 01:23:53.095395,0,6.456029,-0.012805606793919833,0.021037716080532405,1.0146933350480416,0.40244569536997005,-1.203097164625302,-1.469981032177806
2024-09-23 01:23:53.106435,0,6.45608,-0.012866564846913748,0.021037716080532405,1.0146933350480416,0.3062460483703762,-1.1812102424908428,-1.4437395427253097
2024-09-23 01:23:53.149399,0,6.45608,-0.012866564846913748,0.020732824044125523,1.011217527554791,0.28871353347133843,-1.1330817241821438,-1.4437395427253097
2024-09-23 01:23:53.161384,0,6.456167,-0.012866564846913748,0.020732824044125523,1.011217527554791,0.28871353347133843,-1.1330817241821438,-1.3868447936475277
2024-09-23 01:23:53.194025,0,6.456167,-0.014878899071680782,0.020732824044125523,1.011217527554791,0.28871353347133843,-1.1330817241821438,-1.3868447936475277
2024-09-23 01:23:53.205754,0,6.456167,-0.014878899071680782,0.01963527073796979,1.0145103773453428,0.3456082558686845,-1.0849533125951887,-1.259991913703084
2024-09-23 01:23:53.248204,42.08,6.456218,-0.015427726610477303,0.02213537267710212,1.0130469101527657,0.38932495064372197,-1.0849533125951887,-1.259991913703084
2024-09-23 01:23:53.260197,42.08,6.456218,-0.015427726610477303,0.02213537267710212,1.0130469101527657,0.38932495064372197,-1.1812102424908428,-1.259991913703084
2024-09-23 01:23:53.292102,42.08,6.456269,-0.015427726610477303,0.02213537267710212,1.0130469101527657,0.38932495064372197,-1.1812102424908428,-1.426207081187144
2024-09-23 01:23:53.303534,42.08,6.456269,-0.013293374508285133,0.019940162774376668,1.01426646614658,0.3674952580444515,-1.1812102424908428,-1.426207081187144
2024-09-23 01:23:53.345561,42.08,6.45632,-0.015122834574070423,0.022196330730096036,1.01426646614658,0.3674952580444515,-1.0499454856518655,-1.3343619214642792
2024-09-23 01:23:53.357252,42.08,6.45632,-0.015122834574070423,0.022196330730096036,1.0117053499523165,0.3674952580444515,-1.0499454856518655,-1.3343619214642792
2024-09-23 01:23:53.389931,42.08,6.45632,-0.015122834574070423,0.022196330730096036,1.0117053499523165,0.28871353347133843,-1.0630662837389857,-1.3343619214642792
2024-09-23 01:23:53.401144,42.08,6.456371,-0.012622630104012445,0.021586543619328925,1.0117053499523165,0.28871353347133843,-1.0630662837389857,-1.3343619214642792
2024-09-23 01:23:53.444483,42.08,6.456422,-0.012622630104012445,0.021586543619328925,1.0121322188537785,0.3237212803733535,-1.1111946953259408,-1.3999655917346479
2024-09-23 01:23:53.455770,42.08,6.456422,-0.016037512202267738,0.021586543619328925,1.0121322188537785,0.3237212803733535,-1.1111946953259408,-1.3999655917346479
2024-09-23 01:23:53.488158,42.08,6.456422,-0.016037512202267738,0.020549948366167105,1.0122541258459061,0.26247207069927825,-1.1111946953259408,-1.3999655917346479
2024-09-23 01:23:53.499077,42.08,6.456508,-0.016037512202267738,0.020549948366167105,1.0122541258459061,0.26247207069927825,-1.1287272635858505,-1.413086283100024
2024-09-23 01:23:53.542303,42.08,6.456508,-0.013354434332716355,0.018171764051999276,1.0147542885441054,0.3411964856958948,-1.15932321363464,-1.3780785628784449
2024-09-23 01:23:53.584827,42.08,6.45656,-0.009939551474972724,0.018171764051999276,1.0147542885441054,0.3411964856958948,-1.15932321363464,-1.3780785628784449
2024-09-23 01:23:53.596165,42.08,6.45656,-0.009939551474972724,0.01939133523558015,1.0087784155671629,0.29306802074806765,-1.1549687530383468,-1.3780785628784449
2024-09-23 01:23:53.638582,42.08,6.45661,-0.014574005516297226,0.02134260963591596,1.0166446246381442,0.29306802074806765,-1.1549687530383468,-1.3299501512914895
2024-09-23 01:23:53.650752,42.08,6.45661,-0.014574005516297226,0.02134260963591596,1.0166446246381442,0.4330989549952559,-1.1549687530383468,-1.3299501512914895
2024-09-23 01:23:53.683848,42.08,6.45661,-0.014574005516297226,0.02134260963591596,1.0166446246381442,0.4330989549952559,-1.1462025222692638,-1.3824903330512346
2024-09-23 01:23:53.695515,42.08,6.456661,-0.013110498830326714,0.02122069352992813,1.0123761300525411,0.4330989549952559,-1.1462025222692638,-1.3824903330512346
2024-09-23 01:23:53.738360,42.08,6.456712,-0.008476044789002211,0.023842813346485598,1.0123761300525411,0.3674952580444515,-1.1156065722204744,-1.3737241022821516
2024-09-23 01:23:53.780210,42.08,6.456712,-0.008476044789002211,0.023842813346485598,1.0166446246381442,0.4287444677185267,-1.1156065722204744,-1.3737241022821516
2024-09-23 01:23:53.791548,42.08,6.456762,-0.014512945691866003,0.023842813346485598,1.0166446246381442,0.4287444677185267,-1.1156065722204744,-1.3693696416858583
2024-09-23 01:23:53.833950,42.08,6.456762,-0.014512945691866003,0.022318348607521174,1.0163397599433175,0.3674952580444515,-1.1156065722204744,-1.483101830264926
2024-09-23 01:23:53.845847,42.08,6.45685,-0.014512945691866003,0.022318348607521174,1.0163397599433175,0.3674952580444515,-1.1156065722204744,-1.483101830264926
2024-09-23 01:23:53.877577,42.08,6.45685,-0.01146401621393715,0.023476961738108128,1.0163397599433175,0.3674952580444515,-1.1156065722204744,-1.483101830264926
2024-09-23 01:23:53.888870,42.08,6.45685,-0.01146401621393715,0.023476961738108128,1.0133517748475924,0.38061600277069957,-1.1462025222692638,-1.5136977803137153
2024-09-23 01:23:53.931336,42.08,6.456901,-0.014695923141261731,0.01823272210499319,1.0107906586533293,0.38061600277069957,-1.1462025222692638,-1.5136977803137153
2024-09-23 01:23:53.942941,42.08,6.456901,-0.014695923141261731,0.01823272210499319,1.0107906586533293,0.3411964856958948,-1.1287272635858505,-1.5136977803137153
2024-09-23 01:23:53.974849,42.08,6.456952,-0.014695923141261731,0.01823272210499319,1.0107906586533293,0.3411964856958948,-1.1287272635858505,-1.3430708426568656
2024-09-23 01:23:53.987339,42.08,6.456952,-0.013537308491698099,0.021464627513341095,1.014022554947817,0.3062460483703762,-1.1287272635858505,-1.3430708426568656
2024-09-23 01:23:54.029237,42.08,6.457002,-0.014634963569291141,0.01768389456619667,1.0139616014517532,0.3062460483703762,-1.1506142924420535,-1.3693696416858583
2024-09-23 01:23:54.072190,42.08,6.457002,-0.014634963569291141,0.01768389456619667,1.0139616014517532,0.3674952580444515,-1.0718325145080685,-1.3693696416858583
2024-09-23 01:23:54.084057,42.08,6.457053,-0.01164699290384454,0.02012303845233509,1.0139616014517532,0.3674952580444515,-1.0718325145080685,-1.5268184716790913
2024-09-23 01:23:54.127142,42.08,6.457104,-0.01341539238571027,0.02012303845233509,1.0148152420401695,0.40244569536997005,-0.9974626134686172,-1.4087318225037306
2024-09-23 01:23:54.169823,42.08,6.457104,-0.01341539238571027,0.01823272210499319,1.0150592504534395,0.40244569536997005,-0.9974626134686172,-1.4087318225037306
2024-09-23 01:23:54.181143,42.08,6.457191,-0.01341539238571027,0.01823272210499319,1.0150592504534395,0.29306802074806765,-1.0980740039605648,-1.3606034109167755
2024-09-23 01:23:54.223550,42.08,6.457191,-0.015488684663471218,0.019879204721382753,1.0120102146471432,0.3237212803733535,-1.1287272635858505,-1.3606034109167755
2024-09-23 01:23:54.235149,42.08,6.457191,-0.015488684663471218,0.019879204721382753,1.0120102146471432,0.3237212803733535,-1.1287272635858505,-1.404320052330941
2024-09-23 01:23:54.267453,43.61,6.457242,-0.010732313756670548,0.019879204721382753,1.0120102146471432,0.3237212803733535,-1.1287272635858505,-1.404320052330941
2024-09-23 01:23:54.278835,43.61,6.457242,-0.010732313756670548,0.018964423802771455,1.014205512650516,0.3368419984191656,-1.1724439050000162,-1.404320052330941
2024-09-23 01:23:54.322994,43.61,6.457293,-0.014634963569291141,0.02134260963591596,1.0126809947473678,0.223109849860752,-1.1724439050000162,-1.404320052330941
2024-09-23 01:23:54.365432,43.61,6.457293,-0.014634963569291141,0.02134260963591596,1.0126809947473678,0.223109849860752,-1.1987427040290088,-1.496222521630302
2024-09-23 01:23:54.376594,43.61,6.457344,-0.014208053655459124,0.02048899031317319,1.0117664006628877,0.223109849860752,-1.1987427040290088,-1.496222521630302
2024-09-23 01:23:54.419375,43.61,6.457394,-0.017257084904825287,0.01939133523558015,1.0117664006628877,0.3368419984191656,-1.0893650827679784,-1.4874562908612192
2024-09-23 01:23:54.462276,43.61,6.457394,-0.017257084904825287,0.01939133523558015,1.0173154047383688,0.35872900059493257,-1.0893650827679784,-1.4874562908612192
2024-09-23 01:23:54.473752,43.61,6.457445,-0.012500713238536278,0.01939133523558015,1.0173154047383688,0.35872900059493257,-1.0237041029211134,-1.3474826128296553
2024-09-23 01:23:54.516877,43.61,6.457445,-0.012500713238536278,0.023720795469060463,1.0139616014517532,0.37620423259790986,-1.1418479549512268,-1.3824903330512346
2024-09-23 01:23:54.529090,43.61,6.457532,-0.012500713238536278,0.023720795469060463,1.0139616014517532,0.37620423259790986,-1.1418479549512268,-1.3824903330512346
2024-09-23 01:23:54.565022,43.61,6.457532,-0.01396421992450679,0.02176952106872465,1.0143883731387076,0.3193667930966243,-1.0674780539117754,-1.3824903330512346
2024-09-23 01:23:54.576978,43.61,6.457532,-0.01396421992450679,0.02176952106872465,1.0143883731387076,0.3193667930966243,-1.0674780539117754,-1.4087318225037306
2024-09-23 01:23:54.609409,43.61,6.457583,-0.011403058160943235,0.021281651582922046,1.0143883731387076,0.3193667930966243,-1.0674780539117754,-1.4087318225037306
2024-09-23 01:23:54.621061,43.61,6.457583,-0.011403058160943235,0.021281651582922046,1.0160958487445546,0.3543172304221429,-1.0674780539117754,-1.4087318225037306
2024-09-23 01:23:54.663440,43.61,6.457634,-0.010305402323861856,0.020306014382754138,1.0125589905407328,0.3543172304221429,-1.203097164625302,-1.3868447936475277
2024-09-23 01:23:54.705991,43.61,6.457634,-0.010305402323861856,0.020306014382754138,1.0125589905407328,0.3368419984191656,-1.203097164625302,-1.3868447936475277
2024-09-23 01:23:54.759058,43.61,6.457685,-0.015183792627064338,0.020306014382754138,1.0125589905407328,0.3368419984191656,-1.1549687530383468,-1.3999655917346479
2024-09-23 01:23:54.770077,43.61,6.457685,-0.015183792627064338,0.020610907938137694,1.0115833457456815,0.3368419984191656,-1.1549687530383468,-1.3999655917346479
2024-09-23 01:23:54.802790,43.61,6.457685,-0.015183792627064338,0.020610907938137694,1.0115833457456815,0.27559278874509036,-1.1549687530383468,-1.3999655917346479
2024-09-23 01:23:54.814397,43.61,6.457736,-0.012866564846913748,0.019574312684975875,1.0115833457456815,0.27559278874509036,-1.0674780539117754,-1.434973311956227
2024-09-23 01:23:54.856153,43.61,6.457736,-0.012866564846913748,0.019574312684975875,1.0146933350480416,0.41997821026900783,-1.0630662837389857,-1.3956111311383546
2024-09-23 01:23:54.867130,43.61,6.457786,-0.013049540777332799,0.019574312684975875,1.0146933350480416,0.41997821026900783,-1.0630662837389857,-1.3956111311383546
2024-09-23 01:23:54.899425,43.61,6.457786,-0.013049540777332799,0.019879204721382753,1.0146933350480416,0.41997821026900783,-1.0630662837389857,-1.3956111311383546
2024-09-23 01:23:54.911202,43.61,6.457874,-0.013049540777332799,0.019879204721382753,1.012925003160638,0.2668265312955715,-1.1462025222692638,-1.4174980532728136
2024-09-23 01:23:54.954159,43.61,6.457874,-0.012134760618209839,0.018964423802771455,1.0132298678554648,0.3456082558686845,-1.1374934943549335,-1.4174980532728136
2024-09-23 01:23:54.965927,43.61,6.457874,-0.012134760618209839,0.018964423802771455,1.0132298678554648,0.3456082558686845,-1.1374934943549335,-1.3911993609655648
2024-09-23 01:23:54.997416,43.61,6.457971,-0.012134760618209839,0.018964423802771455,1.0132298678554648,0.3456082558686845,-1.1374934943549335,-1.3911993609655648
2024-09-23 01:23:55.009146,43.61,6.457971,-0.013232416455291218,0.018781549643789714,1.0128639524500669,0.3456082558686845,-1.0893650827679784,-1.3911993609655648
2024-09-23 01:23:55.052169,43.61,6.458023,-0.013232416455291218,0.018781549643789714,1.0128639524500669,0.3456082558686845,-1.0893650827679784,-1.3737241022821516
2024-09-23 01:23:55.095312,43.61,6.458023,-0.012073802565215924,0.018781549643789714,1.0128639524500669,0.3456082558686845,-1.0893650827679784,-1.3737241022821516
2024-09-23 01:23:55.106835,43.61,6.458023,-0.012073802565215924,0.020366972435748053,1.012620041251304,0.2581175834225491,-1.1287272635858505,-1.3430708426568656
2024-09-23 01:23:55.150258,43.61,6.458073,-0.011220081471035847,0.021708563015730736,1.0114003880429827,0.2843590461946093,-1.1287272635858505,-1.3430708426568656
2024-09-23 01:23:55.162396,43.61,6.458073,-0.011220081471035847,0.021708563015730736,1.0114003880429827,0.2843590461946093,-1.1418479549512268,-1.3430708426568656
2024-09-23 01:23:55.194479,43.61,6.458124,-0.011220081471035847,0.021708563015730736,1.0114003880429827,0.2843590461946093,-1.1418479549512268,-1.404320052330941
2024-09-23 01:23:55.206014,43.61,6.458124,-0.012317737308117227,0.01914740125216718,1.01426646614658,0.3237212803733535,-1.1418479549512268,-1.404320052330941
2024-09-23 01:23:55.248469,43.61,6.458175,-0.016403363810645208,0.021952496999143704,1.0178032271358946,0.3237212803733535,-1.1943309338562191,-1.3693696416858583
2024-09-23 01:23:55.290686,43.4,6.458175,-0.016403363810645208,0.021952496999143704,1.0178032271358946,0.3411964856958948,-1.1462025222692638,-1.3693696416858583
2024-09-23 01:23:55.302306,43.4,6.458263,-0.0086590214789096,0.01890346574977754,1.0178032271358946,0.3411964856958948,-1.1462025222692638,-1.3868447936475277
2024-09-23 01:23:55.344703,43.4,6.458263,-0.0086590214789096,0.01890346574977754,1.012498037044669,0.3411964856958948,-1.1462025222692638,-1.3868447936475277
2024-09-23 01:23:55.386896,43.4,6.458263,-0.0086590214789096,0.01890346574977754,1.012498037044669,0.3193667930966243,-1.1462025222692638,-1.3868447936475277
2024-09-23 01:23:55.398686,43.4,6.458315,-0.01341539238571027,0.01890346574977754,1.012498037044669,0.3193667930966243,-1.0193495356030762,-1.4174980532728136
2024-09-23 01:23:55.442040,43.4,6.458315,-0.01341539238571027,0.019940162774376668,1.0130469101527657,0.3674952580444515,-1.1549687530383468,-1.4174980532728136
2024-09-23 01:23:55.454033,43.4,6.458409,-0.01341539238571027,0.019940162774376668,1.0130469101527657,0.3674952580444515,-1.1549687530383468,-1.3999655917346479
2024-09-23 01:23:55.486171,43.4,6.458409,-0.012866564846913748,0.018842507696783625,1.0130469101527657,0.3674952580444515,-1.1549687530383468,-1.3999655917346479
2024-09-23 01:23:55.497173,43.4,6.458409,-0.012866564846913748,0.018842507696783625,1.0145713308414066,0.31060053564710544,-1.1068402347296475,-1.4568603408124299
2024-09-23 01:23:55.539336,43.4,6.458461,-0.015244750680058252,0.02274515826889256,1.018413053740055,0.3368419984191656,-1.1068402347296475,-1.4568603408124299
2024-09-23 01:23:55.551940,43.4,6.458461,-0.015244750680058252,0.02274515826889256,1.018413053740055,0.3368419984191656,-1.1330817241821438,-1.4568603408124299
2024-09-23 01:23:55.583797,43.4,6.458512,-0.015244750680058252,0.02274515826889256,1.018413053740055,0.3368419984191656,-1.1330817241821438,-1.3299501512914895
2024-09-23 01:23:55.595825,43.4,6.458512,-0.013720285941093825,0.019330377182586234,1.0145103773453428,0.3149550229238346,-1.1330817241821438,-1.3299501512914895
2024-09-23 01:23:55.637988,43.4,6.458605,-0.012134760618209839,0.018842507696783625,1.0145103773453428,0.3149550229238346,-1.1199610328167677,-1.3780785628784449
2024-09-23 01:23:55.649845,43.4,6.458605,-0.012134760618209839,0.018842507696783625,1.014022554947817,0.3149550229238346,-1.1199610328167677,-1.3780785628784449
2024-09-23 01:23:55.683021,43.4,6.458605,-0.012134760618209839,0.018842507696783625,1.014022554947817,0.3062460483703762,-1.1506142924420535,-1.474335492774099
2024-09-23 01:23:55.694703,43.4,6.458656,-0.011890927646745842,0.02311100987727003,1.014022554947817,0.3062460483703762,-1.1506142924420535,-1.474335492774099
2024-09-23 01:23:55.737222,43.4,6.458707,-0.015122834574070423,0.02311100987727003,1.0164007134393813,0.35872900059493257,-1.1506142924420535,-1.448094003321603
2024-09-23 01:23:55.780637,43.4,6.458707,-0.015122834574070423,0.01939133523558015,1.013778546534547,0.3149550229238346,-1.1506142924420535,-1.448094003321603
2024-09-23 01:23:55.792290,43.4,6.458799,-0.015122834574070423,0.01939133523558015,1.013778546534547,0.3149550229238346,-1.1243154934130608,-1.3649578715130686
2024-09-23 01:23:55.835678,43.4,6.458799,-0.014269113479890346,0.02274515826889256,1.0101808320491685,0.3149550229238346,-0.9843418153814971,-1.474335492774099
2024-09-23 01:23:55.877798,43.4,6.458851,-0.012622630104012445,0.02237930666051509,1.0101808320491685,0.3149550229238346,-0.9843418153814971,-1.474335492774099
2024-09-23 01:23:55.889295,43.4,6.458851,-0.012622630104012445,0.02237930666051509,1.0139006479556893,0.3193667930966243,-1.1680894444037229,-1.474335492774099
2024-09-23 01:23:55.932535,43.4,6.458902,-0.012073802565215924,0.022928134199311608,1.0129859566567019,0.3062460483703762,-1.1680894444037229,-1.3606034109167755
2024-09-23 01:23:55.976671,43.4,6.458952,-0.012073802565215924,0.022928134199311608,1.0129859566567019,0.3062460483703762,-1.1768557818945498,-1.3387163820605725
2024-09-23 01:23:55.987679,43.4,6.458952,-0.011403058160943235,0.020427930488741967,1.0116442992417454,0.3062460483703762,-1.1768557818945498,-1.3387163820605725
2024-09-23 01:23:56.030469,43.4,6.459003,-0.012317737308117227,0.02067186599113161,1.0116442992417454,0.29306802074806765,-1.1374934943549335,-1.3999655917346479
2024-09-23 01:23:56.073665,43.4,6.459003,-0.012317737308117227,0.02067186599113161,1.0123761300525411,0.35872900059493257,-1.1111946953259408,-1.4218526205908506
2024-09-23 01:23:56.085317,43.4,6.459054,-0.01695219134944173,0.02067186599113161,1.0123761300525411,0.35872900059493257,-1.1111946953259408,-1.4218526205908506
2024-09-23 01:23:56.117217,43.4,6.459054,-0.01695219134944173,0.018476656088406155,1.0123761300525411,0.35872900059493257,-1.1111946953259408,-1.4218526205908506
2024-09-23 01:23:56.128422,43.4,6.459141,-0.01695219134944173,0.018476656088406155,1.0140835084438808,0.3237212803733535,-1.1462025222692638,-1.3649578715130686
2024-09-23 01:23:56.170705,43.4,6.459141,-0.00957370062608359,0.019940162774376668,1.0132908213515286,0.3237212803733535,-1.1462025222692638,-1.3649578715130686
2024-09-23 01:23:56.181936,43.4,6.459141,-0.00957370062608359,0.019940162774376668,1.0132908213515286,0.37620423259790986,-1.294999633924663,-1.3649578715130686
2024-09-23 01:23:56.225742,43.4,6.459192,-0.01164699290384454,0.020001120827370582,1.0164616669354454,0.3280757409696467,-1.2468139127612115,-1.3649578715130686
2024-09-23 01:23:56.268404,43.4,6.459243,-0.013598266544692013,0.020793883868556746,1.0164616669354454,0.3280757409696467,-1.2468139127612115,-1.3693696416858583
2024-09-23 01:23:56.280113,43.4,6.459243,-0.013598266544692013,0.020793883868556746,1.0126809947473678,0.3543172304221429,-1.2468139127612115,-1.3693696416858583
2024-09-23 01:23:56.312641,43.56,6.459243,-0.013598266544692013,0.020793883868556746,1.0126809947473678,0.3543172304221429,-1.0937195433642715,-1.3693696416858583
2024-09-23 01:23:56.324254,43.56,6.459294,-0.014878899071680782,0.022928134199311608,1.0137175930384832,0.3543172304221429,-1.0937195433642715,-1.434973311956227
2024-09-23 01:23:56.417936,43.56,6.459344,-0.014878899071680782,0.022928134199311608,1.0137175930384832,0.3411964856958948,-1.1637349838074296,-1.3606034109167755
2024-09-23 01:23:56.460745,43.56,6.459344,-0.012439653414105056,0.022928134199311608,1.0137175930384832,0.3411964856958948,-1.1637349838074296,-1.3606034109167755
2024-09-23 01:23:56.472451,43.56,6.459344,-0.012439653414105056,0.01975718684395762,1.0088393690632267,0.26247207069927825,-1.1724439050000162,-1.404320052330941
2024-09-23 01:23:56.515454,43.56,6.459395,-0.015549642716465131,0.01975718684395762,1.0126809947473678,0.26247207069927825,-1.1724439050000162,-1.404320052330941
2024-09-23 01:23:56.526523,43.56,6.459395,-0.015549642716465131,0.01975718684395762,1.0126809947473678,0.3456082558686845,-1.0455910250555724,-1.404320052330941
2024-09-23 01:23:56.560299,43.56,6.459482,-0.012500713238536278,0.01975718684395762,1.0126809947473678,0.3456082558686845,-1.0455910250555724,-1.4437395427253097
2024-09-23 01:23:56.571201,43.56,6.459482,-0.012500713238536278,0.02097675802753849,1.0108517093639005,0.28871353347133843,-1.0455910250555724,-1.4437395427253097
2024-09-23 01:23:56.613398,43.56,6.459533,-0.014391029585878175,0.021952496999143704,1.0108517093639005,0.28871353347133843,-1.1812102424908428,-1.3693696416858583
2024-09-23 01:23:56.625128,43.56,6.459533,-0.014391029585878175,0.021952496999143704,1.0148152420401695,0.28871353347133843,-1.1812102424908428,-1.3693696416858583
2024-09-23 01:23:56.657629,43.56,6.459533,-0.014391029585878175,0.021952496999143704,1.0148152420401695,0.3674952580444515,-1.1768557818945498,-1.3693696416858583
2024-09-23 01:23:56.669112,43.56,6.459629,-0.0173180429578192,0.02012303845233509,1.0148152420401695,0.3674952580444515,-1.1768557818945498,-1.4524485706396402
2024-09-23 01:23:56.712316,43.56,6.45968,-0.008293068099094822,0.02012303845233509,1.0117664006628877,0.3368419984191656,-1.1330817241821438,-1.448094003321603
2024-09-23 01:23:56.755000,43.56,6.45968,-0.008293068099094822,0.022684200215898644,1.0144494238492787,0.31060053564710544,-1.1330817241821438,-1.448094003321603
2024-09-23 01:23:56.766051,43.56,6.459774,-0.008293068099094822,0.022684200215898644,1.0144494238492787,0.31060053564710544,-1.1418479549512268,-1.426207081187144
2024-09-23 01:23:56.809220,43.56,6.459774,-0.010488379013769245,0.02018409827676631,1.011217527554791,0.27994727602181957,-1.1024857741333545,-1.3737241022821516
2024-09-23 01:23:56.852329,43.56,6.459826,-0.01219582044264106,0.020610907938137694,1.011217527554791,0.27994727602181957,-1.1024857741333545,-1.3737241022821516
2024-09-23 01:23:56.864180,43.56,6.459826,-0.01219582044264106,0.020610907938137694,1.0100589250570406,0.3674952580444515,-0.9843418153814971,-1.3737241022821516
2024-09-23 01:23:56.906970,43.56,6.459877,-0.011768909009832369,0.022196330730096036,1.0125589905407328,0.28871353347133843,-0.9843418153814971,-1.448094003321603
2024-09-23 01:23:56.950206,43.56,6.459927,-0.011768909009832369,0.022196330730096036,1.0125589905407328,0.28871353347133843,-1.1111946953259408,-1.43932777255252
2024-09-23 01:23:56.961814,43.56,6.459927,-0.016830173472016593,0.022196330730096036,1.0125589905407328,0.28871353347133843,-1.1111946953259408,-1.43932777255252
2024-09-23 01:23:57.004723,43.56,6.459978,-0.016830173472016593,0.017744852619190586,1.01542506864433,0.3280757409696467,-1.1855647030871361,-1.4787472629468887
2024-09-23 01:23:57.046577,43.56,6.459978,-0.012988480952901577,0.01963527073796979,1.01542506864433,0.3280757409696467,-1.1855647030871361,-1.4787472629468887
2024-09-23 01:23:57.058733,43.56,6.459978,-0.012988480952901577,0.01963527073796979,1.015668979843093,0.24935132597303017,-1.1024857741333545,-1.504988752399385
2024-09-23 01:23:57.142567,43.56,6.460029,-0.012988480952901577,0.01963527073796979,1.015668979843093,0.24935132597303017,-1.1024857741333545,-1.504988752399385
2024-09-23 01:23:57.154474,43.56,6.460029,-0.013049540777332799,0.020549948366167105,1.0153031616522024,0.37620423259790986,-1.0455910250555724,-1.504988752399385
2024-09-23 01:23:57.197347,43.56,6.460116,-0.015488684663471218,0.021830479121718566,1.015668979843093,0.37620423259790986,-1.0455910250555724,-1.3780785628784449
2024-09-23 01:23:57.209347,43.56,6.460116,-0.015488684663471218,0.021830479121718566,1.015668979843093,0.3630834878716618,-1.0455910250555724,-1.3780785628784449
2024-09-23 01:23:57.241205,43.56,6.460116,-0.015488684663471218,0.021830479121718566,1.015668979843093,0.3630834878716618,-1.1724439050000162,-1.3387163820605725
2024-09-23 01:23:57.253280,43.56,6.460167,-0.014147094083488534,0.020306014382754138,1.014205512650516,0.3630834878716618,-1.1724439050000162,-1.3387163820605725
2024-09-23 01:23:57.296719,43.56,6.460218,-0.012439653414105056,0.019879204721382753,1.014205512650516,0.3456082558686845,-1.1287272635858505,-1.483101830264926
2024-09-23 01:23:57.339471,42.64,6.460218,-0.012439653414105056,0.019879204721382753,1.0112784810508548,0.3237212803733535,-1.1812102424908428,-1.483101830264926
2024-09-23 01:23:57.351434,42.64,6.460268,-0.01481783924724956,0.019879204721382753,1.0112784810508548,0.3237212803733535,-1.1812102424908428,-1.504988752399385
2024-09-23 01:23:57.435546,42.64,6.460268,-0.01481783924724956,0.01975718684395762,1.0145103773453428,0.3237212803733535,-1.1812102424908428,-1.504988752399385
2024-09-23 01:23:57.446953,42.64,6.460268,-0.01481783924724956,0.01975718684395762,1.0145103773453428,0.4155664400962181,-1.1506142924420535,-1.504988752399385
2024-09-23 01:23:57.489978,42.64,6.460408,-0.01164699290384454,0.018415698035412244,1.012925003160638,0.4155664400962181,-1.1506142924420535,-1.4437395427253097
2024-09-23 01:23:57.502097,42.64,6.460408,-0.01164699290384454,0.018415698035412244,1.012925003160638,0.3543172304221429,-1.1506142924420535,-1.4437395427253097
2024-09-23 01:23:57.534045,42.64,6.460408,-0.01164699290384454,0.018415698035412244,1.012925003160638,0.3543172304221429,-1.1199610328167677,-1.5268184716790913
2024-09-23 01:23:57.545083,42.64,6.46046,-0.011524974266931064,0.02207441310513153,1.0122541258459061,0.3543172304221429,-1.1199610328167677,-1.5268184716790913
2024-09-23 01:23:57.589377,42.64,6.460511,-0.012439653414105056,0.02067186599113161,1.0122541258459061,0.3062460483703762,-1.1637349838074296,-1.4437395427253097
2024-09-23 01:23:57.632775,42.64,6.460511,-0.012439653414105056,0.02067186599113161,1.0178032271358946,0.20998910513450392,-1.0893650827679784,-1.4437395427253097
2024-09-23 01:23:57.644332,42.64,6.460561,-0.012988480952901577,0.02067186599113161,1.0178032271358946,0.20998910513450392,-1.0893650827679784,-1.474335492774099
2024-09-23 01:23:57.686747,42.64,6.460701,-0.012988480952901577,0.019940162774376668,1.0117664006628877,0.38061600277069957,-1.0412365644592791,-1.3474826128296553
2024-09-23 01:23:57.730635,42.64,6.460701,-0.01182986782231462,0.019025483627202678,1.0133517748475924,0.38061600277069957,-1.0412365644592791,-1.3474826128296553
2024-09-23 01:23:57.741890,42.64,6.460701,-0.01182986782231462,0.019025483627202678,1.0133517748475924,0.29306802074806765,-1.1724439050000162,-1.426207081187144
2024-09-23 01:23:57.784628,42.64,6.460752,-0.014269113479890346,0.021281651582922046,1.0117664006628877,0.2843590461946093,-1.1243154934130608,-1.426207081187144
2024-09-23 01:23:57.826214,42.64,6.460803,-0.014269113479890346,0.021281651582922046,1.0117664006628877,0.2843590461946093,-1.1243154934130608,-1.4087318225037306
2024-09-23 01:23:57.838773,42.64,6.460803,-0.012256778495634975,0.021098777423940302,1.0160958487445546,0.3411964856958948,-1.1243154934130608,-1.4087318225037306
2024-09-23 01:23:57.881479,42.64,6.460854,-0.012805606793919833,0.019208359305161096,1.0160958487445546,0.3411964856958948,-1.0849533125951887,-1.4437395427253097
2024-09-23 01:23:57.893038,42.64,6.460854,-0.012805606793919833,0.019208359305161096,1.0175593159371317,0.3411964856958948,-1.0849533125951887,-1.4437395427253097
2024-09-23 01:23:57.925253,42.64,6.460854,-0.012805606793919833,0.019208359305161096,1.0175593159371317,0.3237212803733535,-1.1287272635858505,-1.3212411233771593
2024-09-23 01:23:57.937117,42.64,6.460904,-0.015061773230662524,0.01926931735815501,1.0175593159371317,0.3237212803733535,-1.1287272635858505,-1.3212411233771593
2024-09-23 01:23:57.970755,42.64,6.460904,-0.015061773230662524,0.01926931735815501,1.0134736818397203,0.3237212803733535,-1.1287272635858505,-1.3212411233771593
2024-09-23 01:23:57.982458,42.64,6.460955,-0.012317737308117227,0.01926931735815501,1.0134736818397203,0.37620423259790986,-1.1024857741333545,-1.3606034109167755
2024-09-23 01:23:58.025204,42.64,6.460955,-0.012317737308117227,0.02134260963591596,1.0120712653577144,0.3674952580444515,-1.0674780539117754,-1.3080631224352866
2024-09-23 01:23:58.036977,42.64,6.461042,-0.012317737308117227,0.02134260963591596,1.0120712653577144,0.3674952580444515,-1.0674780539117754,-1.3080631224352866
2024-09-23 01:23:58.069393,42.64,6.461042,-0.012744546969488612,0.018415698035412244,1.0120712653577144,0.3674952580444515,-1.0674780539117754,-1.3080631224352866
2024-09-23 01:23:58.081467,42.64,6.461042,-0.012744546969488612,0.018415698035412244,1.0145713308414066,0.3368419984191656,-1.15932321363464,-1.3693696416858583
2024-09-23 01:23:58.125073,42.64,6.461093,-0.013598266544692013,0.020001120827370582,1.0099369208504057,0.28871353347133843,-1.224984193481505,-1.3693696416858583
2024-09-23 01:23:58.167569,42.64,6.461144,-0.013598266544692013,0.020001120827370582,1.0099369208504057,0.28871353347133843,-1.224984193481505,-1.4787472629468887
2024-09-23 01:23:58.179322,42.64,6.461144,-0.012317737308117227,0.019513251341567978,1.0134736818397203,0.24499683869630098,-1.224984193481505,-1.4787472629468887
2024-09-23 01:23:58.222345,42.64,6.461195,-0.01445198763887209,0.018659531766364576,1.0108517093639005,0.24499683869630098,-1.1287272635858505,-1.3911993609655648
2024-09-23 01:23:58.265053,42.64,6.461195,-0.01445198763887209,0.018659531766364576,1.0108517093639005,0.2274643237972632,-1.1024857741333545,-1.3911993609655648
2024-09-23 01:23:58.276368,42.64,6.461246,-0.013232416455291218,0.021464627513341095,1.0108517093639005,0.2274643237972632,-1.1024857741333545,-1.3299501512914895
2024-09-23 01:23:58.318021,42.64,6.461296,-0.013232416455291218,0.021464627513341095,1.0130469101527657,0.3193667930966243,-1.2118635021161288,-1.413086283100024
2024-09-23 01:23:58.330002,42.64,6.461296,-0.015305708733052167,0.021464627513341095,1.0130469101527657,0.3193667930966243,-1.2118635021161288,-1.413086283100024
2024-09-23 01:23:58.362213,42.54,6.461296,-0.015305708733052167,0.018476656088406155,1.0120712653577144,0.3193667930966243,-1.2118635021161288,-1.413086283100024
2024-09-23 01:23:58.373854,42.54,6.461383,-0.015305708733052167,0.018476656088406155,1.0120712653577144,0.2843590461946093,-1.1111946953259408,-1.3606034109167755
2024-09-23 01:23:58.457458,42.54,6.461383,-0.010610295879245411,0.018476656088406155,1.0120712653577144,0.2843590461946093,-1.1111946953259408,-1.3606034109167755
2024-09-23 01:23:58.469069,42.54,6.461383,-0.010610295879245411,0.019818144896951533,1.0130469101527657,0.2143435924112331,-1.1156065722204744,-1.3780785628784449
2024-09-23 01:23:58.511917,42.54,6.461435,-0.010488379013769245,0.02152558556633501,1.0129859566567019,0.2143435924112331,-1.1156065722204744,-1.3780785628784449
2024-09-23 01:23:58.523828,42.54,6.461435,-0.010488379013769245,0.02152558556633501,1.0129859566567019,0.24499683869630098,-1.0805987452771515,-1.3780785628784449
2024-09-23 01:23:58.556495,42.54,6.461435,-0.010488379013769245,0.02152558556633501,1.0129859566567019,0.24499683869630098,-1.0805987452771515,-1.4524485706396402
2024-09-23 01:23:58.567642,42.54,6.461485,-0.014634963569291141,0.020793883868556746,1.015546975636458,0.3149550229238346,-1.0805987452771515,-1.4524485706396402
2024-09-23 01:23:58.610968,42.54,6.461536,-0.010671253932239326,0.020793883868556746,1.015546975636458,0.3149550229238346,-1.1506142924420535,-1.491868061034009
2024-09-23 01:23:58.623285,42.54,6.461536,-0.010671253932239326,0.020306014382754138,1.0121322188537785,0.3149550229238346,-1.1506142924420535,-1.491868061034009
2024-09-23 01:23:58.654956,42.54,6.461536,-0.010671253932239326,0.020306014382754138,1.0121322188537785,0.28871353347133843,-1.1768557818945498,-1.491868061034009
2024-09-23 01:23:58.666317,42.54,6.461587,-0.015671560341429636,0.018171764051999276,1.0121322188537785,0.28871353347133843,-1.1768557818945498,-1.4568603408124299
2024-09-23 01:23:58.708610,42.54,6.461678,-0.015671560341429636,0.018171764051999276,1.0152421109416312,0.27123832814879717,-1.1243154934130608,-1.3780785628784449
2024-09-23 01:23:58.720879,42.54,6.461678,-0.010976248499571852,0.018171764051999276,1.0152421109416312,0.27123832814879717,-1.1243154934130608,-1.3780785628784449
2024-09-23 01:23:58.753419,42.54,6.461678,-0.010976248499571852,0.017257084904825287,1.014022554947817,0.27123832814879717,-1.1243154934130608,-1.3780785628784449
2024-09-23 01:23:58.764570,42.54,6.461773,-0.010976248499571852,0.017257084904825287,1.014022554947817,0.39373674749694765,-1.0630662837389857,-1.4874562908612192
2024-09-23 01:23:58.806695,42.54,6.461773,-0.01365932788809991,0.01975718684395762,1.0165836711420804,0.3237212803733535,-1.1855647030871361,-1.4874562908612192
2024-09-23 01:23:58.818356,42.54,6.461773,-0.01365932788809991,0.01975718684395762,1.0165836711420804,0.3237212803733535,-1.1855647030871361,-1.3737241022821516
2024-09-23 01:23:58.851651,42.54,6.461825,-0.013598266544692013,0.02201345505213762,1.0165836711420804,0.3237212803733535,-1.1855647030871361,-1.3737241022821516
2024-09-23 01:23:58.863324,42.54,6.461825,-0.013598266544692013,0.02201345505213762,1.0098759673543418,0.28871353347133843,-1.1506142924420535,-1.3737241022821516
2024-09-23 01:23:58.906340,42.54,6.461875,-0.01573262016586086,0.020306014382754138,1.012620041251304,0.3499627431454137,-1.1506142924420535,-1.4306188513599336
2024-09-23 01:23:58.948555,42.54,6.461926,-0.01573262016586086,0.020306014382754138,1.012620041251304,0.3499627431454137,-1.1111946953259408,-1.504988752399385
2024-09-23 01:23:58.960576,42.54,6.461926,-0.01341539238571027,0.021586543619328925,1.0149372462468045,0.3499627431454137,-1.1111946953259408,-1.504988752399385
2024-09-23 01:23:59.003538,42.54,6.461977,-0.012927522899907663,0.020732824044125523,1.0149372462468045,0.35872900059493257,-1.1855647030871361,-1.434973311956227
2024-09-23 01:23:59.045883,42.54,6.461977,-0.012927522899907663,0.020732824044125523,1.0120102146471432,0.3062460483703762,-1.1637349838074296,-1.434973311956227
2024-09-23 01:23:59.057815,42.54,6.461977,-0.012927522899907663,0.020732824044125523,1.0120102146471432,0.3062460483703762,-1.1637349838074296,-1.448094003321603
2024-09-23 01:23:59.101669,42.54,6.462028,-0.013049540777332799,0.020062078880364497,1.012498037044669,0.3324875378228724,-1.0455910250555724,-1.448094003321603
2024-09-23 01:23:59.143956,42.54,6.462115,-0.01268358815700636,0.020062078880364497,1.012498037044669,0.3324875378228724,-1.0455910250555724,-1.491868061034009
2024-09-23 01:23:59.155547,42.54,6.462115,-0.01268358815700636,0.017927828549609635,1.0133517748475924,0.3456082558686845,-1.0455910250555724,-1.491868061034009
2024-09-23 01:23:59.197713,42.54,6.462166,-0.00957370062608359,0.019025483627202678,1.0140835084438808,0.3456082558686845,-1.1680894444037229,-1.4437395427253097
2024-09-23 01:23:59.241117,42.54,6.462166,-0.00957370062608359,0.019025483627202678,1.0140835084438808,0.24499683869630098,-1.1111946953259408,-1.426207081187144
2024-09-23 01:23:59.252471,42.54,6.462217,-0.015915494324842603,0.020732824044125523,1.0140835084438808,0.24499683869630098,-1.1111946953259408,-1.426207081187144
2024-09-23 01:23:59.294574,42.54,6.462267,-0.015244750680058252,0.020732824044125523,1.0161568022406187,0.28871353347133843,-1.1855647030871361,-1.531230241851881
2024-09-23 01:23:59.336916,42.54,6.462267,-0.015244750680058252,0.020306014382754138,1.0115833457456815,0.28871353347133843,-1.1855647030871361,-1.531230241851881
2024-09-23 01:23:59.348479,42.54,6.462358,-0.015244750680058252,0.020306014382754138,1.0115833457456815,0.37184974532118065,-1.1680894444037229,-1.5005769822265953
2024-09-23 01:23:59.390546,42.44,6.462358,-0.011403058160943235,0.02329398580768908,1.0131078636488298,0.3499627431454137,-1.1287272635858505,-1.5005769822265953
2024-09-23 01:23:59.402280,42.44,6.462358,-0.011403058160943235,0.02329398580768908,1.0131078636488298,0.3499627431454137,-1.1287272635858505,-1.43932777255252
2024-09-23 01:23:59.435100,42.44,6.46241,-0.01695219134944173,0.02329398580768908,1.0131078636488298,0.3499627431454137,-1.1287272635858505,-1.43932777255252
2024-09-23 01:23:59.446197,42.44,6.46241,-0.01695219134944173,0.020366972435748053,1.015608026347029,0.3849704900474288,-1.1111946953259408,-1.43932777255252
2024-09-23 01:23:59.489971,42.44,6.46246,-0.009939551474972724,0.020732824044125523,1.0122541258459061,0.3849704900474288,-1.1111946953259408,-1.4437395427253097
2024-09-23 01:23:59.501837,42.44,6.46246,-0.009939551474972724,0.020732824044125523,1.0122541258459061,0.35872900059493257,-1.1111946953259408,-1.4437395427253097
2024-09-23 01:23:59.534862,42.44,6.462511,-0.009939551474972724,0.020732824044125523,1.0122541258459061,0.35872900059493257,-1.1374934943549335,-1.426207081187144
2024-09-23 01:23:59.546856,42.44,6.462511,-0.015000815177668611,0.01939133523558015,1.0121322188537785,0.35872900059493257,-1.1374934943549335,-1.426207081187144
2024-09-23 01:23:59.579102,42.44,6.462511,-0.015000815177668611,0.01939133523558015,1.0121322188537785,0.3411964856958948,-1.1374934943549335,-1.426207081187144
2024-09-23 01:23:59.590693,42.44,6.462562,-0.015427726610477303,0.019940162774376668,1.0121322188537785,0.3411964856958948,-1.1855647030871361,-1.3430708426568656
2024-09-23 01:23:59.632688,42.44,6.462562,-0.015427726610477303,0.019940162774376668,1.0139006479556893,0.31060053564710544,-1.1987427040290088,-1.434973311956227
2024-09-23 01:23:59.644475,42.44,6.462613,-0.014695923141261731,0.019940162774376668,1.0139006479556893,0.31060053564710544,-1.1987427040290088,-1.434973311956227
2024-09-23 01:23:59.677165,42.44,6.462613,-0.014695923141261731,0.01975718684395762,1.0139006479556893,0.31060053564710544,-1.1987427040290088,-1.434973311956227
2024-09-23 01:23:59.688525,42.44,6.4627,-0.014695923141261731,0.01975718684395762,1.0138396944596255,0.3368419984191656,-1.1111946953259408,-1.426207081187144
2024-09-23 01:23:59.731232,42.44,6.4627,-0.014025177977500705,0.02067186599113161,1.0139616014517532,0.3280757409696467,-1.1111946953259408,-1.426207081187144
2024-09-23 01:23:59.743996,42.44,6.4627,-0.014025177977500705,0.02067186599113161,1.0139616014517532,0.3280757409696467,-1.1549687530383468,-1.461214801408723
2024-09-23 01:23:59.776980,42.44,6.462751,-0.010854230622146716,0.023964729452473427,1.0139616014517532,0.3280757409696467,-1.1549687530383468,-1.461214801408723
2024-09-23 01:23:59.788384,42.44,6.462751,-0.010854230622146716,0.023964729452473427,1.0147542885441054,0.29306802074806765,-1.0980740039605648,-1.461214801408723
2024-09-23 01:23:59.831961,42.44,6.462802,-0.012744546969488612,0.024086748848875243,1.010668654446694,0.3280757409696467,-1.0980740039605648,-1.461214801408723
2024-09-23 01:23:59.875358,42.44,6.462852,-0.012744546969488612,0.024086748848875243,1.010668654446694,0.3280757409696467,-1.1287272635858505,-1.4437395427253097
2024-09-23 01:23:59.886875,42.44,6.462852,-0.01536666678604608,0.02012303845233509,1.0140835084438808,0.3280757409696467,-1.1287272635858505,-1.4437395427253097
2024-09-23 01:23:59.929397,42.44,6.462903,-0.01146401621393715,0.02164760496273682,1.0140835084438808,0.29747979092085736,-1.2205724233087152,-1.4218526205908506
2024-09-23 01:23:59.973021,42.44,6.462903,-0.01146401621393715,0.02164760496273682,1.0130469101527657,0.3543172304221429,-1.1987427040290088,-1.4218526205908506
2024-09-23 01:23:59.984322,42.44,6.462954,-0.014391029585878175,0.02164760496273682,1.0130469101527657,0.3543172304221429,-1.1987427040290088,-1.404320052330941
2024-09-23 01:24:00.027183,42.44,6.463041,-0.014391029585878175,0.01975718684395762,1.01231507934197,0.3543172304221429,-1.1855647030871361,-1.426207081187144
2024-09-23 01:24:00.068722,42.44,6.463041,-0.012439653414105056,0.02176952106872465,1.01231507934197,0.3543172304221429,-1.1855647030871361,-1.426207081187144
2024-09-23 01:24:00.080861,42.44,6.463041,-0.012439653414105056,0.02176952106872465,1.0145103773453428,0.3324875378228724,-1.1637349838074296,-1.43932777255252
2024-09-23 01:24:00.124577,42.44,6.463092,-0.013903160100075569,0.02097675802753849,1.0099369208504057,0.29306802074806765,-1.1680894444037229,-1.43932777255252
2024-09-23 01:24:00.167022,42.44,6.463143,-0.013293374508285133,0.02097675802753849,1.0099369208504057,0.29306802074806765,-1.1680894444037229,-1.426207081187144
2024-09-23 01:24:00.178091,42.44,6.463143,-0.013293374508285133,0.02140366946034718,1.0128639524500669,0.38061600277069957,-1.1680894444037229,-1.426207081187144
2024-09-23 01:24:00.221942,42.44,6.463194,-0.015122834574070423,0.02213537267710212,1.0168886330514144,0.38061600277069957,-1.0018170740649104,-1.4306188513599336
2024-09-23 01:24:00.264754,42.44,6.463194,-0.015122834574070423,0.02213537267710212,1.0168886330514144,0.41997821026900783,-1.0587118231426924,-1.3956111311383546
2024-09-23 01:24:00.275823,42.44,6.463244,-0.010915188675140628,0.02048899031317319,1.0168886330514144,0.41997821026900783,-1.0587118231426924,-1.3956111311383546
2024-09-23 01:24:00.318004,42.44,6.463295,-0.010915188675140628,0.02048899031317319,1.0134127283436565,0.29747979092085736,-1.0674780539117754,-1.3693696416858583
2024-09-23 01:24:00.330068,42.44,6.463295,-0.011951885699739756,0.02048899031317319,1.0134127283436565,0.29747979092085736,-1.0674780539117754,-1.3693696416858583
2024-09-23 01:24:00.362820,42.44,6.463295,-0.011951885699739756,0.020366972435748053,1.0108517093639005,0.31060053564710544,-1.0674780539117754,-1.3693696416858583
2024-09-23 01:24:00.374372,42.44,6.463382,-0.011951885699739756,0.020366972435748053,1.0108517093639005,0.31060053564710544,-1.1374934943549335,-1.4218526205908506
2024-09-23 01:24:00.416800,42.61,6.463382,-0.01256167205101853,0.02140366946034718,1.0129859566567019,0.3193667930966243,-1.0543573625463993,-1.434973311956227
2024-09-23 01:24:00.511587,42.61,6.463433,-0.01219582044264106,0.018171764051999276,1.0134127283436565,0.2668265312955715,-1.0543573625463993,-1.434973311956227
2024-09-23 01:24:00.523696,42.61,6.463433,-0.01219582044264106,0.018171764051999276,1.0134127283436565,0.2668265312955715,-1.1462025222692638,-1.434973311956227
2024-09-23 01:24:00.556572,42.61,6.463484,-0.01219582044264106,0.018171764051999276,1.0134127283436565,0.2668265312955715,-1.1462025222692638,-1.426207081187144
2024-09-23 01:24:00.567722,42.61,6.463484,-0.01268358815700636,0.020427930488741967,1.013778546534547,0.29306802074806765,-1.1462025222692638,-1.426207081187144
2024-09-23 01:24:00.610060,42.61,6.463535,-0.010183486217874026,0.02134260963591596,1.013778546534547,0.29306802074806765,-0.9624548932470381,-1.3824903330512346
2024-09-23 01:24:00.622011,42.61,6.463535,-0.010183486217874026,0.02134260963591596,1.011095523348156,0.29306802074806765,-0.9624548932470381,-1.3824903330512346
2024-09-23 01:24:00.654687,42.61,6.463535,-0.010183486217874026,0.02134260963591596,1.011095523348156,0.35872900059493257,-1.0324703336901964,-1.3824903330512346
2024-09-23 01:24:00.665798,42.61,6.463586,-0.013354434332716355,0.01926931735815501,1.011095523348156,0.35872900059493257,-1.0324703336901964,-1.3824903330512346
2024-09-23 01:24:00.708224,42.61,6.463636,-0.012317737308117227,0.01926931735815501,1.014205512650516,0.3149550229238346,-1.1506142924420535,-1.3343619214642792
2024-09-23 01:24:00.751481,42.61,6.463636,-0.012317737308117227,0.021464627513341095,1.010668654446694,0.3149550229238346,-1.1506142924420535,-1.3343619214642792
2024-09-23 01:24:00.763038,42.61,6.463772,-0.012317737308117227,0.021464627513341095,1.010668654446694,0.3324875378228724,-1.0893650827679784,-1.3649578715130686
2024-09-23 01:24:00.806979,42.61,6.463772,-0.011220081471035847,0.019086441680196593,1.0145713308414066,0.38061600277069957,-1.0849533125951887,-1.3956111311383546
2024-09-23 01:24:00.848913,42.61,6.463823,-0.01268358815700636,0.019086441680196593,1.0145713308414066,0.38061600277069957,-1.0849533125951887,-1.3956111311383546
2024-09-23 01:24:00.859981,42.61,6.463823,-0.01268358815700636,0.01798878660260355,1.012620041251304,0.27559278874509036,-1.1549687530383468,-1.3956111311383546
2024-09-23 01:24:00.903574,42.61,6.463874,-0.010915188675140628,0.020001120827370582,1.0120102146471432,0.27994727602181957,-1.1549687530383468,-1.3999655917346479
2024-09-23 01:24:00.945882,42.61,6.463874,-0.010915188675140628,0.020001120827370582,1.0120102146471432,0.27994727602181957,-1.1680894444037229,-1.4087318225037306
2024-09-23 01:24:00.957348,42.61,6.463925,-0.015061773230662524,0.02012303845233509,1.0145713308414066,0.27994727602181957,-1.1680894444037229,-1.4087318225037306
2024-09-23 01:24:01.000876,42.61,6.463976,-0.010305402323861856,0.02018409827676631,1.0145713308414066,0.29306802074806765,-1.028115873093903,-1.3999655917346479
2024-09-23 01:24:01.043522,42.61,6.463976,-0.010305402323861856,0.02018409827676631,1.0157299333391567,0.3849704900474288,-1.028115873093903,-1.3999655917346479
2024-09-23 01:24:01.055023,42.61,6.464026,-0.01396421992450679,0.02018409827676631,1.0157299333391567,0.3849704900474288,-1.1243154934130608,-1.448094003321603
2024-09-23 01:24:01.096798,42.61,6.464026,-0.01396421992450679,0.021830479121718566,1.015668979843093,0.3193667930966243,-1.1156065722204744,-1.3518370734259486
2024-09-23 01:24:01.108697,42.61,6.464113,-0.01396421992450679,0.021830479121718566,1.015668979843093,0.3193667930966243,-1.1156065722204744,-1.3518370734259486
2024-09-23 01:24:01.141033,42.61,6.464113,-0.013720285941093825,0.01926931735815501,1.015668979843093,0.3193667930966243,-1.1156065722204744,-1.3518370734259486
2024-09-23 01:24:01.152397,42.61,6.464113,-0.013720285941093825,0.01926931735815501,1.0131078636488298,0.3456082558686845,-1.0324703336901964,-1.504988752399385
2024-09-23 01:24:01.194740,42.61,6.464165,-0.012256778495634975,0.023964729452473427,1.0090832802619896,0.3062460483703762,-1.0324703336901964,-1.504988752399385
2024-09-23 01:24:01.237873,42.61,6.464165,-0.012256778495634975,0.023964729452473427,1.0090832802619896,0.3062460483703762,-1.1111946953259408,-1.504988752399385
2024-09-23 01:24:01.249964,42.61,6.464215,-0.01256167205101853,0.019879204721382753,1.0123761300525411,0.3062460483703762,-1.1111946953259408,-1.518109550486505
2024-09-23 01:24:01.292560,42.61,6.464267,-0.011951885699739756,0.019879204721382753,1.0123761300525411,0.38061600277069957,-1.1812102424908428,-1.3737241022821516
2024-09-23 01:24:01.304390,42.61,6.464267,-0.011951885699739756,0.02048899031317319,1.0123761300525411,0.38061600277069957,-1.1812102424908428,-1.3737241022821516
2024-09-23 01:24:01.336448,42.61,6.464267,-0.011951885699739756,0.02048899031317319,1.0168886330514144,0.3849704900474288,-1.1812102424908428,-1.3737241022821516
2024-09-23 01:24:01.348197,42.61,6.464317,-0.011342100107949322,0.02048899031317319,1.0168886330514144,0.3849704900474288,-1.2118635021161288,-1.3956111311383546
2024-09-23 01:24:01.392037,42.61,6.464368,-0.011342100107949322,0.015427726610477303,1.0143274196426437,0.24499683869630098,-1.1418479549512268,-1.4087318225037306
2024-09-23 01:24:01.433742,42.36,6.464368,-0.011220081471035847,0.020001120827370582,1.0143274196426437,0.24499683869630098,-1.1418479549512268,-1.4087318225037306
2024-09-23 01:24:01.445554,42.36,6.464368,-0.011220081471035847,0.020001120827370582,1.0124370835486052,0.40244569536997005,-1.15932321363464,-1.43932777255252
2024-09-23 01:24:01.488127,42.36,6.464455,-0.013171458402297304,0.01963527073796979,1.012925003160638,0.2843590461946093,-1.0805987452771515,-1.43932777255252
2024-09-23 01:24:01.531297,42.36,6.464506,-0.013171458402297304,0.01963527073796979,1.012925003160638,0.2843590461946093,-1.0805987452771515,-1.4174980532728136
2024-09-23 01:24:01.584780,42.36,6.464506,-0.01182986782231462,0.02097675802753849,1.0135956860463553,0.2362305812467821,-1.1637349838074296,-1.4174980532728136
2024-09-23 01:24:01.596958,42.36,6.464506,-0.01182986782231462,0.02097675802753849,1.0135956860463553,0.2362305812467821,-1.1637349838074296,-1.509343212995678
2024-09-23 01:24:01.630507,42.36,6.464557,-0.010061467580960552,0.02048899031317319,1.0135956860463553,0.2362305812467821,-1.1637349838074296,-1.509343212995678
2024-09-23 01:24:01.642126,42.36,6.464557,-0.010061467580960552,0.02048899031317319,1.0072538004495073,0.37184974532118065,-1.1637349838074296,-1.509343212995678
2024-09-23 01:24:01.685360,42.36,6.464608,-0.012500713238536278,0.022318348607521174,1.0132298678554648,0.3411964856958948,-1.1637349838074296,-1.461214801408723
2024-09-23 01:24:01.727537,42.36,6.464658,-0.012500713238536278,0.022318348607521174,1.0132298678554648,0.3411964856958948,-1.1287272635858505,-1.4437395427253097
2024-09-23 01:24:01.739195,42.36,6.464658,-0.012866564846913748,0.019208359305161096,1.0143274196426437,0.3411964856958948,-1.1287272635858505,-1.4437395427253097
2024-09-23 01:24:01.781845,42.36,6.464747,-0.012988480952901577,0.02213537267710212,1.0143274196426437,0.2581175834225491,-1.0893650827679784,-1.413086283100024
2024-09-23 01:24:01.823467,42.36,6.464747,-0.012988480952901577,0.02213537267710212,1.0117664006628877,0.24935132597303017,-1.0893650827679784,-1.413086283100024
2024-09-23 01:24:01.834375,42.36,6.464798,-0.011098165365048018,0.02213537267710212,1.0117664006628877,0.24935132597303017,-1.0718325145080685,-1.3080631224352866
2024-09-23 01:24:01.878308,42.36,6.464798,-0.011098165365048018,0.02048899031317319,1.014205512650516,0.27994727602181957,-1.1156065722204744,-1.434973311956227
2024-09-23 01:24:01.890171,42.36,6.464893,-0.011098165365048018,0.02048899031317319,1.014205512650516,0.27994727602181957,-1.1156065722204744,-1.434973311956227
2024-09-23 01:24:01.922658,42.36,6.464893,-0.012744546969488612,0.021830479121718566,1.0145713308414066,0.27994727602181957,-1.1156065722204744,-1.434973311956227
2024-09-23 01:24:01.934218,42.36,6.464893,-0.012744546969488612,0.021830479121718566,1.0145713308414066,0.28871353347133843,-1.1943309338562191,-1.3212411233771593
2024-09-23 01:24:01.976964,42.36,6.464945,-0.01585453627184869,0.019025483627202678,1.012925003160638,0.3149550229238346,-1.1680894444037229,-1.3212411233771593
2024-09-23 01:24:02.071838,42.36,6.464995,-0.013903160100075569,0.017927828549609635,1.012925003160638,0.3149550229238346,-1.1680894444037229,-1.3911993609655648
2024-09-23 01:24:02.084470,42.36,6.464995,-0.013903160100075569,0.017927828549609635,1.0165836711420804,0.2843590461946093,-1.1680894444037229,-1.3911993609655648
2024-09-23 01:24:02.118797,42.36,6.465046,-0.013903160100075569,0.017927828549609635,1.0165836711420804,0.2843590461946093,-1.2205724233087152,-1.4524485706396402
2024-09-23 01:24:02.130388,42.36,6.465046,-0.014939857124674697,0.017561976941232165,1.015668979843093,0.2843590461946093,-1.2205724233087152,-1.4524485706396402
2024-09-23 01:24:02.163363,42.36,6.465046,-0.014939857124674697,0.017561976941232165,1.015668979843093,0.42433269754573705,-1.2205724233087152,-1.4524485706396402
2024-09-23 01:24:02.174729,42.36,6.465097,-0.012439653414105056,0.02189143717471248,1.015668979843093,0.42433269754573705,-1.1418479549512268,-1.5443510399390012
2024-09-23 01:24:02.217969,42.36,6.465097,-0.012439653414105056,0.02189143717471248,1.0133517748475924,0.3456082558686845,-1.203097164625302,-1.4655692620050162
2024-09-23 01:24:02.229225,42.36,6.465148,-0.014634963569291141,0.02189143717471248,1.0133517748475924,0.3456082558686845,-1.203097164625302,-1.4655692620050162
2024-09-23 01:24:02.261331,42.36,6.465148,-0.014634963569291141,0.019696228790963704,1.0133517748475924,0.3456082558686845,-1.203097164625302,-1.4655692620050162
2024-09-23 01:24:02.272891,42.36,6.465234,-0.014634963569291141,0.019696228790963704,1.014022554947817,0.37620423259790986,-1.1768557818945498,-1.4087318225037306
2024-09-23 01:24:02.316707,42.36,6.465234,-0.011098165365048018,0.021830479121718566,1.0132298678554648,0.2537058132497594,-1.1680894444037229,-1.4087318225037306
2024-09-23 01:24:02.328169,42.36,6.465234,-0.011098165365048018,0.021830479121718566,1.0132298678554648,0.2537058132497594,-1.1680894444037229,-1.426207081187144
2024-09-23 01:24:02.360863,42.36,6.465333,-0.011951885699739756,0.020306014382754138,1.0132298678554648,0.2537058132497594,-1.1680894444037229,-1.426207081187144
2024-09-23 01:24:02.372339,42.36,6.465333,-0.011951885699739756,0.020306014382754138,1.0158518403312846,0.2843590461946093,-1.1287272635858505,-1.426207081187144
2024-09-23 01:24:02.414725,42.36,6.465384,-0.01713506550842347,0.020306014382754138,1.0118883076550156,0.3193667930966243,-1.1287272635858505,-1.4524485706396402
2024-09-23 01:24:02.457328,42.23,6.465384,-0.01713506550842347,0.020306014382754138,1.0118883076550156,0.3193667930966243,-1.1111946953259408,-1.469981032177806
2024-09-23 01:24:02.469478,42.23,6.465435,-0.014025177977500705,0.023354943860682993,1.0158518403312846,0.3193667930966243,-1.1111946953259408,-1.469981032177806
2024-09-23 01:24:02.513128,42.23,6.465485,-0.012927522899907663,0.021098777423940302,1.0158518403312846,0.29747979092085736,-1.1768557818945498,-1.434973311956227
2024-09-23 01:24:02.556486,42.23,6.465485,-0.012927522899907663,0.021098777423940302,1.0107906586533293,0.3324875378228724,-1.1024857741333545,-1.434973311956227
2024-09-23 01:24:02.568324,42.23,6.465485,-0.012927522899907663,0.021098777423940302,1.0107906586533293,0.3324875378228724,-1.1024857741333545,-1.434973311956227
2024-09-23 01:24:02.651944,42.23,6.465536,-0.013049540777332799,0.021098777423940302,1.0107906586533293,0.3324875378228724,-1.1024857741333545,-1.434973311956227
2024-09-23 01:24:02.663487,42.23,6.465536,-0.013049540777332799,0.020793883868556746,1.0146933350480416,0.31060053564710544,-1.0587118231426924,-1.434973311956227
2024-09-23 01:24:02.706106,42.23,6.465624,-0.01256167205101853,0.01713506550842347,1.0116442992417454,0.31060053564710544,-1.0587118231426924,-1.3299501512914895
2024-09-23 01:24:02.718424,42.23,6.465624,-0.01256167205101853,0.01713506550842347,1.0116442992417454,0.28871353347133843,-1.0587118231426924,-1.3299501512914895
2024-09-23 01:24:02.751678,42.23,6.465676,-0.01256167205101853,0.01713506550842347,1.0116442992417454,0.28871353347133843,-1.0980740039605648,-1.426207081187144
2024-09-23 01:24:02.763271,42.23,6.465676,-0.013903160100075569,0.019086441680196593,1.017254451242305,0.28871353347133843,-1.0980740039605648,-1.426207081187144
2024-09-23 01:24:02.805777,42.23,6.465727,-0.01219582044264106,0.02067186599113161,1.017254451242305,0.29747979092085736,-1.1680894444037229,-1.474335492774099
2024-09-23 01:24:02.848224,42.23,6.465727,-0.01219582044264106,0.02067186599113161,1.0135956860463553,0.3193667930966243,-1.1243154934130608,-1.474335492774099
2024-09-23 01:24:02.859971,42.23,6.465778,-0.010793271809664462,0.02067186599113161,1.0135956860463553,0.3193667930966243,-1.1243154934130608,-1.448094003321603
2024-09-23 01:24:02.902713,42.23,6.465917,-0.010793271809664462,0.015610600769459046,1.0136566395424191,0.3149550229238346,-1.0630662837389857,-1.3999655917346479
2024-09-23 01:24:02.945831,42.23,6.465917,-0.013110498830326714,0.02097675802753849,1.0145713308414066,0.3149550229238346,-1.0630662837389857,-1.3999655917346479
2024-09-23 01:24:02.957297,42.23,6.465917,-0.013110498830326714,0.02097675802753849,1.0145713308414066,0.3543172304221429,-1.0018170740649104,-1.3562488435987383
2024-09-23 01:24:03.000711,42.23,6.465968,-0.01768389456619667,0.019330377182586234,1.0103028362558035,0.42433269754573705,-1.0937195433642715,-1.3562488435987383
2024-09-23 01:24:03.043217,42.23,6.466019,-0.015976452377836518,0.019330377182586234,1.0103028362558035,0.42433269754573705,-1.0937195433642715,-1.4218526205908506
2024-09-23 01:24:03.054435,42.23,6.466019,-0.015976452377836518,0.019513251341567978,1.0132298678554648,0.31060053564710544,-1.0937195433642715,-1.4218526205908506
2024-09-23 01:24:03.096259,42.23,6.46607,-0.012012843752733671,0.021952496999143704,1.0132298678554648,0.31060053564710544,-1.1855647030871361,-1.3343619214642792
2024-09-23 01:24:03.108788,42.23,6.46607,-0.012012843752733671,0.021952496999143704,1.0146322843374704,0.31060053564710544,-1.1855647030871361,-1.3343619214642792
2024-09-23 01:24:03.141717,42.23,6.46607,-0.012012843752733671,0.021952496999143704,1.0146322843374704,0.3149550229238346,-1.1462025222692638,-1.4524485706396402
2024-09-23 01:24:03.153316,42.23,6.466121,-0.011342100107949322,0.019940162774376668,1.0146322843374704,0.3149550229238346,-1.1462025222692638,-1.4524485706396402
2024-09-23 01:24:03.196389,42.23,6.466171,-0.010244444270867941,0.019940162774376668,1.0144494238492787,0.3456082558686845,-1.0980740039605648,-1.3911993609655648
2024-09-23 01:24:03.238391,42.23,6.466171,-0.010244444270867941,0.020793883868556746,1.0118883076550156,0.3324875378228724,-1.0980740039605648,-1.3911993609655648
2024-09-23 01:24:03.250725,42.23,6.466258,-0.010244444270867941,0.020793883868556746,1.0118883076550156,0.3324875378228724,-1.1462025222692638,-1.5574717313043773
2024-09-23 01:24:03.293302,42.23,6.466258,-0.010061467580960552,0.020366972435748053,1.0147542885441054,0.2405850685235113,-1.1287272635858505,-1.4874562908612192
2024-09-23 01:24:03.336384,42.23,6.46631,-0.014025177977500705,0.01890346574977754,1.0147542885441054,0.2405850685235113,-1.1287272635858505,-1.4874562908612192
2024-09-23 01:24:03.347743,42.23,6.46631,-0.014025177977500705,0.01890346574977754,1.0157299333391567,0.38061600277069957,-1.0237041029211134,-1.4874562908612192
2024-09-23 01:24:03.382277,42.23,6.46631,-0.014025177977500705,0.01890346574977754,1.0157299333391567,0.38061600277069957,-1.0237041029211134,-1.448094003321603
2024-09-23 01:24:03.393830,42.23,6.466361,-0.012256778495634975,0.020610907938137694,1.0132298678554648,0.3280757409696467,-1.0237041029211134,-1.448094003321603
2024-09-23 01:24:03.486994,41.9,6.466411,-0.014512945691866003,0.02189143717471248,1.0135347325502915,0.3280757409696467,-1.1111946953259408,-1.3606034109167755
2024-09-23 01:24:03.581206,41.9,6.466411,-0.014512945691866003,0.02189143717471248,1.0135347325502915,0.3368419984191656,-1.1374934943549335,-1.4218526205908506
2024-09-23 01:24:03.634292,41.9,6.466462,-0.014208053655459124,0.021464627513341095,1.0163397599433175,0.3456082558686845,-1.0324703336901964,-1.4218526205908506
2024-09-23 01:24:03.678422,41.9,6.466513,-0.014391029585878175,0.021464627513341095,1.0163397599433175,0.3456082558686845,-1.0324703336901964,-1.3562488435987383
2024-09-23 01:24:03.690446,41.9,6.466513,-0.014391029585878175,0.020732824044125523,1.0128639524500669,0.3324875378228724,-1.0324703336901964,-1.3562488435987383
2024-09-23 01:24:03.722664,41.9,6.466513,-0.014391029585878175,0.020732824044125523,1.0128639524500669,0.3324875378228724,-1.1987427040290088,-1.3562488435987383
2024-09-23 01:24:03.734115,41.9,6.466599,-0.012256778495634975,0.02085484192155066,1.0135956860463553,0.3324875378228724,-1.1987427040290088,-1.3956111311383546
2024-09-23 01:24:03.776500,41.9,6.466697,-0.012256778495634975,0.02085484192155066,1.0135956860463553,0.3018342781975865,-1.0762442846808582,-1.4437395427253097
2024-09-23 01:24:03.788591,41.9,6.466697,-0.010000509527966639,0.021037716080532405,1.0135956860463553,0.3018342781975865,-1.0762442846808582,-1.4437395427253097
2024-09-23 01:24:03.821696,41.9,6.466697,-0.010000509527966639,0.021037716080532405,1.014022554947817,0.3062460483703762,-1.0762442846808582,-1.4437395427253097
2024-09-23 01:24:03.874724,41.9,6.466795,-0.014878899071680782,0.021037716080532405,1.014022554947817,0.3062460483703762,-1.1374934943549335,-1.434973311956227
2024-09-23 01:24:03.886159,41.9,6.466795,-0.014878899071680782,0.021098777423940302,1.014022554947817,0.3062460483703762,-1.1374934943549335,-1.434973311956227
2024-09-23 01:24:03.919884,41.9,6.466795,-0.014878899071680782,0.021098777423940302,1.014022554947817,0.31060053564710544,-1.1199610328167677,-1.434973311956227
2024-09-23 01:24:03.930989,41.9,6.466892,-0.011220081471035847,0.021037716080532405,1.014022554947817,0.31060053564710544,-1.1199610328167677,-1.4174980532728136
2024-09-23 01:24:03.973670,41.9,6.466944,-0.011220081471035847,0.021037716080532405,1.0144494238492787,0.27994727602181957,-1.0674780539117754,-1.4874562908612192
2024-09-23 01:24:03.985853,41.9,6.466944,-0.016342405757651293,0.021037716080532405,1.0144494238492787,0.27994727602181957,-1.0674780539117754,-1.4874562908612192
2024-09-23 01:24:04.019063,41.9,6.466944,-0.016342405757651293,0.018964423802771455,1.0153031616522024,0.3499627431454137,-1.0674780539117754,-1.4874562908612192
2024-09-23 01:24:04.030798,41.9,6.466994,-0.016342405757651293,0.018964423802771455,1.0153031616522024,0.3499627431454137,-1.1374934943549335,-1.461214801408723
2024-09-23 01:24:04.074086,41.9,6.466994,-0.012805606793919833,0.02140366946034718,1.0120102146471432,0.3543172304221429,-1.1899764732599258,-1.3430708426568656
2024-09-23 01:24:04.117856,41.9,6.467087,-0.012378695361111141,0.02067186599113161,1.0120102146471432,0.3543172304221429,-1.1899764732599258,-1.3430708426568656
2024-09-23 01:24:04.129391,41.9,6.467087,-0.012378695361111141,0.02067186599113161,1.0120102146471432,0.27559278874509036,-1.1768557818945498,-1.3430708426568656
2024-09-23 01:24:04.162750,41.9,6.467087,-0.012378695361111141,0.02067186599113161,1.0120102146471432,0.27559278874509036,-1.1768557818945498,-1.3387163820605725
2024-09-23 01:24:04.174238,41.9,6.467139,-0.011098165365048018,0.020366972435748053,1.01426646614658,0.31060053564710544,-1.1768557818945498,-1.3387163820605725
2024-09-23 01:24:04.216845,41.9,6.46719,-0.01365932788809991,0.023781855293491683,1.01426646614658,0.31060053564710544,-1.2118635021161288,-1.3737241022821516
2024-09-23 01:24:04.228644,41.9,6.46719,-0.01365932788809991,0.023781855293491683,1.012925003160638,0.31060053564710544,-1.2118635021161288,-1.3737241022821516
2024-09-23 01:24:04.260929,41.9,6.46719,-0.01365932788809991,0.023781855293491683,1.012925003160638,0.3062460483703762,-1.1287272635858505,-1.3737241022821516
2024-09-23 01:24:04.272609,41.9,6.46724,-0.012622630104012445,0.020732824044125523,1.012925003160638,0.3062460483703762,-1.1287272635858505,-1.3562488435987383
2024-09-23 01:24:04.315081,41.9,6.467291,-0.012622630104012445,0.020732824044125523,1.0109736163560281,0.3018342781975865,-1.0543573625463993,-1.3956111311383546
2024-09-23 01:24:04.326797,41.9,6.467291,-0.011768909009832369,0.020732824044125523,1.0109736163560281,0.3018342781975865,-1.0543573625463993,-1.3956111311383546
2024-09-23 01:24:04.358895,41.9,6.467291,-0.011768909009832369,0.022867176146317694,1.0138396944596255,0.3018342781975865,-1.0543573625463993,-1.3956111311383546
2024-09-23 01:24:04.370093,41.9,6.46738,-0.011768909009832369,0.022867176146317694,1.0138396944596255,0.3237212803733535,-1.1680894444037229,-1.3868447936475277
2024-09-23 01:24:04.414135,41.9,6.46738,-0.009085831140280984,0.020915799974544576,1.0153031616522024,0.3456082558686845,-1.1287272635858505,-1.461214801408723
2024-09-23 01:24:04.457050,41.9,6.467431,-0.010793271809664462,0.021464627513341095,1.0153031616522024,0.3456082558686845,-1.1287272635858505,-1.461214801408723
2024-09-23 01:24:04.468548,41.9,6.467431,-0.010793271809664462,0.021464627513341095,1.008168588963002,0.3543172304221429,-1.1899764732599258,-1.461214801408723
2024-09-23 01:24:04.510661,41.49,6.467482,-0.012500713238536278,0.021464627513341095,1.008168588963002,0.3543172304221429,-1.1899764732599258,-1.491868061034009
2024-09-23 01:24:04.605014,41.49,6.467482,-0.012500713238536278,0.021830479121718566,1.0144494238492787,0.3543172304221429,-1.1899764732599258,-1.491868061034009
2024-09-23 01:24:04.658945,41.49,6.467532,-0.012805606793919833,0.021830479121718566,1.0144494238492787,0.2668265312955715,-1.1111946953259408,-1.3824903330512346
2024-09-23 01:24:04.671033,41.49,6.467532,-0.012805606793919833,0.020366972435748053,1.0144494238492787,0.2668265312955715,-1.1111946953259408,-1.3824903330512346
2024-09-23 01:24:04.704823,41.49,6.467532,-0.012805606793919833,0.020366972435748053,1.0131688171448936,0.3062460483703762,-1.1637349838074296,-1.3956111311383546
2024-09-23 01:24:04.716818,41.49,6.467583,-0.01268358815700636,0.020366972435748053,1.0131688171448936,0.3062460483703762,-1.1637349838074296,-1.3956111311383546
2024-09-23 01:24:04.748821,41.49,6.467583,-0.01268358815700636,0.021098777423940302,1.015668979843093,0.3062460483703762,-1.1637349838074296,-1.3956111311383546
2024-09-23 01:24:04.760347,41.49,6.467634,-0.01268358815700636,0.021098777423940302,1.015668979843093,0.3018342781975865,-1.0937195433642715,-1.4087318225037306
2024-09-23 01:24:04.803460,41.49,6.467634,-0.013720285941093825,0.020549948366167105,1.0115833457456815,0.3062460483703762,-1.259991913703084,-1.3780785628784449
2024-09-23 01:24:04.845857,41.49,6.467721,-0.013720285941093825,0.020549948366167105,1.0115833457456815,0.3062460483703762,-1.259991913703084,-1.3780785628784449
2024-09-23 01:24:04.898278,41.49,6.467721,-0.011403058160943235,0.01914740125216718,1.011217527554791,0.3193667930966243,-1.259991913703084,-1.3780785628784449
2024-09-23 01:24:04.910405,41.49,6.467721,-0.011403058160943235,0.01914740125216718,1.011217527554791,0.3193667930966243,-1.203097164625302,-1.43932777255252
2024-09-23 01:24:04.943895,41.49,6.467868,-0.01164699290384454,0.01914740125216718,1.011217527554791,0.3193667930966243,-1.203097164625302,-1.43932777255252
2024-09-23 01:24:04.955297,41.49,6.467868,-0.01164699290384454,0.020062078880364497,1.0138396944596255,0.2362305812467821,-1.2293386540777982,-1.43932777255252
2024-09-23 01:24:04.997465,41.49,6.467919,-0.01408613603049462,0.021281651582922046,1.0137175930384832,0.2362305812467821,-1.2293386540777982,-1.4306188513599336
2024-09-23 01:24:05.009399,41.49,6.467919,-0.01408613603049462,0.021281651582922046,1.0137175930384832,0.3499627431454137,-1.2293386540777982,-1.4306188513599336
2024-09-23 01:24:05.042532,41.49,6.46797,-0.01408613603049462,0.021281651582922046,1.0137175930384832,0.3499627431454137,-1.0893650827679784,-1.434973311956227
2024-09-23 01:24:05.053483,41.49,6.46797,-0.013842202047081654,0.020427930488741967,1.0133517748475924,0.3499627431454137,-1.0893650827679784,-1.434973311956227
2024-09-23 01:24:05.095373,41.49,6.468021,-0.011524974266931064,0.018171764051999276,1.0133517748475924,0.3324875378228724,-1.1199610328167677,-1.3911993609655648
2024-09-23 01:24:05.188752,41.49,6.468021,-0.011524974266931064,0.018171764051999276,1.0173154047383688,0.3062460483703762,-1.1812102424908428,-1.3911993609655648
2024-09-23 01:24:05.200556,41.49,6.468113,-0.013537308491698099,0.018171764051999276,1.0173154047383688,0.3062460483703762,-1.1812102424908428,-1.4306188513599336
2024-09-23 01:24:05.243696,41.49,6.468208,-0.013537308491698099,0.022196330730096036,1.0108517093639005,0.3324875378228724,-1.1724439050000162,-1.3956111311383546
2024-09-23 01:24:05.287058,41.49,6.468208,-0.012256778495634975,0.019818144896951533,1.0123761300525411,0.3324875378228724,-1.1724439050000162,-1.3956111311383546
2024-09-23 01:24:05.298117,41.49,6.468208,-0.012256778495634975,0.019818144896951533,1.0123761300525411,0.3849704900474288,-1.1330817241821438,-1.3956111311383546
2024-09-23 01:24:05.341649,41.49,6.46826,-0.01433007153288426,0.01926931735815501,1.0145103773453428,0.35872900059493257,-1.1156065722204744,-1.3956111311383546
2024-09-23 01:24:05.384200,41.49,6.46831,-0.01536666678604608,0.01926931735815501,1.0145103773453428,0.35872900059493257,-1.1156065722204744,-1.496222521630302
2024-09-23 01:24:05.395392,41.49,6.46831,-0.01536666678604608,0.01823272210499319,1.0092051872541172,0.3280757409696467,-1.1156065722204744,-1.496222521630302
2024-09-23 01:24:05.437355,41.49,6.468405,-0.012500713238536278,0.020915799974544576,1.0107297051572652,0.3280757409696467,-1.1506142924420535,-1.4306188513599336
2024-09-23 01:24:05.481581,41.49,6.468405,-0.012500713238536278,0.020915799974544576,1.0107297051572652,0.42433269754573705,-1.203097164625302,-1.3343619214642792
2024-09-23 01:24:05.493110,41.49,6.468456,-0.012134760618209839,0.017013149402435646,1.0107297051572652,0.42433269754573705,-1.203097164625302,-1.3343619214642792
2024-09-23 01:24:05.535463,40.9,6.468507,-0.01219582044264106,0.017013149402435646,1.0168275823408433,0.3280757409696467,-1.1680894444037229,-1.413086283100024
2024-09-23 01:24:05.628529,40.9,6.468507,-0.01219582044264106,0.020306014382754138,1.0168275823408433,0.3280757409696467,-1.1680894444037229,-1.413086283100024
2024-09-23 01:24:05.681617,40.9,6.468598,-0.013537308491698099,0.020306014382754138,1.0144494238492787,0.39809120809324083,-1.0368247942864894,-1.3693696416858583
2024-09-23 01:24:05.723691,40.9,6.468598,-0.013537308491698099,0.019696228790963704,1.007985631260303,0.39809120809324083,-1.0368247942864894,-1.3693696416858583
2024-09-23 01:24:05.734839,40.9,6.46865,-0.013537308491698099,0.019696228790963704,1.007985631260303,0.37620423259790986,-1.0805987452771515,-1.3999655917346479
2024-09-23 01:24:05.778200,40.9,6.46865,-0.012500713238536278,0.021708563015730736,1.0112784810508548,0.38061600277069957,-1.0718325145080685,-1.404320052330941
2024-09-23 01:24:05.820837,40.9,6.4687,-0.010366361136344109,0.021708563015730736,1.0112784810508548,0.38061600277069957,-1.0718325145080685,-1.404320052330941
2024-09-23 01:24:05.832370,40.9,6.4687,-0.010366361136344109,0.022501222766502915,1.015973941752427,0.4155664400962181,-1.1462025222692638,-1.404320052330941
2024-09-23 01:24:05.874797,40.9,6.468751,-0.013354434332716355,0.016830173472016593,1.0109736163560281,0.4155664400962181,-1.1462025222692638,-1.4568603408124299
2024-09-23 01:24:05.886938,40.9,6.468751,-0.013354434332716355,0.016830173472016593,1.0109736163560281,0.3149550229238346,-1.1462025222692638,-1.4568603408124299
2024-09-23 01:24:05.918744,40.9,6.468751,-0.013354434332716355,0.016830173472016593,1.0109736163560281,0.3149550229238346,-1.1287272635858505,-1.3562488435987383
2024-09-23 01:24:05.930124,40.9,6.468892,-0.012500713238536278,0.021159735476934217,1.0136566395424191,0.3149550229238346,-1.1287272635858505,-1.3562488435987383
2024-09-23 01:24:05.973067,40.9,6.468943,-0.010671253932239326,0.019818144896951533,1.0136566395424191,0.27123832814879717,-1.1374934943549335,-1.3956111311383546
2024-09-23 01:24:06.016159,40.9,6.468943,-0.010671253932239326,0.019818144896951533,1.0132298678554648,0.3018342781975865,-1.1374934943549335,-1.3956111311383546
2024-09-23 01:24:06.027978,40.9,6.468994,-0.008902956221810903,0.019818144896951533,1.0132298678554648,0.3018342781975865,-1.207451731943339,-1.3649578715130686
2024-09-23 01:24:06.070309,40.9,6.468994,-0.008902956221810903,0.02201345505213762,1.0144494238492787,0.3499627431454137,-1.1287272635858505,-1.483101830264926
2024-09-23 01:24:06.081861,40.9,6.469086,-0.008902956221810903,0.02201345505213762,1.0144494238492787,0.3499627431454137,-1.1287272635858505,-1.483101830264926
2024-09-23 01:24:06.113731,40.9,6.469086,-0.012927522899907663,0.02134260963591596,1.0144494238492787,0.3499627431454137,-1.1287272635858505,-1.483101830264926
2024-09-23 01:24:06.124878,40.9,6.469086,-0.012927522899907663,0.02134260963591596,1.0117664006628877,0.27994727602181957,-1.1374934943549335,-1.4437395427253097
2024-09-23 01:24:06.168725,40.9,6.469137,-0.013842202047081654,0.020549948366167105,1.0149372462468045,0.4374534422719851,-1.0980740039605648,-1.4437395427253097
2024-09-23 01:24:06.210710,40.9,6.469188,-0.013842202047081654,0.020549948366167105,1.0149372462468045,0.4374534422719851,-1.0980740039605648,-1.3693696416858583
2024-09-23 01:24:06.222369,40.9,6.469188,-0.013598266544692013,0.022440264713509,1.0153641151482662,0.29306802074806765,-1.0980740039605648,-1.3693696416858583
2024-09-23 01:24:06.267050,40.9,6.469239,-0.01341539238571027,0.018476656088406155,1.0135956860463553,0.29306802074806765,-1.0937195433642715,-1.3693696416858583
2024-09-23 01:24:06.310290,40.9,6.469239,-0.01341539238571027,0.018476656088406155,1.0135956860463553,0.40244569536997005,-1.0980740039605648,-1.4087318225037306
2024-09-23 01:24:06.321738,40.9,6.469289,-0.012988480952901577,0.01975718684395762,1.0135956860463553,0.40244569536997005,-1.0980740039605648,-1.4087318225037306
2024-09-23 01:24:06.364316,40.9,6.46934,-0.009207849017706122,0.01975718684395762,1.0139616014517532,0.42433269754573705,-1.1680894444037229,-1.4787472629468887
2024-09-23 01:24:06.407169,40.9,6.46934,-0.009207849017706122,0.02067186599113161,1.0139006479556893,0.42433269754573705,-1.1680894444037229,-1.4787472629468887
2024-09-23 01:24:06.460900,40.9,6.469427,-0.012439653414105056,0.02164760496273682,1.0139006479556893,0.3368419984191656,-1.0980740039605648,-1.3387163820605725
2024-09-23 01:24:06.504101,40.9,6.469427,-0.012439653414105056,0.02164760496273682,1.0117664006628877,0.35872900059493257,-1.0980740039605648,-1.3387163820605725
2024-09-23 01:24:06.515909,40.9,6.469479,-0.014269113479890346,0.02164760496273682,1.0117664006628877,0.35872900059493257,-1.1374934943549335,-1.434973311956227
2024-09-23 01:24:06.559392,40.21,6.469529,-0.014269113479890346,0.021159735476934217,1.0118883076550156,0.4418652124447748,-1.0980740039605648,-1.43932777255252
2024-09-23 01:24:06.602812,40.21,6.469529,-0.012012843752733671,0.017196025080394063,1.0137175930384832,0.4418652124447748,-1.0980740039605648,-1.43932777255252
2024-09-23 01:24:06.614262,40.21,6.469529,-0.012012843752733671,0.017196025080394063,1.0137175930384832,0.3674952580444515,-1.1287272635858505,-1.4568603408124299
2024-09-23 01:24:06.698063,40.21,6.46958,-0.012012843752733671,0.017196025080394063,1.0137175930384832,0.3674952580444515,-1.1287272635858505,-1.4568603408124299
2024-09-23 01:24:06.709886,40.21,6.46958,-0.011586034850850625,0.019452293288574063,1.0125589905407328,0.29306802074806765,-1.1199610328167677,-1.4568603408124299
2024-09-23 01:24:06.753195,40.21,6.469672,-0.010915188675140628,0.024147706901869154,1.015486022140394,0.29306802074806765,-1.1199610328167677,-1.3474826128296553
2024-09-23 01:24:06.764739,40.21,6.469672,-0.010915188675140628,0.024147706901869154,1.015486022140394,0.31060053564710544,-1.1199610328167677,-1.3474826128296553
2024-09-23 01:24:06.796586,40.21,6.469672,-0.010915188675140628,0.024147706901869154,1.015486022140394,0.31060053564710544,-1.0630662837389857,-1.426207081187144
2024-09-23 01:24:06.807816,40.21,6.469723,-0.01408613603049462,0.02134260963591596,1.0144494238492787,0.31060053564710544,-1.0630662837389857,-1.426207081187144
2024-09-23 01:24:06.852143,40.21,6.469774,-0.008780937584897428,0.018171764051999276,1.0144494238492787,0.3149550229238346,-1.0762442846808582,-1.3649578715130686
2024-09-23 01:24:06.894736,40.21,6.469774,-0.008780937584897428,0.018171764051999276,1.0139006479556893,0.4418652124447748,-1.0893650827679784,-1.3649578715130686
2024-09-23 01:24:06.905975,40.21,6.469824,-0.011890927646745842,0.018171764051999276,1.0139006479556893,0.4418652124447748,-1.0893650827679784,-1.3868447936475277
2024-09-23 01:24:06.948047,40.21,6.469963,-0.011890927646745842,0.021098777423940302,1.0131078636488298,0.4155664400962181,-1.1111946953259408,-1.483101830264926
2024-09-23 01:24:06.992234,40.21,6.469963,-0.012927522899907663,0.0187205915907958,1.0131688171448936,0.4155664400962181,-1.1111946953259408,-1.483101830264926
2024-09-23 01:24:07.003703,40.21,6.469963,-0.012927522899907663,0.0187205915907958,1.0131688171448936,0.2843590461946093,-1.0762442846808582,-1.4306188513599336
2024-09-23 01:24:07.046355,40.21,6.470015,-0.014756881194255646,0.02012303845233509,1.0160348952484908,0.2843590461946093,-1.0762442846808582,-1.4306188513599336
2024-09-23 01:24:07.058139,40.21,6.470015,-0.014756881194255646,0.02012303845233509,1.0160348952484908,0.2843590461946093,-1.1549687530383468,-1.4306188513599336
2024-09-23 01:24:07.091030,40.21,6.470065,-0.013720285941093825,0.02012303845233509,1.0160348952484908,0.2843590461946093,-1.1549687530383468,-1.4787472629468887
2024-09-23 01:24:07.102273,40.21,6.470065,-0.013720285941093825,0.01890346574977754,1.014205512650516,0.29306802074806765,-1.1549687530383468,-1.4787472629468887
2024-09-23 01:24:07.145286,40.21,6.470116,-0.012012843752733671,0.01835463821098102,1.01426646614658,0.29306802074806765,-1.1068402347296475,-1.3562488435987383
2024-09-23 01:24:07.187837,40.21,6.470116,-0.012012843752733671,0.01835463821098102,1.01426646614658,0.3411964856958948,-1.1287272635858505,-1.3956111311383546
2024-09-23 01:24:07.199227,40.21,6.470167,-0.011890927646745842,0.021464627513341095,1.01426646614658,0.3411964856958948,-1.1287272635858505,-1.3956111311383546
2024-09-23 01:24:07.242117,40.21,6.470218,-0.011281142054955407,0.021464627513341095,1.0097540603622142,0.3674952580444515,-1.2336931146740913,-1.4655692620050162
2024-09-23 01:24:07.284301,40.21,6.470218,-0.011281142054955407,0.02018409827676631,1.0136566395424191,0.3674952580444515,-1.2336931146740913,-1.4655692620050162
2024-09-23 01:24:07.296191,40.21,6.470304,-0.011281142054955407,0.02018409827676631,1.0136566395424191,0.3018342781975865,-1.0412365644592791,-1.4437395427253097
2024-09-23 01:24:07.339475,40.21,6.470304,-0.011524974266931064,0.02134260963591596,1.0177422736398305,0.3543172304221429,-1.0937195433642715,-1.3956111311383546
2024-09-23 01:24:07.381448,40.21,6.470356,-0.010366361136344109,0.02134260963591596,1.0177422736398305,0.3543172304221429,-1.0937195433642715,-1.3956111311383546
2024-09-23 01:24:07.392527,40.21,6.470356,-0.010366361136344109,0.02189143717471248,1.0098759673543418,0.3324875378228724,-1.1156065722204744,-1.3956111311383546
2024-09-23 01:24:07.435445,40.21,6.470407,-0.011281142054955407,0.0173180429578192,1.0157299333391567,0.41121195281948897,-1.1156065722204744,-1.3824903330512346
2024-09-23 01:24:07.478421,40.21,6.470407,-0.011281142054955407,0.0173180429578192,1.0157299333391567,0.41121195281948897,-1.1111946953259408,-1.3518370734259486
2024-09-23 01:24:07.489478,40.21,6.470457,-0.014756881194255646,0.020001120827370582,1.0126809947473678,0.41121195281948897,-1.1111946953259408,-1.3518370734259486
2024-09-23 01:24:07.532050,40.21,6.470508,-0.011586034850850625,0.020001120827370582,1.0126809947473678,0.3411964856958948,-1.0980740039605648,-1.3649578715130686
2024-09-23 01:24:07.543613,40.21,6.470508,-0.011586034850850625,0.020062078880364497,1.0126809947473678,0.3411964856958948,-1.0980740039605648,-1.3649578715130686
2024-09-23 01:24:07.576018,40.35,6.470508,-0.011586034850850625,0.020062078880364497,1.0146322843374704,0.3674952580444515,-1.0980740039605648,-1.3649578715130686
2024-09-23 01:24:07.587503,40.35,6.470559,-0.013293374508285133,0.020062078880364497,1.0146322843374704,0.3674952580444515,-1.0587118231426924,-1.3037086618389935
2024-09-23 01:24:07.630520,40.35,6.470646,-0.013293374508285133,0.018415698035412244,1.0151811574455674,0.3237212803733535,-1.1506142924420535,-1.4437395427253097
2024-09-23 01:24:07.673223,40.35,6.470646,-0.012134760618209839,0.01914740125216718,1.0151811574455674,0.3237212803733535,-1.1506142924420535,-1.4437395427253097
2024-09-23 01:24:07.684711,40.35,6.470646,-0.012134760618209839,0.01914740125216718,1.0165836711420804,0.29747979092085736,-1.224984193481505,-1.5005769822265953
2024-09-23 01:24:07.727544,40.35,6.470697,-0.012805606793919833,0.02189143717471248,1.013778546534547,0.3149550229238346,-1.224984193481505,-1.5005769822265953
2024-09-23 01:24:07.740389,40.35,6.470697,-0.012805606793919833,0.02189143717471248,1.013778546534547,0.3149550229238346,-1.207451731943339,-1.5005769822265953
2024-09-23 01:24:07.772455,40.35,6.470748,-0.012012843752733671,0.02189143717471248,1.013778546534547,0.3149550229238346,-1.207451731943339,-1.496222521630302
2024-09-23 01:24:07.784188,40.35,6.470748,-0.012012843752733671,0.018598572194393984,1.0128639524500669,0.3849704900474288,-1.207451731943339,-1.496222521630302
2024-09-23 01:24:07.818097,40.35,6.470748,-0.012012843752733671,0.018598572194393984,1.0128639524500669,0.3849704900474288,-1.1418479549512268,-1.496222521630302
2024-09-23 01:24:07.829373,40.35,6.470799,-0.013293374508285133,0.020549948366167105,1.0120712653577144,0.3849704900474288,-1.1418479549512268,-1.474335492774099
2024-09-23 01:24:07.871362,40.35,6.470849,-0.013293374508285133,0.020549948366167105,1.0120712653577144,0.3630834878716618,-1.3430708426568656,-1.4306188513599336
2024-09-23 01:24:07.882604,40.35,6.470849,-0.015915494324842603,0.019818144896951533,1.0120712653577144,0.3630834878716618,-1.3430708426568656,-1.4306188513599336
2024-09-23 01:24:07.925245,40.35,6.4709,-0.012622630104012445,0.019818144896951533,1.0183521002439913,0.35872900059493257,-1.1855647030871361,-1.3824903330512346
2024-09-23 01:24:07.968129,40.35,6.4709,-0.012622630104012445,0.019086441680196593,1.0151202039495033,0.35872900059493257,-1.1855647030871361,-1.3824903330512346
2024-09-23 01:24:07.979670,40.35,6.470987,-0.012622630104012445,0.019086441680196593,1.0151202039495033,0.3456082558686845,-1.1330817241821438,-1.3693696416858583
2024-09-23 01:24:08.022395,40.35,6.470987,-0.012317737308117227,0.01853761414140007,1.01542506864433,0.27994727602181957,-1.1243154934130608,-1.4174980532728136
2024-09-23 01:24:08.064879,40.35,6.471039,-0.012744546969488612,0.017744852619190586,1.01542506864433,0.27994727602181957,-1.1243154934130608,-1.4174980532728136
2024-09-23 01:24:08.080516,40.35,6.471039,-0.012744546969488612,0.017744852619190586,1.0146933350480416,0.3193667930966243,-1.1724439050000162,-1.4174980532728136
2024-09-23 01:24:08.112239,40.35,6.471089,-0.012744546969488612,0.017744852619190586,1.0146933350480416,0.3193667930966243,-1.1724439050000162,-1.4787472629468887
2024-09-23 01:24:08.123502,40.35,6.471089,-0.01433007153288426,0.021281651582922046,1.0131688171448936,0.29306802074806765,-1.1724439050000162,-1.4787472629468887
2024-09-23 01:24:08.166454,40.35,6.47114,-0.007317430898926916,0.020366972435748053,1.0108517093639005,0.29306802074806765,-1.1462025222692638,-1.4874562908612192
2024-09-23 01:24:08.209247,40.35,6.47114,-0.007317430898926916,0.020366972435748053,1.0108517093639005,0.3149550229238346,-1.1330817241821438,-1.4874562908612192
2024-09-23 01:24:08.221044,40.35,6.471191,-0.015122834574070423,0.020062078880364497,1.0108517093639005,0.3149550229238346,-1.1330817241821438,-1.4087318225037306
2024-09-23 01:24:08.263019,40.35,6.471241,-0.015122834574070423,0.020062078880364497,1.0121322188537785,0.3411964856958948,-1.0630662837389857,-1.434973311956227
2024-09-23 01:24:08.274656,40.35,6.471241,-0.015915494324842603,0.020062078880364497,1.0121322188537785,0.3411964856958948,-1.0630662837389857,-1.434973311956227
2024-09-23 01:24:08.307138,40.35,6.471241,-0.015915494324842603,0.02067186599113161,1.0137175930384832,0.3411964856958948,-1.0630662837389857,-1.434973311956227
2024-09-23 01:24:08.318615,40.35,6.471328,-0.015915494324842603,0.02067186599113161,1.0137175930384832,0.24935132597303017,-1.1330817241821438,-1.4087318225037306
2024-09-23 01:24:08.360256,40.35,6.471328,-0.010305402323861856,0.019330377182586234,1.0133517748475924,0.3324875378228724,-1.1724439050000162,-1.4087318225037306
2024-09-23 01:24:08.371994,40.35,6.471328,-0.010305402323861856,0.019330377182586234,1.0133517748475924,0.3324875378228724,-1.1724439050000162,-1.469981032177806
2024-09-23 01:24:08.403809,40.35,6.47138,-0.010305402323861856,0.019330377182586234,1.0133517748475924,0.3324875378228724,-1.1724439050000162,-1.469981032177806
2024-09-23 01:24:08.416450,40.35,6.47138,-0.012744546969488612,0.021708563015730736,1.0176202694331955,0.4155664400962181,-1.0849533125951887,-1.469981032177806
2024-09-23 01:24:08.458575,40.35,6.471431,-0.011768909009832369,0.021464627513341095,1.0139006479556893,0.4155664400962181,-1.0849533125951887,-1.56623796207346
2024-09-23 01:24:08.470494,40.35,6.471431,-0.011768909009832369,0.021464627513341095,1.0139006479556893,0.3456082558686845,-1.0849533125951887,-1.56623796207346
2024-09-23 01:24:08.502549,40.35,6.471431,-0.011768909009832369,0.021464627513341095,1.0139006479556893,0.3456082558686845,-1.0718325145080685,-1.4218526205908506
2024-09-23 01:24:08.513655,40.35,6.471481,-0.012012843752733671,0.02213537267710212,1.0143274196426437,0.3456082558686845,-1.0718325145080685,-1.4218526205908506
2024-09-23 01:24:08.558143,40.35,6.471532,-0.014695923141261731,0.019879204721382753,1.0143274196426437,0.2843590461946093,-1.1549687530383468,-1.4218526205908506
2024-09-23 01:24:08.601927,40.53,6.471532,-0.014695923141261731,0.019879204721382753,1.0143274196426437,0.3280757409696467,-1.1462025222692638,-1.4218526205908506
2024-09-23 01:24:08.614033,40.53,6.471583,-0.012866564846913748,0.019879204721382753,1.0143274196426437,0.3280757409696467,-1.1462025222692638,-1.3474826128296553
2024-09-23 01:24:08.646356,40.53,6.471583,-0.012866564846913748,0.020245056329760223,1.0143274196426437,0.3280757409696467,-1.1462025222692638,-1.3474826128296553
2024-09-23 01:24:08.657941,40.53,6.47167,-0.012866564846913748,0.020245056329760223,1.0150592504534395,0.3368419984191656,-1.1330817241821438,-1.3255955839734523
2024-09-23 01:24:08.699823,40.53,6.47167,-0.012134760618209839,0.01963527073796979,1.0123761300525411,0.3193667930966243,-1.1330817241821438,-1.3255955839734523
2024-09-23 01:24:08.711638,40.53,6.47167,-0.012134760618209839,0.01963527073796979,1.0123761300525411,0.3193667930966243,-1.1330817241821438,-1.3606034109167755
2024-09-23 01:24:08.743854,40.53,6.471721,-0.012134760618209839,0.01963527073796979,1.0123761300525411,0.3193667930966243,-1.1330817241821438,-1.3606034109167755
2024-09-23 01:24:08.755678,40.53,6.471721,-0.01585453627184869,0.020001120827370582,1.0149982969573756,0.27559278874509036,-1.0455910250555724,-1.3606034109167755
2024-09-23 01:24:08.797828,40.53,6.471721,-0.01585453627184869,0.020001120827370582,1.0149982969573756,0.27559278874509036,-1.0455910250555724,-1.3606034109167755
2024-09-23 01:24:08.851474,40.53,6.471772,-0.013110498830326714,0.02365983741606655,1.015608026347029,0.35872900059493257,-1.1068402347296475,-1.3606034109167755
2024-09-23 01:24:08.894052,40.53,6.471822,-0.01182986782231462,0.02365983741606655,1.015608026347029,0.35872900059493257,-1.1068402347296475,-1.3212411233771593
2024-09-23 01:24:08.905963,40.53,6.471822,-0.01182986782231462,0.018171764051999276,1.01426646614658,0.29747979092085736,-1.1068402347296475,-1.3212411233771593
2024-09-23 01:24:08.949097,40.53,6.471873,-0.014391029585878175,0.020610907938137694,1.0137175930384832,0.29747979092085736,-1.2336931146740913,-1.5005769822265953
2024-09-23 01:24:08.992261,40.53,6.471924,-0.014391029585878175,0.020610907938137694,1.0137175930384832,0.26247207069927825,-1.1724439050000162,-1.4218526205908506
2024-09-23 01:24:09.004369,40.53,6.471924,-0.012988480952901577,0.02262324216290473,1.0137175930384832,0.26247207069927825,-1.1724439050000162,-1.4218526205908506
2024-09-23 01:24:09.036483,40.53,6.471924,-0.012988480952901577,0.02262324216290473,1.0128639524500669,0.26247207069927825,-1.1724439050000162,-1.4218526205908506
2024-09-23 01:24:09.047872,40.53,6.472011,-0.013110498830326714,0.02262324216290473,1.0128639524500669,0.31060053564710544,-1.1374934943549335,-1.3737241022821516
2024-09-23 01:24:09.091543,40.53,6.472011,-0.013110498830326714,0.01890346574977754,1.0143883731387076,0.3543172304221429,-1.1987427040290088,-1.3737241022821516
2024-09-23 01:24:09.104058,40.53,6.472108,-0.013110498830326714,0.01890346574977754,1.0143883731387076,0.3543172304221429,-1.1987427040290088,-1.4174980532728136
2024-09-23 01:24:09.136839,40.53,6.472108,-0.012256778495634975,0.018476656088406155,1.0143883731387076,0.3543172304221429,-1.1987427040290088,-1.4174980532728136
2024-09-23 01:24:09.189075,40.53,6.47216,-0.012256778495634975,0.018476656088406155,1.0162178529511898,0.40685746554275976,-1.1199610328167677,-1.4174980532728136
2024-09-23 01:24:09.200867,40.53,6.47216,-0.012500713238536278,0.018476656088406155,1.0162178529511898,0.40685746554275976,-1.1199610328167677,-1.4174980532728136
2024-09-23 01:24:09.233861,40.53,6.47216,-0.012500713238536278,0.020306014382754138,1.0145103773453428,0.40685746554275976,-1.1199610328167677,-1.4174980532728136
2024-09-23 01:24:09.245667,40.53,6.472211,-0.012500713238536278,0.020306014382754138,1.0145103773453428,0.3411964856958948,-1.1068402347296475,-1.469981032177806
2024-09-23 01:24:09.288587,40.53,6.472211,-0.012988480952901577,0.021159735476934217,1.015608026347029,0.3149550229238346,-1.0718325145080685,-1.469981032177806
2024-09-23 01:24:09.300418,40.53,6.472211,-0.012988480952901577,0.021159735476934217,1.015608026347029,0.3149550229238346,-1.0718325145080685,-1.404320052330941
2024-09-23 01:24:09.332048,40.53,6.472261,-0.010488379013769245,0.021159735476934217,1.015608026347029,0.3149550229238346,-1.0718325145080685,-1.404320052330941
2024-09-23 01:24:09.342963,40.53,6.472261,-0.010488379013769245,0.02012303845233509,1.0145713308414066,0.3324875378228724,-1.0849533125951887,-1.404320052330941
2024-09-23 01:24:09.385861,40.53,6.472312,-0.011707950956838454,0.018598572194393984,1.0163397599433175,0.3324875378228724,-1.0849533125951887,-1.43932777255252
2024-09-23 01:24:09.397536,40.53,6.472312,-0.011707950956838454,0.018598572194393984,1.0163397599433175,0.38061600277069957,-1.0849533125951887,-1.43932777255252
2024-09-23 01:24:09.431220,40.53,6.472402,-0.011707950956838454,0.018598572194393984,1.0163397599433175,0.38061600277069957,-1.1462025222692638,-1.3824903330512346
2024-09-23 01:24:09.442887,40.53,6.472402,-0.010000509527966639,0.020366972435748053,1.0128639524500669,0.38061600277069957,-1.1462025222692638,-1.3824903330512346
2024-09-23 01:24:09.474757,40.53,6.472402,-0.010000509527966639,0.020366972435748053,1.0128639524500669,0.31060053564710544,-1.1462025222692638,-1.3824903330512346
2024-09-23 01:24:09.486344,40.53,6.472453,-0.015183792627064338,0.01926931735815501,1.0128639524500669,0.31060053564710544,-1.1243154934130608,-1.4174980532728136
2024-09-23 01:24:09.528355,40.53,6.472453,-0.015183792627064338,0.01926931735815501,1.0138396944596255,0.35872900059493257,-1.1680894444037229,-1.4174980532728136
2024-09-23 01:24:09.540156,40.53,6.472504,-0.01536666678604608,0.01926931735815501,1.0138396944596255,0.35872900059493257,-1.1680894444037229,-1.483101830264926
2024-09-23 01:24:09.582846,40.53,6.472596,-0.01536666678604608,0.02140366946034718,1.0148152420401695,0.3411964856958948,-1.1243154934130608,-1.3562488435987383
2024-09-23 01:24:09.625295,40.84,6.472596,-0.01341539238571027,0.020366972435748053,1.0121931723498423,0.3411964856958948,-1.1243154934130608,-1.3562488435987383
2024-09-23 01:24:09.636789,40.84,6.472596,-0.01341539238571027,0.020366972435748053,1.0121931723498423,0.19686837374847382,-1.2118635021161288,-1.413086283100024
2024-09-23 01:24:09.679184,40.84,6.472647,-0.013354434332716355,0.021830479121718566,1.0137175930384832,0.2537058132497594,-1.1330817241821438,-1.413086283100024
2024-09-23 01:24:09.722485,40.84,6.472698,-0.01365932788809991,0.021830479121718566,1.0137175930384832,0.2537058132497594,-1.1330817241821438,-1.3080631224352866
2024-09-23 01:24:09.734291,40.84,6.472698,-0.01365932788809991,0.02152558556633501,1.011034569852092,0.3368419984191656,-1.1330817241821438,-1.3080631224352866
2024-09-23 01:24:09.768657,40.84,6.472698,-0.01365932788809991,0.02152558556633501,1.011034569852092,0.3368419984191656,-1.0980740039605648,-1.3080631224352866
2024-09-23 01:24:09.780187,40.84,6.472698,-0.01365932788809991,0.02152558556633501,1.011034569852092,0.3368419984191656,-1.0980740039605648,-1.3343619214642792
2024-09-23 01:24:09.822017,40.84,6.472749,-0.014025177977500705,0.018293680157987106,1.0088393690632267,0.3368419984191656,-1.0980740039605648,-1.3343619214642792
2024-09-23 01:24:09.834009,40.84,6.472749,-0.014025177977500705,0.018293680157987106,1.0088393690632267,0.3018342781975865,-1.15932321363464,-1.3343619214642792
2024-09-23 01:24:09.866542,40.84,6.472749,-0.014025177977500705,0.018293680157987106,1.0088393690632267,0.3018342781975865,-1.15932321363464,-1.3956111311383546
2024-09-23 01:24:09.878051,40.84,6.472799,-0.013354434332716355,0.02189143717471248,1.012742045457939,0.3411964856958948,-1.15932321363464,-1.3956111311383546
2024-09-23 01:24:09.921216,40.84,6.47285,-0.012622630104012445,0.02207441310513153,1.012742045457939,0.3411964856958948,-1.1899764732599258,-1.491868061034009
2024-09-23 01:24:09.933406,40.84,6.47285,-0.012622630104012445,0.02207441310513153,1.0125589905407328,0.3411964856958948,-1.1899764732599258,-1.491868061034009
2024-09-23 01:24:09.966541,40.84,6.47285,-0.012622630104012445,0.02207441310513153,1.0125589905407328,0.3411964856958948,-1.0805987452771515,-1.3518370734259486
2024-09-23 01:24:09.978213,40.84,6.472937,-0.012439653414105056,0.023903771399479513,1.0125589905407328,0.3411964856958948,-1.0805987452771515,-1.3518370734259486
2024-09-23 01:24:10.021674,40.84,6.472988,-0.005975942849869878,0.023903771399479513,1.012742045457939,0.3368419984191656,-1.207451731943339,-1.4174980532728136
2024-09-23 01:24:10.064018,40.84,6.472988,-0.005975942849869878,0.02176952106872465,1.0123761300525411,0.3237212803733535,-1.207451731943339,-1.4174980532728136
2024-09-23 01:24:10.075639,40.84,6.473083,-0.005975942849869878,0.02176952106872465,1.0123761300525411,0.3237212803733535,-1.1068402347296475,-1.4655692620050162
2024-09-23 01:24:10.108814,40.84,6.473083,-0.013476350438704184,0.02176952106872465,1.0123761300525411,0.3237212803733535,-1.1068402347296475,-1.4655692620050162
2024-09-23 01:24:10.120521,40.84,6.473083,-0.013476350438704184,0.021281651582922046,1.0135956860463553,0.29747979092085736,-1.1506142924420535,-1.2774671723864972
2024-09-23 01:24:10.162820,40.84,6.473135,-0.01164699290384454,0.020793883868556746,1.0101198785531047,0.29747979092085736,-1.1506142924420535,-1.2774671723864972
2024-09-23 01:24:10.174272,40.84,6.473135,-0.01164699290384454,0.020793883868556746,1.0101198785531047,0.29306802074806765,-1.1506142924420535,-1.2774671723864972
2024-09-23 01:24:10.205934,40.84,6.473135,-0.01164699290384454,0.020793883868556746,1.0101198785531047,0.29306802074806765,-1.1506142924420535,-1.404320052330941
2024-09-23 01:24:10.217342,40.84,6.473186,-0.013476350438704184,0.020062078880364497,1.01426646614658,0.29747979092085736,-1.1506142924420535,-1.404320052330941
2024-09-23 01:24:10.259853,40.84,6.473236,-0.013476350438704184,0.020062078880364497,1.01426646614658,0.29747979092085736,-1.0980740039605648,-1.3737241022821516
2024-09-23 01:24:10.270776,40.84,6.473236,-0.015976452377836518,0.019696228790963704,1.0136566395424191,0.29747979092085736,-1.0980740039605648,-1.3737241022821516
2024-09-23 01:24:10.313077,40.84,6.473287,-0.013842202047081654,0.01890346574977754,1.0136566395424191,0.2405850685235113,-1.1855647030871361,-1.3999655917346479
2024-09-23 01:24:10.355762,40.84,6.473287,-0.013842202047081654,0.01890346574977754,1.012925003160638,0.37620423259790986,-1.2424594521649182,-1.3999655917346479
2024-09-23 01:24:10.367115,40.84,6.473338,-0.011403058160943235,0.01890346574977754,1.012925003160638,0.37620423259790986,-1.2424594521649182,-1.4524485706396402
2024-09-23 01:24:10.410300,40.84,6.473424,-0.011403058160943235,0.020427930488741967,1.014022554947817,0.3149550229238346,-1.1812102424908428,-1.3562488435987383
2024-09-23 01:24:10.452729,40.84,6.473424,-0.014025177977500705,0.020427930488741967,1.014022554947817,0.3149550229238346,-1.1812102424908428,-1.3562488435987383
2024-09-23 01:24:10.464792,40.84,6.473424,-0.014025177977500705,0.020427930488741967,1.0143883731387076,0.3456082558686845,-1.1243154934130608,-1.3999655917346479
2024-09-23 01:24:10.508465,40.84,6.473476,-0.015000815177668611,0.02207441310513153,1.0148152420401695,0.3280757409696467,-1.0368247942864894,-1.3999655917346479
2024-09-23 01:24:10.551148,40.84,6.473527,-0.015305708733052167,0.02207441310513153,1.0148152420401695,0.3280757409696467,-1.0368247942864894,-1.4437395427253097
2024-09-23 01:24:10.562935,40.84,6.473527,-0.015305708733052167,0.01926931735815501,1.0145103773453428,0.3018342781975865,-1.0368247942864894,-1.4437395427253097
2024-09-23 01:24:10.605845,40.84,6.473577,-0.015061773230662524,0.020306014382754138,1.0173154047383688,0.3018342781975865,-1.0630662837389857,-1.3212411233771593
2024-09-23 01:24:10.648330,40.76,6.473577,-0.015061773230662524,0.020306014382754138,1.0173154047383688,0.3193667930966243,-1.1374934943549335,-1.483101830264926
2024-09-23 01:24:10.659496,40.76,6.473628,-0.01433007153288426,0.01963527073796979,1.0173154047383688,0.3193667930966243,-1.1374934943549335,-1.483101830264926
2024-09-23 01:24:10.701244,40.76,6.473679,-0.01433007153288426,0.01963527073796979,1.0152421109416312,0.2581175834225491,-1.0980740039605648,-1.43932777255252
2024-09-23 01:24:10.713454,40.76,6.473679,-0.013110498830326714,0.01963527073796979,1.0152421109416312,0.2581175834225491,-1.0980740039605648,-1.43932777255252
2024-09-23 01:24:10.746407,40.76,6.473679,-0.013110498830326714,0.02085484192155066,1.0121931723498423,0.35872900059493257,-1.0980740039605648,-1.43932777255252
2024-09-23 01:24:10.758169,40.76,6.473766,-0.013110498830326714,0.02085484192155066,1.0121931723498423,0.35872900059493257,-1.0630662837389857,-1.3999655917346479
2024-09-23 01:24:10.801232,40.76,6.473766,-0.011707950956838454,0.02140366946034718,1.0121931723498423,0.35872900059493257,-1.0630662837389857,-1.3999655917346479
2024-09-23 01:24:10.843673,40.76,6.473766,-0.011707950956838454,0.02140366946034718,1.0149982969573756,0.3280757409696467,-1.0805987452771515,-1.3999655917346479
2024-09-23 01:24:10.855239,40.76,6.473817,-0.014756881194255646,0.02140366946034718,1.0149982969573756,0.3280757409696467,-1.0805987452771515,-1.3255955839734523
2024-09-23 01:24:10.898016,40.76,6.473868,-0.014756881194255646,0.02164760496273682,1.015668979843093,0.26247207069927825,-1.0718325145080685,-1.3606034109167755
2024-09-23 01:24:10.942133,40.76,6.473868,-0.010061467580960552,0.020245056329760223,1.0107906586533293,0.26247207069927825,-1.0718325145080685,-1.3606034109167755
2024-09-23 01:24:10.954834,40.76,6.473868,-0.010061467580960552,0.020245056329760223,1.0107906586533293,0.3193667930966243,-1.1111946953259408,-1.4087318225037306
2024-09-23 01:24:10.987648,40.76,6.473919,-0.010061467580960552,0.020245056329760223,1.0107906586533293,0.3193667930966243,-1.1111946953259408,-1.4087318225037306
2024-09-23 01:24:10.999305,40.76,6.473919,-0.012805606793919833,0.02201345505213762,1.0113394345469187,0.38061600277069957,-1.1549687530383468,-1.4087318225037306
2024-09-23 01:24:11.041447,40.76,6.473969,-0.01396421992450679,0.019696228790963704,1.0140835084438808,0.38061600277069957,-1.1549687530383468,-1.56623796207346
2024-09-23 01:24:11.053397,40.76,6.473969,-0.01396421992450679,0.019696228790963704,1.0140835084438808,0.3193667930966243,-1.1549687530383468,-1.56623796207346
2024-09-23 01:24:11.086200,40.76,6.473969,-0.01396421992450679,0.019696228790963704,1.0140835084438808,0.3193667930966243,-1.1111946953259408,-1.3999655917346479
2024-09-23 01:24:11.097708,40.76,6.47406,-0.013171458402297304,0.01963527073796979,1.0152421109416312,0.3193667930966243,-1.1111946953259408,-1.3999655917346479
2024-09-23 01:24:11.140422,40.76,6.474111,-0.013842202047081654,0.01963527073796979,1.0152421109416312,0.26247207069927825,-1.2118635021161288,-1.4306188513599336
2024-09-23 01:24:11.152667,40.76,6.474111,-0.013842202047081654,0.02067186599113161,1.0152421109416312,0.26247207069927825,-1.2118635021161288,-1.4306188513599336
2024-09-23 01:24:11.184475,40.76,6.474111,-0.013842202047081654,0.02067186599113161,1.012925003160638,0.3324875378228724,-1.2118635021161288,-1.4306188513599336
2024-09-23 01:24:11.195501,40.76,6.474161,-0.01146401621393715,0.02067186599113161,1.012925003160638,0.3324875378228724,-1.0893650827679784,-1.539996472620964
2024-09-23 01:24:11.238325,40.76,6.474161,-0.01146401621393715,0.01835463821098102,1.0117664006628877,0.37184974532118065,-1.2205724233087152,-1.3737241022821516
2024-09-23 01:24:11.250743,40.76,6.474253,-0.01146401621393715,0.01835463821098102,1.0117664006628877,0.37184974532118065,-1.2205724233087152,-1.3737241022821516
2024-09-23 01:24:11.283969,40.76,6.474253,-0.010122528164880112,0.022501222766502915,1.0157299333391567,0.3280757409696467,-1.2205724233087152,-1.3737241022821516
2024-09-23 01:24:11.295289,40.76,6.474253,-0.010122528164880112,0.022501222766502915,1.0157299333391567,0.3280757409696467,-1.1418479549512268,-1.4174980532728136
2024-09-23 01:24:11.328178,40.76,6.474305,-0.010122528164880112,0.022501222766502915,1.0157299333391567,0.3280757409696467,-1.1418479549512268,-1.4174980532728136
2024-09-23 01:24:11.339465,40.76,6.474305,-0.013232416455291218,0.02152558556633501,1.012742045457939,0.40685746554275976,-1.1243154934130608,-1.4174980532728136
2024-09-23 01:24:11.383131,40.76,6.474356,-0.013293374508285133,0.022501222766502915,1.0111565740587272,0.40685746554275976,-1.1243154934130608,-1.4437395427253097
2024-09-23 01:24:11.394745,40.76,6.474356,-0.013293374508285133,0.022501222766502915,1.0111565740587272,0.3018342781975865,-1.1243154934130608,-1.4437395427253097
2024-09-23 01:24:11.427334,40.76,6.474356,-0.013293374508285133,0.022501222766502915,1.0111565740587272,0.3018342781975865,-1.1199610328167677,-1.3956111311383546
2024-09-23 01:24:11.438614,40.76,6.474406,-0.013293374508285133,0.02067186599113161,1.0158518403312846,0.3018342781975865,-1.1199610328167677,-1.3956111311383546
2024-09-23 01:24:11.482369,40.76,6.474457,-0.013598266544692013,0.02067186599113161,1.0158518403312846,0.3368419984191656,-1.0368247942864894,-1.4087318225037306
2024-09-23 01:24:11.493961,40.76,6.474457,-0.013598266544692013,0.020427930488741967,1.0158518403312846,0.3368419984191656,-1.0368247942864894,-1.4087318225037306
2024-09-23 01:24:11.526302,40.76,6.474457,-0.013598266544692013,0.020427930488741967,1.0149982969573756,0.3368419984191656,-1.0455910250555724,-1.4087318225037306
2024-09-23 01:24:11.537974,40.76,6.474508,-0.014695923141261731,0.020427930488741967,1.0149982969573756,0.3368419984191656,-1.0455910250555724,-1.4174980532728136
2024-09-23 01:24:11.580183,40.76,6.474594,-0.014695923141261731,0.020062078880364497,1.0150592504534395,0.3280757409696467,-1.2118635021161288,-1.3255955839734523
2024-09-23 01:24:11.624431,40.76,6.474594,-0.01750101888823825,0.02164760496273682,1.0148152420401695,0.3280757409696467,-1.2118635021161288,-1.3255955839734523
2024-09-23 01:24:11.636392,40.76,6.474594,-0.01750101888823825,0.02164760496273682,1.0148152420401695,0.41997821026900783,-1.1418479549512268,-1.43932777255252
2024-09-23 01:24:11.679250,41.28,6.474646,-0.015305708733052167,0.023781855293491683,1.015608026347029,0.2318188110739924,-1.2205724233087152,-1.43932777255252
2024-09-23 01:24:11.721403,41.28,6.474697,-0.012988480952901577,0.023781855293491683,1.015608026347029,0.2318188110739924,-1.2205724233087152,-1.3780785628784449
2024-09-23 01:24:11.732968,41.28,6.474697,-0.012988480952901577,0.024574515044263865,1.0104247432479314,0.3411964856958948,-1.2205724233087152,-1.3780785628784449
2024-09-23 01:24:11.775492,41.28,6.474747,-0.012500713238536278,0.020610907938137694,1.010668654446694,0.3411964856958948,-1.1068402347296475,-1.496222521630302
2024-09-23 01:24:11.869775,41.28,6.474798,-0.012500713238536278,0.020610907938137694,1.010668654446694,0.3456082558686845,-1.1987427040290088,-1.4524485706396402
2024-09-23 01:24:11.881801,41.28,6.474798,-0.010244444270867941,0.020610907938137694,1.010668654446694,0.3456082558686845,-1.1987427040290088,-1.4524485706396402
2024-09-23 01:24:11.913871,41.28,6.474798,-0.010244444270867941,0.020549948366167105,1.010668654446694,0.3456082558686845,-1.1987427040290088,-1.4524485706396402
2024-09-23 01:24:11.924933,41.28,6.474849,-0.010244444270867941,0.020549948366167105,1.012925003160638,0.2581175834225491,-1.2512256829340012,-1.483101830264926
2024-09-23 01:24:11.967949,41.28,6.474849,-0.013110498830326714,0.020549948366167105,1.0143274196426437,0.2581175834225491,-1.2512256829340012,-1.483101830264926
2024-09-23 01:24:11.979731,41.28,6.474849,-0.013110498830326714,0.020549948366167105,1.0143274196426437,0.3324875378228724,-1.0893650827679784,-1.461214801408723
2024-09-23 01:24:12.012207,41.28,6.474936,-0.01536666678604608,0.020549948366167105,1.0143274196426437,0.3324875378228724,-1.0893650827679784,-1.461214801408723
2024-09-23 01:24:12.024145,41.28,6.474936,-0.01536666678604608,0.02122069352992813,1.0144494238492787,0.3237212803733535,-1.1943309338562191,-1.461214801408723
2024-09-23 01:24:12.067222,41.28,6.474987,-0.012805606793919833,0.020732824044125523,1.0165227176460165,0.37184974532118065,-1.1943309338562191,-1.474335492774099
2024-09-23 01:24:12.109732,41.28,6.474987,-0.012805606793919833,0.020732824044125523,1.0165227176460165,0.37184974532118065,-1.207451731943339,-1.4437395427253097
2024-09-23 01:24:12.121099,41.28,6.475083,-0.014208053655459124,0.020001120827370582,1.0149982969573756,0.37184974532118065,-1.207451731943339,-1.4437395427253097
2024-09-23 01:24:12.163486,41.28,6.475134,-0.01445198763887209,0.020001120827370582,1.0149982969573756,0.3674952580444515,-1.1111946953259408,-1.469981032177806
2024-09-23 01:24:12.176285,41.28,6.475134,-0.01445198763887209,0.019818144896951533,1.0149982969573756,0.3674952580444515,-1.1111946953259408,-1.469981032177806
2024-09-23 01:24:12.208385,41.28,6.475134,-0.01445198763887209,0.019818144896951533,1.0131688171448936,0.3543172304221429,-1.1987427040290088,-1.469981032177806
2024-09-23 01:24:12.261854,41.28,6.475185,-0.011281142054955407,0.020610907938137694,1.0114614387535539,0.3456082558686845,-1.1987427040290088,-1.3780785628784449
2024-09-23 01:24:12.304566,41.28,6.475185,-0.011281142054955407,0.020610907938137694,1.0114614387535539,0.3456082558686845,-1.0980740039605648,-1.4218526205908506
2024-09-23 01:24:12.316277,41.28,6.475277,-0.012622630104012445,0.020306014382754138,1.015486022140394,0.3456082558686845,-1.0980740039605648,-1.4218526205908506
2024-09-23 01:24:12.359204,41.28,6.475329,-0.014025177977500705,0.02262324216290473,1.015486022140394,0.28871353347133843,-1.2205724233087152,-1.474335492774099
2024-09-23 01:24:12.402045,41.28,6.475329,-0.014025177977500705,0.02262324216290473,1.0135347325502915,0.3237212803733535,-1.2205724233087152,-1.474335492774099
2024-09-23 01:24:12.413621,41.28,6.475379,-0.01445198763887209,0.02262324216290473,1.0135347325502915,0.3237212803733535,-1.0674780539117754,-1.4306188513599336
2024-09-23 01:24:12.456920,41.28,6.475379,-0.01445198763887209,0.02152558556633501,1.0134736818397203,0.3411964856958948,-1.0412365644592791,-1.3911993609655648
2024-09-23 01:24:12.468815,41.28,6.47543,-0.01445198763887209,0.02152558556633501,1.0134736818397203,0.3411964856958948,-1.0412365644592791,-1.3911993609655648
2024-09-23 01:24:12.500485,41.28,6.47543,-0.013232416455291218,0.022501222766502915,1.0134736818397203,0.3411964856958948,-1.0412365644592791,-1.3911993609655648
2024-09-23 01:24:12.511518,41.28,6.47543,-0.013232416455291218,0.022501222766502915,1.0164616669354454,0.31060053564710544,-1.1768557818945498,-1.3518370734259486
2024-09-23 01:24:12.554507,41.28,6.475521,-0.01378124399408774,0.018049744655597465,1.0149982969573756,0.3499627431454137,-1.1637349838074296,-1.3518370734259486
2024-09-23 01:24:12.597285,41.28,6.475573,-0.01378124399408774,0.018049744655597465,1.0149982969573756,0.3499627431454137,-1.1637349838074296,-1.5005769822265953
2024-09-23 01:24:12.609069,41.28,6.475573,-0.01341539238571027,0.018781549643789714,1.0123761300525411,0.3324875378228724,-1.1637349838074296,-1.5005769822265953
2024-09-23 01:24:12.651972,41.28,6.475623,-0.010366361136344109,0.018781549643789714,1.0123761300525411,0.3324875378228724,-1.0893650827679784,-1.5268184716790913
2024-09-23 01:24:12.664777,41.28,6.475623,-0.010366361136344109,0.019086441680196593,1.0119492611510794,0.3324875378228724,-1.0893650827679784,-1.5268184716790913
2024-09-23 01:24:12.696606,41.21,6.475623,-0.010366361136344109,0.019086441680196593,1.0119492611510794,0.40685746554275976,-1.0587118231426924,-1.4174980532728136
2024-09-23 01:24:12.708404,41.21,6.475674,-0.01365932788809991,0.020793883868556746,1.0119492611510794,0.40685746554275976,-1.0587118231426924,-1.4174980532728136
2024-09-23 01:24:12.751810,41.21,6.475725,-0.013049540777332799,0.020793883868556746,1.012742045457939,0.3411964856958948,-1.238104991568625,-1.4174980532728136
2024-09-23 01:24:12.794091,41.21,6.475725,-0.013049540777332799,0.021037716080532405,1.0116442992417454,0.20122284768498502,-1.238104991568625,-1.4174980532728136
2024-09-23 01:24:12.805856,41.21,6.475813,-0.013049540777332799,0.021037716080532405,1.0116442992417454,0.20122284768498502,-1.0980740039605648,-1.3737241022821516
2024-09-23 01:24:12.838244,41.21,6.475813,-0.013598266544692013,0.021037716080532405,1.0116442992417454,0.20122284768498502,-1.0980740039605648,-1.3737241022821516
2024-09-23 01:24:12.890864,41.21,6.475813,-0.013598266544692013,0.01811080599900536,1.0135347325502915,0.3193667930966243,-1.0980740039605648,-1.3737241022821516
2024-09-23 01:24:12.901938,41.21,6.475813,-0.013598266544692013,0.01811080599900536,1.0135347325502915,0.3193667930966243,-1.1287272635858505,-1.4524485706396402
2024-09-23 01:24:12.945249,41.21,6.475865,-0.012378695361111141,0.01914740125216718,1.0129859566567019,0.37620423259790986,-1.1024857741333545,-1.4524485706396402
2024-09-23 01:24:12.988543,41.21,6.475916,-0.013354434332716355,0.01914740125216718,1.0129859566567019,0.37620423259790986,-1.1024857741333545,-1.3299501512914895
2024-09-23 01:24:13.000301,41.21,6.475916,-0.013354434332716355,0.019025483627202678,1.0121322188537785,0.3674952580444515,-1.1024857741333545,-1.3299501512914895
2024-09-23 01:24:13.042804,41.21,6.475966,-0.014695923141261731,0.02067186599113161,1.0121322188537785,0.3674952580444515,-1.0630662837389857,-1.413086283100024
2024-09-23 01:24:13.054858,41.21,6.475966,-0.014695923141261731,0.02067186599113161,1.0143274196426437,0.3674952580444515,-1.0630662837389857,-1.413086283100024
2024-09-23 01:24:13.086817,41.21,6.475966,-0.014695923141261731,0.02067186599113161,1.0143274196426437,0.41121195281948897,-1.1768557818945498,-1.3474826128296553
2024-09-23 01:24:13.098133,41.21,6.476017,-0.012866564846913748,0.01963527073796979,1.0143274196426437,0.41121195281948897,-1.1768557818945498,-1.3474826128296553
2024-09-23 01:24:13.140754,41.21,6.476108,-0.012866564846913748,0.01963527073796979,1.0125589905407328,0.39373674749694765,-1.2205724233087152,-1.4218526205908506
2024-09-23 01:24:13.183359,41.21,6.476108,-0.012866564846913748,0.02274515826889256,1.0114003880429827,0.31060053564710544,-1.2205724233087152,-1.4218526205908506
2024-09-23 01:24:13.195408,41.21,6.476203,-0.012866564846913748,0.02274515826889256,1.0114003880429827,0.31060053564710544,-1.1330817241821438,-1.3824903330512346
2024-09-23 01:24:13.238357,41.21,6.476203,-0.015000815177668611,0.01750101888823825,1.0122541258459061,0.39809120809324083,-1.1243154934130608,-1.3299501512914895
2024-09-23 01:24:13.281692,41.21,6.476255,-0.01146401621393715,0.020062078880364497,1.0122541258459061,0.39809120809324083,-1.1243154934130608,-1.3299501512914895
2024-09-23 01:24:13.292644,41.21,6.476255,-0.01146401621393715,0.020062078880364497,1.0160348952484908,0.3499627431454137,-1.0630662837389857,-1.3299501512914895
2024-09-23 01:24:13.335913,41.21,6.476306,-0.013537308491698099,0.019086441680196593,1.0139006479556893,0.24935132597303017,-1.0630662837389857,-1.3343619214642792
2024-09-23 01:24:13.378368,41.21,6.476356,-0.013537308491698099,0.019086441680196593,1.0139006479556893,0.24935132597303017,-1.0587118231426924,-1.461214801408723
2024-09-23 01:24:13.389658,41.21,6.476356,-0.015915494324842603,0.01835463821098102,1.0150592504534395,0.24935132597303017,-1.0587118231426924,-1.461214801408723
2024-09-23 01:24:13.432176,41.21,6.476407,-0.011098165365048018,0.020793883868556746,1.0150592504534395,0.3149550229238346,-1.0543573625463993,-1.4218526205908506
2024-09-23 01:24:13.475324,41.21,6.476407,-0.011098165365048018,0.020793883868556746,1.01231507934197,0.26247207069927825,-1.0543573625463993,-1.4218526205908506
2024-09-23 01:24:13.486712,41.21,6.476458,-0.01182986782231462,0.020793883868556746,1.01231507934197,0.26247207069927825,-1.1899764732599258,-1.3518370734259486
2024-09-23 01:24:13.530402,41.21,6.476544,-0.01182986782231462,0.01835463821098102,1.0117053499523165,0.3324875378228724,-1.1024857741333545,-1.5005769822265953
2024-09-23 01:24:13.574650,41.21,6.476544,-0.012012843752733671,0.023842813346485598,1.0115833457456815,0.3324875378228724,-1.1024857741333545,-1.5005769822265953
2024-09-23 01:24:13.586280,41.21,6.476544,-0.012012843752733671,0.023842813346485598,1.0115833457456815,0.29306802074806765,-1.1680894444037229,-1.5005769822265953
2024-09-23 01:24:13.618531,41.21,6.476544,-0.012012843752733671,0.023842813346485598,1.0115833457456815,0.29306802074806765,-1.1680894444037229,-1.483101830264926
2024-09-23 01:24:13.630059,41.21,6.476596,-0.01164699290384454,0.020549948366167105,1.0117053499523165,0.35872900059493257,-1.1680894444037229,-1.483101830264926
2024-09-23 01:24:13.673117,41.21,6.476647,-0.01664729931303485,0.020549948366167105,1.0117053499523165,0.35872900059493257,-1.0937195433642715,-1.3430708426568656
2024-09-23 01:24:13.684983,41.21,6.476647,-0.01664729931303485,0.02085484192155066,1.014205512650516,0.35872900059493257,-1.0937195433642715,-1.3430708426568656
2024-09-23 01:24:13.717752,41.44,6.476647,-0.01664729931303485,0.02085484192155066,1.014205512650516,0.31060053564710544,-1.0937195433642715,-1.3430708426568656
2024-09-23 01:24:13.729678,41.44,6.476697,-0.012439653414105056,0.021464627513341095,1.014205512650516,0.31060053564710544,-1.1287272635858505,-1.4174980532728136
2024-09-23 01:24:13.772451,41.44,6.476748,-0.012439653414105056,0.021464627513341095,1.0148762927507406,0.3456082558686845,-1.1418479549512268,-1.4174980532728136
2024-09-23 01:24:13.784412,41.44,6.476748,-0.012500713238536278,0.021464627513341095,1.0148762927507406,0.3456082558686845,-1.1418479549512268,-1.4174980532728136
2024-09-23 01:24:13.816149,41.44,6.476748,-0.012500713238536278,0.020001120827370582,1.013778546534547,0.3456082558686845,-1.1418479549512268,-1.4174980532728136
2024-09-23 01:24:13.828267,41.44,6.476799,-0.012500713238536278,0.020001120827370582,1.013778546534547,0.29747979092085736,-1.1549687530383468,-1.3430708426568656
2024-09-23 01:24:13.912856,41.44,6.476799,-0.009817635368984895,0.01926931735815501,1.013778546534547,0.29747979092085736,-1.1549687530383468,-1.3430708426568656
2024-09-23 01:24:13.924387,41.44,6.476799,-0.009817635368984895,0.01926931735815501,1.0103637897518674,0.3411964856958948,-1.1549687530383468,-1.3430708426568656
2024-09-23 01:24:13.967469,41.44,6.476886,-0.015427726610477303,0.018598572194393984,1.0103637897518674,0.3411964856958948,-1.0937195433642715,-1.448094003321603
2024-09-23 01:24:13.978388,41.44,6.476886,-0.015427726610477303,0.018598572194393984,1.0160958487445546,0.3411964856958948,-1.0937195433642715,-1.448094003321603
2024-09-23 01:24:14.011017,41.44,6.476886,-0.015427726610477303,0.018598572194393984,1.0160958487445546,0.3324875378228724,-1.2118635021161288,-1.448094003321603
2024-09-23 01:24:14.022189,41.44,6.476938,-0.013171458402297304,0.018171764051999276,1.0160958487445546,0.3324875378228724,-1.2118635021161288,-1.469981032177806
