Ayaan's Suite
Timestamp,Sample Rate (Hz),Time,Ax,Ay,Az,Gx,Gy,Gz
2024-09-23 07:21:03.045353,0,2.308717,-0.0034324103296106863,-0.024275627522658133,0.09675432418099966,40.106058693909645,-92.24360919585227,80.21211738781929
2024-09-23 07:21:03.078842,0,2.308768,-0.0030344509719951677,-0.024076653729884996,0.09675432418099966,40.106058693909645,-92.24360919585227,80.21211738781929
2024-09-23 07:21:03.090349,0,2.308768,-0.0030344509719951677,-0.024076653729884996,0.09680407370509965,40.106058693909645,-96.25519929585457,80.21211738781929
2024-09-23 07:21:03.122773,0,2.308768,-0.0030344509719951677,-0.024076653729884996,0.09680407370509965,40.106058693909645,-96.25519929585457,72.1922225099802
2024-09-23 07:21:03.134199,0,2.308819,-0.0030841997366068195,-0.024375126570858115,0.09690356060148622,32.08287849390507,-96.25519929585457,72.1922225099802
2024-09-23 07:21:03.176272,0,2.30887,-0.0031339382481259063,-0.024375126570858115,0.09690356060148622,32.08287849390507,-96.25519929585457,76.200527287817
2024-09-23 07:21:03.187633,0,2.30887,-0.0031339382481259063,-0.023579196463302005,0.0970030596496862,32.08287849390507,-96.25519929585457,76.200527287817
2024-09-23 07:21:03.219754,0,2.30887,-0.0031339382481259063,-0.023579196463302005,0.0970030596496862,32.08287849390507,-96.25519929585457,76.200527287817
2024-09-23 07:21:03.231263,0,2.30892,-0.0030344509719951677,-0.024026904205785005,0.0970030596496862,32.08287849390507,-100.26678939585686,72.1922225099802
2024-09-23 07:21:03.274222,0,2.30892,-0.0030344509719951677,-0.024026904205785005,0.09710254654607277,40.106058693909645,-92.24360919585227,80.21211738781929
2024-09-23 07:21:03.287019,0,2.308971,-0.0026862297461545674,-0.024026904205785005,0.09710254654607277,40.106058693909645,-92.24360919585227,80.21211738781929
2024-09-23 07:21:03.319571,0,2.308971,-0.0026862297461545674,-0.02457410036363125,0.09650560086412653,40.106058693909645,-92.24360919585227,80.21211738781929
2024-09-23 07:21:03.330672,0,2.309058,-0.0026862297461545674,-0.02457410036363125,0.09650560086412653,44.11764879391193,-96.25519929585457,76.200527287817
2024-09-23 07:21:03.373133,0,2.309058,-0.0029349636958644295,-0.024275627522658133,0.09680407370509965,44.11764879391193,-96.25519929585457,76.200527287817
2024-09-23 07:21:03.384835,0,2.309058,-0.0029349636958644295,-0.024275627522658133,0.09680407370509965,44.11764879391193,-96.25519929585457,76.200527287817
2024-09-23 07:21:03.416707,0,2.30911,-0.0028852147413806935,-0.024275627522658133,0.09680407370509965,44.11764879391193,-96.25519929585457,76.200527287817
2024-09-23 07:21:03.428297,0,2.30911,-0.0028852147413806935,-0.024474613467244683,0.0966050877605131,36.09446859390736,-100.26678939585686,76.200527287817
2024-09-23 07:21:03.470209,0,2.30916,-0.0028852147413806935,-0.024474613467244683,0.0966050877605131,36.09446859390736,-100.26678939585686,80.21211738781929
2024-09-23 07:21:03.513905,0,2.30916,-0.003382661564999035,-0.024474613467244683,0.0966050877605131,36.09446859390736,-100.26678939585686,80.21211738781929
2024-09-23 07:21:03.525052,0,2.30916,-0.003382661564999035,-0.024325377046758124,0.09705279702197278,36.09446859390736,-96.25519929585457,76.200527287817
2024-09-23 07:21:03.566956,0,2.309211,-0.0029847020175114316,-0.024325377046758124,0.09690356060148622,36.09446859390736,-96.25519929585457,76.200527287817
2024-09-23 07:21:03.578864,0,2.309211,-0.0029847020175114316,-0.024325377046758124,0.09690356060148622,40.106058693909645,-92.24360919585227,76.200527287817
2024-09-23 07:21:03.612035,0,2.309262,-0.0029847020175114316,-0.024325377046758124,0.09690356060148622,40.106058693909645,-92.24360919585227,80.21211738781929
2024-09-23 07:21:03.623751,0,2.309262,-0.0033329230534799477,-0.023927417309398437,0.09695331012558621,40.106058693909645,-92.24360919585227,80.21211738781929
2024-09-23 07:21:03.666654,0,2.309312,-0.0034324103296106863,-0.024076653729884996,0.09705279702197278,40.106058693909645,-100.26678939585686,68.18063240997792
2024-09-23 07:21:03.709458,0,2.309312,-0.0034324103296106863,-0.024076653729884996,0.09705279702197278,44.11764879391193,-100.26678939585686,68.18063240997792
2024-09-23 07:21:03.763064,0,2.309312,-0.0034324103296106863,-0.024076653729884996,0.09705279702197278,44.11764879391193,-96.25519929585457,68.18063240997792
2024-09-23 07:21:03.805286,0,2.309312,-0.0034324103296106863,-0.024076653729884996,0.09705279702197278,44.11764879391193,-96.25519929585457,80.21211738781929
2024-09-23 07:21:03.816918,0,2.309399,-0.0030841997366068195,-0.024474613467244683,0.09725178296655933,40.106058693909645,-96.25519929585457,80.21211738781929
2024-09-23 07:21:03.860160,0,2.309451,-0.0032831742888682963,-0.024474613467244683,0.09725178296655933,40.106058693909645,-96.25519929585457,84.22370748782159
2024-09-23 07:21:03.871590,0,2.309451,-0.0032831742888682963,-0.024424863943144692,0.09650560086412653,40.106058693909645,-96.25519929585457,84.22370748782159
2024-09-23 07:21:03.904295,0,2.309451,-0.0032831742888682963,-0.024424863943144692,0.09650560086412653,44.11764879391193,-96.25519929585457,84.22370748782159
2024-09-23 07:21:03.916850,0,2.309451,-0.0032831742888682963,-0.024424863943144692,0.09650560086412653,44.11764879391193,-96.25519929585457,80.21211738781929
2024-09-23 07:21:03.959273,0,2.309546,-0.0031339382481259063,-0.024076653729884996,0.09705279702197278,40.106058693909645,-96.25519929585457,80.21211738781929
2024-09-23 07:21:04.001926,0,2.309597,-0.0031339382481259063,-0.024076653729884996,0.09705279702197278,40.106058693909645,-96.25519929585457,76.200527287817
2024-09-23 07:21:04.012917,0,2.309597,-0.0029349636958644295,-0.02367869399252531,0.09680407370509965,36.09446859390736,-96.25519929585457,76.200527287817
2024-09-23 07:21:04.055965,43.98,2.309741,-0.003233425524256645,-0.023728432883788564,0.09680407370509965,36.09446859390736,-104.27510100388527,76.200527287817
2024-09-23 07:21:04.068717,43.98,2.309741,-0.003233425524256645,-0.023728432883788564,0.09655535038822652,36.09446859390736,-104.27510100388527,76.200527287817
2024-09-23 07:21:04.101617,43.98,2.309741,-0.003233425524256645,-0.023728432883788564,0.09655535038822652,36.09446859390736,-96.25519929585457,76.200527287817
2024-09-23 07:21:04.113989,43.98,2.309792,-0.0031836870127375577,-0.024176140626271565,0.09655535038822652,36.09446859390736,-96.25519929585457,76.200527287817
2024-09-23 07:21:04.147121,43.98,2.309792,-0.0031836870127375577,-0.024176140626271565,0.0970030596496862,36.09446859390736,-96.25519929585457,76.200527287817
2024-09-23 07:21:04.158239,43.98,2.309843,-0.0030344509719951677,-0.024176140626271565,0.0970030596496862,32.08287849390507,-96.25519929585457,84.22370748782159
2024-09-23 07:21:04.201610,43.98,2.309843,-0.0030344509719951677,-0.024524361472367997,0.09695331012558621,40.106058693909645,-92.24360919585227,80.21211738781929
2024-09-23 07:21:04.213671,43.98,2.309936,-0.0030344509719951677,-0.024524361472367997,0.09695331012558621,40.106058693909645,-92.24360919585227,80.21211738781929
2024-09-23 07:21:04.246131,43.98,2.309936,-0.0035816467500972456,-0.02412639262114825,0.09695331012558621,40.106058693909645,-92.24360919585227,80.21211738781929
2024-09-23 07:21:04.257562,43.98,2.309936,-0.0035816467500972456,-0.02412639262114825,0.09705279702197278,44.11764879391193,-96.25519929585457,76.200527287817
2024-09-23 07:21:04.299195,43.98,2.309987,-0.0028852147413806935,-0.023728432883788564,0.09695331012558621,40.106058693909645,-96.25519929585457,76.200527287817
2024-09-23 07:21:04.311024,43.98,2.309987,-0.0028852147413806935,-0.023728432883788564,0.09695331012558621,40.106058693909645,-88.23529758782387,76.200527287817
2024-09-23 07:21:04.343958,43.98,2.310038,-0.0028852147413806935,-0.023728432883788564,0.09695331012558621,40.106058693909645,-88.23529758782387,80.21211738781929
2024-09-23 07:21:04.355306,43.98,2.310038,-0.0029847020175114316,-0.024673597892854556,0.09635636444363997,44.11764879391193,-88.23529758782387,80.21211738781929
2024-09-23 07:21:04.397110,43.98,2.310088,-0.002586742470023829,-0.024076653729884996,0.09635636444363997,44.11764879391193,-92.24360919585227,72.1922225099802
2024-09-23 07:21:04.409270,43.98,2.310088,-0.002586742470023829,-0.024076653729884996,0.09675432418099966,44.11764879391193,-92.24360919585227,72.1922225099802
2024-09-23 07:21:04.442252,43.98,2.310088,-0.002586742470023829,-0.024076653729884996,0.09675432418099966,48.12595698684454,-96.25519929585457,76.200527287817
2024-09-23 07:21:04.454424,43.98,2.310139,-0.0028852147413806935,-0.024076653729884996,0.09675432418099966,48.12595698684454,-96.25519929585457,76.200527287817
2024-09-23 07:21:04.497127,43.98,2.31019,-0.003482159473966507,-0.024076653729884996,0.09720203344245934,44.11764879391193,-100.26678939585686,72.1922225099802
2024-09-23 07:21:04.538896,43.98,2.31019,-0.003482159473966507,-0.023877669304275123,0.09675432418099966,44.11764879391193,-100.26678939585686,72.1922225099802
2024-09-23 07:21:04.549968,43.98,2.310277,-0.003482159473966507,-0.023877669304275123,0.09675432418099966,36.09446859390736,-84.22370748782159,80.21211738781929
2024-09-23 07:21:04.592390,43.98,2.310277,-0.0033329230534799477,-0.024325377046758124,0.0973015264147526,32.08287849390507,-92.24360919585227,80.21211738781929
2024-09-23 07:21:04.604149,43.98,2.310277,-0.0033329230534799477,-0.024325377046758124,0.0973015264147526,32.08287849390507,-92.24360919585227,80.21211738781929
2024-09-23 07:21:04.635759,43.98,2.310328,-0.003482159473966507,-0.024325377046758124,0.0973015264147526,32.08287849390507,-92.24360919585227,80.21211738781929
2024-09-23 07:21:04.647154,43.98,2.310328,-0.003482159473966507,-0.023778180888911878,0.09655535038822652,40.106058693909645,-92.24360919585227,80.21211738781929
2024-09-23 07:21:04.689164,43.98,2.310379,-0.0028852147413806935,-0.02412639262114825,0.09705279702197278,40.106058693909645,-92.24360919585227,80.21211738781929
2024-09-23 07:21:04.701224,43.98,2.310379,-0.0028852147413806935,-0.02412639262114825,0.09705279702197278,36.09446859390736,-92.24360919585227,80.21211738781929
2024-09-23 07:21:04.733680,43.98,2.310379,-0.0028852147413806935,-0.02412639262114825,0.09705279702197278,36.09446859390736,-96.25519929585457,76.200527287817
2024-09-23 07:21:04.745745,43.98,2.31043,-0.0030841997366068195,-0.024773084789241125,0.09685382322919964,36.09446859390736,-96.25519929585457,76.200527287817
2024-09-23 07:21:04.788938,43.98,2.31048,-0.0033329230534799477,-0.024176140626271565,0.09685382322919964,40.106058693909645,-92.24360919585227,72.1922225099802
2024-09-23 07:21:04.831062,43.98,2.31048,-0.0033329230534799477,-0.024176140626271565,0.09635636444363997,44.11764879391193,-92.24360919585227,72.1922225099802
2024-09-23 07:21:04.842739,43.98,2.310531,-0.0032831742888682963,-0.024176140626271565,0.09635636444363997,44.11764879391193,-92.24360919585227,80.21211738781929
2024-09-23 07:21:04.884911,43.98,2.310531,-0.0032831742888682963,-0.02412639262114825,0.09650560086412653,48.12595698684454,-92.24360919585227,80.21211738781929
2024-09-23 07:21:04.896692,43.98,2.310618,-0.0032831742888682963,-0.02412639262114825,0.09650560086412653,48.12595698684454,-92.24360919585227,80.21211738781929
2024-09-23 07:21:04.928126,43.98,2.310618,-0.0032831742888682963,-0.024474613467244683,0.09650560086412653,48.12595698684454,-92.24360919585227,80.21211738781929
2024-09-23 07:21:04.939900,43.98,2.310618,-0.0032831742888682963,-0.024474613467244683,0.09665483728461309,44.11764879391193,-96.25519929585457,76.200527287817
2024-09-23 07:21:04.982648,43.98,2.31067,-0.004029355252068585,-0.024176140626271565,0.09665483728461309,44.11764879391193,-96.25519929585457,76.200527287817
2024-09-23 07:21:05.024587,43.98,2.31067,-0.004029355252068585,-0.024176140626271565,0.09665483728461309,40.106058693909645,-96.25519929585457,76.200527287817
2024-09-23 07:21:05.035476,43.98,2.31072,-0.0031339382481259063,-0.024325377046758124,0.09665483728461309,40.106058693909645,-100.26678939585686,76.200527287817
2024-09-23 07:21:05.077255,45.0,2.31072,-0.0031339382481259063,-0.024325377046758124,0.09710254654607277,44.11764879391193,-92.24360919585227,84.22370748782159
2024-09-23 07:21:05.088882,45.0,2.310771,-0.0036811340262279837,-0.024325377046758124,0.09710254654607277,44.11764879391193,-92.24360919585227,84.22370748782159
2024-09-23 07:21:05.120949,45.0,2.310771,-0.0036811340262279837,-0.024275627522658133,0.09710254654607277,44.11764879391193,-92.24360919585227,84.22370748782159
2024-09-23 07:21:05.132479,45.0,2.310822,-0.0036811340262279837,-0.024275627522658133,0.09715228999426605,44.11764879391193,-96.25519929585457,84.22370748782159
2024-09-23 07:21:05.174589,45.0,2.310822,-0.0031836870127375577,-0.024474613467244683,0.0966050877605131,36.09446859390736,-96.25519929585457,84.22370748782159
2024-09-23 07:21:05.186268,45.0,2.310822,-0.0031836870127375577,-0.024474613467244683,0.0966050877605131,36.09446859390736,-92.24360919585227,72.1922225099802
2024-09-23 07:21:05.218497,45.0,2.310872,-0.0031836870127375577,-0.024474613467244683,0.0966050877605131,36.09446859390736,-92.24360919585227,72.1922225099802
2024-09-23 07:21:05.229189,45.0,2.310872,-0.0032831742888682963,-0.023927417309398437,0.09705279702197278,44.11764879391193,-92.24360919585227,72.1922225099802
2024-09-23 07:21:05.272205,45.0,2.31096,-0.002636491424507565,-0.024026904205785005,0.09705279702197278,44.11764879391193,-92.24360919585227,76.200527287817
2024-09-23 07:21:05.283670,45.0,2.31096,-0.002636491424507565,-0.024026904205785005,0.09685382322919964,44.11764879391193,-92.24360919585227,76.200527287817
2024-09-23 07:21:05.326559,45.0,2.311012,-0.0035318979854855937,-0.024275627522658133,0.09610764112676684,44.11764879391193,-100.26678939585686,76.200527287817
2024-09-23 07:21:05.370649,45.0,2.311012,-0.0035318979854855937,-0.024275627522658133,0.09610764112676684,44.11764879391193,-96.25519929585457,72.1922225099802
2024-09-23 07:21:05.382441,45.0,2.311063,-0.0028354659767690416,-0.02487257320460437,0.09610764112676684,44.11764879391193,-96.25519929585457,72.1922225099802
2024-09-23 07:21:05.416687,45.0,2.311063,-0.0028354659767690416,-0.02487257320460437,0.09670458680871308,48.12595698684454,-96.25519929585457,72.1922225099802
2024-09-23 07:21:05.428080,45.0,2.311113,-0.0030344509719951677,-0.02487257320460437,0.09670458680871308,48.12595698684454,-96.25519929585457,80.21211738781929
2024-09-23 07:21:05.471760,45.0,2.311203,-0.0030344509719951677,-0.02397715620066169,0.09764974270391902,36.09446859390736,-100.26678939585686,76.200527287817
2024-09-23 07:21:05.514523,45.0,2.311203,-0.0029847020175114316,-0.023778180888911878,0.09750050628343246,36.09446859390736,-100.26678939585686,76.200527287817
2024-09-23 07:21:05.525726,45.0,2.311203,-0.0029847020175114316,-0.023778180888911878,0.09750050628343246,36.09446859390736,-100.26678939585686,76.200527287817
2024-09-23 07:21:05.569178,45.0,2.311255,-0.0028354659767690416,-0.02397715620066169,0.09725178296655933,40.106058693909645,-96.25519929585457,76.200527287817
2024-09-23 07:21:05.613336,45.0,2.311305,-0.0036811340262279837,-0.02397715620066169,0.09725178296655933,40.106058693909645,-96.25519929585457,76.200527287817
2024-09-23 07:21:05.624539,45.0,2.311305,-0.0036811340262279837,-0.023927417309398437,0.09645586349183995,44.11764879391193,-96.25519929585457,76.200527287817
2024-09-23 07:21:05.666935,45.0,2.311356,-0.0030841997366068195,-0.024325377046758124,0.09630662707135339,44.11764879391193,-96.25519929585457,80.21211738781929
2024-09-23 07:21:05.708694,45.0,2.311356,-0.0030841997366068195,-0.024325377046758124,0.09630662707135339,48.12595698684454,-100.26678939585686,80.21211738781929
2024-09-23 07:21:05.720492,45.0,2.311407,-0.0028852147413806935,-0.024375126570858115,0.09630662707135339,48.12595698684454,-100.26678939585686,80.21211738781929
2024-09-23 07:21:05.763896,45.0,2.311457,-0.0026862297461545674,-0.024375126570858115,0.09655535038822652,48.12595698684454,-96.25519929585457,72.1922225099802
2024-09-23 07:21:05.805972,45.0,2.311457,-0.0026862297461545674,-0.024176140626271565,0.09685382322919964,48.12595698684454,-96.25519929585457,72.1922225099802
2024-09-23 07:21:05.817173,45.0,2.311544,-0.0026862297461545674,-0.024176140626271565,0.09685382322919964,40.106058693909645,-96.25519929585457,80.21211738781929
2024-09-23 07:21:05.861132,45.0,2.311544,-0.0035816467500972456,-0.02397715620066169,0.09645586349183995,36.09446859390736,-100.26678939585686,84.22370748782159
2024-09-23 07:21:05.903819,45.0,2.311596,-0.0035816467500972456,-0.02397715620066169,0.09645586349183995,36.09446859390736,-100.26678939585686,84.22370748782159
2024-09-23 07:21:05.956379,45.0,2.311596,-0.0032831742888682963,-0.024524361472367997,0.09640611396773996,44.11764879391193,-100.26678939585686,84.22370748782159
2024-09-23 07:21:05.968728,45.0,2.311596,-0.0032831742888682963,-0.024524361472367997,0.09640611396773996,44.11764879391193,-100.26678939585686,80.21211738781929
2024-09-23 07:21:06.001062,45.0,2.311647,-0.0028852147413806935,-0.024524361472367997,0.09640611396773996,44.11764879391193,-100.26678939585686,80.21211738781929
2024-09-23 07:21:06.013098,45.0,2.311647,-0.0028852147413806935,-0.024026904205785005,0.0966050877605131,48.12595698684454,-92.24360919585227,80.21211738781929
2024-09-23 07:21:06.055916,45.0,2.311697,-0.0034324103296106863,-0.024524361472367997,0.09740101331113918,48.12595698684454,-92.24360919585227,88.23529758782387
2024-09-23 07:21:06.067338,45.0,2.311697,-0.0034324103296106863,-0.024524361472367997,0.09740101331113918,40.106058693909645,-92.24360919585227,88.23529758782387
2024-09-23 07:21:06.099492,44.35,2.311697,-0.0034324103296106863,-0.024524361472367997,0.09740101331113918,40.106058693909645,-96.25519929585457,80.21211738781929
2024-09-23 07:21:06.110979,44.35,2.311748,-0.0028852147413806935,-0.024673597892854556,0.09715228999426605,40.106058693909645,-96.25519929585457,80.21211738781929
2024-09-23 07:21:06.153380,44.35,2.311799,-0.0030344509719951677,-0.024275627522658133,0.09715228999426605,40.106058693909645,-96.25519929585457,76.200527287817
2024-09-23 07:21:06.196059,44.35,2.311799,-0.0030344509719951677,-0.024275627522658133,0.09655535038822652,48.12595698684454,-96.25519929585457,76.200527287817
2024-09-23 07:21:06.208354,44.35,2.311888,-0.0026862297461545674,-0.024275627522658133,0.09655535038822652,48.12595698684454,-88.23529758782387,84.22370748782159
2024-09-23 07:21:06.251690,44.35,2.311983,-0.0026862297461545674,-0.024474613467244683,0.09720203344245934,40.106058693909645,-96.25519929585457,80.21211738781929
2024-09-23 07:21:06.294204,44.35,2.311983,-0.0028852147413806935,-0.024375126570858115,0.09705279702197278,40.106058693909645,-96.25519929585457,80.21211738781929
2024-09-23 07:21:06.305938,44.35,2.311983,-0.0028852147413806935,-0.024375126570858115,0.09705279702197278,44.11764879391193,-96.25519929585457,80.21211738781929
2024-09-23 07:21:06.349078,44.35,2.312035,-0.003382661564999035,-0.024176140626271565,0.0970030596496862,44.11764879391193,-100.26678939585686,76.200527287817
2024-09-23 07:21:06.392431,44.35,2.312035,-0.003382661564999035,-0.024176140626271565,0.0970030596496862,36.09446859390736,-92.24360919585227,84.22370748782159
2024-09-23 07:21:06.404166,44.35,2.312085,-0.003233425524256645,-0.024673597892854556,0.0970030596496862,36.09446859390736,-92.24360919585227,84.22370748782159
2024-09-23 07:21:06.446874,44.35,2.312136,-0.0030841997366068195,-0.024673597892854556,0.09635636444363997,36.09446859390736,-92.24360919585227,80.21211738781929
2024-09-23 07:21:06.491482,44.35,2.312136,-0.0030841997366068195,-0.024325377046758124,0.09690356060148622,40.106058693909645,-92.24360919585227,80.21211738781929
2024-09-23 07:21:06.502556,44.35,2.312187,-0.0030841997366068195,-0.024325377046758124,0.09690356060148622,40.106058693909645,-92.24360919585227,76.200527287817
2024-09-23 07:21:06.535113,44.35,2.312187,-0.0026862297461545674,-0.024325377046758124,0.09690356060148622,40.106058693909645,-92.24360919585227,76.200527287817
2024-09-23 07:21:06.546273,44.35,2.312187,-0.0026862297461545674,-0.02482282368050438,0.0970030596496862,40.106058693909645,-96.25519929585457,88.23529758782387
2024-09-23 07:21:06.589177,44.35,2.312276,-0.0031339382481259063,-0.02352945757203875,0.09635636444363997,40.106058693909645,-96.25519929585457,88.23529758782387
2024-09-23 07:21:06.601133,44.35,2.312276,-0.0031339382481259063,-0.02352945757203875,0.09635636444363997,40.106058693909645,-96.25519929585457,88.23529758782387
2024-09-23 07:21:06.634294,44.35,2.312276,-0.0031339382481259063,-0.02352945757203875,0.09635636444363997,40.106058693909645,-96.25519929585457,84.22370748782159
2024-09-23 07:21:06.646179,44.35,2.312328,-0.0033329230534799477,-0.023877669304275123,0.09759999317981902,44.11764879391193,-96.25519929585457,84.22370748782159
2024-09-23 07:21:06.688741,44.35,2.312378,-0.0030841997366068195,-0.02397715620066169,0.09759999317981902,44.11764879391193,-100.26678939585686,76.200527287817
2024-09-23 07:21:06.700544,44.35,2.312378,-0.0030841997366068195,-0.02397715620066169,0.0970030596496862,44.11764879391193,-100.26678939585686,76.200527287817
2024-09-23 07:21:06.735830,44.35,2.312378,-0.0030841997366068195,-0.02397715620066169,0.0970030596496862,40.106058693909645,-92.24360919585227,76.200527287817
2024-09-23 07:21:06.747352,44.35,2.312429,-0.0034324103296106863,-0.023778180888911878,0.0970030596496862,40.106058693909645,-92.24360919585227,76.200527287817
2024-09-23 07:21:06.780807,44.35,2.312429,-0.0034324103296106863,-0.023778180888911878,0.09665483728461309,40.106058693909645,-92.24360919585227,76.200527287817
2024-09-23 07:21:06.792493,44.35,2.31248,-0.0029349636958644295,-0.023778180888911878,0.09665483728461309,40.106058693909645,-96.25519929585457,80.21211738781929
2024-09-23 07:21:06.834944,44.35,2.31248,-0.0029349636958644295,-0.023927417309398437,0.09655535038822652,44.11764879391193,-96.25519929585457,80.21211738781929
2024-09-23 07:21:06.846631,44.35,2.312568,-0.0029349636958644295,-0.023927417309398437,0.09655535038822652,44.11764879391193,-96.25519929585457,80.21211738781929
2024-09-23 07:21:06.878721,44.35,2.312568,-0.0031836870127375577,-0.024176140626271565,0.09655535038822652,44.11764879391193,-96.25519929585457,80.21211738781929
2024-09-23 07:21:06.889908,44.35,2.312568,-0.0031836870127375577,-0.024176140626271565,0.09725178296655933,36.09446859390736,-92.24360919585227,84.22370748782159
2024-09-23 07:21:06.932323,44.35,2.31262,-0.003482159473966507,-0.023778180888911878,0.0966050877605131,32.08287849390507,-92.24360919585227,84.22370748782159
2024-09-23 07:21:06.944348,44.35,2.31262,-0.003482159473966507,-0.023778180888911878,0.0966050877605131,32.08287849390507,-100.26678939585686,84.22370748782159
2024-09-23 07:21:06.976841,44.35,2.31267,-0.003482159473966507,-0.023778180888911878,0.0966050877605131,32.08287849390507,-100.26678939585686,84.22370748782159
2024-09-23 07:21:07.030231,44.35,2.31267,-0.0029847020175114316,-0.02412639262114825,0.09690356060148622,40.106058693909645,-92.24360919585227,84.22370748782159
2024-09-23 07:21:07.042524,44.35,2.31267,-0.0029847020175114316,-0.02412639262114825,0.09690356060148622,40.106058693909645,-92.24360919585227,80.21211738781929
2024-09-23 07:21:07.075100,44.35,2.312721,-0.0031836870127375577,-0.023877669304275123,0.09690356060148622,40.106058693909645,-92.24360919585227,80.21211738781929
2024-09-23 07:21:07.086914,44.35,2.312721,-0.0031836870127375577,-0.023877669304275123,0.09705279702197278,44.11764879391193,-100.26678939585686,80.21211738781929
2024-09-23 07:21:07.130680,44.17,2.312772,-0.0029847020175114316,-0.023927417309398437,0.0966050877605131,40.106058693909645,-100.26678939585686,80.21211738781929
2024-09-23 07:21:07.174181,44.17,2.312822,-0.0029847020175114316,-0.023927417309398437,0.0966050877605131,40.106058693909645,-92.24360919585227,80.21211738781929
2024-09-23 07:21:07.185917,44.17,2.312822,-0.004079093383843503,-0.024176140626271565,0.09710254654607277,40.106058693909645,-92.24360919585227,80.21211738781929
2024-09-23 07:21:07.218560,44.17,2.312822,-0.004079093383843503,-0.024176140626271565,0.09710254654607277,40.106058693909645,-92.24360919585227,80.21211738781929
2024-09-23 07:21:07.229621,44.17,2.312909,-0.003382661564999035,-0.02362894446842532,0.09710254654607277,40.106058693909645,-96.25519929585457,76.200527287817
2024-09-23 07:21:07.272010,44.17,2.312909,-0.003382661564999035,-0.02362894446842532,0.09705279702197278,36.09446859390736,-100.26678939585686,72.1922225099802
2024-09-23 07:21:07.283752,44.17,2.312961,-0.0033329230534799477,-0.02362894446842532,0.09705279702197278,36.09446859390736,-100.26678939585686,72.1922225099802
2024-09-23 07:21:07.316288,44.17,2.312961,-0.0033329230534799477,-0.024026904205785005,0.09705279702197278,36.09446859390736,-100.26678939585686,72.1922225099802
2024-09-23 07:21:07.327661,44.17,2.313056,-0.0033329230534799477,-0.024026904205785005,0.09685382322919964,40.106058693909645,-96.25519929585457,72.1922225099802
2024-09-23 07:21:07.371419,44.17,2.313056,-0.003233425524256645,-0.023479709566915436,0.09705279702197278,40.106058693909645,-92.24360919585227,72.1922225099802
2024-09-23 07:21:07.383001,44.17,2.313056,-0.003233425524256645,-0.023479709566915436,0.09705279702197278,40.106058693909645,-92.24360919585227,76.200527287817
2024-09-23 07:21:07.414832,44.17,2.313107,-0.003233425524256645,-0.023479709566915436,0.09705279702197278,40.106058693909645,-92.24360919585227,76.200527287817
2024-09-23 07:21:07.426246,44.17,2.313107,-0.0037308827908396356,-0.024026904205785005,0.09630662707135339,44.11764879391193,-96.25519929585457,76.200527287817
2024-09-23 07:21:07.469116,44.17,2.313158,-0.0030841997366068195,-0.023579196463302005,0.09670458680871308,44.11764879391193,-96.25519929585457,84.22370748782159
2024-09-23 07:21:07.481219,44.17,2.313158,-0.0030841997366068195,-0.023579196463302005,0.09670458680871308,32.08287849390507,-96.25519929585457,84.22370748782159
2024-09-23 07:21:07.513641,44.17,2.313209,-0.0030841997366068195,-0.023579196463302005,0.09670458680871308,32.08287849390507,-96.25519929585457,84.22370748782159
2024-09-23 07:21:07.524947,44.17,2.313209,-0.0034324103296106863,-0.024325377046758124,0.09725178296655933,32.08287849390507,-96.25519929585457,84.22370748782159
2024-09-23 07:21:07.567199,44.17,2.31326,-0.0032831742888682963,-0.02457410036363125,0.09725178296655933,44.11764879391193,-96.25519929585457,80.21211738781929
2024-09-23 07:21:07.610565,44.17,2.31326,-0.0032831742888682963,-0.02457410036363125,0.09710254654607277,36.09446859390736,-104.27510100388527,80.21211738781929
2024-09-23 07:21:07.621811,44.17,2.313311,-0.003482159473966507,-0.02457410036363125,0.09710254654607277,36.09446859390736,-104.27510100388527,72.1922225099802
2024-09-23 07:21:07.663455,44.17,2.313311,-0.003482159473966507,-0.024225890150371555,0.09650560086412653,36.09446859390736,-104.27510100388527,72.1922225099802
2024-09-23 07:21:07.706738,44.17,2.313311,-0.003482159473966507,-0.024225890150371555,0.09650560086412653,40.106058693909645,-96.25519929585457,72.1922225099802
2024-09-23 07:21:07.718013,44.17,2.313397,-0.0032831742888682963,-0.024076653729884996,0.09650560086412653,40.106058693909645,-96.25519929585457,80.21211738781929
2024-09-23 07:21:07.760042,44.17,2.313397,-0.0032831742888682963,-0.024076653729884996,0.09695331012558621,40.106058693909645,-100.26678939585686,80.21211738781929
2024-09-23 07:21:07.771071,44.17,2.313449,-0.0031836870127375577,-0.024076653729884996,0.09695331012558621,40.106058693909645,-100.26678939585686,80.21211738781929
2024-09-23 07:21:07.802596,44.17,2.313449,-0.0031836870127375577,-0.024325377046758124,0.09695331012558621,40.106058693909645,-100.26678939585686,80.21211738781929
2024-09-23 07:21:07.814149,44.17,2.313449,-0.0031836870127375577,-0.024325377046758124,0.09685382322919964,40.106058693909645,-100.26678939585686,80.21211738781929
2024-09-23 07:21:07.857624,44.17,2.313499,-0.0028354659767690416,-0.024076653729884996,0.09745075675933246,40.106058693909645,-100.26678939585686,76.200527287817
2024-09-23 07:21:07.869484,44.17,2.313499,-0.0028354659767690416,-0.024076653729884996,0.09745075675933246,44.11764879391193,-100.26678939585686,76.200527287817
2024-09-23 07:21:07.902525,44.17,2.313499,-0.0028354659767690416,-0.024076653729884996,0.09745075675933246,44.11764879391193,-96.25519929585457,76.200527287817
2024-09-23 07:21:07.914495,44.17,2.31355,-0.0035816467500972456,-0.02412639262114825,0.09755024973162574,44.11764879391193,-96.25519929585457,76.200527287817
2024-09-23 07:21:07.957841,44.17,2.31355,-0.0035816467500972456,-0.02412639262114825,0.09755024973162574,36.09446859390736,-96.25519929585457,76.200527287817
2024-09-23 07:21:07.999662,44.17,2.313642,-0.0035816467500972456,-0.02412639262114825,0.09755024973162574,36.09446859390736,-96.25519929585457,80.21211738781929
2024-09-23 07:21:08.010926,44.17,2.313642,-0.003233425524256645,-0.023728432883788564,0.0973015264147526,40.106058693909645,-96.25519929585457,80.21211738781929
2024-09-23 07:21:08.053433,44.17,2.313693,-0.002387757474797703,-0.02517104452660081,0.0973015264147526,40.106058693909645,-96.25519929585457,80.21211738781929
2024-09-23 07:21:08.065798,44.17,2.313693,-0.002387757474797703,-0.02517104452660081,0.09740101331113918,40.106058693909645,-96.25519929585457,80.21211738781929
2024-09-23 07:21:08.099674,44.17,2.313693,-0.002387757474797703,-0.02517104452660081,0.09740101331113918,32.08287849390507,-96.25519929585457,72.1922225099802
2024-09-23 07:21:08.111024,44.17,2.313744,-0.003233425524256645,-0.024225890150371555,0.09740101331113918,32.08287849390507,-96.25519929585457,72.1922225099802
2024-09-23 07:21:08.153307,44.33,2.313836,-0.0038303700669703737,-0.024225890150371555,0.09695331012558621,40.106058693909645,-92.24360919585227,76.200527287817
2024-09-23 07:21:08.196731,44.33,2.313836,-0.0038303700669703737,-0.024623849887731242,0.09715228999426605,40.106058693909645,-92.24360919585227,76.200527287817
2024-09-23 07:21:08.208561,44.33,2.313887,-0.0038303700669703737,-0.024623849887731242,0.09715228999426605,48.12595698684454,-92.24360919585227,72.1922225099802
2024-09-23 07:21:08.240829,44.33,2.313887,-0.0030841997366068195,-0.024623849887731242,0.09715228999426605,48.12595698684454,-92.24360919585227,72.1922225099802
2024-09-23 07:21:08.293804,44.33,2.313887,-0.0030841997366068195,-0.023877669304275123,0.09695331012558621,36.09446859390736,-92.24360919585227,72.1922225099802
2024-09-23 07:21:08.304908,44.33,2.313887,-0.0030841997366068195,-0.023877669304275123,0.09695331012558621,36.09446859390736,-92.24360919585227,76.200527287817
2024-09-23 07:21:08.348323,44.33,2.313983,-0.0032831742888682963,-0.023778180888911878,0.09680407370509965,28.07457030097246,-96.25519929585457,76.200527287817
2024-09-23 07:21:08.391417,44.33,2.314034,-0.0037308827908396356,-0.023778180888911878,0.09680407370509965,28.07457030097246,-96.25519929585457,76.200527287817
2024-09-23 07:21:08.403156,44.33,2.314034,-0.0037308827908396356,-0.024076653729884996,0.09759999317981902,36.09446859390736,-96.25519929585457,76.200527287817
2024-09-23 07:21:08.445778,44.33,2.314085,-0.0028354659767690416,-0.023827930413011865,0.09695331012558621,36.09446859390736,-96.25519929585457,80.21211738781929
2024-09-23 07:21:08.488935,44.33,2.314085,-0.0028354659767690416,-0.023827930413011865,0.09695331012558621,44.11764879391193,-100.26678939585686,80.21211738781929
2024-09-23 07:21:08.500591,44.33,2.314135,-0.003382661564999035,-0.02397715620066169,0.09695331012558621,44.11764879391193,-100.26678939585686,80.21211738781929
2024-09-23 07:21:08.542691,44.33,2.314228,-0.003233425524256645,-0.02397715620066169,0.09695331012558621,40.106058693909645,-96.25519929585457,80.21211738781929
2024-09-23 07:21:08.585832,44.33,2.314228,-0.003233425524256645,-0.024176140626271565,0.09690356060148622,40.106058693909645,-96.25519929585457,80.21211738781929
2024-09-23 07:21:08.597785,44.33,2.314323,-0.003233425524256645,-0.024176140626271565,0.09690356060148622,40.106058693909645,-92.24360919585227,76.200527287817
2024-09-23 07:21:08.640601,44.33,2.314323,-0.0029349636958644295,-0.024275627522658133,0.09695331012558621,36.09446859390736,-96.25519929585457,76.200527287817
2024-09-23 07:21:08.682320,44.33,2.314375,-0.003233425524256645,-0.024275627522658133,0.09695331012558621,36.09446859390736,-96.25519929585457,76.200527287817
2024-09-23 07:21:08.694259,44.33,2.314375,-0.003233425524256645,-0.023827930413011865,0.09705279702197278,36.09446859390736,-92.24360919585227,76.200527287817
2024-09-23 07:21:08.736968,44.33,2.314425,-0.0031836870127375577,-0.024424863943144692,0.0970030596496862,40.106058693909645,-92.24360919585227,80.21211738781929
2024-09-23 07:21:08.779600,44.33,2.314425,-0.0031836870127375577,-0.024424863943144692,0.0970030596496862,40.106058693909645,-104.27510100388527,80.21211738781929
2024-09-23 07:21:08.791265,44.33,2.314476,-0.0033329230534799477,-0.024176140626271565,0.09715228999426605,40.106058693909645,-104.27510100388527,80.21211738781929
2024-09-23 07:21:08.832887,44.33,2.314527,-0.0030841997366068195,-0.024176140626271565,0.09715228999426605,36.09446859390736,-92.24360919585227,76.200527287817
2024-09-23 07:21:08.844990,44.33,2.314527,-0.0030841997366068195,-0.023778180888911878,0.09715228999426605,36.09446859390736,-92.24360919585227,76.200527287817
2024-09-23 07:21:08.877184,44.33,2.314527,-0.0030841997366068195,-0.023778180888911878,0.0970030596496862,48.12595698684454,-92.24360919585227,76.200527287817
2024-09-23 07:21:08.888470,44.33,2.314577,-0.003382661564999035,-0.023778180888911878,0.0970030596496862,48.12595698684454,-88.23529758782387,76.200527287817
2024-09-23 07:21:08.930857,44.33,2.314577,-0.003382661564999035,-0.024375126570858115,0.09655535038822652,44.11764879391193,-100.26678939585686,76.200527287817
2024-09-23 07:21:08.942983,44.33,2.314665,-0.003382661564999035,-0.024375126570858115,0.09655535038822652,44.11764879391193,-100.26678939585686,76.200527287817
2024-09-23 07:21:08.976325,44.33,2.314665,-0.0035318979854855937,-0.024474613467244683,0.09615739065086683,44.11764879391193,-100.26678939585686,76.200527287817
2024-09-23 07:21:08.988093,44.33,2.314665,-0.0035318979854855937,-0.024474613467244683,0.09615739065086683,36.09446859390736,-92.24360919585227,76.200527287817
2024-09-23 07:21:09.031006,44.33,2.314716,-0.0032831742888682963,-0.02367869399252531,0.09750050628343246,32.08287849390507,-92.24360919585227,76.200527287817
2024-09-23 07:21:09.073362,44.33,2.314767,-0.0030841997366068195,-0.02367869399252531,0.09750050628343246,32.08287849390507,-92.24360919585227,80.21211738781929
2024-09-23 07:21:09.085237,44.33,2.314767,-0.0030841997366068195,-0.024076653729884996,0.09695331012558621,44.11764879391193,-92.24360919585227,80.21211738781929
2024-09-23 07:21:09.128657,44.33,2.314817,-0.0033329230534799477,-0.024424863943144692,0.0973015264147526,44.11764879391193,-92.24360919585227,80.21211738781929
2024-09-23 07:21:09.171367,43.66,2.314817,-0.0033329230534799477,-0.024424863943144692,0.0973015264147526,36.09446859390736,-100.26678939585686,80.21211738781929
2024-09-23 07:21:09.182892,43.66,2.314868,-0.003382661564999035,-0.024424863943144692,0.0973015264147526,36.09446859390736,-100.26678939585686,80.21211738781929
2024-09-23 07:21:09.226735,43.66,2.314919,-0.0031836870127375577,-0.024424863943144692,0.09675432418099966,36.09446859390736,-88.23529758782387,84.22370748782159
2024-09-23 07:21:09.269664,43.66,2.314919,-0.0031836870127375577,-0.023728432883788564,0.09665483728461309,40.106058693909645,-88.23529758782387,84.22370748782159
2024-09-23 07:21:09.281429,43.66,2.315006,-0.0031836870127375577,-0.023728432883788564,0.09665483728461309,40.106058693909645,-92.24360919585227,76.200527287817
2024-09-23 07:21:09.313310,43.66,2.315006,-0.0026862297461545674,-0.023728432883788564,0.09665483728461309,40.106058693909645,-92.24360919585227,76.200527287817
2024-09-23 07:21:09.324580,43.66,2.315006,-0.0026862297461545674,-0.024524361472367997,0.09675432418099966,36.09446859390736,-92.24360919585227,80.21211738781929
2024-09-23 07:21:09.368169,43.66,2.315057,-0.0029847020175114316,-0.02367869399252531,0.09630662707135339,36.09446859390736,-92.24360919585227,80.21211738781929
2024-09-23 07:21:09.379977,43.66,2.315057,-0.0029847020175114316,-0.02367869399252531,0.09630662707135339,44.11764879391193,-92.24360919585227,80.21211738781929
2024-09-23 07:21:09.412705,43.66,2.315057,-0.0029847020175114316,-0.02367869399252531,0.09630662707135339,44.11764879391193,-92.24360919585227,76.200527287817
2024-09-23 07:21:09.424408,43.66,2.315108,-0.0030841997366068195,-0.024076653729884996,0.09715228999426605,36.09446859390736,-92.24360919585227,76.200527287817
2024-09-23 07:21:09.467833,43.66,2.315159,-0.0025369937054121774,-0.024375126570858115,0.09715228999426605,36.09446859390736,-88.23529758782387,80.21211738781929
2024-09-23 07:21:09.479174,43.66,2.315159,-0.0025369937054121774,-0.024375126570858115,0.09705279702197278,36.09446859390736,-88.23529758782387,80.21211738781929
2024-09-23 07:21:09.511803,43.66,2.315159,-0.0025369937054121774,-0.024375126570858115,0.09705279702197278,36.09446859390736,-92.24360919585227,88.23529758782387
2024-09-23 07:21:09.523244,43.66,2.315209,-0.0029847020175114316,-0.024275627522658133,0.09705279702197278,36.09446859390736,-92.24360919585227,88.23529758782387
2024-09-23 07:21:09.566073,43.66,2.31526,-0.0030841997366068195,-0.024275627522658133,0.09680407370509965,28.07457030097246,-104.27510100388527,80.21211738781929
2024-09-23 07:21:09.608616,43.66,2.31526,-0.0030841997366068195,-0.02367869399252531,0.0966050877605131,28.07457030097246,-104.27510100388527,80.21211738781929
2024-09-23 07:21:09.619784,43.66,2.315347,-0.0030841997366068195,-0.02367869399252531,0.0966050877605131,28.07457030097246,-100.26678939585686,80.21211738781929
2024-09-23 07:21:09.662084,43.66,2.315347,-0.0031836870127375577,-0.02457410036363125,0.09720203344245934,36.09446859390736,-96.25519929585457,80.21211738781929
2024-09-23 07:21:09.673851,43.66,2.315347,-0.0031836870127375577,-0.02457410036363125,0.09720203344245934,36.09446859390736,-96.25519929585457,80.21211738781929
2024-09-23 07:21:09.706771,43.66,2.315399,-0.0031836870127375577,-0.02457410036363125,0.09720203344245934,36.09446859390736,-96.25519929585457,80.21211738781929
2024-09-23 07:21:09.718142,43.66,2.315399,-0.0031836870127375577,-0.024076653729884996,0.09640611396773996,36.09446859390736,-92.24360919585227,80.21211738781929
2024-09-23 07:21:09.760364,43.66,2.315449,-0.0029349636958644295,-0.024026904205785005,0.0970030596496862,52.137550501942634,-92.24360919585227,84.22370748782159
2024-09-23 07:21:09.802909,43.66,2.315449,-0.0029349636958644295,-0.024026904205785005,0.0970030596496862,52.137550501942634,-92.24360919585227,80.21211738781929
2024-09-23 07:21:09.814415,43.66,2.3155,-0.003482159473966507,-0.02397715620066169,0.09750050628343246,52.137550501942634,-92.24360919585227,80.21211738781929
2024-09-23 07:21:09.856540,43.66,2.315551,-0.003382661564999035,-0.02397715620066169,0.09750050628343246,40.106058693909645,-92.24360919585227,80.21211738781929
2024-09-23 07:21:09.868299,43.66,2.315551,-0.003382661564999035,-0.024325377046758124,0.09750050628343246,40.106058693909645,-92.24360919585227,80.21211738781929
2024-09-23 07:21:09.900416,43.66,2.315551,-0.003382661564999035,-0.024325377046758124,0.09690356060148622,40.106058693909645,-92.24360919585227,80.21211738781929
2024-09-23 07:21:09.912293,43.66,2.315601,-0.0026862297461545674,-0.024325377046758124,0.09690356060148622,44.11764879391193,-96.25519929585457,76.200527287817
2024-09-23 07:21:09.956718,43.66,2.315688,-0.0026862297461545674,-0.02397715620066169,0.0973512698629459,44.11764879391193,-100.26678939585686,76.200527287817
2024-09-23 07:21:09.998996,43.66,2.315688,-0.0032831742888682963,-0.024176140626271565,0.0973512698629459,44.11764879391193,-100.26678939585686,76.200527287817
2024-09-23 07:21:10.010732,43.66,2.315688,-0.0032831742888682963,-0.024176140626271565,0.09740101331113918,32.08287849390507,-84.22370748782159,76.200527287817
2024-09-23 07:21:10.054298,43.66,2.31574,-0.002636491424507565,-0.024524361472367997,0.09725178296655933,36.09446859390736,-96.25519929585457,76.200527287817
2024-09-23 07:21:10.098301,43.66,2.315791,-0.0035318979854855937,-0.024524361472367997,0.09725178296655933,36.09446859390736,-96.25519929585457,76.200527287817
2024-09-23 07:21:10.109946,43.66,2.315791,-0.0035318979854855937,-0.02397715620066169,0.09690356060148622,40.106058693909645,-96.25519929585457,76.200527287817
2024-09-23 07:21:10.142759,43.66,2.315791,-0.0035318979854855937,-0.02397715620066169,0.09690356060148622,40.106058693909645,-96.25519929585457,76.200527287817
2024-09-23 07:21:10.154772,43.66,2.315841,-0.0033329230534799477,-0.024325377046758124,0.09705279702197278,40.106058693909645,-96.25519929585457,84.22370748782159
2024-09-23 07:21:10.197729,43.82,2.315892,-0.0031836870127375577,-0.024325377046758124,0.09705279702197278,40.106058693909645,-96.25519929585457,84.22370748782159
2024-09-23 07:21:10.209413,43.82,2.315892,-0.0031836870127375577,-0.024275627522658133,0.09705279702197278,40.106058693909645,-96.25519929585457,84.22370748782159
2024-09-23 07:21:10.241628,43.82,2.315892,-0.0031836870127375577,-0.024275627522658133,0.09720203344245934,28.07457030097246,-96.25519929585457,84.22370748782159
2024-09-23 07:21:10.253306,43.82,2.315943,-0.0032831742888682963,-0.024275627522658133,0.09720203344245934,28.07457030097246,-96.25519929585457,76.200527287817
2024-09-23 07:21:10.296124,43.82,2.315943,-0.0032831742888682963,-0.023827930413011865,0.09695331012558621,32.08287849390507,-104.27510100388527,76.200527287817
2024-09-23 07:21:10.309953,43.82,2.31603,-0.0032831742888682963,-0.023827930413011865,0.09695331012558621,32.08287849390507,-104.27510100388527,76.200527287817
2024-09-23 07:21:10.344101,43.82,2.31603,-0.003631395514708897,-0.02362894446842532,0.09710254654607277,32.08287849390507,-104.27510100388527,76.200527287817
2024-09-23 07:21:10.356079,43.82,2.31603,-0.003631395514708897,-0.02362894446842532,0.09710254654607277,32.08287849390507,-96.25519929585457,80.21211738781929
2024-09-23 07:21:10.388442,43.82,2.316081,-0.0031339382481259063,-0.02362894446842532,0.09710254654607277,32.08287849390507,-96.25519929585457,80.21211738781929
2024-09-23 07:21:10.399582,43.82,2.316081,-0.0031339382481259063,-0.024275627522658133,0.0970030596496862,32.08287849390507,-92.24360919585227,80.21211738781929
2024-09-23 07:21:10.442528,43.82,2.316132,-0.0030841997366068195,-0.024225890150371555,0.09755024973162574,32.08287849390507,-92.24360919585227,76.200527287817
2024-09-23 07:21:10.454166,43.82,2.316132,-0.0030841997366068195,-0.024225890150371555,0.09755024973162574,40.106058693909645,-92.24360919585227,76.200527287817
2024-09-23 07:21:10.485803,43.82,2.316132,-0.0030841997366068195,-0.024225890150371555,0.09755024973162574,40.106058693909645,-100.26678939585686,80.21211738781929
2024-09-23 07:21:10.497125,43.82,2.316182,-0.003382661564999035,-0.024325377046758124,0.09680407370509965,40.106058693909645,-100.26678939585686,80.21211738781929
2024-09-23 07:21:10.540294,43.82,2.316233,-0.0029349636958644295,-0.023778180888911878,0.09680407370509965,40.106058693909645,-96.25519929585457,76.200527287817
2024-09-23 07:21:10.582806,43.82,2.316233,-0.0029349636958644295,-0.023778180888911878,0.09720203344245934,40.106058693909645,-96.25519929585457,76.200527287817
2024-09-23 07:21:10.634725,43.82,2.316284,-0.0029349636958644295,-0.023778180888911878,0.09720203344245934,40.106058693909645,-96.25519929585457,76.200527287817
2024-09-23 07:21:10.646412,43.82,2.316284,-0.002586742470023829,-0.024524361472367997,0.09720203344245934,40.106058693909645,-96.25519929585457,76.200527287817
2024-09-23 07:21:10.678558,43.82,2.316284,-0.002586742470023829,-0.024524361472367997,0.09650560086412653,40.106058693909645,-96.25519929585457,76.200527287817
2024-09-23 07:21:10.689879,43.82,2.316371,-0.003233425524256645,-0.024524361472367997,0.09650560086412653,32.08287849390507,-96.25519929585457,84.22370748782159
2024-09-23 07:21:10.733224,43.82,2.316371,-0.003233425524256645,-0.02412639262114825,0.09710254654607277,36.09446859390736,-96.25519929585457,84.22370748782159
2024-09-23 07:21:10.744873,43.82,2.316422,-0.003233425524256645,-0.02412639262114825,0.09710254654607277,36.09446859390736,-96.25519929585457,80.21211738781929
2024-09-23 07:21:10.776329,43.82,2.316422,-0.0031339382481259063,-0.02412639262114825,0.09710254654607277,36.09446859390736,-96.25519929585457,80.21211738781929
2024-09-23 07:21:10.788273,43.82,2.316422,-0.0031339382481259063,-0.023827930413011865,0.09685382322919964,40.106058693909645,-104.27510100388527,76.200527287817
2024-09-23 07:21:10.831101,43.82,2.316473,-0.002586742470023829,-0.02412639262114825,0.09685382322919964,40.106058693909645,-104.27510100388527,76.200527287817
2024-09-23 07:21:10.842947,43.82,2.316473,-0.002586742470023829,-0.02412639262114825,0.09685382322919964,32.08287849390507,-96.25519929585457,76.200527287817
2024-09-23 07:21:10.875051,43.82,2.316473,-0.002586742470023829,-0.02412639262114825,0.09685382322919964,32.08287849390507,-96.25519929585457,76.200527287817
2024-09-23 07:21:10.886220,43.82,2.316567,-0.003233425524256645,-0.02397715620066169,0.0973015264147526,36.09446859390736,-96.25519929585457,76.200527287817
2024-09-23 07:21:10.928917,43.82,2.316618,-0.0028354659767690416,-0.024076653729884996,0.0973015264147526,36.09446859390736,-100.26678939585686,72.1922225099802
2024-09-23 07:21:10.940797,43.82,2.316618,-0.0028354659767690416,-0.024076653729884996,0.09705279702197278,36.09446859390736,-100.26678939585686,72.1922225099802
2024-09-23 07:21:10.973251,43.82,2.316618,-0.0028354659767690416,-0.024076653729884996,0.09705279702197278,36.09446859390736,-92.24360919585227,72.1922225099802
2024-09-23 07:21:10.984611,43.82,2.316669,-0.003233425524256645,-0.02412639262114825,0.09705279702197278,36.09446859390736,-92.24360919585227,88.23529758782387
2024-09-23 07:21:11.026527,43.82,2.316669,-0.003233425524256645,-0.02412639262114825,0.09630662707135339,48.12595698684454,-100.26678939585686,88.23529758782387
2024-09-23 07:21:11.070107,43.82,2.316669,-0.003233425524256645,-0.02412639262114825,0.09630662707135339,48.12595698684454,-100.26678939585686,84.22370748782159
2024-09-23 07:21:11.081314,43.82,2.316719,-0.0035816467500972456,-0.02412639262114825,0.0970030596496862,40.106058693909645,-100.26678939585686,84.22370748782159
2024-09-23 07:21:11.124306,43.82,2.31681,-0.0030344509719951677,-0.02412639262114825,0.0970030596496862,40.106058693909645,-100.26678939585686,76.200527287817
2024-09-23 07:21:11.135424,43.82,2.31681,-0.0030344509719951677,-0.024275627522658133,0.0966050877605131,40.106058693909645,-100.26678939585686,76.200527287817
2024-09-23 07:21:11.168896,43.82,2.31681,-0.0030344509719951677,-0.024275627522658133,0.0966050877605131,44.11764879391193,-88.23529758782387,76.200527287817
2024-09-23 07:21:11.180606,43.82,2.316861,-0.0033329230534799477,-0.024176140626271565,0.0966050877605131,44.11764879391193,-88.23529758782387,76.200527287817
2024-09-23 07:21:11.223063,44.07,2.316912,-0.0037308827908396356,-0.024176140626271565,0.09640611396773996,40.106058693909645,-88.23529758782387,76.200527287817
2024-09-23 07:21:11.266169,44.07,2.316912,-0.0037308827908396356,-0.024275627522658133,0.09740101331113918,40.106058693909645,-88.23529758782387,76.200527287817
2024-09-23 07:21:11.278009,44.07,2.316962,-0.0037308827908396356,-0.024275627522658133,0.09740101331113918,36.09446859390736,-92.24360919585227,76.200527287817
2024-09-23 07:21:11.321826,44.07,2.316962,-0.0030841997366068195,-0.023778180888911878,0.09695331012558621,36.09446859390736,-100.26678939585686,84.22370748782159
2024-09-23 07:21:11.364467,44.07,2.317054,-0.0031339382481259063,-0.023778180888911878,0.09695331012558621,36.09446859390736,-100.26678939585686,84.22370748782159
2024-09-23 07:21:11.375764,44.07,2.317054,-0.0031339382481259063,-0.02412639262114825,0.09675432418099966,36.09446859390736,-96.25519929585457,84.22370748782159
2024-09-23 07:21:11.419384,44.07,2.317105,-0.0036811340262279837,-0.024176140626271565,0.09655535038822652,36.09446859390736,-96.25519929585457,80.21211738781929
2024-09-23 07:21:11.462100,44.07,2.317156,-0.0036811340262279837,-0.024176140626271565,0.09655535038822652,36.09446859390736,-96.25519929585457,80.21211738781929
2024-09-23 07:21:11.474291,44.07,2.317156,-0.0031339382481259063,-0.024225890150371555,0.09710254654607277,36.09446859390736,-96.25519929585457,80.21211738781929
2024-09-23 07:21:11.516272,44.07,2.317206,-0.0031836870127375577,-0.024225890150371555,0.09710254654607277,36.09446859390736,-96.25519929585457,76.200527287817
2024-09-23 07:21:11.529239,44.07,2.317206,-0.0031836870127375577,-0.02457410036363125,0.09710254654607277,36.09446859390736,-96.25519929585457,76.200527287817
2024-09-23 07:21:11.562097,44.07,2.317206,-0.0031836870127375577,-0.02457410036363125,0.09725178296655933,40.106058693909645,-96.25519929585457,76.200527287817
2024-09-23 07:21:11.573890,44.07,2.317257,-0.0029847020175114316,-0.02457410036363125,0.09725178296655933,40.106058693909645,-96.25519929585457,76.200527287817
2024-09-23 07:21:11.606114,44.07,2.317257,-0.0029847020175114316,-0.02362894446842532,0.09725178296655933,40.106058693909645,-96.25519929585457,76.200527287817
2024-09-23 07:21:11.617742,44.07,2.317346,-0.0029847020175114316,-0.02362894446842532,0.09745075675933246,40.106058693909645,-100.26678939585686,80.21211738781929
2024-09-23 07:21:11.660127,44.07,2.317346,-0.0031339382481259063,-0.023778180888911878,0.0970030596496862,40.106058693909645,-96.25519929585457,80.21211738781929
2024-09-23 07:21:11.671787,44.07,2.317346,-0.0031339382481259063,-0.023778180888911878,0.0970030596496862,40.106058693909645,-96.25519929585457,80.21211738781929
2024-09-23 07:21:11.703574,44.07,2.317397,-0.0031339382481259063,-0.023778180888911878,0.0970030596496862,40.106058693909645,-96.25519929585457,80.21211738781929
2024-09-23 07:21:11.715527,44.07,2.317397,-0.0031836870127375577,-0.023877669304275123,0.0970030596496862,36.09446859390736,-92.24360919585227,80.21211738781929
2024-09-23 07:21:11.757724,44.07,2.317449,-0.0031339382481259063,-0.024275627522658133,0.09685382322919964,36.09446859390736,-92.24360919585227,76.200527287817
2024-09-23 07:21:11.769802,44.07,2.317449,-0.0031339382481259063,-0.024275627522658133,0.09685382322919964,40.106058693909645,-92.24360919585227,76.200527287817
2024-09-23 07:21:11.802416,44.07,2.317449,-0.0031339382481259063,-0.024275627522658133,0.09685382322919964,40.106058693909645,-96.25519929585457,72.1922225099802
2024-09-23 07:21:11.813419,44.07,2.317499,-0.0031339382481259063,-0.02412639262114825,0.09665483728461309,40.106058693909645,-96.25519929585457,72.1922225099802
2024-09-23 07:21:11.855262,44.07,2.31755,-0.0028852147413806935,-0.02412639262114825,0.09665483728461309,36.09446859390736,-96.25519929585457,76.200527287817
2024-09-23 07:21:11.866813,44.07,2.31755,-0.0028852147413806935,-0.024623849887731242,0.09665483728461309,36.09446859390736,-96.25519929585457,76.200527287817
2024-09-23 07:21:11.900682,44.07,2.31755,-0.0028852147413806935,-0.024623849887731242,0.09710254654607277,36.09446859390736,-96.25519929585457,76.200527287817
2024-09-23 07:21:11.912313,44.07,2.317601,-0.0031836870127375577,-0.024623849887731242,0.09710254654607277,36.09446859390736,-92.24360919585227,84.22370748782159
2024-09-23 07:21:11.955291,44.07,2.317687,-0.0031836870127375577,-0.024773084789241125,0.09695331012558621,36.09446859390736,-96.25519929585457,76.200527287817
2024-09-23 07:21:11.997326,44.07,2.317687,-0.0034324103296106863,-0.023927417309398437,0.09695331012558621,36.09446859390736,-96.25519929585457,76.200527287817
2024-09-23 07:21:12.008826,44.07,2.317687,-0.0034324103296106863,-0.023927417309398437,0.09690356060148622,48.12595698684454,-88.23529758782387,80.21211738781929
2024-09-23 07:21:12.051215,44.07,2.317739,-0.0025369937054121774,-0.024026904205785005,0.09665483728461309,48.12595698684454,-88.23529758782387,80.21211738781929
2024-09-23 07:21:12.094585,44.07,2.317739,-0.0025369937054121774,-0.024026904205785005,0.09665483728461309,32.08287849390507,-100.26678939585686,80.21211738781929
2024-09-23 07:21:12.106567,44.07,2.317789,-0.0035816467500972456,-0.023778180888911878,0.09665483728461309,32.08287849390507,-100.26678939585686,76.200527287817
2024-09-23 07:21:12.150462,44.07,2.31784,-0.0032831742888682963,-0.023778180888911878,0.09750050628343246,32.08287849390507,-108.28669110388756,80.21211738781929
2024-09-23 07:21:12.193442,44.07,2.31784,-0.0032831742888682963,-0.024076653729884996,0.09710254654607277,36.09446859390736,-108.28669110388756,80.21211738781929
2024-09-23 07:21:12.205613,44.07,2.317891,-0.0032831742888682963,-0.024076653729884996,0.09710254654607277,36.09446859390736,-96.25519929585457,84.22370748782159
2024-09-23 07:21:12.247824,43.95,2.317891,-0.003482159473966507,-0.024225890150371555,0.09695331012558621,32.08287849390507,-96.25519929585457,80.21211738781929
2024-09-23 07:21:12.290413,43.95,2.317941,-0.0035318979854855937,-0.024176140626271565,0.09695331012558621,32.08287849390507,-96.25519929585457,80.21211738781929
2024-09-23 07:21:12.301669,43.95,2.317941,-0.0035318979854855937,-0.024176140626271565,0.09710254654607277,36.09446859390736,-96.25519929585457,80.21211738781929
2024-09-23 07:21:12.343434,43.95,2.318029,-0.003631395514708897,-0.024225890150371555,0.09670458680871308,36.09446859390736,-96.25519929585457,72.1922225099802
2024-09-23 07:21:12.356117,43.95,2.318029,-0.003631395514708897,-0.024225890150371555,0.09670458680871308,40.106058693909645,-96.25519929585457,72.1922225099802
2024-09-23 07:21:12.388652,43.95,2.31808,-0.003631395514708897,-0.024225890150371555,0.09670458680871308,40.106058693909645,-92.24360919585227,76.200527287817
2024-09-23 07:21:12.399878,43.95,2.31808,-0.0032831742888682963,-0.023827930413011865,0.09655535038822652,40.106058693909645,-92.24360919585227,76.200527287817
2024-09-23 07:21:12.442635,43.95,2.318131,-0.003482159473966507,-0.023877669304275123,0.09655535038822652,40.106058693909645,-92.24360919585227,80.21211738781929
2024-09-23 07:21:12.484329,43.95,2.318131,-0.003482159473966507,-0.023877669304275123,0.09695331012558621,44.11764879391193,-92.24360919585227,80.21211738781929
2024-09-23 07:21:12.498026,43.95,2.318182,-0.0030344509719951677,-0.023877669304275123,0.09695331012558621,44.11764879391193,-96.25519929585457,76.200527287817
2024-09-23 07:21:12.531313,43.95,2.318182,-0.0030344509719951677,-0.023827930413011865,0.09695331012558621,44.11764879391193,-96.25519929585457,76.200527287817
2024-09-23 07:21:12.542357,43.95,2.318272,-0.0030344509719951677,-0.023827930413011865,0.09695331012558621,44.11764879391193,-92.24360919585227,80.21211738781929
2024-09-23 07:21:12.585430,43.95,2.318272,-0.003382661564999035,-0.024325377046758124,0.0973512698629459,44.11764879391193,-92.24360919585227,80.21211738781929
2024-09-23 07:21:12.597291,43.95,2.318272,-0.003382661564999035,-0.024325377046758124,0.0973512698629459,44.11764879391193,-88.23529758782387,88.23529758782387
2024-09-23 07:21:12.631300,43.95,2.318324,-0.0030841997366068195,-0.024325377046758124,0.0973512698629459,44.11764879391193,-88.23529758782387,88.23529758782387
2024-09-23 07:21:12.642665,43.95,2.318324,-0.0030841997366068195,-0.02457410036363125,0.0966050877605131,48.12595698684454,-88.23529758782387,88.23529758782387
2024-09-23 07:21:12.684278,43.95,2.318374,-0.002785727465249955,-0.02412639262114825,0.0966050877605131,48.12595698684454,-88.23529758782387,84.22370748782159
2024-09-23 07:21:12.695832,43.95,2.318374,-0.002785727465249955,-0.02412639262114825,0.09665483728461309,44.11764879391193,-88.23529758782387,84.22370748782159
2024-09-23 07:21:12.728119,43.95,2.318374,-0.002785727465249955,-0.02412639262114825,0.09665483728461309,44.11764879391193,-96.25519929585457,80.21211738781929
2024-09-23 07:21:12.739299,43.95,2.318425,-0.0032831742888682963,-0.024225890150371555,0.09655535038822652,44.11764879391193,-96.25519929585457,80.21211738781929
2024-09-23 07:21:12.781673,43.95,2.318476,-0.0031339382481259063,-0.024225890150371555,0.09655535038822652,44.11764879391193,-92.24360919585227,76.200527287817
2024-09-23 07:21:12.793350,43.95,2.318476,-0.0031339382481259063,-0.02412639262114825,0.09655535038822652,44.11764879391193,-92.24360919585227,76.200527287817
2024-09-23 07:21:12.826577,43.95,2.318476,-0.0031339382481259063,-0.02412639262114825,0.0970030596496862,32.08287849390507,-92.24360919585227,76.200527287817
2024-09-23 07:21:12.838545,43.95,2.318526,-0.003233425524256645,-0.02412639262114825,0.0970030596496862,32.08287849390507,-100.26678939585686,80.21211738781929
2024-09-23 07:21:12.882736,43.95,2.318613,-0.003233425524256645,-0.023877669304275123,0.09710254654607277,36.09446859390736,-100.26678939585686,80.21211738781929
2024-09-23 07:21:12.924511,43.95,2.318613,-0.0037308827908396356,-0.024524361472367997,0.09690356060148622,36.09446859390736,-100.26678939585686,80.21211738781929
2024-09-23 07:21:12.935778,43.95,2.318613,-0.0037308827908396356,-0.024524361472367997,0.09690356060148622,44.11764879391193,-96.25519929585457,84.22370748782159
2024-09-23 07:21:12.979135,43.95,2.318665,-0.003631395514708897,-0.023778180888911878,0.09675432418099966,40.106058693909645,-100.26678939585686,84.22370748782159
2024-09-23 07:21:13.021967,43.95,2.318715,-0.003631395514708897,-0.023778180888911878,0.09675432418099966,40.106058693909645,-100.26678939585686,80.21211738781929
2024-09-23 07:21:13.033433,43.95,2.318715,-0.0029847020175114316,-0.024325377046758124,0.09690356060148622,44.11764879391193,-100.26678939585686,80.21211738781929
2024-09-23 07:21:13.076197,43.95,2.318766,-0.003233425524256645,-0.024325377046758124,0.09690356060148622,44.11764879391193,-100.26678939585686,80.21211738781929
2024-09-23 07:21:13.120174,43.95,2.318766,-0.003233425524256645,-0.02397715620066169,0.09690356060148622,40.106058693909645,-100.26678939585686,80.21211738781929
2024-09-23 07:21:13.131742,43.95,2.318817,-0.003233425524256645,-0.02397715620066169,0.09690356060148622,40.106058693909645,-100.26678939585686,76.200527287817
2024-09-23 07:21:13.175155,43.95,2.318817,-0.0036811340262279837,-0.023728432883788564,0.09690356060148622,32.08287849390507,-96.25519929585457,80.21211738781929
2024-09-23 07:21:13.217392,43.95,2.318867,-0.0030344509719951677,-0.02352945757203875,0.09690356060148622,32.08287849390507,-96.25519929585457,80.21211738781929
2024-09-23 07:21:13.229479,43.95,2.318867,-0.0030344509719951677,-0.02352945757203875,0.09725178296655933,40.106058693909645,-100.26678939585686,80.21211738781929
2024-09-23 07:21:13.272105,43.95,2.318955,-0.003233425524256645,-0.023579196463302005,0.0962568775472534,36.09446859390736,-100.26678939585686,84.22370748782159
2024-09-23 07:21:13.314375,43.95,2.319006,-0.003233425524256645,-0.023579196463302005,0.0962568775472534,36.09446859390736,-92.24360919585227,84.22370748782159
2024-09-23 07:21:13.325735,43.95,2.319006,-0.0030344509719951677,-0.02397715620066169,0.09764974270391902,36.09446859390736,-92.24360919585227,84.22370748782159
2024-09-23 07:21:13.369130,43.95,2.319057,-0.0029847020175114316,-0.024225890150371555,0.09764974270391902,40.106058693909645,-92.24360919585227,80.21211738781929
2024-09-23 07:21:13.411906,43.95,2.319057,-0.0029847020175114316,-0.024225890150371555,0.09680407370509965,36.09446859390736,-100.26678939585686,80.21211738781929
2024-09-23 07:21:13.423091,43.95,2.319107,-0.0033329230534799477,-0.024225890150371555,0.09680407370509965,36.09446859390736,-100.26678939585686,76.200527287817
2024-09-23 07:21:13.465963,43.95,2.319107,-0.0033329230534799477,-0.024225890150371555,0.09745075675933246,36.09446859390736,-100.26678939585686,88.23529758782387
2024-09-23 07:21:13.477767,43.95,2.319198,-0.0033329230534799477,-0.024225890150371555,0.09745075675933246,36.09446859390736,-100.26678939585686,88.23529758782387
2024-09-23 07:21:13.509445,43.95,2.319198,-0.003233425524256645,-0.024026904205785005,0.09645586349183995,36.09446859390736,-100.26678939585686,88.23529758782387
2024-09-23 07:21:13.521066,43.95,2.319198,-0.003233425524256645,-0.024026904205785005,0.09645586349183995,44.11764879391193,-96.25519929585457,72.1922225099802
2024-09-23 07:21:13.564275,43.95,2.31925,-0.0028852147413806935,-0.02412639262114825,0.09680407370509965,44.11764879391193,-88.23529758782387,72.1922225099802
2024-09-23 07:21:13.606911,43.95,2.3193,-0.0027359787006383035,-0.02412639262114825,0.09680407370509965,44.11764879391193,-88.23529758782387,76.200527287817
2024-09-23 07:21:13.619104,43.95,2.3193,-0.0027359787006383035,-0.023877669304275123,0.09690356060148622,44.11764879391193,-88.23529758782387,76.200527287817
2024-09-23 07:21:13.661933,43.95,2.319351,-0.003382661564999035,-0.024076653729884996,0.09630662707135339,44.11764879391193,-96.25519929585457,80.21211738781929
2024-09-23 07:21:13.705671,43.95,2.319351,-0.003382661564999035,-0.024076653729884996,0.09630662707135339,40.106058693909645,-92.24360919585227,80.21211738781929
2024-09-23 07:21:13.716672,43.95,2.319402,-0.0030344509719951677,-0.023827930413011865,0.09630662707135339,40.106058693909645,-92.24360919585227,80.21211738781929
2024-09-23 07:21:13.760109,43.95,2.319453,-0.0034324103296106863,-0.023827930413011865,0.09665483728461309,44.11764879391193,-96.25519929585457,80.21211738781929
2024-09-23 07:21:13.802393,43.95,2.319453,-0.0034324103296106863,-0.023927417309398437,0.09715228999426605,36.09446859390736,-96.25519929585457,80.21211738781929
2024-09-23 07:21:13.815025,43.95,2.31954,-0.0034324103296106863,-0.023927417309398437,0.09715228999426605,36.09446859390736,-104.27510100388527,80.21211738781929
2024-09-23 07:21:13.857584,43.95,2.31954,-0.0031339382481259063,-0.024176140626271565,0.09640611396773996,44.11764879391193,-96.25519929585457,84.22370748782159
2024-09-23 07:21:13.900177,43.95,2.319591,-0.0029847020175114316,-0.024026904205785005,0.09640611396773996,44.11764879391193,-96.25519929585457,84.22370748782159
2024-09-23 07:21:13.911679,43.95,2.319591,-0.0029847020175114316,-0.024026904205785005,0.09685382322919964,32.08287849390507,-96.25519929585457,84.22370748782159
2024-09-23 07:21:13.954762,43.95,2.319642,-0.0030344509719951677,-0.024524361472367997,0.09680407370509965,32.08287849390507,-96.25519929585457,80.21211738781929
2024-09-23 07:21:13.997384,43.95,2.319692,-0.0030344509719951677,-0.024524361472367997,0.09680407370509965,32.08287849390507,-96.25519929585457,80.21211738781929
2024-09-23 07:21:14.008711,43.95,2.319692,-0.0037308827908396356,-0.02412639262114825,0.09715228999426605,32.08287849390507,-96.25519929585457,80.21211738781929
2024-09-23 07:21:14.051536,43.95,2.319743,-0.0031339382481259063,-0.02412639262114825,0.09715228999426605,44.11764879391193,-96.25519929585457,76.200527287817
2024-09-23 07:21:14.093582,43.95,2.319743,-0.0031339382481259063,-0.02412639262114825,0.09740101331113918,32.08287849390507,-96.25519929585457,76.200527287817
2024-09-23 07:21:14.105082,43.95,2.319794,-0.0034324103296106863,-0.02412639262114825,0.09740101331113918,32.08287849390507,-92.24360919585227,80.21211738781929
2024-09-23 07:21:14.148741,43.95,2.319881,-0.0034324103296106863,-0.023927417309398437,0.09615739065086683,32.08287849390507,-96.25519929585457,84.22370748782159
2024-09-23 07:21:14.190757,43.95,2.319881,-0.0026862297461545674,-0.023728432883788564,0.09615739065086683,32.08287849390507,-96.25519929585457,84.22370748782159
2024-09-23 07:21:14.201814,43.95,2.319881,-0.0026862297461545674,-0.023728432883788564,0.09755024973162574,36.09446859390736,-100.26678939585686,76.200527287817
2024-09-23 07:21:14.244441,43.95,2.319932,-0.0031339382481259063,-0.024225890150371555,0.0973015264147526,40.106058693909645,-100.26678939585686,76.200527287817
2024-09-23 07:21:14.256531,43.95,2.319932,-0.0031339382481259063,-0.024225890150371555,0.0973015264147526,40.106058693909645,-104.27510100388527,76.200527287817
2024-09-23 07:21:14.288490,43.58,2.319983,-0.0031339382481259063,-0.024225890150371555,0.0973015264147526,40.106058693909645,-104.27510100388527,80.21211738781929
2024-09-23 07:21:14.299667,43.58,2.319983,-0.003233425524256645,-0.024275627522658133,0.09675432418099966,44.11764879391193,-104.27510100388527,80.21211738781929
2024-09-23 07:21:14.342145,43.58,2.320034,-0.0031836870127375577,-0.02352945757203875,0.09675432418099966,44.11764879391193,-100.26678939585686,80.21211738781929
2024-09-23 07:21:14.354261,43.58,2.320034,-0.0031836870127375577,-0.02352945757203875,0.09650560086412653,44.11764879391193,-100.26678939585686,80.21211738781929
2024-09-23 07:21:14.386776,43.58,2.320034,-0.0031836870127375577,-0.02352945757203875,0.09650560086412653,36.09446859390736,-100.26678939585686,80.21211738781929
2024-09-23 07:21:14.397989,43.58,2.320084,-0.0031836870127375577,-0.024225890150371555,0.09650560086412653,36.09446859390736,-100.26678939585686,76.200527287817
2024-09-23 07:21:14.441597,43.58,2.320135,-0.003233425524256645,-0.024225890150371555,0.09745075675933246,44.11764879391193,-100.26678939585686,80.21211738781929
2024-09-23 07:21:14.483557,43.58,2.320135,-0.003233425524256645,-0.024375126570858115,0.09705279702197278,44.11764879391193,-100.26678939585686,80.21211738781929
2024-09-23 07:21:14.495707,43.58,2.320222,-0.003233425524256645,-0.024375126570858115,0.09705279702197278,44.11764879391193,-100.26678939585686,80.21211738781929
2024-09-23 07:21:14.539315,43.58,2.320222,-0.0030344509719951677,-0.024325377046758124,0.0970030596496862,44.11764879391193,-104.27510100388527,80.21211738781929
2024-09-23 07:21:14.583308,43.58,2.320274,-0.0026862297461545674,-0.024026904205785005,0.0970030596496862,44.11764879391193,-104.27510100388527,80.21211738781929
2024-09-23 07:21:14.595069,43.58,2.320274,-0.0026862297461545674,-0.024026904205785005,0.09725178296655933,36.09446859390736,-96.25519929585457,80.21211738781929
2024-09-23 07:21:14.627692,43.58,2.320274,-0.0026862297461545674,-0.024026904205785005,0.09725178296655933,36.09446859390736,-96.25519929585457,80.21211738781929
2024-09-23 07:21:14.639031,43.58,2.320324,-0.0032831742888682963,-0.024424863943144692,0.09710254654607277,40.106058693909645,-96.25519929585457,80.21211738781929
2024-09-23 07:21:14.681481,43.58,2.320375,-0.0031339382481259063,-0.024424863943144692,0.09710254654607277,40.106058693909645,-96.25519929585457,76.200527287817
2024-09-23 07:21:14.693176,43.58,2.320375,-0.0031339382481259063,-0.024325377046758124,0.09690356060148622,40.106058693909645,-96.25519929585457,76.200527287817
2024-09-23 07:21:14.726743,43.58,2.320375,-0.0031339382481259063,-0.024325377046758124,0.09690356060148622,36.09446859390736,-96.25519929585457,76.200527287817
2024-09-23 07:21:14.738627,43.58,2.320426,-0.0031339382481259063,-0.024474613467244683,0.09690356060148622,36.09446859390736,-100.26678939585686,80.21211738781929
2024-09-23 07:21:14.781887,43.58,2.320476,-0.0031339382481259063,-0.024474613467244683,0.09720203344245934,40.106058693909645,-100.26678939585686,76.200527287817
2024-09-23 07:21:14.793662,43.58,2.320476,-0.0030344509719951677,-0.024474613467244683,0.09720203344245934,40.106058693909645,-100.26678939585686,76.200527287817
2024-09-23 07:21:14.825370,43.58,2.320476,-0.0030344509719951677,-0.023429960042815445,0.09675432418099966,40.106058693909645,-100.26678939585686,76.200527287817
2024-09-23 07:21:14.836511,43.58,2.320563,-0.0030344509719951677,-0.023429960042815445,0.09675432418099966,40.106058693909645,-96.25519929585457,76.200527287817
2024-09-23 07:21:14.879420,43.58,2.320563,-0.0032831742888682963,-0.024375126570858115,0.0970030596496862,32.08287849390507,-96.25519929585457,80.21211738781929
2024-09-23 07:21:14.921668,43.58,2.320615,-0.0032831742888682963,-0.024375126570858115,0.0970030596496862,32.08287849390507,-96.25519929585457,80.21211738781929
2024-09-23 07:21:14.933047,43.58,2.320615,-0.0032831742888682963,-0.023778180888911878,0.09690356060148622,32.08287849390507,-100.26678939585686,80.21211738781929
2024-09-23 07:21:14.975200,43.58,2.320666,-0.002288270198666964,-0.023778180888911878,0.09720203344245934,32.08287849390507,-100.26678939585686,84.22370748782159
2024-09-23 07:21:14.987319,43.58,2.320666,-0.002288270198666964,-0.023778180888911878,0.09720203344245934,36.09446859390736,-100.26678939585686,84.22370748782159
2024-09-23 07:21:15.019744,43.58,2.320666,-0.002288270198666964,-0.023778180888911878,0.09720203344245934,36.09446859390736,-104.27510100388527,68.18063240997792
2024-09-23 07:21:15.031627,43.58,2.320716,-0.0030841997366068195,-0.024076653729884996,0.09705279702197278,36.09446859390736,-104.27510100388527,68.18063240997792
2024-09-23 07:21:15.073640,43.58,2.320767,-0.0030344509719951677,-0.024076653729884996,0.09705279702197278,40.106058693909645,-104.27510100388527,72.1922225099802
2024-09-23 07:21:15.085671,43.58,2.320767,-0.0030344509719951677,-0.02472333678411781,0.09705279702197278,40.106058693909645,-104.27510100388527,72.1922225099802
2024-09-23 07:21:15.120022,43.58,2.320767,-0.0030344509719951677,-0.02472333678411781,0.09680407370509965,40.106058693909645,-96.25519929585457,76.200527287817
2024-09-23 07:21:15.131352,43.58,2.320818,-0.0025369937054121774,-0.02472333678411781,0.09680407370509965,40.106058693909645,-96.25519929585457,76.200527287817
2024-09-23 07:21:15.163449,43.58,2.320818,-0.0025369937054121774,-0.024275627522658133,0.09680407370509965,40.106058693909645,-96.25519929585457,76.200527287817
2024-09-23 07:21:15.175203,43.58,2.320905,-0.0025369937054121774,-0.024275627522658133,0.09680407370509965,28.07457030097246,-100.26678939585686,80.21211738781929
2024-09-23 07:21:15.217051,43.58,2.320905,-0.003482159473966507,-0.024225890150371555,0.09725178296655933,28.07457030097246,-100.26678939585686,80.21211738781929
2024-09-23 07:21:15.229623,43.58,2.320905,-0.003482159473966507,-0.024225890150371555,0.09725178296655933,36.09446859390736,-88.23529758782387,84.22370748782159
2024-09-23 07:21:15.263361,43.58,2.320957,-0.0034324103296106863,-0.024225890150371555,0.09725178296655933,36.09446859390736,-88.23529758782387,84.22370748782159
2024-09-23 07:21:15.274647,43.58,2.320957,-0.0034324103296106863,-0.02457410036363125,0.09725178296655933,44.11764879391193,-96.25519929585457,84.22370748782159
2024-09-23 07:21:15.317271,43.55,2.321007,-0.0029349636958644295,-0.024026904205785005,0.09695331012558621,44.11764879391193,-96.25519929585457,80.21211738781929
2024-09-23 07:21:15.329465,43.55,2.321007,-0.0029349636958644295,-0.024026904205785005,0.09695331012558621,40.106058693909645,-96.25519929585457,80.21211738781929
2024-09-23 07:21:15.362739,43.55,2.321058,-0.0029349636958644295,-0.024026904205785005,0.09695331012558621,40.106058693909645,-96.25519929585457,76.200527287817
2024-09-23 07:21:15.374357,43.55,2.321058,-0.0031836870127375577,-0.02397715620066169,0.09675432418099966,40.106058693909645,-96.25519929585457,76.200527287817
2024-09-23 07:21:15.416842,43.55,2.321109,-0.0029847020175114316,-0.023927417309398437,0.09675432418099966,40.106058693909645,-96.25519929585457,80.21211738781929
2024-09-23 07:21:15.459817,43.55,2.321109,-0.0029847020175114316,-0.023927417309398437,0.09670458680871308,40.106058693909645,-96.25519929585457,80.21211738781929
2024-09-23 07:21:15.471840,43.55,2.321159,-0.0036811340262279837,-0.023927417309398437,0.09670458680871308,40.106058693909645,-96.25519929585457,80.21211738781929
2024-09-23 07:21:15.514289,43.55,2.321246,-0.0036811340262279837,-0.024424863943144692,0.09715228999426605,28.07457030097246,-96.25519929585457,76.200527287817
2024-09-23 07:21:15.556774,43.55,2.321246,-0.0029847020175114316,-0.02412639262114825,0.09665483728461309,28.07457030097246,-96.25519929585457,76.200527287817
2024-09-23 07:21:15.567996,43.55,2.321246,-0.0029847020175114316,-0.02412639262114825,0.09665483728461309,40.106058693909645,-100.26678939585686,80.21211738781929
2024-09-23 07:21:15.611677,43.55,2.321297,-0.002636491424507565,-0.02412639262114825,0.09710254654607277,44.11764879391193,-96.25519929585457,80.21211738781929
2024-09-23 07:21:15.654455,43.55,2.321348,-0.0030841997366068195,-0.02412639262114825,0.09710254654607277,44.11764879391193,-96.25519929585457,84.22370748782159
2024-09-23 07:21:15.665587,43.55,2.321348,-0.0030841997366068195,-0.023778180888911878,0.09675432418099966,44.11764879391193,-96.25519929585457,84.22370748782159
2024-09-23 07:21:15.708697,43.55,2.321399,-0.0033329230534799477,-0.024673597892854556,0.09750050628343246,44.11764879391193,-100.26678939585686,76.200527287817
2024-09-23 07:21:15.752823,43.55,2.321399,-0.0033329230534799477,-0.024673597892854556,0.09750050628343246,28.07457030097246,-100.26678939585686,80.21211738781929
2024-09-23 07:21:15.764340,43.55,2.321449,-0.0030841997366068195,-0.024176140626271565,0.09750050628343246,28.07457030097246,-100.26678939585686,80.21211738781929
2024-09-23 07:21:15.807637,43.55,2.3215,-0.0031836870127375577,-0.024176140626271565,0.09675432418099966,32.08287849390507,-92.24360919585227,76.200527287817
2024-09-23 07:21:15.849905,43.55,2.3215,-0.0031836870127375577,-0.024176140626271565,0.0966050877605131,32.08287849390507,-92.24360919585227,76.200527287817
2024-09-23 07:21:15.903377,43.55,2.321587,-0.003382661564999035,-0.024076653729884996,0.0966050877605131,40.106058693909645,-96.25519929585457,76.200527287817
2024-09-23 07:21:15.945914,43.55,2.321587,-0.003382661564999035,-0.024076653729884996,0.09680407370509965,40.106058693909645,-96.25519929585457,76.200527287817
2024-09-23 07:21:15.956896,43.55,2.321639,-0.0030841997366068195,-0.024076653729884996,0.09680407370509965,40.106058693909645,-100.26678939585686,64.16903547978401
2024-09-23 07:21:16.000107,43.55,2.321639,-0.0030841997366068195,-0.023778180888911878,0.09675432418099966,36.09446859390736,-100.26678939585686,72.1922225099802
2024-09-23 07:21:16.012021,43.55,2.321689,-0.0030841997366068195,-0.023778180888911878,0.09675432418099966,36.09446859390736,-100.26678939585686,72.1922225099802
2024-09-23 07:21:16.044687,43.55,2.321689,-0.0028354659767690416,-0.024424863943144692,0.09755024973162574,36.09446859390736,-100.26678939585686,72.1922225099802
2024-09-23 07:21:16.056456,43.55,2.321689,-0.0028354659767690416,-0.024424863943144692,0.09755024973162574,40.106058693909645,-100.26678939585686,80.21211738781929
2024-09-23 07:21:16.099184,43.55,2.32174,-0.0028354659767690416,-0.02397715620066169,0.09715228999426605,40.106058693909645,-100.26678939585686,80.21211738781929
2024-09-23 07:21:16.143570,43.55,2.321832,-0.0027359787006383035,-0.024225890150371555,0.09715228999426605,40.106058693909645,-100.26678939585686,80.21211738781929
2024-09-23 07:21:16.155124,43.55,2.321832,-0.0027359787006383035,-0.024225890150371555,0.09680407370509965,40.106058693909645,-100.26678939585686,80.21211738781929
2024-09-23 07:21:16.187244,43.55,2.321832,-0.0027359787006383035,-0.024225890150371555,0.09680407370509965,40.106058693909645,-100.26678939585686,80.21211738781929
2024-09-23 07:21:16.198871,43.55,2.321883,-0.0035816467500972456,-0.024524361472367997,0.09680407370509965,40.106058693909645,-96.25519929585457,80.21211738781929
2024-09-23 07:21:16.242003,43.55,2.321883,-0.0035816467500972456,-0.024524361472367997,0.09745075675933246,44.11764879391193,-96.25519929585457,80.21211738781929
2024-09-23 07:21:16.254135,43.55,2.321934,-0.003382661564999035,-0.024524361472367997,0.09745075675933246,44.11764879391193,-96.25519929585457,80.21211738781929
2024-09-23 07:21:16.287971,43.55,2.321934,-0.003382661564999035,-0.024275627522658133,0.09690356060148622,44.11764879391193,-96.25519929585457,80.21211738781929
2024-09-23 07:21:16.299278,43.55,2.321985,-0.003382661564999035,-0.024275627522658133,0.09690356060148622,28.07457030097246,-96.25519929585457,80.21211738781929
2024-09-23 07:21:16.342561,43.34,2.321985,-0.0038801188315820256,-0.024375126570858115,0.0966050877605131,44.11764879391193,-100.26678939585686,72.1922225099802
2024-09-23 07:21:16.385826,43.34,2.322075,-0.003482159473966507,-0.024076653729884996,0.0966050877605131,44.11764879391193,-100.26678939585686,72.1922225099802
2024-09-23 07:21:16.397803,43.34,2.322075,-0.003482159473966507,-0.024076653729884996,0.0966050877605131,40.106058693909645,-96.25519929585457,72.1922225099802
2024-09-23 07:21:16.441275,43.34,2.322126,-0.003233425524256645,-0.023280723622328886,0.09745075675933246,52.137550501942634,-96.25519929585457,72.1922225099802
2024-09-23 07:21:16.483130,43.34,2.322177,-0.003233425524256645,-0.023280723622328886,0.09745075675933246,52.137550501942634,-100.26678939585686,80.21211738781929
2024-09-23 07:21:16.494897,43.34,2.322177,-0.0031339382481259063,-0.024076653729884996,0.09675432418099966,52.137550501942634,-100.26678939585686,80.21211738781929
2024-09-23 07:21:16.538136,43.34,2.322228,-0.002636491424507565,-0.024176140626271565,0.09675432418099966,44.11764879391193,-96.25519929585457,76.200527287817
2024-09-23 07:21:16.581065,43.34,2.322228,-0.002636491424507565,-0.024176140626271565,0.09705279702197278,48.12595698684454,-104.27510100388527,76.200527287817
2024-09-23 07:21:16.592060,43.34,2.322279,-0.0029349636958644295,-0.024176140626271565,0.09705279702197278,48.12595698684454,-104.27510100388527,76.200527287817
2024-09-23 07:21:16.634819,43.34,2.322367,-0.0029349636958644295,-0.024325377046758124,0.09620712802315341,40.106058693909645,-92.24360919585227,80.21211738781929
2024-09-23 07:21:16.676857,43.34,2.322367,-0.0029847020175114316,-0.024375126570858115,0.09620712802315341,40.106058693909645,-92.24360919585227,80.21211738781929
2024-09-23 07:21:16.688159,43.34,2.322367,-0.0029847020175114316,-0.024375126570858115,0.09720203344245934,40.106058693909645,-100.26678939585686,76.200527287817
2024-09-23 07:21:16.730189,43.34,2.322419,-0.003233425524256645,-0.02412639262114825,0.09710254654607277,40.106058693909645,-100.26678939585686,76.200527287817
2024-09-23 07:21:16.742313,43.34,2.322419,-0.003233425524256645,-0.02412639262114825,0.09710254654607277,40.106058693909645,-104.27510100388527,76.200527287817
2024-09-23 07:21:16.774650,43.34,2.322469,-0.003233425524256645,-0.02412639262114825,0.09710254654607277,40.106058693909645,-104.27510100388527,80.21211738781929
2024-09-23 07:21:16.786218,43.34,2.322469,-0.002636491424507565,-0.02362894446842532,0.09680407370509965,40.106058693909645,-104.27510100388527,80.21211738781929
2024-09-23 07:21:16.828249,43.34,2.32252,-0.003382661564999035,-0.02362894446842532,0.09680407370509965,40.106058693909645,-104.27510100388527,80.21211738781929
2024-09-23 07:21:16.840164,43.34,2.32252,-0.003382661564999035,-0.024225890150371555,0.09685382322919964,40.106058693909645,-104.27510100388527,80.21211738781929
2024-09-23 07:21:16.872070,43.34,2.32252,-0.003382661564999035,-0.024225890150371555,0.09685382322919964,36.09446859390736,-88.23529758782387,80.21211738781929
2024-09-23 07:21:16.883357,43.34,2.322571,-0.0031339382481259063,-0.024076653729884996,0.09685382322919964,36.09446859390736,-88.23529758782387,84.22370748782159
2024-09-23 07:21:16.925356,43.34,2.322621,-0.0031339382481259063,-0.024076653729884996,0.09710254654607277,36.09446859390736,-88.23529758782387,76.200527287817
2024-09-23 07:21:16.937216,43.34,2.322621,-0.0028354659767690416,-0.024076653729884996,0.09710254654607277,36.09446859390736,-88.23529758782387,76.200527287817
2024-09-23 07:21:16.969776,43.34,2.322621,-0.0028354659767690416,-0.024176140626271565,0.09675432418099966,36.09446859390736,-88.23529758782387,76.200527287817
2024-09-23 07:21:16.981949,43.34,2.322708,-0.0028354659767690416,-0.024176140626271565,0.09675432418099966,36.09446859390736,-88.23529758782387,80.21211738781929
2024-09-23 07:21:17.024822,43.34,2.322708,-0.0032831742888682963,-0.02397715620066169,0.09705279702197278,44.11764879391193,-96.25519929585457,80.21211738781929
2024-09-23 07:21:17.036945,43.34,2.322708,-0.0032831742888682963,-0.02397715620066169,0.09705279702197278,44.11764879391193,-96.25519929585457,72.1922225099802
2024-09-23 07:21:17.120245,43.34,2.32276,-0.003382661564999035,-0.02367869399252531,0.09759999317981902,44.11764879391193,-96.25519929585457,72.1922225099802
2024-09-23 07:21:17.131449,43.34,2.32276,-0.003382661564999035,-0.02367869399252531,0.09759999317981902,40.106058693909645,-100.26678939585686,72.1922225099802
2024-09-23 07:21:17.164383,43.34,2.322811,-0.003382661564999035,-0.02367869399252531,0.09759999317981902,40.106058693909645,-100.26678939585686,76.200527287817
2024-09-23 07:21:17.176153,43.34,2.322811,-0.003482159473966507,-0.024773084789241125,0.09759999317981902,40.106058693909645,-100.26678939585686,76.200527287817
2024-09-23 07:21:17.218776,43.34,2.322861,-0.003482159473966507,-0.024773084789241125,0.09725178296655933,40.106058693909645,-100.26678939585686,80.21211738781929
2024-09-23 07:21:17.230870,43.34,2.322861,-0.0032831742888682963,-0.024773084789241125,0.09725178296655933,40.106058693909645,-100.26678939585686,80.21211738781929
2024-09-23 07:21:17.263704,43.34,2.322861,-0.0032831742888682963,-0.024375126570858115,0.09635636444363997,36.09446859390736,-100.26678939585686,80.21211738781929
2024-09-23 07:21:17.274777,43.34,2.322912,-0.0032831742888682963,-0.024375126570858115,0.09635636444363997,36.09446859390736,-100.26678939585686,80.21211738781929
2024-09-23 07:21:17.318823,43.34,2.322912,-0.0031836870127375577,-0.02352945757203875,0.09774922960030558,40.106058693909645,-96.25519929585457,80.21211738781929
2024-09-23 07:21:17.361066,43.2,2.322963,-0.0033329230534799477,-0.024225890150371555,0.09774922960030558,40.106058693909645,-96.25519929585457,80.21211738781929
2024-09-23 07:21:17.372825,43.2,2.322963,-0.0033329230534799477,-0.024225890150371555,0.09705279702197278,36.09446859390736,-100.26678939585686,80.21211738781929
2024-09-23 07:21:17.456845,43.2,2.323098,-0.0033329230534799477,-0.024225890150371555,0.09705279702197278,36.09446859390736,-100.26678939585686,80.21211738781929
2024-09-23 07:21:17.468331,43.2,2.323098,-0.004128842528199323,-0.024474613467244683,0.0966050877605131,44.11764879391193,-100.26678939585686,80.21211738781929
2024-09-23 07:21:17.512567,43.2,2.32315,-0.0036811340262279837,-0.024076653729884996,0.0966050877605131,44.11764879391193,-96.25519929585457,72.1922225099802
2024-09-23 07:21:17.524173,43.2,2.32315,-0.0036811340262279837,-0.024076653729884996,0.09655535038822652,44.11764879391193,-96.25519929585457,72.1922225099802
2024-09-23 07:21:17.556436,43.2,2.32315,-0.0036811340262279837,-0.024076653729884996,0.09655535038822652,36.09446859390736,-96.25519929585457,68.18063240997792
2024-09-23 07:21:17.568245,43.2,2.323201,-0.0034324103296106863,-0.024176140626271565,0.09655535038822652,36.09446859390736,-96.25519929585457,68.18063240997792
2024-09-23 07:21:17.610565,43.2,2.323251,-0.0031836870127375577,-0.024176140626271565,0.09695331012558621,36.09446859390736,-96.25519929585457,76.200527287817
2024-09-23 07:21:17.653267,43.2,2.323251,-0.0031836870127375577,-0.023877669304275123,0.09675432418099966,44.11764879391193,-96.25519929585457,76.200527287817
2024-09-23 07:21:17.664341,43.2,2.323391,-0.0031836870127375577,-0.023877669304275123,0.09675432418099966,44.11764879391193,-96.25519929585457,80.21211738781929
2024-09-23 07:21:17.706801,43.2,2.323391,-0.002785727465249955,-0.023927417309398437,0.0970030596496862,36.09446859390736,-96.25519929585457,84.22370748782159
2024-09-23 07:21:17.750764,43.2,2.323443,-0.0035318979854855937,-0.023927417309398437,0.0970030596496862,36.09446859390736,-96.25519929585457,84.22370748782159
2024-09-23 07:21:17.762040,43.2,2.323443,-0.0035318979854855937,-0.02397715620066169,0.09710254654607277,32.08287849390507,-96.25519929585457,84.22370748782159
2024-09-23 07:21:17.805442,43.2,2.323493,-0.0030344509719951677,-0.023728432883788564,0.09710254654607277,44.11764879391193,-96.25519929585457,76.200527287817
2024-09-23 07:21:17.849028,43.2,2.323544,-0.0030344509719951677,-0.023728432883788564,0.09710254654607277,44.11764879391193,-92.24360919585227,80.21211738781929
2024-09-23 07:21:17.860711,43.2,2.323544,-0.0027359787006383035,-0.024026904205785005,0.09655535038822652,44.11764879391193,-92.24360919585227,80.21211738781929
2024-09-23 07:21:17.903636,43.2,2.323595,-0.0034324103296106863,-0.024026904205785005,0.09655535038822652,32.08287849390507,-92.24360919585227,76.200527287817
2024-09-23 07:21:17.945639,43.2,2.323595,-0.0034324103296106863,-0.024076653729884996,0.09695331012558621,40.106058693909645,-92.24360919585227,76.200527287817
2024-09-23 07:21:17.956674,43.2,2.323645,-0.0034324103296106863,-0.024076653729884996,0.09695331012558621,40.106058693909645,-92.24360919585227,76.200527287817
2024-09-23 07:21:17.999440,43.2,2.323645,-0.0030841997366068195,-0.023877669304275123,0.09710254654607277,36.09446859390736,-96.25519929585457,76.200527287817
2024-09-23 07:21:18.011222,43.2,2.323645,-0.0030841997366068195,-0.023877669304275123,0.09710254654607277,36.09446859390736,-96.25519929585457,84.22370748782159
2024-09-23 07:21:18.043799,43.2,2.323732,-0.0029349636958644295,-0.024325377046758124,0.09710254654607277,36.09446859390736,-96.25519929585457,84.22370748782159
2024-09-23 07:21:18.055604,43.2,2.323732,-0.0029349636958644295,-0.024325377046758124,0.0973015264147526,40.106058693909645,-96.25519929585457,84.22370748782159
2024-09-23 07:21:18.098822,43.2,2.323784,-0.0035318979854855937,-0.02397715620066169,0.09630662707135339,32.08287849390507,-96.25519929585457,84.22370748782159
2024-09-23 07:21:18.141585,43.2,2.323835,-0.0035318979854855937,-0.02397715620066169,0.09630662707135339,32.08287849390507,-104.27510100388527,76.200527287817
2024-09-23 07:21:18.153441,43.2,2.323835,-0.0029847020175114316,-0.024673597892854556,0.09665483728461309,32.08287849390507,-104.27510100388527,76.200527287817
2024-09-23 07:21:18.187633,43.2,2.323835,-0.0029847020175114316,-0.024673597892854556,0.09665483728461309,40.106058693909645,-104.27510100388527,76.200527287817
2024-09-23 07:21:18.199424,43.2,2.323885,-0.0030344509719951677,-0.023877669304275123,0.09665483728461309,40.106058693909645,-100.26678939585686,72.1922225099802
2024-09-23 07:21:18.241809,43.2,2.323936,-0.0030344509719951677,-0.023877669304275123,0.09690356060148622,36.09446859390736,-100.26678939585686,72.1922225099802
2024-09-23 07:21:18.253922,43.2,2.323936,-0.002586742470023829,-0.023877669304275123,0.09690356060148622,36.09446859390736,-100.26678939585686,72.1922225099802
2024-09-23 07:21:18.287141,43.2,2.323936,-0.002586742470023829,-0.024076653729884996,0.0966050877605131,36.09446859390736,-100.26678939585686,72.1922225099802
2024-09-23 07:21:18.298273,43.2,2.324025,-0.002586742470023829,-0.024076653729884996,0.0966050877605131,32.08287849390507,-100.26678939585686,80.21211738781929
2024-09-23 07:21:18.341437,43.2,2.324025,-0.0035318979854855937,-0.023877669304275123,0.09675432418099966,40.106058693909645,-108.28669110388756,76.200527287817
2024-09-23 07:21:18.384368,42.81,2.324076,-0.0035318979854855937,-0.02412639262114825,0.09675432418099966,40.106058693909645,-108.28669110388756,76.200527287817
2024-09-23 07:21:18.396450,42.81,2.324076,-0.0035318979854855937,-0.02412639262114825,0.0970030596496862,44.11764879391193,-100.26678939585686,76.200527287817
2024-09-23 07:21:18.439449,42.81,2.324127,-0.0030841997366068195,-0.024176140626271565,0.09710254654607277,40.106058693909645,-100.26678939585686,76.200527287817
2024-09-23 07:21:18.482445,42.81,2.324178,-0.0030841997366068195,-0.024176140626271565,0.09710254654607277,40.106058693909645,-96.25519929585457,80.21211738781929
2024-09-23 07:21:18.494280,42.81,2.324178,-0.0029847020175114316,-0.024623849887731242,0.09690356060148622,40.106058693909645,-96.25519929585457,80.21211738781929
2024-09-23 07:21:18.537956,42.81,2.324228,-0.0029847020175114316,-0.023927417309398437,0.09690356060148622,36.09446859390736,-92.24360919585227,72.1922225099802
2024-09-23 07:21:18.581867,42.81,2.324228,-0.0029847020175114316,-0.023927417309398437,0.09715228999426605,32.08287849390507,-96.25519929585457,72.1922225099802
2024-09-23 07:21:18.593446,42.81,2.324279,-0.0035318979854855937,-0.023927417309398437,0.09715228999426605,32.08287849390507,-96.25519929585457,76.200527287817
2024-09-23 07:21:18.625714,42.81,2.324279,-0.0035318979854855937,-0.023827930413011865,0.09715228999426605,32.08287849390507,-96.25519929585457,76.200527287817
2024-09-23 07:21:18.638455,42.81,2.324366,-0.0035318979854855937,-0.023827930413011865,0.09715228999426605,32.08287849390507,-92.24360919585227,68.18063240997792
2024-09-23 07:21:18.680528,42.81,2.324366,-0.0036811340262279837,-0.024325377046758124,0.09685382322919964,32.08287849390507,-104.27510100388527,68.18063240997792
2024-09-23 07:21:18.692550,42.81,2.324366,-0.0036811340262279837,-0.024325377046758124,0.09685382322919964,32.08287849390507,-104.27510100388527,80.21211738781929
2024-09-23 07:21:18.724235,42.81,2.324417,-0.0031339382481259063,-0.024325377046758124,0.09685382322919964,32.08287849390507,-104.27510100388527,80.21211738781929
2024-09-23 07:21:18.736105,42.81,2.324417,-0.0031339382481259063,-0.024474613467244683,0.09685382322919964,40.106058693909645,-100.26678939585686,80.21211738781929
2024-09-23 07:21:18.779282,42.81,2.324468,-0.003382661564999035,-0.024076653729884996,0.09740101331113918,36.09446859390736,-100.26678939585686,76.200527287817
2024-09-23 07:21:18.821732,42.81,2.324468,-0.003382661564999035,-0.024076653729884996,0.09740101331113918,36.09446859390736,-96.25519929585457,76.200527287817
2024-09-23 07:21:18.833387,42.81,2.324519,-0.0032831742888682963,-0.023877669304275123,0.09650560086412653,36.09446859390736,-96.25519929585457,76.200527287817
2024-09-23 07:21:18.875375,42.81,2.324569,-0.0031836870127375577,-0.023877669304275123,0.09650560086412653,36.09446859390736,-100.26678939585686,80.21211738781929
2024-09-23 07:21:18.887350,42.81,2.324569,-0.0031836870127375577,-0.024375126570858115,0.09650560086412653,36.09446859390736,-100.26678939585686,80.21211738781929
2024-09-23 07:21:18.919468,42.81,2.324569,-0.0031836870127375577,-0.024375126570858115,0.09680407370509965,36.09446859390736,-100.26678939585686,80.21211738781929
2024-09-23 07:21:18.931068,42.81,2.32462,-0.0030344509719951677,-0.024375126570858115,0.09680407370509965,36.09446859390736,-96.25519929585457,76.200527287817
2024-09-23 07:21:18.972650,42.81,2.32462,-0.0030344509719951677,-0.024375126570858115,0.09680407370509965,36.09446859390736,-92.24360919585227,80.21211738781929
2024-09-23 07:21:18.984480,42.81,2.324707,-0.0030344509719951677,-0.024375126570858115,0.09680407370509965,36.09446859390736,-92.24360919585227,80.21211738781929
2024-09-23 07:21:19.017700,42.81,2.324707,-0.0031836870127375577,-0.024076653729884996,0.09680407370509965,36.09446859390736,-92.24360919585227,80.21211738781929
2024-09-23 07:21:19.028752,42.81,2.324707,-0.0031836870127375577,-0.024076653729884996,0.09655535038822652,40.106058693909645,-104.27510100388527,72.1922225099802
2024-09-23 07:21:19.070893,42.81,2.324759,-0.003631395514708897,-0.024375126570858115,0.0973512698629459,32.08287849390507,-104.27510100388527,72.1922225099802
2024-09-23 07:21:19.082887,42.81,2.324759,-0.003631395514708897,-0.024375126570858115,0.0973512698629459,32.08287849390507,-104.27510100388527,72.1922225099802
2024-09-23 07:21:19.165773,42.81,2.32481,-0.003631395514708897,-0.024375126570858115,0.0973512698629459,32.08287849390507,-104.27510100388527,76.200527287817
2024-09-23 07:21:19.220710,42.81,2.32481,-0.0030841997366068195,-0.024524361472367997,0.09705279702197278,32.08287849390507,-96.25519929585457,80.21211738781929
2024-09-23 07:21:19.263365,42.81,2.324861,-0.0030841997366068195,-0.024524361472367997,0.09705279702197278,32.08287849390507,-96.25519929585457,80.21211738781929
2024-09-23 07:21:19.274592,42.81,2.324861,-0.0030841997366068195,-0.024524361472367997,0.09705279702197278,40.106058693909645,-100.26678939585686,80.21211738781929
2024-09-23 07:21:19.309721,42.81,2.324911,-0.0030841997366068195,-0.024524361472367997,0.09705279702197278,40.106058693909645,-100.26678939585686,80.21211738781929
2024-09-23 07:21:19.321711,42.81,2.324911,-0.0031339382481259063,-0.023927417309398437,0.09680407370509965,36.09446859390736,-100.26678939585686,80.21211738781929
2024-09-23 07:21:19.363710,42.81,2.324962,-0.003631395514708897,-0.024623849887731242,0.09680407370509965,36.09446859390736,-100.26678939585686,68.18063240997792
2024-09-23 07:21:19.375858,42.81,2.324962,-0.003631395514708897,-0.024623849887731242,0.09685382322919964,36.09446859390736,-100.26678939585686,68.18063240997792
2024-09-23 07:21:19.408374,43.07,2.324962,-0.003631395514708897,-0.024623849887731242,0.09685382322919964,32.08287849390507,-92.24360919585227,68.18063240997792
2024-09-23 07:21:19.419331,43.07,2.325048,-0.0030344509719951677,-0.024275627522658133,0.09685382322919964,32.08287849390507,-92.24360919585227,84.22370748782159
2024-09-23 07:21:19.461826,43.07,2.325149,-0.0029349636958644295,-0.024275627522658133,0.09635636444363997,32.08287849390507,-100.26678939585686,76.200527287817
2024-09-23 07:21:19.505462,43.07,2.325149,-0.0029349636958644295,-0.02397715620066169,0.09725178296655933,32.08287849390507,-100.26678939585686,76.200527287817
2024-09-23 07:21:19.517289,43.07,2.325243,-0.0029349636958644295,-0.02397715620066169,0.09725178296655933,40.106058693909645,-96.25519929585457,80.21211738781929
2024-09-23 07:21:19.560074,43.07,2.325243,-0.0034324103296106863,-0.024424863943144692,0.09670458680871308,36.09446859390736,-100.26678939585686,80.21211738781929
2024-09-23 07:21:19.602434,43.07,2.325295,-0.0029847020175114316,-0.024424863943144692,0.09670458680871308,36.09446859390736,-100.26678939585686,80.21211738781929
2024-09-23 07:21:19.614359,43.07,2.325295,-0.0029847020175114316,-0.024623849887731242,0.09665483728461309,44.11764879391193,-100.26678939585686,80.21211738781929
2024-09-23 07:21:19.658301,43.07,2.325346,-0.0034324103296106863,-0.024026904205785005,0.09640611396773996,48.12595698684454,-100.26678939585686,76.200527287817
2024-09-23 07:21:19.701845,43.07,2.325396,-0.0034324103296106863,-0.024026904205785005,0.09640611396773996,48.12595698684454,-96.25519929585457,76.200527287817
2024-09-23 07:21:19.713372,43.07,2.325396,-0.0029349636958644295,-0.023877669304275123,0.09630662707135339,48.12595698684454,-96.25519929585457,76.200527287817
2024-09-23 07:21:19.756493,43.07,2.325447,-0.0031836870127375577,-0.02362894446842532,0.09630662707135339,40.106058693909645,-96.25519929585457,76.200527287817
2024-09-23 07:21:19.799811,43.07,2.325447,-0.0031836870127375577,-0.02362894446842532,0.09715228999426605,32.08287849390507,-96.25519929585457,80.21211738781929
2024-09-23 07:21:19.811514,43.07,2.325498,-0.0029847020175114316,-0.02362894446842532,0.09715228999426605,32.08287849390507,-96.25519929585457,80.21211738781929
2024-09-23 07:21:19.843343,43.07,2.325498,-0.0029847020175114316,-0.02362894446842532,0.09715228999426605,32.08287849390507,-96.25519929585457,80.21211738781929
2024-09-23 07:21:19.855034,43.07,2.325585,-0.0029847020175114316,-0.02362894446842532,0.09695331012558621,40.106058693909645,-92.24360919585227,80.21211738781929
2024-09-23 07:21:19.897174,43.07,2.325585,-0.003979606107712764,-0.024076653729884996,0.0970030596496862,40.106058693909645,-92.24360919585227,80.21211738781929
2024-09-23 07:21:19.908819,43.07,2.325585,-0.003979606107712764,-0.024076653729884996,0.0970030596496862,40.106058693909645,-100.26678939585686,76.200527287817
2024-09-23 07:21:19.940970,43.07,2.325636,-0.003979606107712764,-0.024076653729884996,0.0970030596496862,40.106058693909645,-100.26678939585686,76.200527287817
2024-09-23 07:21:19.952383,43.07,2.325636,-0.0028852147413806935,-0.023927417309398437,0.09710254654607277,32.08287849390507,-92.24360919585227,76.200527287817
2024-09-23 07:21:19.995455,43.07,2.325687,-0.003233425524256645,-0.023927417309398437,0.09710254654607277,32.08287849390507,-92.24360919585227,80.21211738781929
2024-09-23 07:21:20.006789,43.07,2.325687,-0.003233425524256645,-0.024524361472367997,0.09670458680871308,36.09446859390736,-92.24360919585227,80.21211738781929
2024-09-23 07:21:20.040414,43.07,2.325687,-0.003233425524256645,-0.024524361472367997,0.09670458680871308,36.09446859390736,-100.26678939585686,80.21211738781929
2024-09-23 07:21:20.052051,43.07,2.325738,-0.003382661564999035,-0.02367869399252531,0.09655535038822652,36.09446859390736,-100.26678939585686,80.21211738781929
2024-09-23 07:21:20.094812,43.07,2.325788,-0.0034324103296106863,-0.02367869399252531,0.09655535038822652,40.106058693909645,-96.25519929585457,80.21211738781929
2024-09-23 07:21:20.106176,43.07,2.325788,-0.0034324103296106863,-0.024275627522658133,0.09655535038822652,40.106058693909645,-96.25519929585457,80.21211738781929
2024-09-23 07:21:20.138057,43.07,2.325788,-0.0034324103296106863,-0.024275627522658133,0.09670458680871308,36.09446859390736,-96.25519929585457,80.21211738781929
2024-09-23 07:21:20.149694,43.07,2.325839,-0.003382661564999035,-0.024275627522658133,0.09670458680871308,36.09446859390736,-96.25519929585457,80.21211738781929
2024-09-23 07:21:20.191801,43.07,2.325839,-0.003382661564999035,-0.023877669304275123,0.0962568775472534,40.106058693909645,-92.24360919585227,84.22370748782159
2024-09-23 07:21:20.203547,43.07,2.325926,-0.003382661564999035,-0.023877669304275123,0.0962568775472534,40.106058693909645,-92.24360919585227,84.22370748782159
2024-09-23 07:21:20.235916,43.07,2.325926,-0.0029847020175114316,-0.024275627522658133,0.0962568775472534,40.106058693909645,-92.24360919585227,84.22370748782159
2024-09-23 07:21:20.246993,43.07,2.325926,-0.0029847020175114316,-0.024275627522658133,0.09670458680871308,36.09446859390736,-96.25519929585457,80.21211738781929
2024-09-23 07:21:20.290033,43.07,2.325977,-0.0029847020175114316,-0.024076653729884996,0.09650560086412653,44.11764879391193,-96.25519929585457,80.21211738781929
2024-09-23 07:21:20.301819,43.07,2.325977,-0.0029847020175114316,-0.024076653729884996,0.09650560086412653,44.11764879391193,-92.24360919585227,80.21211738781929
2024-09-23 07:21:20.334536,43.07,2.326028,-0.0028354659767690416,-0.024076653729884996,0.09650560086412653,44.11764879391193,-92.24360919585227,84.22370748782159
2024-09-23 07:21:20.345763,43.07,2.326028,-0.0028354659767690416,-0.02367869399252531,0.09695331012558621,24.06297849342227,-92.24360919585227,84.22370748782159
2024-09-23 07:21:20.387962,43.07,2.326079,-0.0030344509719951677,-0.024076653729884996,0.09705279702197278,24.06297849342227,-100.26678939585686,80.21211738781929
2024-09-23 07:21:20.430706,42.99,2.326079,-0.0030344509719951677,-0.024076653729884996,0.09705279702197278,28.07457030097246,-100.26678939585686,80.21211738781929
2024-09-23 07:21:20.442253,42.99,2.326129,-0.0034324103296106863,-0.023927417309398437,0.09705279702197278,28.07457030097246,-100.26678939585686,80.21211738781929
2024-09-23 07:21:20.485064,42.99,2.32618,-0.0034324103296106863,-0.023927417309398437,0.09680407370509965,40.106058693909645,-96.25519929585457,80.21211738781929
2024-09-23 07:21:20.528455,42.99,2.32618,-0.0028354659767690416,-0.024176140626271565,0.09680407370509965,40.106058693909645,-96.25519929585457,80.21211738781929
2024-09-23 07:21:20.539816,42.99,2.32618,-0.0028354659767690416,-0.024176140626271565,0.09685382322919964,36.09446859390736,-92.24360919585227,80.21211738781929
2024-09-23 07:21:20.583182,42.99,2.326267,-0.0031836870127375577,-0.02412639262114825,0.09745075675933246,44.11764879391193,-92.24360919585227,80.21211738781929
2024-09-23 07:21:20.594680,42.99,2.326267,-0.0031836870127375577,-0.02412639262114825,0.09745075675933246,44.11764879391193,-92.24360919585227,80.21211738781929
2024-09-23 07:21:20.626221,42.99,2.326319,-0.0031836870127375577,-0.02412639262114825,0.09745075675933246,44.11764879391193,-92.24360919585227,80.21211738781929
2024-09-23 07:21:20.637169,42.99,2.326319,-0.0031836870127375577,-0.023728432883788564,0.09705279702197278,28.07457030097246,-92.24360919585227,80.21211738781929
2024-09-23 07:21:20.680693,42.99,2.326369,-0.0031339382481259063,-0.024275627522658133,0.09705279702197278,28.07457030097246,-100.26678939585686,76.200527287817
2024-09-23 07:21:20.692487,42.99,2.326369,-0.0031339382481259063,-0.024275627522658133,0.0973015264147526,28.07457030097246,-100.26678939585686,76.200527287817
2024-09-23 07:21:20.724862,42.99,2.326369,-0.0031339382481259063,-0.024275627522658133,0.0973015264147526,32.08287849390507,-88.23529758782387,88.23529758782387
2024-09-23 07:21:20.736541,42.99,2.32642,-0.0029349636958644295,-0.02472333678411781,0.0973015264147526,32.08287849390507,-88.23529758782387,88.23529758782387
2024-09-23 07:21:20.779119,42.99,2.326471,-0.0031836870127375577,-0.02472333678411781,0.09665483728461309,28.07457030097246,-92.24360919585227,88.23529758782387
2024-09-23 07:21:20.822437,42.99,2.326471,-0.0031836870127375577,-0.024275627522658133,0.09630662707135339,32.08287849390507,-92.24360919585227,88.23529758782387
2024-09-23 07:21:20.833952,42.99,2.32656,-0.0031836870127375577,-0.024275627522658133,0.09630662707135339,32.08287849390507,-100.26678939585686,76.200527287817
2024-09-23 07:21:20.876549,42.99,2.32656,-0.0032831742888682963,-0.024026904205785005,0.09675432418099966,40.106058693909645,-92.24360919585227,84.22370748782159
2024-09-23 07:21:20.918291,42.99,2.326611,-0.003382661564999035,-0.024026904205785005,0.09675432418099966,40.106058693909645,-92.24360919585227,84.22370748782159
2024-09-23 07:21:20.929831,42.99,2.326611,-0.003382661564999035,-0.023877669304275123,0.09695331012558621,44.11764879391193,-100.26678939585686,84.22370748782159
2024-09-23 07:21:20.972488,42.99,2.326662,-0.003233425524256645,-0.024176140626271565,0.09745075675933246,36.09446859390736,-100.26678939585686,80.21211738781929
2024-09-23 07:21:21.015204,42.99,2.326662,-0.003233425524256645,-0.024176140626271565,0.09745075675933246,36.09446859390736,-96.25519929585457,72.1922225099802
2024-09-23 07:21:21.026224,42.99,2.326713,-0.0035816467500972456,-0.024225890150371555,0.09680407370509965,36.09446859390736,-96.25519929585457,72.1922225099802
2024-09-23 07:21:21.069189,42.99,2.326763,-0.0035816467500972456,-0.024225890150371555,0.09680407370509965,32.08287849390507,-96.25519929585457,72.1922225099802
2024-09-23 07:21:21.082013,42.99,2.326763,-0.0035318979854855937,-0.02412639262114825,0.09680407370509965,32.08287849390507,-96.25519929585457,72.1922225099802
2024-09-23 07:21:21.113474,42.99,2.326763,-0.0035318979854855937,-0.02412639262114825,0.09670458680871308,48.12595698684454,-96.25519929585457,72.1922225099802
2024-09-23 07:21:21.124975,42.99,2.326814,-0.003233425524256645,-0.02412639262114825,0.09670458680871308,48.12595698684454,-96.25519929585457,80.21211738781929
2024-09-23 07:21:21.218122,42.99,2.326901,-0.003233425524256645,-0.02412639262114825,0.09680407370509965,32.08287849390507,-96.25519929585457,76.200527287817
2024-09-23 07:21:21.261267,42.99,2.326901,-0.003233425524256645,-0.024026904205785005,0.09710254654607277,32.08287849390507,-96.25519929585457,76.200527287817
2024-09-23 07:21:21.273182,42.99,2.326901,-0.003233425524256645,-0.024026904205785005,0.09710254654607277,44.11764879391193,-96.25519929585457,84.22370748782159
2024-09-23 07:21:21.316543,42.99,2.326953,-0.003780631555451287,-0.023927417309398437,0.09675432418099966,36.09446859390736,-100.26678939585686,84.22370748782159
2024-09-23 07:21:21.360071,42.99,2.327003,-0.003631395514708897,-0.023827930413011865,0.09675432418099966,36.09446859390736,-100.26678939585686,80.21211738781929
2024-09-23 07:21:21.372916,42.99,2.327003,-0.003631395514708897,-0.023827930413011865,0.09690356060148622,28.07457030097246,-100.26678939585686,80.21211738781929
2024-09-23 07:21:21.405934,42.99,2.327003,-0.003631395514708897,-0.023827930413011865,0.09690356060148622,28.07457030097246,-92.24360919585227,80.21211738781929
2024-09-23 07:21:21.417117,42.99,2.327054,-0.003233425524256645,-0.023927417309398437,0.09685382322919964,28.07457030097246,-92.24360919585227,80.21211738781929
2024-09-23 07:21:21.458980,42.4,2.327147,-0.0029847020175114316,-0.023927417309398437,0.09685382322919964,32.08287849390507,-100.26678939585686,76.200527287817
2024-09-23 07:21:21.470654,42.4,2.327147,-0.0029847020175114316,-0.024275627522658133,0.09685382322919964,32.08287849390507,-100.26678939585686,76.200527287817
2024-09-23 07:21:21.503184,42.4,2.327147,-0.0029847020175114316,-0.024275627522658133,0.0970030596496862,36.09446859390736,-100.26678939585686,76.200527287817
2024-09-23 07:21:21.514583,42.4,2.327198,-0.0028852147413806935,-0.024275627522658133,0.0970030596496862,36.09446859390736,-100.26678939585686,76.200527287817
2024-09-23 07:21:21.557190,42.4,2.327198,-0.0028852147413806935,-0.024026904205785005,0.09665483728461309,36.09446859390736,-100.26678939585686,80.21211738781929
2024-09-23 07:21:21.569386,42.4,2.327291,-0.0028852147413806935,-0.024026904205785005,0.09665483728461309,36.09446859390736,-100.26678939585686,80.21211738781929
2024-09-23 07:21:21.601119,42.4,2.327291,-0.0032831742888682963,-0.02412639262114825,0.09665483728461309,36.09446859390736,-100.26678939585686,80.21211738781929
2024-09-23 07:21:21.613294,42.4,2.327291,-0.0032831742888682963,-0.02412639262114825,0.09650560086412653,36.09446859390736,-104.27510100388527,76.200527287817
2024-09-23 07:21:21.655887,42.4,2.327343,-0.0030344509719951677,-0.02367869399252531,0.09685382322919964,36.09446859390736,-104.27510100388527,76.200527287817
2024-09-23 07:21:21.667453,42.4,2.327343,-0.0030344509719951677,-0.02367869399252531,0.09685382322919964,36.09446859390736,-100.26678939585686,76.200527287817
2024-09-23 07:21:21.699627,42.4,2.327393,-0.0034324103296106863,-0.02367869399252531,0.09685382322919964,36.09446859390736,-100.26678939585686,76.200527287817
2024-09-23 07:21:21.710582,42.4,2.327393,-0.0034324103296106863,-0.024275627522658133,0.09665483728461309,40.106058693909645,-100.26678939585686,76.200527287817
2024-09-23 07:21:21.753782,42.4,2.327444,-0.003482159473966507,-0.024275627522658133,0.09665483728461309,40.106058693909645,-92.24360919585227,76.200527287817
2024-09-23 07:21:21.795859,42.4,2.327444,-0.003482159473966507,-0.024474613467244683,0.09690356060148622,40.106058693909645,-92.24360919585227,76.200527287817
2024-09-23 07:21:21.807399,42.4,2.327495,-0.003482159473966507,-0.024474613467244683,0.09690356060148622,44.11764879391193,-96.25519929585457,80.21211738781929
2024-09-23 07:21:21.849677,42.4,2.327495,-0.0029349636958644295,-0.024225890150371555,0.09685382322919964,40.106058693909645,-100.26678939585686,80.21211738781929
2024-09-23 07:21:21.861785,42.4,2.327495,-0.0029349636958644295,-0.024225890150371555,0.09685382322919964,40.106058693909645,-100.26678939585686,76.200527287817
2024-09-23 07:21:21.893683,42.4,2.327545,-0.0032831742888682963,-0.024225890150371555,0.09685382322919964,40.106058693909645,-100.26678939585686,76.200527287817
2024-09-23 07:21:21.904779,42.4,2.327545,-0.0032831742888682963,-0.024375126570858115,0.09685382322919964,44.11764879391193,-96.25519929585457,76.200527287817
2024-09-23 07:21:21.947402,42.4,2.327632,-0.0032831742888682963,-0.02412639262114825,0.09650560086412653,44.11764879391193,-96.25519929585457,80.21211738781929
2024-09-23 07:21:21.959732,42.4,2.327632,-0.0032831742888682963,-0.02412639262114825,0.09650560086412653,40.106058693909645,-96.25519929585457,80.21211738781929
2024-09-23 07:21:21.994005,42.4,2.327684,-0.0031339382481259063,-0.02412639262114825,0.09650560086412653,40.106058693909645,-100.26678939585686,80.21211738781929
2024-09-23 07:21:22.005538,42.4,2.327684,-0.0031339382481259063,-0.024275627522658133,0.09745075675933246,40.106058693909645,-100.26678939585686,80.21211738781929
2024-09-23 07:21:22.038286,42.4,2.327684,-0.0031339382481259063,-0.024275627522658133,0.09745075675933246,44.11764879391193,-100.26678939585686,80.21211738781929
2024-09-23 07:21:22.050140,42.4,2.327734,-0.0036811340262279837,-0.023728432883788564,0.09745075675933246,44.11764879391193,-96.25519929585457,76.200527287817
2024-09-23 07:21:22.092590,42.4,2.327734,-0.0036811340262279837,-0.023728432883788564,0.09685382322919964,40.106058693909645,-92.24360919585227,76.200527287817
2024-09-23 07:21:22.104241,42.4,2.327785,-0.0027359787006383035,-0.023728432883788564,0.09685382322919964,40.106058693909645,-92.24360919585227,76.200527287817
2024-09-23 07:21:22.137362,42.4,2.327785,-0.0027359787006383035,-0.02397715620066169,0.09685382322919964,40.106058693909645,-92.24360919585227,76.200527287817
2024-09-23 07:21:22.149424,42.4,2.327785,-0.0027359787006383035,-0.02397715620066169,0.09685382322919964,36.09446859390736,-96.25519929585457,76.200527287817
2024-09-23 07:21:22.232253,42.4,2.327785,-0.0027359787006383035,-0.02397715620066169,0.09685382322919964,36.09446859390736,-96.25519929585457,80.21211738781929
2024-09-23 07:21:22.243783,42.4,2.327876,-0.0027359787006383035,-0.024176140626271565,0.09680407370509965,40.106058693909645,-96.25519929585457,80.21211738781929
2024-09-23 07:21:22.286653,42.4,2.327928,-0.0027359787006383035,-0.024176140626271565,0.09680407370509965,40.106058693909645,-96.25519929585457,80.21211738781929
2024-09-23 07:21:22.297991,42.4,2.327928,-0.0035816467500972456,-0.024275627522658133,0.0970030596496862,40.106058693909645,-96.25519929585457,80.21211738781929
2024-09-23 07:21:22.331207,42.4,2.327928,-0.0035816467500972456,-0.024275627522658133,0.0970030596496862,32.08287849390507,-96.25519929585457,80.21211738781929
2024-09-23 07:21:22.342540,42.4,2.327978,-0.0034324103296106863,-0.023827930413011865,0.0970030596496862,32.08287849390507,-96.25519929585457,84.22370748782159
2024-09-23 07:21:22.386497,42.4,2.328029,-0.0034324103296106863,-0.023827930413011865,0.09715228999426605,40.106058693909645,-96.25519929585457,84.22370748782159
2024-09-23 07:21:22.397781,42.4,2.328029,-0.003780631555451287,-0.023827930413011865,0.09715228999426605,40.106058693909645,-96.25519929585457,84.22370748782159
2024-09-23 07:21:22.429082,42.4,2.328029,-0.003780631555451287,-0.023927417309398437,0.09710254654607277,40.106058693909645,-96.25519929585457,84.22370748782159
2024-09-23 07:21:22.440752,42.4,2.32808,-0.003780631555451287,-0.023927417309398437,0.09710254654607277,44.11764879391193,-100.26678939585686,84.22370748782159
2024-09-23 07:21:22.483250,42.69,2.32808,-0.0035816467500972456,-0.023927417309398437,0.09705279702197278,40.106058693909645,-104.27510100388527,84.22370748782159
2024-09-23 07:21:22.526508,42.69,2.32808,-0.0035816467500972456,-0.023927417309398437,0.09705279702197278,40.106058693909645,-104.27510100388527,76.200527287817
2024-09-23 07:21:22.537823,42.69,2.328218,-0.0029349636958644295,-0.02412639262114825,0.09710254654607277,36.09446859390736,-104.27510100388527,76.200527287817
2024-09-23 07:21:22.580095,42.69,2.328269,-0.0034324103296106863,-0.02412639262114825,0.09710254654607277,36.09446859390736,-96.25519929585457,84.22370748782159
2024-09-23 07:21:22.591852,42.69,2.328269,-0.0034324103296106863,-0.024673597892854556,0.09740101331113918,36.09446859390736,-96.25519929585457,84.22370748782159
2024-09-23 07:21:22.676093,42.69,2.32832,-0.0034324103296106863,-0.024673597892854556,0.09740101331113918,36.09446859390736,-92.24360919585227,84.22370748782159
2024-09-23 07:21:22.687122,42.69,2.32832,-0.0034324103296106863,-0.023927417309398437,0.09740101331113918,36.09446859390736,-92.24360919585227,84.22370748782159
2024-09-23 07:21:22.730166,42.69,2.328371,-0.0033329230534799477,-0.023927417309398437,0.09675432418099966,40.106058693909645,-92.24360919585227,84.22370748782159
2024-09-23 07:21:22.773061,42.69,2.328371,-0.0033329230534799477,-0.024076653729884996,0.09715228999426605,40.106058693909645,-92.24360919585227,84.22370748782159
2024-09-23 07:21:22.784181,42.69,2.328421,-0.0033329230534799477,-0.024076653729884996,0.09715228999426605,40.106058693909645,-96.25519929585457,84.22370748782159
2024-09-23 07:21:22.826828,42.69,2.328421,-0.0031339382481259063,-0.024176140626271565,0.09720203344245934,36.09446859390736,-100.26678939585686,84.22370748782159
2024-09-23 07:21:22.868690,42.69,2.32851,-0.0029349636958644295,-0.024176140626271565,0.09720203344245934,36.09446859390736,-100.26678939585686,84.22370748782159
2024-09-23 07:21:22.880341,42.69,2.32851,-0.0029349636958644295,-0.024524361472367997,0.09680407370509965,32.08287849390507,-100.26678939585686,84.22370748782159
2024-09-23 07:21:22.922943,42.69,2.328608,-0.0026862297461545674,-0.02352945757203875,0.09705279702197278,32.08287849390507,-100.26678939585686,80.21211738781929
2024-09-23 07:21:22.965431,42.69,2.328608,-0.0026862297461545674,-0.02352945757203875,0.09705279702197278,32.08287849390507,-96.25519929585457,76.200527287817
2024-09-23 07:21:22.977090,42.69,2.32866,-0.0030344509719951677,-0.024026904205785005,0.09670458680871308,32.08287849390507,-96.25519929585457,76.200527287817
2024-09-23 07:21:23.020461,42.69,2.32871,-0.0031836870127375577,-0.024026904205785005,0.09670458680871308,32.08287849390507,-92.24360919585227,76.200527287817
2024-09-23 07:21:23.032178,42.69,2.32871,-0.0031836870127375577,-0.024275627522658133,0.09670458680871308,32.08287849390507,-92.24360919585227,76.200527287817
2024-09-23 07:21:23.064423,42.69,2.32871,-0.0031836870127375577,-0.024275627522658133,0.09750050628343246,40.106058693909645,-92.24360919585227,76.200527287817
2024-09-23 07:21:23.075533,42.69,2.328761,-0.003382661564999035,-0.024275627522658133,0.09750050628343246,40.106058693909645,-92.24360919585227,80.21211738781929
2024-09-23 07:21:23.117379,42.69,2.328761,-0.003382661564999035,-0.02397715620066169,0.09725178296655933,36.09446859390736,-92.24360919585227,76.200527287817
2024-09-23 07:21:23.129631,42.69,2.328851,-0.003382661564999035,-0.02397715620066169,0.09725178296655933,36.09446859390736,-92.24360919585227,76.200527287817
2024-09-23 07:21:23.162659,42.69,2.328851,-0.003631395514708897,-0.023877669304275123,0.09715228999426605,36.09446859390736,-92.24360919585227,76.200527287817
2024-09-23 07:21:23.174327,42.69,2.328851,-0.003631395514708897,-0.023877669304275123,0.09715228999426605,44.11764879391193,-92.24360919585227,76.200527287817
2024-09-23 07:21:23.216751,42.69,2.328903,-0.0030841997366068195,-0.023927417309398437,0.0966050877605131,44.11764879391193,-92.24360919585227,80.21211738781929
2024-09-23 07:21:23.260218,42.69,2.328903,-0.0030841997366068195,-0.023927417309398437,0.0966050877605131,44.11764879391193,-92.24360919585227,80.21211738781929
2024-09-23 07:21:23.271791,42.69,2.328953,-0.0032831742888682963,-0.024325377046758124,0.0966050877605131,44.11764879391193,-92.24360919585227,80.21211738781929
2024-09-23 07:21:23.315005,42.69,2.329004,-0.0028354659767690416,-0.024325377046758124,0.09705279702197278,36.09446859390736,-96.25519929585457,84.22370748782159
2024-09-23 07:21:23.356867,42.69,2.329004,-0.0028354659767690416,-0.024026904205785005,0.09670458680871308,36.09446859390736,-96.25519929585457,84.22370748782159
2024-09-23 07:21:23.368265,42.69,2.329055,-0.0028354659767690416,-0.024026904205785005,0.09670458680871308,36.09446859390736,-96.25519929585457,76.200527287817
2024-09-23 07:21:23.411927,42.69,2.329055,-0.0029847020175114316,-0.02482282368050438,0.09685382322919964,36.09446859390736,-96.25519929585457,84.22370748782159
2024-09-23 07:21:23.455013,42.69,2.329144,-0.0031836870127375577,-0.024026904205785005,0.09685382322919964,36.09446859390736,-96.25519929585457,84.22370748782159
2024-09-23 07:21:23.466586,42.69,2.329144,-0.0031836870127375577,-0.024026904205785005,0.09695331012558621,36.09446859390736,-100.26678939585686,84.22370748782159
2024-09-23 07:21:23.510314,42.29,2.329195,-0.003233425524256645,-0.024623849887731242,0.09635636444363997,28.07457030097246,-100.26678939585686,80.21211738781929
2024-09-23 07:21:23.553011,42.29,2.329246,-0.003233425524256645,-0.024623849887731242,0.09635636444363997,28.07457030097246,-100.26678939585686,76.200527287817
2024-09-23 07:21:23.564554,42.29,2.329246,-0.0035318979854855937,-0.024275627522658133,0.09675432418099966,28.07457030097246,-100.26678939585686,76.200527287817
2024-09-23 07:21:23.608107,42.29,2.329297,-0.0033329230534799477,-0.023827930413011865,0.09675432418099966,32.08287849390507,-100.26678939585686,76.200527287817
2024-09-23 07:21:23.650208,42.29,2.329297,-0.0033329230534799477,-0.023827930413011865,0.09705279702197278,36.09446859390736,-96.25519929585457,76.200527287817
2024-09-23 07:21:23.661900,42.29,2.329347,-0.0029349636958644295,-0.023827930413011865,0.09705279702197278,36.09446859390736,-96.25519929585457,80.21211738781929
2024-09-23 07:21:23.704728,42.29,2.329436,-0.0029349636958644295,-0.023927417309398437,0.09670458680871308,32.08287849390507,-96.25519929585457,76.200527287817
2024-09-23 07:21:23.747565,42.29,2.329436,-0.0029349636958644295,-0.023927417309398437,0.0966050877605131,32.08287849390507,-96.25519929585457,76.200527287817
2024-09-23 07:21:23.759176,42.29,2.329436,-0.0029349636958644295,-0.023927417309398437,0.0966050877605131,44.11764879391193,-92.24360919585227,80.21211738781929
2024-09-23 07:21:23.802227,42.29,2.329488,-0.0031836870127375577,-0.024225890150371555,0.0966050877605131,40.106058693909645,-96.25519929585457,80.21211738781929
2024-09-23 07:21:23.844188,42.29,2.329538,-0.0035816467500972456,-0.024225890150371555,0.0966050877605131,40.106058693909645,-96.25519929585457,76.200527287817
2024-09-23 07:21:23.855083,42.29,2.329538,-0.0035816467500972456,-0.024026904205785005,0.0966050877605131,40.106058693909645,-96.25519929585457,76.200527287817
2024-09-23 07:21:23.897422,42.29,2.329589,-0.003382661564999035,-0.02412639262114825,0.0966050877605131,40.106058693909645,-96.25519929585457,76.200527287817
2024-09-23 07:21:23.940851,42.29,2.329589,-0.003382661564999035,-0.02412639262114825,0.09725178296655933,44.11764879391193,-96.25519929585457,76.200527287817
2024-09-23 07:21:23.951947,42.29,2.32964,-0.0032831742888682963,-0.02412639262114825,0.09725178296655933,44.11764879391193,-100.26678939585686,80.21211738781929
2024-09-23 07:21:23.994637,42.29,2.32964,-0.0032831742888682963,-0.023728432883788564,0.0970030596496862,36.09446859390736,-100.26678939585686,76.200527287817
2024-09-23 07:21:24.006756,42.29,2.329691,-0.0032831742888682963,-0.023728432883788564,0.0970030596496862,36.09446859390736,-100.26678939585686,76.200527287817
2024-09-23 07:21:24.040458,42.29,2.329691,-0.0026862297461545674,-0.02397715620066169,0.09705279702197278,36.09446859390736,-100.26678939585686,76.200527287817
2024-09-23 07:21:24.052146,42.29,2.329691,-0.0026862297461545674,-0.02397715620066169,0.09705279702197278,40.106058693909645,-104.27510100388527,80.21211738781929
2024-09-23 07:21:24.095410,42.29,2.329777,-0.0033329230534799477,-0.023927417309398437,0.0970030596496862,36.09446859390736,-100.26678939585686,80.21211738781929
2024-09-23 07:21:24.137842,42.29,2.329829,-0.0032831742888682963,-0.023927417309398437,0.0970030596496862,36.09446859390736,-100.26678939585686,76.200527287817
2024-09-23 07:21:24.150162,42.29,2.329829,-0.0032831742888682963,-0.024474613467244683,0.09715228999426605,40.106058693909645,-100.26678939585686,76.200527287817
