Ayaan's Suite
Timestamp,Sample Rate (Hz),Time,Ax,Ay,Az,Gx,Gy,Gz
2024-09-23 07:20:03.036233,0,2.248709,-0.0028354659767690416,-0.024176140626271565,0.09685382322919964,32.08287849390507,-104.27510100388527,76.200527287817
2024-09-23 07:20:03.068819,0,2.24876,-0.0037308827908396356,-0.024176140626271565,0.09685382322919964,32.08287849390507,-88.23529758782387,84.22370748782159
2024-09-23 07:20:03.080418,0,2.24876,-0.0037308827908396356,-0.024474613467244683,0.09675432418099966,32.08287849390507,-88.23529758782387,84.22370748782159
2024-09-23 07:20:03.113399,0,2.24876,-0.0037308827908396356,-0.024474613467244683,0.09675432418099966,36.09446859390736,-96.25519929585457,84.22370748782159
2024-09-23 07:20:03.124842,0,2.248811,-0.003233425524256645,-0.023927417309398437,0.09675432418099966,36.09446859390736,-96.25519929585457,80.21211738781929
2024-09-23 07:20:03.166902,0,2.248811,-0.003233425524256645,-0.023927417309398437,0.09740101331113918,36.09446859390736,-96.25519929585457,80.21211738781929
2024-09-23 07:20:03.178241,0,2.248861,-0.003482159473966507,-0.023927417309398437,0.09740101331113918,36.09446859390736,-96.25519929585457,80.21211738781929
2024-09-23 07:20:03.210480,0,2.248861,-0.003482159473966507,-0.023778180888911878,0.09740101331113918,36.09446859390736,-96.25519929585457,80.21211738781929
2024-09-23 07:20:03.221647,0,2.248948,-0.003482159473966507,-0.023778180888911878,0.0970030596496862,40.106058693909645,-100.26678939585686,88.23529758782387
2024-09-23 07:20:03.264540,0,2.248948,-0.0032831742888682963,-0.024176140626271565,0.09759999317981902,40.106058693909645,-100.26678939585686,88.23529758782387
2024-09-23 07:20:03.276223,0,2.248948,-0.0032831742888682963,-0.024176140626271565,0.09759999317981902,40.106058693909645,-92.24360919585227,84.22370748782159
2024-09-23 07:20:03.308787,0,2.249001,-0.002636491424507565,-0.024176140626271565,0.09759999317981902,40.106058693909645,-92.24360919585227,84.22370748782159
2024-09-23 07:20:03.320144,0,2.249001,-0.002636491424507565,-0.023728432883788564,0.09710254654607277,40.106058693909645,-96.25519929585457,84.22370748782159
2024-09-23 07:20:03.363232,0,2.249051,-0.003382661564999035,-0.023827930413011865,0.09670458680871308,40.106058693909645,-96.25519929585457,84.22370748782159
2024-09-23 07:20:03.405793,0,2.249051,-0.003382661564999035,-0.023827930413011865,0.09670458680871308,40.106058693909645,-96.25519929585457,84.22370748782159
2024-09-23 07:20:03.417760,0,2.249102,-0.0030841997366068195,-0.023927417309398437,0.0973015264147526,40.106058693909645,-96.25519929585457,80.21211738781929
2024-09-23 07:20:03.460134,0,2.249153,-0.0035816467500972456,-0.023927417309398437,0.0973015264147526,40.106058693909645,-100.26678939585686,80.21211738781929
2024-09-23 07:20:03.472143,0,2.249153,-0.0035816467500972456,-0.023778180888911878,0.0973015264147526,40.106058693909645,-100.26678939585686,80.21211738781929
2024-09-23 07:20:03.504019,0,2.249153,-0.0035816467500972456,-0.023778180888911878,0.0970030596496862,36.09446859390736,-100.26678939585686,80.21211738781929
2024-09-23 07:20:03.515408,0,2.249203,-0.0035318979854855937,-0.023778180888911878,0.0970030596496862,36.09446859390736,-96.25519929585457,72.1922225099802
2024-09-23 07:20:03.558498,0,2.24929,-0.0035318979854855937,-0.024325377046758124,0.09705279702197278,40.106058693909645,-104.27510100388527,76.200527287817
2024-09-23 07:20:03.600710,0,2.24929,-0.003631395514708897,-0.024673597892854556,0.09705279702197278,40.106058693909645,-104.27510100388527,76.200527287817
2024-09-23 07:20:03.611624,0,2.24929,-0.003631395514708897,-0.024673597892854556,0.09665483728461309,48.12595698684454,-100.26678939585686,76.200527287817
2024-09-23 07:20:03.653915,0,2.249341,-0.003631395514708897,-0.024673597892854556,0.09665483728461309,48.12595698684454,-100.26678939585686,76.200527287817
2024-09-23 07:20:03.698061,0,2.249341,-0.0036811340262279837,-0.024673597892854556,0.09665483728461309,48.12595698684454,-100.26678939585686,76.200527287817
2024-09-23 07:20:03.709361,0,2.249341,-0.0036811340262279837,-0.024275627522658133,0.09680407370509965,40.106058693909645,-104.27510100388527,80.21211738781929
2024-09-23 07:20:03.752811,0,2.249392,-0.0029349636958644295,-0.02457410036363125,0.09680407370509965,40.106058693909645,-104.27510100388527,80.21211738781929
2024-09-23 07:20:03.764690,0,2.249392,-0.0029349636958644295,-0.02457410036363125,0.09680407370509965,40.106058693909645,-96.25519929585457,80.21211738781929
2024-09-23 07:20:03.798466,0,2.249443,-0.0034324103296106863,-0.02457410036363125,0.09680407370509965,40.106058693909645,-96.25519929585457,76.200527287817
2024-09-23 07:20:03.810173,0,2.249443,-0.0034324103296106863,-0.024375126570858115,0.09705279702197278,48.12595698684454,-96.25519929585457,76.200527287817
2024-09-23 07:20:03.853208,0,2.249493,-0.0031339382481259063,-0.024076653729884996,0.09695331012558621,48.12595698684454,-100.26678939585686,72.1922225099802
2024-09-23 07:20:03.896104,0,2.249493,-0.0031339382481259063,-0.024076653729884996,0.09695331012558621,48.12595698684454,-88.23529758782387,76.200527287817
2024-09-23 07:20:03.908105,0,2.249544,-0.0029349636958644295,-0.024225890150371555,0.09695331012558621,48.12595698684454,-88.23529758782387,76.200527287817
2024-09-23 07:20:03.994648,0,2.249544,-0.0029349636958644295,-0.024225890150371555,0.09690356060148622,44.11764879391193,-96.25519929585457,76.200527287817
2024-09-23 07:20:04.006288,0,2.249634,-0.0030344509719951677,-0.024225890150371555,0.09690356060148622,44.11764879391193,-96.25519929585457,76.200527287817
2024-09-23 07:20:04.039272,44.35,2.249634,-0.0030344509719951677,-0.024076653729884996,0.09690356060148622,44.11764879391193,-96.25519929585457,76.200527287817
2024-09-23 07:20:04.050488,44.35,2.249728,-0.0030344509719951677,-0.024076653729884996,0.09665483728461309,44.11764879391193,-100.26678939585686,80.21211738781929
2024-09-23 07:20:04.093472,44.35,2.249728,-0.0031836870127375577,-0.024176140626271565,0.0966050877605131,40.106058693909645,-100.26678939585686,80.21211738781929
2024-09-23 07:20:04.106218,44.35,2.249728,-0.0031836870127375577,-0.024176140626271565,0.0966050877605131,40.106058693909645,-100.26678939585686,76.200527287817
2024-09-23 07:20:04.138898,44.35,2.24978,-0.0035318979854855937,-0.024176140626271565,0.0966050877605131,40.106058693909645,-100.26678939585686,76.200527287817
2024-09-23 07:20:04.151831,44.35,2.24978,-0.0035318979854855937,-0.024026904205785005,0.0973512698629459,40.106058693909645,-92.24360919585227,76.200527287817
2024-09-23 07:20:04.184117,44.35,2.24978,-0.0035318979854855937,-0.024026904205785005,0.0973512698629459,40.106058693909645,-92.24360919585227,76.200527287817
2024-09-23 07:20:04.195449,44.35,2.249831,-0.002636491424507565,-0.024176140626271565,0.09685382322919964,36.09446859390736,-92.24360919585227,76.200527287817
2024-09-23 07:20:04.238551,44.35,2.249925,-0.0030841997366068195,-0.024176140626271565,0.09685382322919964,36.09446859390736,-100.26678939585686,76.200527287817
2024-09-23 07:20:04.250453,44.35,2.249925,-0.0030841997366068195,-0.024424863943144692,0.09690356060148622,36.09446859390736,-100.26678939585686,76.200527287817
2024-09-23 07:20:04.283075,44.35,2.249925,-0.0030841997366068195,-0.024424863943144692,0.09690356060148622,40.106058693909645,-100.26678939585686,76.200527287817
2024-09-23 07:20:04.294139,44.35,2.249976,-0.0028852147413806935,-0.02487257320460437,0.09690356060148622,40.106058693909645,-96.25519929585457,84.22370748782159
2024-09-23 07:20:04.336382,44.35,2.249976,-0.0028852147413806935,-0.02487257320460437,0.09725178296655933,40.106058693909645,-100.26678939585686,80.21211738781929
2024-09-23 07:20:04.349182,44.35,2.250027,-0.0035318979854855937,-0.02487257320460437,0.09725178296655933,40.106058693909645,-100.26678939585686,80.21211738781929
2024-09-23 07:20:04.380922,44.35,2.250027,-0.0035318979854855937,-0.02352945757203875,0.09610764112676684,40.106058693909645,-100.26678939585686,80.21211738781929
2024-09-23 07:20:04.392896,44.35,2.250118,-0.0035318979854855937,-0.02352945757203875,0.09610764112676684,40.106058693909645,-100.26678939585686,80.21211738781929
2024-09-23 07:20:04.436020,44.35,2.250118,-0.002437506429281439,-0.024026904205785005,0.09715228999426605,40.106058693909645,-96.25519929585457,80.21211738781929
2024-09-23 07:20:04.447677,44.35,2.250118,-0.002437506429281439,-0.024026904205785005,0.09715228999426605,40.106058693909645,-96.25519929585457,80.21211738781929
2024-09-23 07:20:04.479887,44.35,2.25017,-0.0031836870127375577,-0.024076653729884996,0.09715228999426605,40.106058693909645,-96.25519929585457,80.21211738781929
2024-09-23 07:20:04.491033,44.35,2.25017,-0.0031836870127375577,-0.024076653729884996,0.09640611396773996,28.07457030097246,-96.25519929585457,80.21211738781929
2024-09-23 07:20:04.534426,44.35,2.250221,-0.0033329230534799477,-0.023827930413011865,0.09680407370509965,44.11764879391193,-96.25519929585457,80.21211738781929
2024-09-23 07:20:04.577205,44.35,2.250271,-0.0033329230534799477,-0.023827930413011865,0.09680407370509965,44.11764879391193,-100.26678939585686,76.200527287817
2024-09-23 07:20:04.588385,44.35,2.250271,-0.003382661564999035,-0.024673597892854556,0.09710254654607277,44.11764879391193,-100.26678939585686,76.200527287817
2024-09-23 07:20:04.630516,44.35,2.250322,-0.0029847020175114316,-0.024176140626271565,0.09710254654607277,40.106058693909645,-96.25519929585457,76.200527287817
2024-09-23 07:20:04.727507,44.35,2.250322,-0.0029847020175114316,-0.024176140626271565,0.09685382322919964,32.08287849390507,-104.27510100388527,80.21211738781929
2024-09-23 07:20:04.739678,44.35,2.250373,-0.003233425524256645,-0.024176140626271565,0.09685382322919964,32.08287849390507,-104.27510100388527,80.21211738781929
2024-09-23 07:20:04.773149,44.35,2.250373,-0.003233425524256645,-0.024325377046758124,0.09685382322919964,36.09446859390736,-104.27510100388527,80.21211738781929
2024-09-23 07:20:04.784862,44.35,2.25046,-0.003233425524256645,-0.024325377046758124,0.09685382322919964,36.09446859390736,-104.27510100388527,68.18063240997792
2024-09-23 07:20:04.827476,44.35,2.25046,-0.0033329230534799477,-0.02397715620066169,0.0970030596496862,32.08287849390507,-96.25519929585457,76.200527287817
2024-09-23 07:20:04.870583,44.35,2.250511,-0.0028354659767690416,-0.02457410036363125,0.0970030596496862,32.08287849390507,-96.25519929585457,76.200527287817
2024-09-23 07:20:04.882198,44.35,2.250511,-0.0028354659767690416,-0.02457410036363125,0.09715228999426605,40.106058693909645,-100.26678939585686,76.200527287817
2024-09-23 07:20:04.925742,44.35,2.250562,-0.003482159473966507,-0.024424863943144692,0.09715228999426605,36.09446859390736,-100.26678939585686,76.200527287817
2024-09-23 07:20:04.969295,44.35,2.250656,-0.0030344509719951677,-0.024424863943144692,0.09715228999426605,36.09446859390736,-96.25519929585457,76.200527287817
2024-09-23 07:20:04.982543,44.35,2.250656,-0.0030344509719951677,-0.024773084789241125,0.0966050877605131,36.09446859390736,-96.25519929585457,76.200527287817
2024-09-23 07:20:05.015394,44.35,2.250656,-0.0030344509719951677,-0.024773084789241125,0.0966050877605131,44.11764879391193,-96.25519929585457,76.200527287817
2024-09-23 07:20:05.026570,44.35,2.250707,-0.0034324103296106863,-0.023877669304275123,0.0966050877605131,44.11764879391193,-96.25519929585457,80.21211738781929
2024-09-23 07:20:05.110021,42.72,2.250707,-0.0034324103296106863,-0.023877669304275123,0.09740101331113918,44.11764879391193,-96.25519929585457,80.21211738781929
2024-09-23 07:20:05.121965,42.72,2.250758,-0.0030841997366068195,-0.023877669304275123,0.09740101331113918,44.11764879391193,-100.26678939585686,76.200527287817
2024-09-23 07:20:05.163999,42.72,2.250758,-0.0030841997366068195,-0.023479709566915436,0.0970030596496862,32.08287849390507,-100.26678939585686,76.200527287817
2024-09-23 07:20:05.175515,42.72,2.250851,-0.0030841997366068195,-0.023479709566915436,0.0970030596496862,32.08287849390507,-100.26678939585686,76.200527287817
2024-09-23 07:20:05.207888,42.72,2.250851,-0.0029349636958644295,-0.023479709566915436,0.0970030596496862,32.08287849390507,-100.26678939585686,76.200527287817
2024-09-23 07:20:05.219500,42.72,2.250851,-0.0029349636958644295,-0.023778180888911878,0.09665483728461309,32.08287849390507,-92.24360919585227,80.21211738781929
2024-09-23 07:20:05.262286,42.72,2.250902,-0.003382661564999035,-0.024524361472367997,0.09670458680871308,32.08287849390507,-92.24360919585227,80.21211738781929
2024-09-23 07:20:05.274839,42.72,2.250902,-0.003382661564999035,-0.024524361472367997,0.09670458680871308,48.12595698684454,-96.25519929585457,80.21211738781929
2024-09-23 07:20:05.307066,42.72,2.250953,-0.003382661564999035,-0.024524361472367997,0.09670458680871308,48.12595698684454,-96.25519929585457,80.21211738781929
2024-09-23 07:20:05.318665,42.72,2.250953,-0.0030344509719951677,-0.024424863943144692,0.09745075675933246,36.09446859390736,-96.25519929585457,80.21211738781929
2024-09-23 07:20:05.360510,42.72,2.251046,-0.0033329230534799477,-0.02412639262114825,0.09745075675933246,36.09446859390736,-88.23529758782387,72.1922225099802
2024-09-23 07:20:05.372621,42.72,2.251046,-0.0033329230534799477,-0.02412639262114825,0.09670458680871308,36.09446859390736,-88.23529758782387,72.1922225099802
2024-09-23 07:20:05.404785,42.72,2.251046,-0.0033329230534799477,-0.02412639262114825,0.09670458680871308,40.106058693909645,-96.25519929585457,72.1922225099802
2024-09-23 07:20:05.416293,42.72,2.251097,-0.0030344509719951677,-0.02412639262114825,0.09670458680871308,40.106058693909645,-96.25519929585457,76.200527287817
2024-09-23 07:20:05.459609,42.72,2.251148,-0.0030344509719951677,-0.02412639262114825,0.09690356060148622,40.106058693909645,-92.24360919585227,84.22370748782159
2024-09-23 07:20:05.501235,42.72,2.251148,-0.0030344509719951677,-0.024474613467244683,0.09715228999426605,40.106058693909645,-92.24360919585227,84.22370748782159
2024-09-23 07:20:05.514594,42.72,2.25124,-0.0030344509719951677,-0.024474613467244683,0.09715228999426605,36.09446859390736,-96.25519929585457,80.21211738781929
2024-09-23 07:20:05.557127,42.72,2.25124,-0.003482159473966507,-0.023927417309398437,0.09665483728461309,32.08287849390507,-96.25519929585457,84.22370748782159
2024-09-23 07:20:05.600536,42.72,2.251291,-0.003382661564999035,-0.023927417309398437,0.09665483728461309,32.08287849390507,-96.25519929585457,84.22370748782159
2024-09-23 07:20:05.612106,42.72,2.251291,-0.003382661564999035,-0.024275627522658133,0.09665483728461309,40.106058693909645,-88.23529758782387,84.22370748782159
2024-09-23 07:20:05.655804,42.72,2.251342,-0.003482159473966507,-0.024225890150371555,0.0970030596496862,32.08287849390507,-88.23529758782387,84.22370748782159
2024-09-23 07:20:05.697470,42.72,2.251342,-0.003482159473966507,-0.024225890150371555,0.0970030596496862,32.08287849390507,-100.26678939585686,76.200527287817
2024-09-23 07:20:05.709331,42.72,2.251393,-0.0030344509719951677,-0.024275627522658133,0.09690356060148622,32.08287849390507,-100.26678939585686,76.200527287817
2024-09-23 07:20:05.752329,42.72,2.251443,-0.003233425524256645,-0.024275627522658133,0.09690356060148622,28.07457030097246,-96.25519929585457,80.21211738781929
2024-09-23 07:20:05.764417,42.72,2.251443,-0.003233425524256645,-0.02397715620066169,0.09690356060148622,28.07457030097246,-96.25519929585457,80.21211738781929
2024-09-23 07:20:05.797243,42.72,2.251443,-0.003233425524256645,-0.02397715620066169,0.09690356060148622,40.106058693909645,-100.26678939585686,80.21211738781929
2024-09-23 07:20:05.808503,42.72,2.251494,-0.0035318979854855937,-0.02397715620066169,0.09690356060148622,40.106058693909645,-100.26678939585686,80.21211738781929
2024-09-23 07:20:05.853117,42.72,2.251581,-0.0035318979854855937,-0.024524361472367997,0.09680407370509965,36.09446859390736,-100.26678939585686,80.21211738781929
2024-09-23 07:20:05.896439,42.72,2.251581,-0.0032831742888682963,-0.024375126570858115,0.09695331012558621,40.106058693909645,-100.26678939585686,80.21211738781929
2024-09-23 07:20:05.908679,42.72,2.251581,-0.0032831742888682963,-0.024375126570858115,0.09695331012558621,40.106058693909645,-92.24360919585227,76.200527287817
2024-09-23 07:20:05.940834,42.72,2.251632,-0.003482159473966507,-0.024375126570858115,0.09695331012558621,40.106058693909645,-92.24360919585227,76.200527287817
2024-09-23 07:20:05.952514,42.72,2.251632,-0.003482159473966507,-0.02397715620066169,0.0973015264147526,36.09446859390736,-96.25519929585457,76.200527287817
2024-09-23 07:20:05.994914,42.72,2.251683,-0.003631395514708897,-0.024225890150371555,0.0973015264147526,36.09446859390736,-96.25519929585457,76.200527287817
2024-09-23 07:20:06.007022,42.72,2.251683,-0.003631395514708897,-0.024225890150371555,0.09705279702197278,40.106058693909645,-96.25519929585457,76.200527287817
2024-09-23 07:20:06.090688,42.72,2.251734,-0.003631395514708897,-0.024225890150371555,0.09705279702197278,40.106058693909645,-100.26678939585686,80.21211738781929
2024-09-23 07:20:06.102227,42.72,2.251734,-0.0034324103296106863,-0.024176140626271565,0.09705279702197278,40.106058693909645,-100.26678939585686,80.21211738781929
2024-09-23 07:20:06.134572,43.12,2.251734,-0.0034324103296106863,-0.024176140626271565,0.09710254654607277,40.106058693909645,-100.26678939585686,80.21211738781929
2024-09-23 07:20:06.145840,43.12,2.251784,-0.0031339382481259063,-0.024176140626271565,0.09710254654607277,36.09446859390736,-100.26678939585686,80.21211738781929
2024-09-23 07:20:06.188712,43.12,2.251784,-0.0031339382481259063,-0.023827930413011865,0.09755024973162574,48.12595698684454,-96.25519929585457,80.21211738781929
2024-09-23 07:20:06.200086,43.12,2.251835,-0.0031339382481259063,-0.023827930413011865,0.09755024973162574,48.12595698684454,-96.25519929585457,76.200527287817
2024-09-23 07:20:06.231462,43.12,2.251835,-0.003233425524256645,-0.023827930413011865,0.09755024973162574,48.12595698684454,-96.25519929585457,76.200527287817
2024-09-23 07:20:06.243116,43.12,2.251835,-0.003233425524256645,-0.02362894446842532,0.09725178296655933,36.09446859390736,-96.25519929585457,84.22370748782159
2024-09-23 07:20:06.285466,43.12,2.251922,-0.0038801188315820256,-0.024325377046758124,0.09725178296655933,36.09446859390736,-96.25519929585457,84.22370748782159
2024-09-23 07:20:06.297165,43.12,2.251922,-0.0038801188315820256,-0.024325377046758124,0.0970030596496862,48.12595698684454,-88.23529758782387,84.22370748782159
2024-09-23 07:20:06.329249,43.12,2.251922,-0.0038801188315820256,-0.024325377046758124,0.0970030596496862,48.12595698684454,-88.23529758782387,76.200527287817
2024-09-23 07:20:06.340882,43.12,2.25202,-0.0033329230534799477,-0.024076653729884996,0.0966050877605131,28.07457030097246,-88.23529758782387,76.200527287817
2024-09-23 07:20:06.383548,43.12,2.252072,-0.0030344509719951677,-0.024076653729884996,0.0966050877605131,28.07457030097246,-108.28669110388756,80.21211738781929
2024-09-23 07:20:06.395357,43.12,2.252072,-0.0030344509719951677,-0.024176140626271565,0.09670458680871308,28.07457030097246,-108.28669110388756,80.21211738781929
2024-09-23 07:20:06.428781,43.12,2.252072,-0.0030344509719951677,-0.024176140626271565,0.09670458680871308,36.09446859390736,-92.24360919585227,80.21211738781929
2024-09-23 07:20:06.440146,43.12,2.252123,-0.0031836870127375577,-0.024325377046758124,0.09670458680871308,36.09446859390736,-92.24360919585227,76.200527287817
2024-09-23 07:20:06.482263,43.12,2.252173,-0.0031836870127375577,-0.024325377046758124,0.09630662707135339,44.11764879391193,-92.24360919585227,80.21211738781929
2024-09-23 07:20:06.494358,43.12,2.252173,-0.0031339382481259063,-0.024325377046758124,0.09630662707135339,44.11764879391193,-92.24360919585227,80.21211738781929
2024-09-23 07:20:06.526451,43.12,2.252173,-0.0031339382481259063,-0.024026904205785005,0.09695331012558621,44.11764879391193,-92.24360919585227,80.21211738781929
2024-09-23 07:20:06.537624,43.12,2.252264,-0.0031339382481259063,-0.024026904205785005,0.09695331012558621,36.09446859390736,-100.26678939585686,76.200527287817
2024-09-23 07:20:06.580433,43.12,2.252264,-0.0038801188315820256,-0.02472333678411781,0.09705279702197278,44.11764879391193,-100.26678939585686,76.200527287817
2024-09-23 07:20:06.592218,43.12,2.252264,-0.0038801188315820256,-0.02472333678411781,0.09705279702197278,44.11764879391193,-100.26678939585686,76.200527287817
2024-09-23 07:20:06.625284,43.12,2.252316,-0.0029349636958644295,-0.024076653729884996,0.09705279702197278,44.11764879391193,-100.26678939585686,76.200527287817
2024-09-23 07:20:06.637068,43.12,2.252316,-0.0029349636958644295,-0.024076653729884996,0.09715228999426605,36.09446859390736,-100.26678939585686,76.200527287817
2024-09-23 07:20:06.679253,43.12,2.252366,-0.0029847020175114316,-0.024076653729884996,0.09750050628343246,40.106058693909645,-100.26678939585686,76.200527287817
2024-09-23 07:20:06.721801,43.12,2.252366,-0.0029847020175114316,-0.024076653729884996,0.09750050628343246,40.106058693909645,-96.25519929585457,80.21211738781929
2024-09-23 07:20:06.733371,43.12,2.252417,-0.0031339382481259063,-0.023728432883788564,0.09740101331113918,40.106058693909645,-96.25519929585457,80.21211738781929
2024-09-23 07:20:06.776090,43.12,2.252417,-0.0031339382481259063,-0.023728432883788564,0.09740101331113918,36.09446859390736,-92.24360919585227,80.21211738781929
2024-09-23 07:20:06.818965,43.12,2.252468,-0.0029349636958644295,-0.023728432883788564,0.09740101331113918,36.09446859390736,-92.24360919585227,80.21211738781929
2024-09-23 07:20:06.830198,43.12,2.252468,-0.0029349636958644295,-0.02457410036363125,0.09655535038822652,36.09446859390736,-96.25519929585457,80.21211738781929
2024-09-23 07:20:06.872708,43.12,2.252518,-0.0027359787006383035,-0.02412639262114825,0.09740101331113918,36.09446859390736,-96.25519929585457,80.21211738781929
2024-09-23 07:20:06.884714,43.12,2.252518,-0.0027359787006383035,-0.02412639262114825,0.09740101331113918,36.09446859390736,-96.25519929585457,80.21211738781929
2024-09-23 07:20:06.916425,43.12,2.252518,-0.0027359787006383035,-0.02412639262114825,0.09740101331113918,36.09446859390736,-88.23529758782387,72.1922225099802
2024-09-23 07:20:06.927678,43.12,2.252605,-0.0030344509719951677,-0.024275627522658133,0.0973512698629459,36.09446859390736,-88.23529758782387,72.1922225099802
2024-09-23 07:20:06.969395,43.12,2.252656,-0.0031836870127375577,-0.024275627522658133,0.0973512698629459,44.11764879391193,-100.26678939585686,80.21211738781929
2024-09-23 07:20:06.981599,43.12,2.252656,-0.0031836870127375577,-0.024225890150371555,0.0973512698629459,44.11764879391193,-100.26678939585686,80.21211738781929
2024-09-23 07:20:07.013970,43.12,2.252656,-0.0031836870127375577,-0.024225890150371555,0.09670458680871308,40.106058693909645,-100.26678939585686,80.21211738781929
2024-09-23 07:20:07.025227,43.12,2.252707,-0.0028354659767690416,-0.024225890150371555,0.09670458680871308,40.106058693909645,-100.26678939585686,80.21211738781929
2024-09-23 07:20:07.067808,43.12,2.252707,-0.0028354659767690416,-0.024076653729884996,0.09690356060148622,44.11764879391193,-96.25519929585457,76.200527287817
2024-09-23 07:20:07.079982,43.12,2.2528,-0.0028354659767690416,-0.024076653729884996,0.09690356060148622,44.11764879391193,-96.25519929585457,76.200527287817
2024-09-23 07:20:07.112969,43.12,2.2528,-0.0033329230534799477,-0.024474613467244683,0.0970030596496862,44.11764879391193,-96.25519929585457,76.200527287817
2024-09-23 07:20:07.124281,43.12,2.2528,-0.0033329230534799477,-0.024474613467244683,0.0970030596496862,44.11764879391193,-100.26678939585686,80.21211738781929
2024-09-23 07:20:07.166596,43.97,2.252851,-0.0028354659767690416,-0.023579196463302005,0.09695331012558621,32.08287849390507,-104.27510100388527,80.21211738781929
2024-09-23 07:20:07.209913,43.97,2.252902,-0.003382661564999035,-0.023579196463302005,0.09695331012558621,32.08287849390507,-104.27510100388527,80.21211738781929
2024-09-23 07:20:07.222020,43.97,2.252902,-0.003382661564999035,-0.02412639262114825,0.0970030596496862,36.09446859390736,-104.27510100388527,80.21211738781929
2024-09-23 07:20:07.264416,43.97,2.252953,-0.0031339382481259063,-0.023728432883788564,0.09680407370509965,36.09446859390736,-100.26678939585686,76.200527287817
2024-09-23 07:20:07.306565,43.97,2.252953,-0.0031339382481259063,-0.023728432883788564,0.09680407370509965,40.106058693909645,-88.23529758782387,76.200527287817
2024-09-23 07:20:07.317462,43.97,2.253003,-0.0031339382481259063,-0.02412639262114825,0.09680407370509965,40.106058693909645,-88.23529758782387,80.21211738781929
2024-09-23 07:20:07.360315,43.97,2.253054,-0.0031339382481259063,-0.02412639262114825,0.09650560086412653,40.106058693909645,-92.24360919585227,80.21211738781929
2024-09-23 07:20:07.372361,43.97,2.253054,-0.0030344509719951677,-0.02412639262114825,0.09650560086412653,40.106058693909645,-92.24360919585227,80.21211738781929
2024-09-23 07:20:07.455878,43.97,2.253054,-0.0030344509719951677,-0.02397715620066169,0.09685382322919964,36.09446859390736,-96.25519929585457,80.21211738781929
2024-09-23 07:20:07.467929,43.97,2.253141,-0.0030344509719951677,-0.02397715620066169,0.09685382322919964,36.09446859390736,-96.25519929585457,88.23529758782387
2024-09-23 07:20:07.499731,43.97,2.253141,-0.003482159473966507,-0.02397715620066169,0.09685382322919964,36.09446859390736,-96.25519929585457,88.23529758782387
2024-09-23 07:20:07.511453,43.97,2.253141,-0.003482159473966507,-0.024225890150371555,0.09675432418099966,36.09446859390736,-100.26678939585686,80.21211738781929
2024-09-23 07:20:07.553761,43.97,2.253193,-0.0031339382481259063,-0.024225890150371555,0.09720203344245934,36.09446859390736,-100.26678939585686,80.21211738781929
2024-09-23 07:20:07.565441,43.97,2.253193,-0.0031339382481259063,-0.024225890150371555,0.09720203344245934,40.106058693909645,-100.26678939585686,80.21211738781929
2024-09-23 07:20:07.598804,43.97,2.253243,-0.0031339382481259063,-0.024225890150371555,0.09720203344245934,40.106058693909645,-100.26678939585686,84.22370748782159
2024-09-23 07:20:07.610196,43.97,2.253243,-0.003631395514708897,-0.023728432883788564,0.09725178296655933,44.11764879391193,-100.26678939585686,84.22370748782159
2024-09-23 07:20:07.693950,43.97,2.253243,-0.003631395514708897,-0.023728432883788564,0.09725178296655933,44.11764879391193,-100.26678939585686,84.22370748782159
2024-09-23 07:20:07.705877,43.97,2.253294,-0.0029847020175114316,-0.023728432883788564,0.09680407370509965,44.11764879391193,-100.26678939585686,76.200527287817
2024-09-23 07:20:07.748272,43.97,2.253387,-0.0029847020175114316,-0.023728432883788564,0.09680407370509965,32.08287849390507,-104.27510100388527,76.200527287817
2024-09-23 07:20:07.759489,43.97,2.253387,-0.0031339382481259063,-0.024176140626271565,0.09680407370509965,32.08287849390507,-104.27510100388527,76.200527287817
2024-09-23 07:20:07.791454,43.97,2.253387,-0.0031339382481259063,-0.024176140626271565,0.09635636444363997,32.08287849390507,-104.27510100388527,76.200527287817
2024-09-23 07:20:07.803297,43.97,2.253387,-0.0031339382481259063,-0.024176140626271565,0.09635636444363997,36.09446859390736,-100.26678939585686,76.200527287817
2024-09-23 07:20:07.846316,43.97,2.253438,-0.0028852147413806935,-0.024076653729884996,0.09635636444363997,36.09446859390736,-100.26678939585686,72.1922225099802
2024-09-23 07:20:07.857991,43.97,2.253438,-0.0028852147413806935,-0.024076653729884996,0.0962568775472534,36.09446859390736,-100.26678939585686,72.1922225099802
2024-09-23 07:20:07.891163,43.97,2.253438,-0.0028852147413806935,-0.024076653729884996,0.0962568775472534,36.09446859390736,-96.25519929585457,76.200527287817
2024-09-23 07:20:07.902593,43.97,2.253531,-0.0035816467500972456,-0.02362894446842532,0.0966050877605131,36.09446859390736,-96.25519929585457,76.200527287817
2024-09-23 07:20:07.944371,43.97,2.253629,-0.0035816467500972456,-0.02362894446842532,0.0966050877605131,36.09446859390736,-100.26678939585686,72.1922225099802
2024-09-23 07:20:07.956516,43.97,2.253629,-0.0035816467500972456,-0.024424863943144692,0.0966050877605131,36.09446859390736,-100.26678939585686,72.1922225099802
2024-09-23 07:20:07.988186,43.97,2.253629,-0.0035816467500972456,-0.024424863943144692,0.09645586349183995,44.11764879391193,-100.26678939585686,72.1922225099802
2024-09-23 07:20:07.999921,43.97,2.25368,-0.003382661564999035,-0.024424863943144692,0.09645586349183995,44.11764879391193,-96.25519929585457,76.200527287817
2024-09-23 07:20:08.042308,43.97,2.25368,-0.003382661564999035,-0.024673597892854556,0.09705279702197278,40.106058693909645,-96.25519929585457,76.200527287817
2024-09-23 07:20:08.053866,43.97,2.253775,-0.003382661564999035,-0.024673597892854556,0.09705279702197278,40.106058693909645,-96.25519929585457,80.21211738781929
2024-09-23 07:20:08.086623,43.97,2.253775,-0.002785727465249955,-0.023728432883788564,0.09705279702197278,40.106058693909645,-96.25519929585457,80.21211738781929
2024-09-23 07:20:08.097753,43.97,2.253775,-0.002785727465249955,-0.023728432883788564,0.09695331012558621,32.08287849390507,-96.25519929585457,80.21211738781929
2024-09-23 07:20:08.139904,43.97,2.253826,-0.003382661564999035,-0.024524361472367997,0.09705279702197278,32.08287849390507,-96.25519929585457,80.21211738781929
2024-09-23 07:20:08.151768,43.97,2.253826,-0.003382661564999035,-0.024524361472367997,0.09705279702197278,32.08287849390507,-96.25519929585457,80.21211738781929
2024-09-23 07:20:08.184158,43.82,2.253877,-0.003382661564999035,-0.024524361472367997,0.09705279702197278,32.08287849390507,-96.25519929585457,76.200527287817
2024-09-23 07:20:08.195693,43.82,2.253877,-0.0030344509719951677,-0.024524361472367997,0.09710254654607277,32.08287849390507,-96.25519929585457,76.200527287817
2024-09-23 07:20:08.279468,43.82,2.253877,-0.0030344509719951677,-0.024524361472367997,0.09710254654607277,32.08287849390507,-96.25519929585457,76.200527287817
2024-09-23 07:20:08.290736,43.82,2.253928,-0.0029847020175114316,-0.02397715620066169,0.09695331012558621,32.08287849390507,-96.25519929585457,76.200527287817
2024-09-23 07:20:08.334132,43.82,2.253978,-0.0029847020175114316,-0.02397715620066169,0.09695331012558621,36.09446859390736,-96.25519929585457,80.21211738781929
2024-09-23 07:20:08.345714,43.82,2.253978,-0.0034324103296106863,-0.023778180888911878,0.09695331012558621,36.09446859390736,-96.25519929585457,80.21211738781929
2024-09-23 07:20:08.378501,43.82,2.253978,-0.0034324103296106863,-0.023778180888911878,0.09710254654607277,40.106058693909645,-96.25519929585457,80.21211738781929
2024-09-23 07:20:08.390239,43.82,2.254029,-0.0035318979854855937,-0.023778180888911878,0.09710254654607277,40.106058693909645,-96.25519929585457,80.21211738781929
2024-09-23 07:20:08.431924,43.82,2.254029,-0.0035318979854855937,-0.024424863943144692,0.09715228999426605,40.106058693909645,-92.24360919585227,80.21211738781929
2024-09-23 07:20:08.443904,43.82,2.254116,-0.0035318979854855937,-0.024424863943144692,0.09715228999426605,40.106058693909645,-92.24360919585227,80.21211738781929
2024-09-23 07:20:08.476998,43.82,2.254116,-0.003233425524256645,-0.023927417309398437,0.09715228999426605,40.106058693909645,-92.24360919585227,80.21211738781929
2024-09-23 07:20:08.488303,43.82,2.254116,-0.003233425524256645,-0.023927417309398437,0.0973015264147526,36.09446859390736,-88.23529758782387,88.23529758782387
2024-09-23 07:20:08.530543,43.82,2.254214,-0.0032831742888682963,-0.024225890150371555,0.09640611396773996,32.08287849390507,-88.23529758782387,88.23529758782387
2024-09-23 07:20:08.542871,43.82,2.254214,-0.0032831742888682963,-0.024225890150371555,0.09640611396773996,32.08287849390507,-96.25519929585457,88.23529758782387
2024-09-23 07:20:08.576344,43.82,2.254265,-0.003482159473966507,-0.024275627522658133,0.09640611396773996,32.08287849390507,-96.25519929585457,80.21211738781929
2024-09-23 07:20:08.587295,43.82,2.254265,-0.003482159473966507,-0.024275627522658133,0.09635636444363997,44.11764879391193,-96.25519929585457,80.21211738781929
2024-09-23 07:20:08.629740,43.82,2.254316,-0.0029847020175114316,-0.024225890150371555,0.09655535038822652,44.11764879391193,-96.25519929585457,72.1922225099802
2024-09-23 07:20:08.672359,43.82,2.254316,-0.0029847020175114316,-0.024225890150371555,0.09655535038822652,36.09446859390736,-92.24360919585227,72.1922225099802
2024-09-23 07:20:08.684873,43.82,2.254367,-0.0029349636958644295,-0.024225890150371555,0.09655535038822652,36.09446859390736,-92.24360919585227,72.1922225099802
2024-09-23 07:20:08.728374,43.82,2.254417,-0.0036811340262279837,-0.024225890150371555,0.09690356060148622,32.08287849390507,-96.25519929585457,76.200527287817
2024-09-23 07:20:08.770776,43.82,2.254417,-0.0036811340262279837,-0.024225890150371555,0.09745075675933246,36.09446859390736,-96.25519929585457,76.200527287817
2024-09-23 07:20:08.782212,43.82,2.254506,-0.0036811340262279837,-0.024225890150371555,0.09745075675933246,36.09446859390736,-96.25519929585457,76.200527287817
2024-09-23 07:20:08.825546,43.82,2.254506,-0.0028852147413806935,-0.024225890150371555,0.09745075675933246,36.09446859390736,-96.25519929585457,76.200527287817
2024-09-23 07:20:08.867974,43.82,2.254506,-0.0028852147413806935,-0.024225890150371555,0.0970030596496862,36.09446859390736,-96.25519929585457,76.200527287817
2024-09-23 07:20:08.879423,43.82,2.254558,-0.0030344509719951677,-0.024225890150371555,0.0970030596496862,36.09446859390736,-96.25519929585457,80.21211738781929
2024-09-23 07:20:08.922368,43.82,2.254608,-0.0030344509719951677,-0.024325377046758124,0.09665483728461309,40.106058693909645,-100.26678939585686,76.200527287817
2024-09-23 07:20:08.965315,43.82,2.254608,-0.0027359787006383035,-0.024026904205785005,0.0973512698629459,40.106058693909645,-100.26678939585686,76.200527287817
2024-09-23 07:20:08.976552,43.82,2.254608,-0.0027359787006383035,-0.024026904205785005,0.0973512698629459,44.11764879391193,-96.25519929585457,64.16903547978401
2024-09-23 07:20:09.019746,43.82,2.254659,-0.003233425524256645,-0.023877669304275123,0.09680407370509965,32.08287849390507,-96.25519929585457,64.16903547978401
2024-09-23 07:20:09.062643,43.82,2.25471,-0.0029349636958644295,-0.023877669304275123,0.09680407370509965,32.08287849390507,-96.25519929585457,84.22370748782159
2024-09-23 07:20:09.074911,43.82,2.25471,-0.0029349636958644295,-0.023877669304275123,0.09715228999426605,40.106058693909645,-96.25519929585457,84.22370748782159
2024-09-23 07:20:09.118062,43.82,2.2548,-0.003482159473966507,-0.024225890150371555,0.09685382322919964,40.106058693909645,-96.25519929585457,80.21211738781929
2024-09-23 07:20:09.160535,43.82,2.2548,-0.003482159473966507,-0.024225890150371555,0.09685382322919964,36.09446859390736,-96.25519929585457,84.22370748782159
2024-09-23 07:20:09.172134,43.82,2.254851,-0.0034324103296106863,-0.024325377046758124,0.09685382322919964,36.09446859390736,-96.25519929585457,84.22370748782159
2024-09-23 07:20:09.215828,43.47,2.254902,-0.0032831742888682963,-0.024325377046758124,0.0970030596496862,44.11764879391193,-100.26678939585686,80.21211738781929
2024-09-23 07:20:09.257847,43.47,2.254902,-0.0032831742888682963,-0.023877669304275123,0.09690356060148622,40.106058693909645,-100.26678939585686,80.21211738781929
2024-09-23 07:20:09.269590,43.47,2.254994,-0.0032831742888682963,-0.023877669304275123,0.09690356060148622,40.106058693909645,-100.26678939585686,84.22370748782159
2024-09-23 07:20:09.312458,43.47,2.254994,-0.0035318979854855937,-0.024026904205785005,0.09715228999426605,36.09446859390736,-92.24360919585227,76.200527287817
2024-09-23 07:20:09.355202,43.47,2.255045,-0.0031339382481259063,-0.024225890150371555,0.09715228999426605,36.09446859390736,-92.24360919585227,76.200527287817
2024-09-23 07:20:09.366119,43.47,2.255045,-0.0031339382481259063,-0.024225890150371555,0.09720203344245934,48.12595698684454,-92.24360919585227,76.200527287817
2024-09-23 07:20:09.408404,43.47,2.255096,-0.0033329230534799477,-0.023927417309398437,0.09690356060148622,44.11764879391193,-92.24360919585227,76.200527287817
2024-09-23 07:20:09.450909,43.47,2.255096,-0.0033329230534799477,-0.023927417309398437,0.09690356060148622,44.11764879391193,-88.23529758782387,76.200527287817
2024-09-23 07:20:09.463550,43.47,2.255146,-0.0035318979854855937,-0.023927417309398437,0.09675432418099966,44.11764879391193,-88.23529758782387,76.200527287817
2024-09-23 07:20:09.507218,43.47,2.255197,-0.003382661564999035,-0.024026904205785005,0.09675432418099966,36.09446859390736,-100.26678939585686,80.21211738781929
2024-09-23 07:20:09.550563,43.47,2.255197,-0.003382661564999035,-0.024026904205785005,0.09645586349183995,40.106058693909645,-100.26678939585686,80.21211738781929
2024-09-23 07:20:09.562059,43.47,2.255248,-0.003631395514708897,-0.024026904205785005,0.09645586349183995,40.106058693909645,-100.26678939585686,76.200527287817
2024-09-23 07:20:09.604987,43.47,2.255335,-0.003631395514708897,-0.02367869399252531,0.0970030596496862,40.106058693909645,-104.27510100388527,80.21211738781929
2024-09-23 07:20:09.646541,43.47,2.255335,-0.0037308827908396356,-0.02412639262114825,0.0970030596496862,40.106058693909645,-104.27510100388527,80.21211738781929
2024-09-23 07:20:09.658194,43.47,2.255335,-0.0037308827908396356,-0.02412639262114825,0.09670458680871308,44.11764879391193,-84.22370748782159,88.23529758782387
2024-09-23 07:20:09.700443,43.47,2.255387,-0.0030841997366068195,-0.02397715620066169,0.0973512698629459,44.11764879391193,-84.22370748782159,88.23529758782387
2024-09-23 07:20:09.712150,43.47,2.255387,-0.0030841997366068195,-0.02397715620066169,0.0973512698629459,44.11764879391193,-88.23529758782387,88.23529758782387
2024-09-23 07:20:09.744658,43.47,2.255437,-0.0030841997366068195,-0.02397715620066169,0.0973512698629459,44.11764879391193,-88.23529758782387,80.21211738781929
2024-09-23 07:20:09.755903,43.47,2.255437,-0.0030841997366068195,-0.02397715620066169,0.09720203344245934,40.106058693909645,-88.23529758782387,80.21211738781929
2024-09-23 07:20:09.798695,43.47,2.255488,-0.0029349636958644295,-0.023927417309398437,0.09655535038822652,40.106058693909645,-100.26678939585686,76.200527287817
2024-09-23 07:20:09.840911,43.47,2.255488,-0.0029349636958644295,-0.023927417309398437,0.09655535038822652,48.12595698684454,-100.26678939585686,76.200527287817
2024-09-23 07:20:09.895112,43.47,2.255539,-0.0038801188315820256,-0.023927417309398437,0.09655535038822652,48.12595698684454,-104.27510100388527,72.1922225099802
2024-09-23 07:20:09.906858,43.47,2.255539,-0.0038801188315820256,-0.024424863943144692,0.09655535038822652,48.12595698684454,-104.27510100388527,72.1922225099802
2024-09-23 07:20:09.938982,43.47,2.255539,-0.0038801188315820256,-0.024424863943144692,0.09705279702197278,40.106058693909645,-104.27510100388527,72.1922225099802
2024-09-23 07:20:09.950215,43.47,2.255589,-0.0034324103296106863,-0.024424863943144692,0.09705279702197278,40.106058693909645,-92.24360919585227,80.21211738781929
2024-09-23 07:20:09.993927,43.47,2.255676,-0.0034324103296106863,-0.024275627522658133,0.09690356060148622,40.106058693909645,-100.26678939585686,76.200527287817
2024-09-23 07:20:10.036094,43.47,2.255676,-0.0031339382481259063,-0.024325377046758124,0.09690356060148622,40.106058693909645,-100.26678939585686,76.200527287817
2024-09-23 07:20:10.047407,43.47,2.255676,-0.0031339382481259063,-0.024325377046758124,0.09665483728461309,40.106058693909645,-100.26678939585686,76.200527287817
2024-09-23 07:20:10.089216,43.47,2.255728,-0.0032831742888682963,-0.024176140626271565,0.09665483728461309,40.106058693909645,-100.26678939585686,76.200527287817
2024-09-23 07:20:10.101255,43.47,2.255728,-0.0032831742888682963,-0.024176140626271565,0.09665483728461309,40.106058693909645,-92.24360919585227,76.200527287817
2024-09-23 07:20:10.185603,43.47,2.255823,-0.0030344509719951677,-0.024524361472367997,0.09665483728461309,40.106058693909645,-92.24360919585227,80.21211738781929
2024-09-23 07:20:10.197018,43.47,2.255823,-0.0030344509719951677,-0.024524361472367997,0.09710254654607277,32.08287849390507,-92.24360919585227,80.21211738781929
2024-09-23 07:20:10.229806,42.89,2.255823,-0.0030344509719951677,-0.024524361472367997,0.09710254654607277,32.08287849390507,-88.23529758782387,80.21211738781929
2024-09-23 07:20:10.242507,42.89,2.255874,-0.002387757474797703,-0.02362894446842532,0.09715228999426605,32.08287849390507,-88.23529758782387,80.21211738781929
2024-09-23 07:20:10.285790,42.89,2.255925,-0.002387757474797703,-0.02362894446842532,0.09715228999426605,32.08287849390507,-88.23529758782387,80.21211738781929
2024-09-23 07:20:10.298082,42.89,2.255925,-0.0031339382481259063,-0.024673597892854556,0.09715228999426605,32.08287849390507,-88.23529758782387,80.21211738781929
2024-09-23 07:20:10.330828,42.89,2.255925,-0.0031339382481259063,-0.024673597892854556,0.09695331012558621,36.09446859390736,-104.27510100388527,80.21211738781929
2024-09-23 07:20:10.343122,42.89,2.255976,-0.003482159473966507,-0.024673597892854556,0.09695331012558621,36.09446859390736,-104.27510100388527,76.200527287817
2024-09-23 07:20:10.375135,42.89,2.255976,-0.003482159473966507,-0.023927417309398437,0.09695331012558621,36.09446859390736,-104.27510100388527,76.200527287817
2024-09-23 07:20:10.386902,42.89,2.256066,-0.003482159473966507,-0.023927417309398437,0.09680407370509965,32.08287849390507,-96.25519929585457,76.200527287817
2024-09-23 07:20:10.429463,42.89,2.256066,-0.0031836870127375577,-0.024424863943144692,0.09595840470628028,40.106058693909645,-96.25519929585457,76.200527287817
2024-09-23 07:20:10.441222,42.89,2.256066,-0.0031836870127375577,-0.024424863943144692,0.09595840470628028,40.106058693909645,-96.25519929585457,80.21211738781929
2024-09-23 07:20:10.525384,42.89,2.256164,-0.0030344509719951677,-0.024325377046758124,0.09595840470628028,40.106058693909645,-96.25519929585457,80.21211738781929
2024-09-23 07:20:10.537298,42.89,2.256164,-0.0030344509719951677,-0.024325377046758124,0.09685382322919964,32.08287849390507,-96.25519929585457,80.21211738781929
2024-09-23 07:20:10.581195,42.89,2.256216,-0.002636491424507565,-0.023927417309398437,0.09705279702197278,32.08287849390507,-96.25519929585457,84.22370748782159
2024-09-23 07:20:10.624802,42.89,2.256266,-0.003233425524256645,-0.023927417309398437,0.09705279702197278,32.08287849390507,-92.24360919585227,84.22370748782159
2024-09-23 07:20:10.636237,42.89,2.256266,-0.003233425524256645,-0.024325377046758124,0.0973512698629459,32.08287849390507,-92.24360919585227,84.22370748782159
2024-09-23 07:20:10.667791,42.89,2.256266,-0.003233425524256645,-0.024325377046758124,0.0973512698629459,44.11764879391193,-92.24360919585227,84.22370748782159
2024-09-23 07:20:10.680484,42.89,2.256317,-0.003382661564999035,-0.023778180888911878,0.0973512698629459,44.11764879391193,-104.27510100388527,72.1922225099802
2024-09-23 07:20:10.723843,42.89,2.256368,-0.003382661564999035,-0.023778180888911878,0.09715228999426605,36.09446859390736,-100.26678939585686,84.22370748782159
2024-09-23 07:20:10.736051,42.89,2.256368,-0.0034324103296106863,-0.023778180888911878,0.09715228999426605,36.09446859390736,-100.26678939585686,84.22370748782159
2024-09-23 07:20:10.767674,42.89,2.256368,-0.0034324103296106863,-0.02412639262114825,0.09695331012558621,36.09446859390736,-100.26678939585686,84.22370748782159
2024-09-23 07:20:10.779575,42.89,2.256505,-0.0034324103296106863,-0.02412639262114825,0.09695331012558621,32.08287849390507,-96.25519929585457,80.21211738781929
2024-09-23 07:20:10.822798,42.89,2.256505,-0.0031339382481259063,-0.024922321209727684,0.09675432418099966,40.106058693909645,-92.24360919585227,80.21211738781929
2024-09-23 07:20:10.865666,42.89,2.256557,-0.0031339382481259063,-0.024922321209727684,0.09675432418099966,40.106058693909645,-92.24360919585227,80.21211738781929
2024-09-23 07:20:10.918159,42.89,2.256557,-0.003233425524256645,-0.02412639262114825,0.09710254654607277,40.106058693909645,-92.24360919585227,80.21211738781929
2024-09-23 07:20:10.930452,42.89,2.256557,-0.003233425524256645,-0.02412639262114825,0.09710254654607277,40.106058693909645,-92.24360919585227,72.1922225099802
2024-09-23 07:20:10.962830,42.89,2.256607,-0.0027359787006383035,-0.02412639262114825,0.09710254654607277,40.106058693909645,-92.24360919585227,72.1922225099802
2024-09-23 07:20:10.974241,42.89,2.256607,-0.0027359787006383035,-0.024076653729884996,0.09685382322919964,40.106058693909645,-96.25519929585457,72.1922225099802
2024-09-23 07:20:11.016460,42.89,2.256658,-0.0034324103296106863,-0.02457410036363125,0.09715228999426605,40.106058693909645,-96.25519929585457,76.200527287817
2024-09-23 07:20:11.028281,42.89,2.256658,-0.0034324103296106863,-0.02457410036363125,0.09715228999426605,36.09446859390736,-96.25519929585457,76.200527287817
2024-09-23 07:20:11.062563,42.89,2.256709,-0.0034324103296106863,-0.02457410036363125,0.09715228999426605,36.09446859390736,-88.23529758782387,80.21211738781929
2024-09-23 07:20:11.074431,42.89,2.256709,-0.0033329230534799477,-0.02352945757203875,0.09685382322919964,36.09446859390736,-88.23529758782387,80.21211738781929
2024-09-23 07:20:11.106622,42.89,2.256709,-0.0033329230534799477,-0.02352945757203875,0.09685382322919964,40.106058693909645,-88.23529758782387,80.21211738781929
2024-09-23 07:20:11.118075,42.89,2.25676,-0.002785727465249955,-0.02457410036363125,0.09685382322919964,40.106058693909645,-92.24360919585227,80.21211738781929
2024-09-23 07:20:11.162626,42.89,2.256849,-0.002785727465249955,-0.02457410036363125,0.09710254654607277,32.08287849390507,-84.22370748782159,88.23529758782387
2024-09-23 07:20:11.174612,42.89,2.256849,-0.0030344509719951677,-0.02457410036363125,0.09710254654607277,32.08287849390507,-84.22370748782159,88.23529758782387
2024-09-23 07:20:11.207748,42.89,2.256849,-0.0030344509719951677,-0.02352945757203875,0.09695331012558621,28.07457030097246,-84.22370748782159,88.23529758782387
2024-09-23 07:20:11.218834,42.89,2.256944,-0.0030344509719951677,-0.02352945757203875,0.09695331012558621,28.07457030097246,-92.24360919585227,76.200527287817
2024-09-23 07:20:11.260948,42.99,2.256944,-0.0032831742888682963,-0.024225890150371555,0.09755024973162574,40.106058693909645,-100.26678939585686,76.200527287817
2024-09-23 07:20:11.303839,42.99,2.256995,-0.0030344509719951677,-0.024225890150371555,0.09755024973162574,40.106058693909645,-100.26678939585686,76.200527287817
2024-09-23 07:20:11.315580,42.99,2.256995,-0.0030344509719951677,-0.023877669304275123,0.09635636444363997,36.09446859390736,-100.26678939585686,76.200527287817
2024-09-23 07:20:11.359738,42.99,2.257046,-0.0029349636958644295,-0.02397715620066169,0.09750050628343246,32.08287849390507,-100.26678939585686,76.200527287817
2024-09-23 07:20:11.402565,42.99,2.257046,-0.0029349636958644295,-0.02397715620066169,0.09750050628343246,32.08287849390507,-96.25519929585457,80.21211738781929
2024-09-23 07:20:11.414478,42.99,2.257097,-0.0030841997366068195,-0.024375126570858115,0.09685382322919964,32.08287849390507,-96.25519929585457,80.21211738781929
2024-09-23 07:20:11.457339,42.99,2.257147,-0.0029847020175114316,-0.023827930413011865,0.09685382322919964,44.11764879391193,-96.25519929585457,72.1922225099802
2024-09-23 07:20:11.502130,42.99,2.257147,-0.0029847020175114316,-0.023827930413011865,0.09710254654607277,40.106058693909645,-92.24360919585227,72.1922225099802
2024-09-23 07:20:11.513743,42.99,2.257198,-0.003979606107712764,-0.023827930413011865,0.09710254654607277,40.106058693909645,-92.24360919585227,80.21211738781929
2024-09-23 07:20:11.545565,42.99,2.257198,-0.003979606107712764,-0.024623849887731242,0.09710254654607277,40.106058693909645,-92.24360919585227,80.21211738781929
2024-09-23 07:20:11.557688,42.99,2.257285,-0.003979606107712764,-0.024623849887731242,0.0970030596496862,40.106058693909645,-96.25519929585457,80.21211738781929
2024-09-23 07:20:11.600575,42.99,2.257285,-0.0025369937054121774,-0.023927417309398437,0.09655535038822652,40.106058693909645,-96.25519929585457,80.21211738781929
2024-09-23 07:20:11.611749,42.99,2.257285,-0.0025369937054121774,-0.023927417309398437,0.09655535038822652,40.106058693909645,-96.25519929585457,80.21211738781929
2024-09-23 07:20:11.644251,42.99,2.257337,-0.0025369937054121774,-0.023927417309398437,0.09655535038822652,40.106058693909645,-96.25519929585457,80.21211738781929
2024-09-23 07:20:11.655537,42.99,2.257337,-0.0029349636958644295,-0.024275627522658133,0.09645586349183995,40.106058693909645,-100.26678939585686,80.21211738781929
2024-09-23 07:20:11.699009,42.99,2.257387,-0.003482159473966507,-0.024524361472367997,0.09645586349183995,40.106058693909645,-100.26678939585686,80.21211738781929
2024-09-23 07:20:11.711084,42.99,2.257387,-0.003482159473966507,-0.024524361472367997,0.09750050628343246,36.09446859390736,-100.26678939585686,80.21211738781929
2024-09-23 07:20:11.743642,42.99,2.257438,-0.003482159473966507,-0.024524361472367997,0.09750050628343246,36.09446859390736,-96.25519929585457,80.21211738781929
2024-09-23 07:20:11.754736,42.99,2.257438,-0.0026862297461545674,-0.024375126570858115,0.09640611396773996,36.09446859390736,-96.25519929585457,80.21211738781929
2024-09-23 07:20:11.797002,42.99,2.257488,-0.003631395514708897,-0.024375126570858115,0.09640611396773996,36.09446859390736,-92.24360919585227,76.200527287817
2024-09-23 07:20:11.840199,42.99,2.257488,-0.003631395514708897,-0.023927417309398437,0.09725178296655933,36.09446859390736,-92.24360919585227,76.200527287817
2024-09-23 07:20:11.851596,42.99,2.257539,-0.003631395514708897,-0.023927417309398437,0.09725178296655933,36.09446859390736,-92.24360919585227,80.21211738781929
2024-09-23 07:20:11.944940,42.99,2.257539,-0.003631395514708897,-0.024773084789241125,0.09650560086412653,36.09446859390736,-92.24360919585227,80.21211738781929
2024-09-23 07:20:11.987792,42.99,2.257626,-0.0033329230534799477,-0.024026904205785005,0.09650560086412653,36.09446859390736,-92.24360919585227,80.21211738781929
2024-09-23 07:20:11.999402,42.99,2.257626,-0.0033329230534799477,-0.024026904205785005,0.09685382322919964,36.09446859390736,-96.25519929585457,80.21211738781929
2024-09-23 07:20:12.042228,42.99,2.257678,-0.0030841997366068195,-0.024275627522658133,0.09640611396773996,36.09446859390736,-96.25519929585457,80.21211738781929
2024-09-23 07:20:12.085004,42.99,2.257728,-0.0030841997366068195,-0.024275627522658133,0.09640611396773996,36.09446859390736,-100.26678939585686,76.200527287817
2024-09-23 07:20:12.096509,42.99,2.257728,-0.0035318979854855937,-0.02457410036363125,0.09640611396773996,36.09446859390736,-100.26678939585686,76.200527287817
2024-09-23 07:20:12.138746,42.99,2.257779,-0.0032831742888682963,-0.024176140626271565,0.09640611396773996,40.106058693909645,-92.24360919585227,80.21211738781929
2024-09-23 07:20:12.182902,42.99,2.257779,-0.0032831742888682963,-0.024176140626271565,0.09720203344245934,40.106058693909645,-100.26678939585686,80.21211738781929
2024-09-23 07:20:12.194514,42.99,2.257873,-0.003482159473966507,-0.024176140626271565,0.09720203344245934,40.106058693909645,-100.26678939585686,76.200527287817
2024-09-23 07:20:12.237874,42.99,2.257967,-0.003482159473966507,-0.02412639262114825,0.09675432418099966,44.11764879391193,-96.25519929585457,72.1922225099802
2024-09-23 07:20:12.280434,42.57,2.257967,-0.002785727465249955,-0.024176140626271565,0.09670458680871308,44.11764879391193,-96.25519929585457,72.1922225099802
2024-09-23 07:20:12.291689,42.57,2.257967,-0.002785727465249955,-0.024176140626271565,0.09670458680871308,44.11764879391193,-100.26678939585686,80.21211738781929
2024-09-23 07:20:12.334455,42.57,2.25802,-0.003482159473966507,-0.02362894446842532,0.09680407370509965,48.12595698684454,-96.25519929585457,80.21211738781929
2024-09-23 07:20:12.378324,42.57,2.25807,-0.0033329230534799477,-0.02362894446842532,0.09680407370509965,48.12595698684454,-96.25519929585457,80.21211738781929
2024-09-23 07:20:12.389912,42.57,2.25807,-0.0033329230534799477,-0.02397715620066169,0.09675432418099966,44.11764879391193,-96.25519929585457,80.21211738781929
2024-09-23 07:20:12.432194,42.57,2.258121,-0.0029349636958644295,-0.024225890150371555,0.09695331012558621,44.11764879391193,-96.25519929585457,76.200527287817
2024-09-23 07:20:12.475612,42.57,2.258121,-0.0029349636958644295,-0.024225890150371555,0.09695331012558621,44.11764879391193,-88.23529758782387,76.200527287817
2024-09-23 07:20:12.487322,42.57,2.258172,-0.003233425524256645,-0.024275627522658133,0.09695331012558621,44.11764879391193,-88.23529758782387,76.200527287817
2024-09-23 07:20:12.529972,42.57,2.258222,-0.0032831742888682963,-0.024275627522658133,0.09695331012558621,44.11764879391193,-96.25519929585457,76.200527287817
2024-09-23 07:20:12.572861,42.57,2.258222,-0.0032831742888682963,-0.02397715620066169,0.09650560086412653,44.11764879391193,-96.25519929585457,76.200527287817
2024-09-23 07:20:12.584668,42.57,2.258309,-0.0032831742888682963,-0.02397715620066169,0.09650560086412653,44.11764879391193,-104.27510100388527,76.200527287817
2024-09-23 07:20:12.627593,42.57,2.258309,-0.002785727465249955,-0.02412639262114825,0.09740101331113918,28.07457030097246,-104.27510100388527,72.1922225099802
2024-09-23 07:20:12.670070,42.57,2.25836,-0.0034324103296106863,-0.02397715620066169,0.09740101331113918,28.07457030097246,-104.27510100388527,72.1922225099802
2024-09-23 07:20:12.681014,42.57,2.25836,-0.0034324103296106863,-0.02397715620066169,0.0966050877605131,32.08287849390507,-100.26678939585686,72.1922225099802
2024-09-23 07:20:12.723482,42.57,2.258411,-0.003233425524256645,-0.024524361472367997,0.0970030596496862,44.11764879391193,-100.26678939585686,76.200527287817
2024-09-23 07:20:12.767477,42.57,2.258462,-0.003233425524256645,-0.024524361472367997,0.0970030596496862,44.11764879391193,-92.24360919585227,80.21211738781929
2024-09-23 07:20:12.778616,42.57,2.258462,-0.003233425524256645,-0.02412639262114825,0.0966050877605131,44.11764879391193,-92.24360919585227,80.21211738781929
2024-09-23 07:20:12.820907,42.57,2.258512,-0.002785727465249955,-0.02412639262114825,0.0966050877605131,28.07457030097246,-104.27510100388527,76.200527287817
2024-09-23 07:20:12.864171,42.57,2.258512,-0.002785727465249955,-0.02412639262114825,0.09710254654607277,32.08287849390507,-104.27510100388527,76.200527287817
2024-09-23 07:20:12.875618,42.57,2.258563,-0.0029847020175114316,-0.02412639262114825,0.09710254654607277,32.08287849390507,-104.27510100388527,80.21211738781929
2024-09-23 07:20:12.917854,42.57,2.258563,-0.0029847020175114316,-0.024225890150371555,0.09680407370509965,36.09446859390736,-96.25519929585457,80.21211738781929
2024-09-23 07:20:12.930023,42.57,2.25865,-0.0029847020175114316,-0.024225890150371555,0.09680407370509965,36.09446859390736,-96.25519929585457,80.21211738781929
2024-09-23 07:20:12.962927,42.57,2.25865,-0.0033329230534799477,-0.024424863943144692,0.09705279702197278,36.09446859390736,-96.25519929585457,80.21211738781929
2024-09-23 07:20:12.974775,42.57,2.25865,-0.0033329230534799477,-0.024424863943144692,0.09705279702197278,52.137550501942634,-96.25519929585457,80.21211738781929
2024-09-23 07:20:13.018160,42.57,2.258702,-0.0030841997366068195,-0.02457410036363125,0.09655535038822652,52.137550501942634,-104.27510100388527,68.18063240997792
2024-09-23 07:20:13.059735,42.57,2.258702,-0.0030841997366068195,-0.02457410036363125,0.09655535038822652,48.12595698684454,-100.26678939585686,72.1922225099802
2024-09-23 07:20:13.070849,42.57,2.258752,-0.0030841997366068195,-0.02457410036363125,0.09655535038822652,48.12595698684454,-100.26678939585686,72.1922225099802
2024-09-23 07:20:13.112835,42.57,2.258752,-0.0030841997366068195,-0.02457410036363125,0.09645586349183995,32.08287849390507,-96.25519929585457,80.21211738781929
2024-09-23 07:20:13.124481,42.57,2.258803,-0.0031339382481259063,-0.02457410036363125,0.09645586349183995,32.08287849390507,-96.25519929585457,80.21211738781929
2024-09-23 07:20:13.156338,42.57,2.258803,-0.0031339382481259063,-0.02397715620066169,0.09635636444363997,32.08287849390507,-96.25519929585457,80.21211738781929
2024-09-23 07:20:13.167698,42.57,2.258854,-0.0031339382481259063,-0.02397715620066169,0.09635636444363997,32.08287849390507,-88.23529758782387,80.21211738781929
2024-09-23 07:20:13.209739,42.57,2.258854,-0.0026862297461545674,-0.024225890150371555,0.09715228999426605,36.09446859390736,-96.25519929585457,80.21211738781929
2024-09-23 07:20:13.222045,42.57,2.258854,-0.0026862297461545674,-0.024225890150371555,0.09715228999426605,36.09446859390736,-96.25519929585457,80.21211738781929
2024-09-23 07:20:13.254859,42.57,2.258943,-0.0026862297461545674,-0.024225890150371555,0.09715228999426605,36.09446859390736,-96.25519929585457,80.21211738781929
2024-09-23 07:20:13.307535,42.4,2.258943,-0.003780631555451287,-0.02397715620066169,0.09655535038822652,36.09446859390736,-96.25519929585457,80.21211738781929
2024-09-23 07:20:13.350561,42.4,2.258943,-0.003780631555451287,-0.02397715620066169,0.09655535038822652,28.07457030097246,-96.25519929585457,80.21211738781929
2024-09-23 07:20:13.362268,42.4,2.258994,-0.003382661564999035,-0.023927417309398437,0.09655535038822652,28.07457030097246,-96.25519929585457,80.21211738781929
2024-09-23 07:20:13.405310,42.4,2.259045,-0.003382661564999035,-0.023927417309398437,0.09725178296655933,28.07457030097246,-100.26678939585686,80.21211738781929
2024-09-23 07:20:13.417435,42.4,2.259045,-0.003780631555451287,-0.023927417309398437,0.09725178296655933,28.07457030097246,-100.26678939585686,80.21211738781929
2024-09-23 07:20:13.448993,42.4,2.259045,-0.003780631555451287,-0.024474613467244683,0.09695331012558621,28.07457030097246,-100.26678939585686,80.21211738781929
2024-09-23 07:20:13.460157,42.4,2.259096,-0.003780631555451287,-0.024474613467244683,0.09695331012558621,28.07457030097246,-92.24360919585227,80.21211738781929
2024-09-23 07:20:13.503831,42.4,2.259096,-0.0029349636958644295,-0.02397715620066169,0.09725178296655933,40.106058693909645,-96.25519929585457,76.200527287817
2024-09-23 07:20:13.546386,42.4,2.259146,-0.0031836870127375577,-0.02397715620066169,0.09725178296655933,40.106058693909645,-96.25519929585457,76.200527287817
2024-09-23 07:20:13.557481,42.4,2.259146,-0.0031836870127375577,-0.024225890150371555,0.09655535038822652,32.08287849390507,-104.27510100388527,76.200527287817
2024-09-23 07:20:13.600164,42.4,2.259285,-0.0033329230534799477,-0.024375126570858115,0.09650560086412653,32.08287849390507,-104.27510100388527,72.1922225099802
2024-09-23 07:20:13.612887,42.4,2.259285,-0.0033329230534799477,-0.024375126570858115,0.09650560086412653,36.09446859390736,-104.27510100388527,72.1922225099802
2024-09-23 07:20:13.646338,42.4,2.259336,-0.0033329230534799477,-0.024375126570858115,0.09650560086412653,36.09446859390736,-104.27510100388527,80.21211738781929
2024-09-23 07:20:13.657377,42.4,2.259336,-0.0037308827908396356,-0.024275627522658133,0.09635636444363997,36.09446859390736,-104.27510100388527,80.21211738781929
2024-09-23 07:20:13.700261,42.4,2.259387,-0.003382661564999035,-0.02397715620066169,0.09635636444363997,28.07457030097246,-100.26678939585686,88.23529758782387
2024-09-23 07:20:13.742833,42.4,2.259387,-0.003382661564999035,-0.02397715620066169,0.0973015264147526,36.09446859390736,-104.27510100388527,88.23529758782387
2024-09-23 07:20:13.754448,42.4,2.259437,-0.0032831742888682963,-0.02397715620066169,0.0973015264147526,36.09446859390736,-104.27510100388527,80.21211738781929
2024-09-23 07:20:13.797588,42.4,2.259527,-0.0032831742888682963,-0.024076653729884996,0.09725178296655933,40.106058693909645,-100.26678939585686,80.21211738781929
2024-09-23 07:20:13.841983,42.4,2.259527,-0.0030344509719951677,-0.024076653729884996,0.09675432418099966,40.106058693909645,-100.26678939585686,80.21211738781929
2024-09-23 07:20:13.853078,42.4,2.259527,-0.0030344509719951677,-0.024076653729884996,0.09675432418099966,36.09446859390736,-100.26678939585686,80.21211738781929
2024-09-23 07:20:13.886914,42.4,2.259579,-0.0030344509719951677,-0.024076653729884996,0.09675432418099966,36.09446859390736,-100.26678939585686,80.21211738781929
2024-09-23 07:20:13.898812,42.4,2.259579,-0.0034324103296106863,-0.024026904205785005,0.09720203344245934,32.08287849390507,-92.24360919585227,80.21211738781929
2024-09-23 07:20:13.993261,42.4,2.25963,-0.002785727465249955,-0.024026904205785005,0.09720203344245934,32.08287849390507,-92.24360919585227,84.22370748782159
2024-09-23 07:20:14.035681,42.4,2.25963,-0.002785727465249955,-0.024225890150371555,0.09710254654607277,36.09446859390736,-92.24360919585227,84.22370748782159
2024-09-23 07:20:14.047129,42.4,2.25968,-0.002785727465249955,-0.024225890150371555,0.09710254654607277,36.09446859390736,-100.26678939585686,80.21211738781929
2024-09-23 07:20:14.089616,42.4,2.25968,-0.0034324103296106863,-0.023778180888911878,0.09680407370509965,36.09446859390736,-104.27510100388527,80.21211738781929
2024-09-23 07:20:14.132702,42.4,2.259731,-0.0032831742888682963,-0.023778180888911878,0.09680407370509965,36.09446859390736,-104.27510100388527,80.21211738781929
2024-09-23 07:20:14.144516,42.4,2.259731,-0.0032831742888682963,-0.024026904205785005,0.09635636444363997,44.11764879391193,-92.24360919585227,80.21211738781929
2024-09-23 07:20:14.187524,42.4,2.259782,-0.0038303700669703737,-0.024176140626271565,0.09675432418099966,36.09446859390736,-92.24360919585227,84.22370748782159
2024-09-23 07:20:14.230470,42.4,2.259869,-0.0038303700669703737,-0.024176140626271565,0.09675432418099966,36.09446859390736,-100.26678939585686,76.200527287817
2024-09-23 07:20:14.242053,42.4,2.259869,-0.0028852147413806935,-0.024026904205785005,0.09710254654607277,36.09446859390736,-100.26678939585686,76.200527287817
2024-09-23 07:20:14.284733,42.4,2.259968,-0.003482159473966507,-0.023728432883788564,0.09710254654607277,36.09446859390736,-100.26678939585686,76.200527287817
2024-09-23 07:20:14.326697,41.89,2.259968,-0.003482159473966507,-0.023728432883788564,0.0973512698629459,40.106058693909645,-100.26678939585686,76.200527287817
2024-09-23 07:20:14.338593,41.89,2.260019,-0.003482159473966507,-0.023728432883788564,0.0973512698629459,40.106058693909645,-96.25519929585457,76.200527287817
2024-09-23 07:20:14.380469,41.89,2.260019,-0.003482159473966507,-0.024076653729884996,0.09680407370509965,44.11764879391193,-96.25519929585457,80.21211738781929
2024-09-23 07:20:14.392708,41.89,2.260112,-0.003482159473966507,-0.024076653729884996,0.09680407370509965,44.11764879391193,-96.25519929585457,80.21211738781929
2024-09-23 07:20:14.425452,41.89,2.260112,-0.0033329230534799477,-0.023778180888911878,0.09615739065086683,44.11764879391193,-96.25519929585457,80.21211738781929
2024-09-23 07:20:14.437108,41.89,2.260112,-0.0033329230534799477,-0.023778180888911878,0.09615739065086683,40.106058693909645,-96.25519929585457,84.22370748782159
2024-09-23 07:20:14.479726,41.89,2.260164,-0.0030344509719951677,-0.02367869399252531,0.0966050877605131,40.106058693909645,-96.25519929585457,84.22370748782159
2024-09-23 07:20:14.522947,41.89,2.260215,-0.0031339382481259063,-0.02367869399252531,0.0966050877605131,40.106058693909645,-96.25519929585457,76.200527287817
2024-09-23 07:20:14.534748,41.89,2.260215,-0.0031339382481259063,-0.02412639262114825,0.09685382322919964,44.11764879391193,-96.25519929585457,76.200527287817
2024-09-23 07:20:14.578077,41.89,2.260265,-0.0029847020175114316,-0.024623849887731242,0.09695331012558621,44.11764879391193,-92.24360919585227,80.21211738781929
2024-09-23 07:20:14.620771,41.89,2.260265,-0.0029847020175114316,-0.024623849887731242,0.09695331012558621,44.11764879391193,-92.24360919585227,84.22370748782159
2024-09-23 07:20:14.632154,41.89,2.260316,-0.003631395514708897,-0.024076653729884996,0.09695331012558621,44.11764879391193,-92.24360919585227,84.22370748782159
2024-09-23 07:20:14.675741,41.89,2.260367,-0.0033329230534799477,-0.024076653729884996,0.09610764112676684,40.106058693909645,-92.24360919585227,80.21211738781929
2024-09-23 07:20:14.718153,41.89,2.260367,-0.0033329230534799477,-0.02412639262114825,0.09670458680871308,32.08287849390507,-92.24360919585227,80.21211738781929
2024-09-23 07:20:14.729635,41.89,2.260454,-0.0033329230534799477,-0.02412639262114825,0.09670458680871308,32.08287849390507,-100.26678939585686,80.21211738781929
2024-09-23 07:20:14.772353,41.89,2.260454,-0.0032831742888682963,-0.024275627522658133,0.09675432418099966,36.09446859390736,-100.26678939585686,76.200527287817
2024-09-23 07:20:14.815009,41.89,2.260505,-0.0029847020175114316,-0.024524361472367997,0.09675432418099966,36.09446859390736,-100.26678939585686,76.200527287817
2024-09-23 07:20:14.827087,41.89,2.260505,-0.0029847020175114316,-0.024524361472367997,0.09745075675933246,32.08287849390507,-100.26678939585686,76.200527287817
2024-09-23 07:20:14.869766,41.89,2.260556,-0.003233425524256645,-0.02412639262114825,0.09695331012558621,36.09446859390736,-100.26678939585686,76.200527287817
2024-09-23 07:20:14.912642,41.89,2.260607,-0.003233425524256645,-0.02412639262114825,0.09695331012558621,36.09446859390736,-92.24360919585227,76.200527287817
2024-09-23 07:20:14.928744,41.89,2.260607,-0.0035318979854855937,-0.02472333678411781,0.09750050628343246,36.09446859390736,-92.24360919585227,76.200527287817
2024-09-23 07:20:14.962657,41.89,2.260607,-0.0035318979854855937,-0.02472333678411781,0.09750050628343246,32.08287849390507,-92.24360919585227,80.21211738781929
2024-09-23 07:20:14.974417,41.89,2.260657,-0.0035318979854855937,-0.02472333678411781,0.09750050628343246,32.08287849390507,-92.24360919585227,80.21211738781929
2024-09-23 07:20:15.017552,41.89,2.260657,-0.0035318979854855937,-0.02362894446842532,0.0973015264147526,32.08287849390507,-92.24360919585227,80.21211738781929
2024-09-23 07:20:15.061784,41.89,2.260708,-0.0035318979854855937,-0.02362894446842532,0.0973015264147526,36.09446859390736,-96.25519929585457,80.21211738781929
2024-09-23 07:20:15.072839,41.89,2.260708,-0.0033329230534799477,-0.024424863943144692,0.0973015264147526,36.09446859390736,-96.25519929585457,80.21211738781929
2024-09-23 07:20:15.106220,41.89,2.260708,-0.0033329230534799477,-0.024424863943144692,0.0973015264147526,44.11764879391193,-96.25519929585457,80.21211738781929
2024-09-23 07:20:15.117425,41.89,2.260795,-0.0031836870127375577,-0.024424863943144692,0.0973015264147526,44.11764879391193,-96.25519929585457,80.21211738781929
2024-09-23 07:20:15.159412,41.89,2.260795,-0.0031836870127375577,-0.023927417309398437,0.09680407370509965,44.11764879391193,-96.25519929585457,76.200527287817
2024-09-23 07:20:15.171424,41.89,2.260847,-0.0031836870127375577,-0.023927417309398437,0.09680407370509965,44.11764879391193,-96.25519929585457,76.200527287817
2024-09-23 07:20:15.203399,41.89,2.260847,-0.0035816467500972456,-0.023927417309398437,0.09680407370509965,44.11764879391193,-96.25519929585457,76.200527287817
2024-09-23 07:20:15.214788,41.89,2.260847,-0.0035816467500972456,-0.023927417309398437,0.09670458680871308,32.08287849390507,-92.24360919585227,80.21211738781929
2024-09-23 07:20:15.256905,41.89,2.260897,-0.0030841997366068195,-0.024773084789241125,0.09725178296655933,36.09446859390736,-92.24360919585227,80.21211738781929
2024-09-23 07:20:15.268874,41.89,2.260897,-0.0030841997366068195,-0.024773084789241125,0.09725178296655933,36.09446859390736,-100.26678939585686,80.21211738781929
2024-09-23 07:20:15.301940,41.89,2.260991,-0.0030841997366068195,-0.024773084789241125,0.09725178296655933,36.09446859390736,-100.26678939585686,84.22370748782159
2024-09-23 07:20:15.313584,41.89,2.260991,-0.0029847020175114316,-0.024474613467244683,0.09690356060148622,36.09446859390736,-100.26678939585686,84.22370748782159
2024-09-23 07:20:15.355584,42.06,2.261042,-0.003382661564999035,-0.024474613467244683,0.09690356060148622,36.09446859390736,-100.26678939585686,76.200527287817
2024-09-23 07:20:15.366616,42.06,2.261042,-0.003382661564999035,-0.02457410036363125,0.09650560086412653,36.09446859390736,-100.26678939585686,76.200527287817
2024-09-23 07:20:15.399074,42.06,2.261042,-0.003382661564999035,-0.02457410036363125,0.09650560086412653,40.106058693909645,-100.26678939585686,76.200527287817
2024-09-23 07:20:15.410789,42.06,2.261093,-0.0030344509719951677,-0.024026904205785005,0.09650560086412653,40.106058693909645,-80.21211738781929,88.23529758782387
2024-09-23 07:20:15.454817,42.06,2.261144,-0.0030344509719951677,-0.024026904205785005,0.09720203344245934,40.106058693909645,-96.25519929585457,80.21211738781929
2024-09-23 07:20:15.466018,42.06,2.261144,-0.0033329230534799477,-0.024026904205785005,0.09720203344245934,40.106058693909645,-96.25519929585457,80.21211738781929
2024-09-23 07:20:15.498374,42.06,2.261144,-0.0033329230534799477,-0.024225890150371555,0.09710254654607277,44.11764879391193,-96.25519929585457,80.21211738781929
2024-09-23 07:20:15.509688,42.06,2.261234,-0.0033329230534799477,-0.024225890150371555,0.09710254654607277,44.11764879391193,-92.24360919585227,76.200527287817
2024-09-23 07:20:15.552712,42.06,2.261234,-0.0028852147413806935,-0.024325377046758124,0.09665483728461309,36.09446859390736,-100.26678939585686,84.22370748782159
2024-09-23 07:20:15.595718,42.06,2.261285,-0.0029349636958644295,-0.024325377046758124,0.09665483728461309,36.09446859390736,-100.26678939585686,84.22370748782159
2024-09-23 07:20:15.607200,42.06,2.261285,-0.0029349636958644295,-0.024325377046758124,0.09720203344245934,36.09446859390736,-96.25519929585457,84.22370748782159
2024-09-23 07:20:15.650032,42.06,2.261336,-0.0031339382481259063,-0.024375126570858115,0.09710254654607277,36.09446859390736,-96.25519929585457,84.22370748782159
2024-09-23 07:20:15.692393,42.06,2.261387,-0.0031339382481259063,-0.024375126570858115,0.09710254654607277,36.09446859390736,-100.26678939585686,76.200527287817
2024-09-23 07:20:15.703653,42.06,2.261387,-0.0037308827908396356,-0.024375126570858115,0.09710254654607277,36.09446859390736,-100.26678939585686,76.200527287817
2024-09-23 07:20:15.746354,42.06,2.261437,-0.003382661564999035,-0.024225890150371555,0.09710254654607277,32.08287849390507,-96.25519929585457,80.21211738781929
2024-09-23 07:20:15.788848,42.06,2.261437,-0.003382661564999035,-0.024225890150371555,0.09695331012558621,32.08287849390507,-96.25519929585457,80.21211738781929
2024-09-23 07:20:15.800243,42.06,2.261488,-0.0029847020175114316,-0.024225890150371555,0.09695331012558621,32.08287849390507,-96.25519929585457,76.200527287817
2024-09-23 07:20:15.843332,42.06,2.261488,-0.0029847020175114316,-0.024325377046758124,0.09665483728461309,40.106058693909645,-96.25519929585457,76.200527287817
2024-09-23 07:20:15.855068,42.06,2.261575,-0.0029847020175114316,-0.024325377046758124,0.09665483728461309,40.106058693909645,-96.25519929585457,76.200527287817
2024-09-23 07:20:15.887276,42.06,2.261575,-0.0034324103296106863,-0.02397715620066169,0.0973015264147526,40.106058693909645,-96.25519929585457,76.200527287817
2024-09-23 07:20:15.898630,42.06,2.261575,-0.0034324103296106863,-0.02397715620066169,0.0973015264147526,44.11764879391193,-100.26678939585686,76.200527287817
2024-09-23 07:20:15.941224,42.06,2.261627,-0.0031836870127375577,-0.024325377046758124,0.09690356060148622,40.106058693909645,-96.25519929585457,76.200527287817
2024-09-23 07:20:15.984085,42.06,2.261677,-0.0031836870127375577,-0.024325377046758124,0.09690356060148622,40.106058693909645,-96.25519929585457,76.200527287817
2024-09-23 07:20:15.995391,42.06,2.261677,-0.003631395514708897,-0.024076653729884996,0.09705279702197278,36.09446859390736,-96.25519929585457,76.200527287817
2024-09-23 07:20:16.037086,42.06,2.261677,-0.003631395514708897,-0.024076653729884996,0.09705279702197278,36.09446859390736,-100.26678939585686,76.200527287817
2024-09-23 07:20:16.081304,42.06,2.261728,-0.002785727465249955,-0.024076653729884996,0.09705279702197278,36.09446859390736,-100.26678939585686,76.200527287817
2024-09-23 07:20:16.092547,42.06,2.261728,-0.002785727465249955,-0.024176140626271565,0.09715228999426605,28.07457030097246,-96.25519929585457,76.200527287817
2024-09-23 07:20:16.135423,42.06,2.261779,-0.0026862297461545674,-0.024275627522658133,0.0973015264147526,28.07457030097246,-96.25519929585457,76.200527287817
2024-09-23 07:20:16.148327,42.06,2.261779,-0.0026862297461545674,-0.024275627522658133,0.0973015264147526,32.08287849390507,-96.25519929585457,76.200527287817
2024-09-23 07:20:16.181740,42.06,2.261829,-0.0026862297461545674,-0.024275627522658133,0.0973015264147526,32.08287849390507,-100.26678939585686,76.200527287817
2024-09-23 07:20:16.193248,42.06,2.261829,-0.003233425524256645,-0.024424863943144692,0.09720203344245934,32.08287849390507,-100.26678939585686,76.200527287817
2024-09-23 07:20:16.224954,42.06,2.261829,-0.003233425524256645,-0.024424863943144692,0.09720203344245934,44.11764879391193,-100.26678939585686,76.200527287817
2024-09-23 07:20:16.236400,42.06,2.261916,-0.0033329230534799477,-0.02412639262114825,0.09720203344245934,44.11764879391193,-100.26678939585686,76.200527287817
2024-09-23 07:20:16.278220,42.06,2.261916,-0.0033329230534799477,-0.02412639262114825,0.09665483728461309,36.09446859390736,-96.25519929585457,76.200527287817
2024-09-23 07:20:16.290094,42.06,2.261967,-0.0031836870127375577,-0.02412639262114825,0.09665483728461309,36.09446859390736,-96.25519929585457,76.200527287817
2024-09-23 07:20:16.322735,42.06,2.261967,-0.0031836870127375577,-0.024325377046758124,0.09665483728461309,36.09446859390736,-96.25519929585457,76.200527287817
2024-09-23 07:20:16.333981,42.06,2.262063,-0.0031836870127375577,-0.024325377046758124,0.09640611396773996,40.106058693909645,-88.23529758782387,80.21211738781929
2024-09-23 07:20:16.376906,42.07,2.262063,-0.0031339382481259063,-0.023827930413011865,0.09740101331113918,40.106058693909645,-88.23529758782387,80.21211738781929
2024-09-23 07:20:16.388114,42.07,2.262063,-0.0031339382481259063,-0.023827930413011865,0.09740101331113918,48.12595698684454,-92.24360919585227,80.21211738781929
2024-09-23 07:20:16.420330,42.07,2.262114,-0.0031339382481259063,-0.023827930413011865,0.09740101331113918,48.12595698684454,-92.24360919585227,80.21211738781929
2024-09-23 07:20:16.431865,42.07,2.262114,-0.0036811340262279837,-0.024225890150371555,0.09695331012558621,40.106058693909645,-92.24360919585227,80.21211738781929
2024-09-23 07:20:16.474628,42.07,2.262165,-0.002586742470023829,-0.024026904205785005,0.09695331012558621,40.106058693909645,-92.24360919585227,84.22370748782159
2024-09-23 07:20:16.485683,42.07,2.262165,-0.002586742470023829,-0.024026904205785005,0.0973512698629459,40.106058693909645,-92.24360919585227,84.22370748782159
2024-09-23 07:20:16.528865,42.07,2.262215,-0.0027359787006383035,-0.023877669304275123,0.09645586349183995,40.106058693909645,-96.25519929585457,76.200527287817
2024-09-23 07:20:16.572488,42.07,2.262266,-0.0027359787006383035,-0.023877669304275123,0.09645586349183995,40.106058693909645,-96.25519929585457,80.21211738781929
2024-09-23 07:20:16.583725,42.07,2.262266,-0.0030841997366068195,-0.024176140626271565,0.09645586349183995,40.106058693909645,-96.25519929585457,80.21211738781929
2024-09-23 07:20:16.616416,42.07,2.262266,-0.0030841997366068195,-0.024176140626271565,0.09645586349183995,40.106058693909645,-96.25519929585457,80.21211738781929
2024-09-23 07:20:16.627839,42.07,2.262317,-0.0033329230534799477,-0.024176140626271565,0.09645586349183995,40.106058693909645,-100.26678939585686,80.21211738781929
2024-09-23 07:20:16.671044,42.07,2.262317,-0.0033329230534799477,-0.024474613467244683,0.0970030596496862,40.106058693909645,-100.26678939585686,84.22370748782159
2024-09-23 07:20:16.683032,42.07,2.262404,-0.0033329230534799477,-0.024474613467244683,0.0970030596496862,40.106058693909645,-100.26678939585686,84.22370748782159
2024-09-23 07:20:16.715283,42.07,2.262404,-0.0038303700669703737,-0.024773084789241125,0.0970030596496862,40.106058693909645,-100.26678939585686,84.22370748782159
2024-09-23 07:20:16.726835,42.07,2.262404,-0.0038303700669703737,-0.024773084789241125,0.0970030596496862,40.106058693909645,-96.25519929585457,76.200527287817
2024-09-23 07:20:16.769098,42.07,2.262455,-0.003233425524256645,-0.023877669304275123,0.0973512698629459,32.08287849390507,-96.25519929585457,76.200527287817
2024-09-23 07:20:16.781070,42.07,2.262455,-0.003233425524256645,-0.023877669304275123,0.0973512698629459,32.08287849390507,-92.24360919585227,76.200527287817
2024-09-23 07:20:16.814134,42.07,2.262506,-0.0029349636958644295,-0.023877669304275123,0.0973512698629459,32.08287849390507,-92.24360919585227,80.21211738781929
2024-09-23 07:20:16.825142,42.07,2.262506,-0.0029349636958644295,-0.024076653729884996,0.09680407370509965,40.106058693909645,-92.24360919585227,80.21211738781929
2024-09-23 07:20:16.867444,42.07,2.262557,-0.0029847020175114316,-0.024225890150371555,0.09740101331113918,40.106058693909645,-100.26678939585686,76.200527287817
2024-09-23 07:20:16.909800,42.07,2.262557,-0.0029847020175114316,-0.024225890150371555,0.09740101331113918,40.106058693909645,-96.25519929585457,76.200527287817
2024-09-23 07:20:16.922069,42.07,2.262607,-0.0037308827908396356,-0.023429960042815445,0.09740101331113918,40.106058693909645,-96.25519929585457,76.200527287817
2024-09-23 07:20:17.005617,42.07,2.262607,-0.0037308827908396356,-0.023429960042815445,0.09670458680871308,40.106058693909645,-96.25519929585457,76.200527287817
2024-09-23 07:20:17.017155,42.07,2.262658,-0.0033329230534799477,-0.023429960042815445,0.09670458680871308,44.11764879391193,-96.25519929585457,80.21211738781929
2024-09-23 07:20:17.060178,42.07,2.262658,-0.0033329230534799477,-0.024325377046758124,0.09670458680871308,44.11764879391193,-96.25519929585457,80.21211738781929
2024-09-23 07:20:17.113187,42.07,2.262745,-0.0036811340262279837,-0.024325377046758124,0.09740101331113918,40.106058693909645,-96.25519929585457,76.200527287817
2024-09-23 07:20:17.155547,42.07,2.262745,-0.0036811340262279837,-0.02367869399252531,0.09670458680871308,36.09446859390736,-96.25519929585457,76.200527287817
2024-09-23 07:20:17.167202,42.07,2.262797,-0.0036811340262279837,-0.02367869399252531,0.09670458680871308,36.09446859390736,-88.23529758782387,72.1922225099802
2024-09-23 07:20:17.210392,42.07,2.262797,-0.002387757474797703,-0.02412639262114825,0.09655535038822652,40.106058693909645,-92.24360919585227,84.22370748782159
2024-09-23 07:20:17.253458,42.07,2.262847,-0.0028852147413806935,-0.02397715620066169,0.09655535038822652,40.106058693909645,-92.24360919585227,84.22370748782159
2024-09-23 07:20:17.264599,42.07,2.262847,-0.0028852147413806935,-0.02397715620066169,0.09690356060148622,36.09446859390736,-96.25519929585457,84.22370748782159
2024-09-23 07:20:17.307444,42.07,2.262942,-0.003482159473966507,-0.024623849887731242,0.09695331012558621,40.106058693909645,-96.25519929585457,80.21211738781929
2024-09-23 07:20:17.351087,42.07,2.263039,-0.003482159473966507,-0.024623849887731242,0.09695331012558621,40.106058693909645,-100.26678939585686,84.22370748782159
2024-09-23 07:20:17.363086,42.07,2.263039,-0.0031836870127375577,-0.023728432883788564,0.09670458680871308,40.106058693909645,-100.26678939585686,84.22370748782159
2024-09-23 07:20:17.395260,41.55,2.263039,-0.0031836870127375577,-0.023728432883788564,0.09670458680871308,44.11764879391193,-100.26678939585686,84.22370748782159
2024-09-23 07:20:17.448213,41.55,2.26309,-0.0031836870127375577,-0.023728432883788564,0.09670458680871308,44.11764879391193,-100.26678939585686,72.1922225099802
2024-09-23 07:20:17.459724,41.55,2.26309,-0.003233425524256645,-0.024076653729884996,0.09630662707135339,44.11764879391193,-100.26678939585686,72.1922225099802
2024-09-23 07:20:17.502101,41.55,2.263141,-0.0028852147413806935,-0.024424863943144692,0.09630662707135339,36.09446859390736,-96.25519929585457,80.21211738781929
2024-09-23 07:20:17.545778,41.55,2.263141,-0.0028852147413806935,-0.024424863943144692,0.09750050628343246,44.11764879391193,-88.23529758782387,80.21211738781929
2024-09-23 07:20:17.556961,41.55,2.263233,-0.0030841997366068195,-0.024424863943144692,0.09750050628343246,44.11764879391193,-88.23529758782387,84.22370748782159
2024-09-23 07:20:17.599440,41.55,2.263284,-0.0030841997366068195,-0.024524361472367997,0.09645586349183995,44.11764879391193,-104.27510100388527,80.21211738781929
2024-09-23 07:20:17.642397,41.55,2.263284,-0.0032831742888682963,-0.02397715620066169,0.09695331012558621,44.11764879391193,-104.27510100388527,80.21211738781929
2024-09-23 07:20:17.654630,41.55,2.263284,-0.0032831742888682963,-0.02397715620066169,0.09695331012558621,32.08287849390507,-104.27510100388527,80.21211738781929
2024-09-23 07:20:17.697181,41.55,2.263379,-0.0030344509719951677,-0.023827930413011865,0.09645586349183995,32.08287849390507,-104.27510100388527,80.21211738781929
2024-09-23 07:20:17.739935,41.55,2.263431,-0.0028852147413806935,-0.023827930413011865,0.09645586349183995,32.08287849390507,-104.27510100388527,76.200527287817
2024-09-23 07:20:17.750911,41.55,2.263431,-0.0028852147413806935,-0.023927417309398437,0.0962568775472534,44.11764879391193,-104.27510100388527,76.200527287817
2024-09-23 07:20:17.793558,41.55,2.263481,-0.0031836870127375577,-0.024275627522658133,0.09710254654607277,44.11764879391193,-96.25519929585457,88.23529758782387
2024-09-23 07:20:17.835742,41.55,2.263481,-0.0031836870127375577,-0.024275627522658133,0.09710254654607277,48.12595698684454,-100.26678939585686,88.23529758782387
2024-09-23 07:20:17.847563,41.55,2.263532,-0.0031836870127375577,-0.024076653729884996,0.09710254654607277,48.12595698684454,-100.26678939585686,84.22370748782159
2024-09-23 07:20:17.889294,41.55,2.263583,-0.0031836870127375577,-0.024076653729884996,0.0970030596496862,44.11764879391193,-100.26678939585686,80.21211738781929
2024-09-23 07:20:17.901252,41.55,2.263583,-0.0025369937054121774,-0.024076653729884996,0.0970030596496862,44.11764879391193,-100.26678939585686,80.21211738781929
2024-09-23 07:20:17.934029,41.55,2.263583,-0.0025369937054121774,-0.02472333678411781,0.09680407370509965,44.11764879391193,-100.26678939585686,80.21211738781929
2024-09-23 07:20:17.945023,41.55,2.263671,-0.0025369937054121774,-0.02472333678411781,0.09680407370509965,40.106058693909645,-92.24360919585227,76.200527287817
2024-09-23 07:20:17.987888,41.55,2.263671,-0.0024872551938930902,-0.024474613467244683,0.09710254654607277,36.09446859390736,-100.26678939585686,76.200527287817
2024-09-23 07:20:17.999887,41.55,2.263671,-0.0024872551938930902,-0.024474613467244683,0.09710254654607277,36.09446859390736,-100.26678939585686,80.21211738781929
2024-09-23 07:20:18.033126,41.55,2.263724,-0.003482159473966507,-0.024176140626271565,0.09710254654607277,36.09446859390736,-100.26678939585686,80.21211738781929
2024-09-23 07:20:18.044716,41.55,2.263724,-0.003482159473966507,-0.024176140626271565,0.09675432418099966,40.106058693909645,-96.25519929585457,80.21211738781929
2024-09-23 07:20:18.128605,41.55,2.263774,-0.003482159473966507,-0.024176140626271565,0.09675432418099966,40.106058693909645,-96.25519929585457,76.200527287817
2024-09-23 07:20:18.140247,41.55,2.263774,-0.0035318979854855937,-0.02412639262114825,0.09675432418099966,40.106058693909645,-96.25519929585457,76.200527287817
2024-09-23 07:20:18.184360,41.55,2.263825,-0.0031836870127375577,-0.02412639262114825,0.09695331012558621,40.106058693909645,-96.25519929585457,80.21211738781929
2024-09-23 07:20:18.226974,41.55,2.263825,-0.0031836870127375577,-0.023579196463302005,0.0973015264147526,32.08287849390507,-96.25519929585457,80.21211738781929
2024-09-23 07:20:18.238391,41.55,2.263876,-0.0031836870127375577,-0.023579196463302005,0.0973015264147526,32.08287849390507,-96.25519929585457,76.200527287817
2024-09-23 07:20:18.281639,41.55,2.263876,-0.0036811340262279837,-0.024325377046758124,0.09675432418099966,40.106058693909645,-100.26678939585686,76.200527287817
2024-09-23 07:20:18.324447,41.55,2.263926,-0.0028852147413806935,-0.024026904205785005,0.09675432418099966,40.106058693909645,-100.26678939585686,76.200527287817
2024-09-23 07:20:18.335743,41.55,2.263926,-0.0028852147413806935,-0.024026904205785005,0.09665483728461309,36.09446859390736,-100.26678939585686,76.200527287817
2024-09-23 07:20:18.378551,41.55,2.264013,-0.003631395514708897,-0.02412639262114825,0.09670458680871308,40.106058693909645,-100.26678939585686,84.22370748782159
2024-09-23 07:20:18.421780,41.22,2.264013,-0.003631395514708897,-0.02412639262114825,0.09670458680871308,40.106058693909645,-100.26678939585686,76.200527287817
2024-09-23 07:20:18.433050,41.22,2.264112,-0.003233425524256645,-0.02397715620066169,0.09705279702197278,40.106058693909645,-100.26678939585686,76.200527287817
2024-09-23 07:20:18.475060,41.22,2.264162,-0.003233425524256645,-0.02397715620066169,0.09705279702197278,36.09446859390736,-88.23529758782387,76.200527287817
2024-09-23 07:20:18.486407,41.22,2.264162,-0.0028852147413806935,-0.024026904205785005,0.09705279702197278,36.09446859390736,-88.23529758782387,76.200527287817
2024-09-23 07:20:18.519373,41.22,2.264162,-0.0028852147413806935,-0.024026904205785005,0.09680407370509965,32.08287849390507,-88.23529758782387,76.200527287817
2024-09-23 07:20:18.530482,41.22,2.264213,-0.0036811340262279837,-0.024026904205785005,0.09680407370509965,32.08287849390507,-92.24360919585227,84.22370748782159
2024-09-23 07:20:18.572966,41.22,2.264305,-0.0036811340262279837,-0.023728432883788564,0.09695331012558621,32.08287849390507,-96.25519929585457,80.21211738781929
2024-09-23 07:20:18.615619,41.22,2.264305,-0.003233425524256645,-0.023728432883788564,0.09695331012558621,32.08287849390507,-96.25519929585457,80.21211738781929
2024-09-23 07:20:18.627464,41.22,2.264305,-0.003233425524256645,-0.024325377046758124,0.09720203344245934,32.08287849390507,-92.24360919585227,80.21211738781929
2024-09-23 07:20:18.670450,41.22,2.264357,-0.0031339382481259063,-0.024424863943144692,0.09720203344245934,44.11764879391193,-92.24360919585227,80.21211738781929
2024-09-23 07:20:18.682893,41.22,2.264357,-0.0031339382481259063,-0.024424863943144692,0.09720203344245934,44.11764879391193,-84.22370748782159,80.21211738781929
2024-09-23 07:20:18.715059,41.22,2.264357,-0.0031339382481259063,-0.024424863943144692,0.09720203344245934,44.11764879391193,-84.22370748782159,80.21211738781929
2024-09-23 07:20:18.767086,41.22,2.264407,-0.003780631555451287,-0.024424863943144692,0.09680407370509965,36.09446859390736,-84.22370748782159,80.21211738781929
2024-09-23 07:20:18.779110,41.22,2.264407,-0.003780631555451287,-0.024424863943144692,0.09680407370509965,36.09446859390736,-100.26678939585686,80.21211738781929
2024-09-23 07:20:18.810940,41.22,2.264458,-0.003780631555451287,-0.024424863943144692,0.09680407370509965,36.09446859390736,-100.26678939585686,76.200527287817
2024-09-23 07:20:18.822101,41.22,2.264458,-0.0029349636958644295,-0.024026904205785005,0.09675432418099966,32.08287849390507,-100.26678939585686,76.200527287817
2024-09-23 07:20:18.864069,41.22,2.264509,-0.003233425524256645,-0.024026904205785005,0.09675432418099966,32.08287849390507,-104.27510100388527,80.21211738781929
2024-09-23 07:20:18.875767,41.22,2.264509,-0.003233425524256645,-0.02397715620066169,0.09759999317981902,32.08287849390507,-104.27510100388527,80.21211738781929
2024-09-23 07:20:18.908907,41.22,2.264509,-0.003233425524256645,-0.02397715620066169,0.09759999317981902,36.09446859390736,-100.26678939585686,80.21211738781929
2024-09-23 07:20:18.920440,41.22,2.264559,-0.0035318979854855937,-0.024524361472367997,0.09759999317981902,36.09446859390736,-100.26678939585686,80.21211738781929
2024-09-23 07:20:18.962675,41.22,2.264559,-0.0035318979854855937,-0.024524361472367997,0.09640611396773996,32.08287849390507,-100.26678939585686,84.22370748782159
2024-09-23 07:20:18.974848,41.22,2.264646,-0.002785727465249955,-0.024524361472367997,0.09640611396773996,32.08287849390507,-100.26678939585686,84.22370748782159
2024-09-23 07:20:19.006420,41.22,2.264646,-0.002785727465249955,-0.024424863943144692,0.09655535038822652,32.08287849390507,-100.26678939585686,84.22370748782159
2024-09-23 07:20:19.018227,41.22,2.264744,-0.002785727465249955,-0.024424863943144692,0.09655535038822652,32.08287849390507,-96.25519929585457,76.200527287817
2024-09-23 07:20:19.060770,41.22,2.264744,-0.0034324103296106863,-0.023728432883788564,0.0973015264147526,36.09446859390736,-96.25519929585457,80.21211738781929
2024-09-23 07:20:19.154451,41.22,2.264795,-0.003929857343101113,-0.023927417309398437,0.0973015264147526,36.09446859390736,-96.25519929585457,80.21211738781929
2024-09-23 07:20:19.166336,41.22,2.264795,-0.003929857343101113,-0.023927417309398437,0.09680407370509965,36.09446859390736,-96.25519929585457,80.21211738781929
2024-09-23 07:20:19.199211,41.22,2.264795,-0.003929857343101113,-0.023927417309398437,0.09680407370509965,32.08287849390507,-96.25519929585457,80.21211738781929
2024-09-23 07:20:19.210872,41.22,2.264846,-0.0031836870127375577,-0.023827930413011865,0.09680407370509965,32.08287849390507,-100.26678939585686,76.200527287817
2024-09-23 07:20:19.253367,41.22,2.264846,-0.0031836870127375577,-0.023827930413011865,0.09755024973162574,32.08287849390507,-96.25519929585457,76.200527287817
2024-09-23 07:20:19.265040,41.22,2.264897,-0.0032831742888682963,-0.023827930413011865,0.09755024973162574,32.08287849390507,-96.25519929585457,76.200527287817
2024-09-23 07:20:19.297900,41.22,2.264897,-0.0032831742888682963,-0.024424863943144692,0.09755024973162574,32.08287849390507,-96.25519929585457,76.200527287817
2024-09-23 07:20:19.309483,41.22,2.264947,-0.0032831742888682963,-0.024424863943144692,0.0970030596496862,48.12595698684454,-92.24360919585227,80.21211738781929
2024-09-23 07:20:19.352321,41.22,2.264947,-0.0024872551938930902,-0.024225890150371555,0.0970030596496862,36.09446859390736,-92.24360919585227,80.21211738781929
2024-09-23 07:20:19.364283,41.22,2.264947,-0.0024872551938930902,-0.024225890150371555,0.0970030596496862,36.09446859390736,-88.23529758782387,80.21211738781929
2024-09-23 07:20:19.396486,41.22,2.264998,-0.002636491424507565,-0.024225890150371555,0.0970030596496862,36.09446859390736,-88.23529758782387,80.21211738781929
2024-09-23 07:20:19.408367,41.22,2.264998,-0.002636491424507565,-0.024225890150371555,0.0973015264147526,44.11764879391193,-88.23529758782387,80.21211738781929
2024-09-23 07:20:19.451283,41.42,2.265135,-0.0033329230534799477,-0.024375126570858115,0.09745075675933246,44.11764879391193,-88.23529758782387,72.1922225099802
2024-09-23 07:20:19.493268,41.42,2.265135,-0.0033329230534799477,-0.024375126570858115,0.09745075675933246,44.11764879391193,-96.25519929585457,76.200527287817
2024-09-23 07:20:19.504684,41.42,2.265186,-0.0030841997366068195,-0.024375126570858115,0.09745075675933246,44.11764879391193,-96.25519929585457,76.200527287817
2024-09-23 07:20:19.547953,41.42,2.265186,-0.0030841997366068195,-0.024076653729884996,0.09695331012558621,44.11764879391193,-96.25519929585457,76.200527287817
2024-09-23 07:20:19.560129,41.42,2.265237,-0.0030841997366068195,-0.024076653729884996,0.09695331012558621,44.11764879391193,-96.25519929585457,76.200527287817
2024-09-23 07:20:19.591829,41.42,2.265237,-0.003233425524256645,-0.024026904205785005,0.09695331012558621,44.11764879391193,-96.25519929585457,76.200527287817
2024-09-23 07:20:19.603306,41.42,2.265237,-0.003233425524256645,-0.024026904205785005,0.09705279702197278,40.106058693909645,-100.26678939585686,76.200527287817
2024-09-23 07:20:19.646390,41.42,2.265287,-0.0025369937054121774,-0.024176140626271565,0.09705279702197278,36.09446859390736,-92.24360919585227,76.200527287817
2024-09-23 07:20:19.689409,41.42,2.265287,-0.0025369937054121774,-0.024176140626271565,0.09705279702197278,36.09446859390736,-92.24360919585227,80.21211738781929
2024-09-23 07:20:19.742158,41.42,2.265378,-0.0025369937054121774,-0.024176140626271565,0.09705279702197278,36.09446859390736,-92.24360919585227,80.21211738781929
2024-09-23 07:20:19.784648,41.42,2.265378,-0.0035318979854855937,-0.024176140626271565,0.09705279702197278,36.09446859390736,-92.24360919585227,80.21211738781929
2024-09-23 07:20:19.796766,41.42,2.265378,-0.0035318979854855937,-0.023778180888911878,0.09710254654607277,40.106058693909645,-92.24360919585227,80.21211738781929
2024-09-23 07:20:19.838978,41.42,2.265429,-0.0032831742888682963,-0.024474613467244683,0.09665483728461309,40.106058693909645,-92.24360919585227,80.21211738781929
2024-09-23 07:20:19.850529,41.42,2.265429,-0.0032831742888682963,-0.024474613467244683,0.09665483728461309,40.106058693909645,-96.25519929585457,80.21211738781929
2024-09-23 07:20:19.882036,41.42,2.265429,-0.0032831742888682963,-0.024474613467244683,0.09665483728461309,40.106058693909645,-96.25519929585457,80.21211738781929
2024-09-23 07:20:19.893091,41.42,2.26548,-0.003233425524256645,-0.023877669304275123,0.09670458680871308,36.09446859390736,-96.25519929585457,80.21211738781929
2024-09-23 07:20:19.936099,41.42,2.26553,-0.0029349636958644295,-0.023877669304275123,0.09670458680871308,36.09446859390736,-96.25519929585457,76.200527287817
2024-09-23 07:20:19.947573,41.42,2.26553,-0.0029349636958644295,-0.024275627522658133,0.09695331012558621,36.09446859390736,-96.25519929585457,76.200527287817
2024-09-23 07:20:19.980198,41.42,2.26553,-0.0029349636958644295,-0.024275627522658133,0.09695331012558621,32.08287849390507,-96.25519929585457,76.200527287817
2024-09-23 07:20:19.991435,41.42,2.265621,-0.0033329230534799477,-0.024275627522658133,0.09695331012558621,32.08287849390507,-96.25519929585457,76.200527287817
2024-09-23 07:20:20.033771,41.42,2.265621,-0.0033329230534799477,-0.024275627522658133,0.09655535038822652,40.106058693909645,-96.25519929585457,76.200527287817
2024-09-23 07:20:20.045212,41.42,2.265722,-0.003233425524256645,-0.024275627522658133,0.09655535038822652,40.106058693909645,-96.25519929585457,76.200527287817
2024-09-23 07:20:20.078311,41.42,2.265722,-0.003233425524256645,-0.024623849887731242,0.0962568775472534,40.106058693909645,-96.25519929585457,76.200527287817
2024-09-23 07:20:20.089928,41.42,2.265816,-0.003233425524256645,-0.024623849887731242,0.0962568775472534,36.09446859390736,-104.27510100388527,76.200527287817
2024-09-23 07:20:20.183778,41.42,2.265816,-0.003382661564999035,-0.024076653729884996,0.09725178296655933,48.12595698684454,-100.26678939585686,76.200527287817
2024-09-23 07:20:20.226777,41.42,2.265868,-0.003233425524256645,-0.024026904205785005,0.09725178296655933,48.12595698684454,-100.26678939585686,76.200527287817
2024-09-23 07:20:20.238333,41.42,2.265868,-0.003233425524256645,-0.024026904205785005,0.09710254654607277,36.09446859390736,-96.25519929585457,76.200527287817
2024-09-23 07:20:20.280812,41.42,2.265918,-0.003233425524256645,-0.024424863943144692,0.09670458680871308,48.12595698684454,-96.25519929585457,80.21211738781929
2024-09-23 07:20:20.324421,41.42,2.265969,-0.003233425524256645,-0.024424863943144692,0.09670458680871308,48.12595698684454,-92.24360919585227,76.200527287817
2024-09-23 07:20:20.336132,41.42,2.265969,-0.002636491424507565,-0.024275627522658133,0.09710254654607277,48.12595698684454,-92.24360919585227,76.200527287817
2024-09-23 07:20:20.368892,41.42,2.265969,-0.002636491424507565,-0.024275627522658133,0.09710254654607277,32.08287849390507,-92.24360919585227,76.200527287817
2024-09-23 07:20:20.380559,41.42,2.26602,-0.0035318979854855937,-0.02412639262114825,0.09710254654607277,32.08287849390507,-100.26678939585686,76.200527287817
2024-09-23 07:20:20.422535,41.42,2.26602,-0.0035318979854855937,-0.02412639262114825,0.09715228999426605,32.08287849390507,-100.26678939585686,72.1922225099802
2024-09-23 07:20:20.433775,41.42,2.266112,-0.003482159473966507,-0.02412639262114825,0.09715228999426605,32.08287849390507,-100.26678939585686,72.1922225099802
2024-09-23 07:20:20.476852,41.57,2.266206,-0.003482159473966507,-0.024424863943144692,0.09675432418099966,32.08287849390507,-92.24360919585227,72.1922225099802
2024-09-23 07:20:20.519830,41.57,2.266206,-0.002785727465249955,-0.023827930413011865,0.09670458680871308,32.08287849390507,-92.24360919585227,72.1922225099802
2024-09-23 07:20:20.530979,41.57,2.266206,-0.002785727465249955,-0.023827930413011865,0.09670458680871308,40.106058693909645,-96.25519929585457,80.21211738781929
2024-09-23 07:20:20.573349,41.57,2.266258,-0.0029349636958644295,-0.02367869399252531,0.0973512698629459,40.106058693909645,-100.26678939585686,80.21211738781929
2024-09-23 07:20:20.617336,41.57,2.266309,-0.0026862297461545674,-0.02367869399252531,0.0973512698629459,40.106058693909645,-100.26678939585686,80.21211738781929
2024-09-23 07:20:20.629363,41.57,2.266309,-0.0026862297461545674,-0.02397715620066169,0.09670458680871308,40.106058693909645,-100.26678939585686,80.21211738781929
2024-09-23 07:20:20.661450,41.57,2.266309,-0.0026862297461545674,-0.02397715620066169,0.09670458680871308,40.106058693909645,-92.24360919585227,80.21211738781929
2024-09-23 07:20:20.673726,41.57,2.266359,-0.0027359787006383035,-0.023827930413011865,0.09640611396773996,40.106058693909645,-92.24360919585227,76.200527287817
2024-09-23 07:20:20.717647,41.57,2.26641,-0.0029349636958644295,-0.023827930413011865,0.09640611396773996,44.11764879391193,-92.24360919585227,72.1922225099802
2024-09-23 07:20:20.729667,41.57,2.26641,-0.0029349636958644295,-0.02352945757203875,0.09640611396773996,44.11764879391193,-92.24360919585227,72.1922225099802
2024-09-23 07:20:20.761635,41.57,2.26641,-0.0029349636958644295,-0.02352945757203875,0.09710254654607277,36.09446859390736,-92.24360919585227,72.1922225099802
2024-09-23 07:20:20.772916,41.57,2.26646,-0.0034324103296106863,-0.02352945757203875,0.09710254654607277,36.09446859390736,-84.22370748782159,80.21211738781929
2024-09-23 07:20:20.814632,41.57,2.26646,-0.0034324103296106863,-0.024076653729884996,0.09685382322919964,40.106058693909645,-100.26678939585686,80.21211738781929
2024-09-23 07:20:20.826625,41.57,2.266548,-0.0034324103296106863,-0.024076653729884996,0.09685382322919964,40.106058693909645,-100.26678939585686,80.21211738781929
2024-09-23 07:20:20.858525,41.57,2.266548,-0.003382661564999035,-0.024225890150371555,0.09685382322919964,40.106058693909645,-100.26678939585686,80.21211738781929
2024-09-23 07:20:20.869998,41.57,2.266548,-0.003382661564999035,-0.024225890150371555,0.09685382322919964,36.09446859390736,-96.25519929585457,80.21211738781929
2024-09-23 07:20:20.911937,41.57,2.266599,-0.0035816467500972456,-0.02412639262114825,0.09675432418099966,36.09446859390736,-96.25519929585457,80.21211738781929
2024-09-23 07:20:20.923588,41.57,2.266599,-0.0035816467500972456,-0.02412639262114825,0.09675432418099966,36.09446859390736,-96.25519929585457,80.21211738781929
2024-09-23 07:20:20.955982,41.57,2.26665,-0.0035816467500972456,-0.02412639262114825,0.09675432418099966,36.09446859390736,-96.25519929585457,80.21211738781929
2024-09-23 07:20:20.967583,41.57,2.26665,-0.0033329230534799477,-0.024474613467244683,0.09715228999426605,40.106058693909645,-96.25519929585457,80.21211738781929
2024-09-23 07:20:21.010459,41.57,2.2667,-0.0030841997366068195,-0.02338022115155219,0.09650560086412653,40.106058693909645,-100.26678939585686,76.200527287817
2024-09-23 07:20:21.052667,41.57,2.2667,-0.0030841997366068195,-0.02338022115155219,0.09650560086412653,44.11764879391193,-100.26678939585686,76.200527287817
2024-09-23 07:20:21.064152,41.57,2.266751,-0.003233425524256645,-0.024375126570858115,0.09650560086412653,44.11764879391193,-96.25519929585457,76.200527287817
2024-09-23 07:20:21.106938,41.57,2.266802,-0.003233425524256645,-0.024375126570858115,0.09650560086412653,40.106058693909645,-100.26678939585686,76.200527287817
2024-09-23 07:20:21.118659,41.57,2.266802,-0.0035318979854855937,-0.024375126570858115,0.09650560086412653,40.106058693909645,-100.26678939585686,76.200527287817
2024-09-23 07:20:21.151508,41.57,2.266802,-0.0035318979854855937,-0.023827930413011865,0.09680407370509965,40.106058693909645,-100.26678939585686,76.200527287817
2024-09-23 07:20:21.163147,41.57,2.266889,-0.0035318979854855937,-0.023827930413011865,0.09680407370509965,36.09446859390736,-92.24360919585227,80.21211738781929
2024-09-23 07:20:21.207128,41.57,2.266889,-0.0031836870127375577,-0.024176140626271565,0.09640611396773996,36.09446859390736,-96.25519929585457,76.200527287817
2024-09-23 07:20:21.250627,41.57,2.26694,-0.0033329230534799477,-0.02412639262114825,0.09640611396773996,36.09446859390736,-96.25519929585457,76.200527287817
2024-09-23 07:20:21.262225,41.57,2.26694,-0.0033329230534799477,-0.02412639262114825,0.09635636444363997,32.08287849390507,-96.25519929585457,76.200527287817
2024-09-23 07:20:21.304695,41.57,2.266991,-0.0035816467500972456,-0.024474613467244683,0.09675432418099966,40.106058693909645,-96.25519929585457,80.21211738781929
2024-09-23 07:20:21.347453,41.57,2.267042,-0.0035816467500972456,-0.024474613467244683,0.09675432418099966,40.106058693909645,-92.24360919585227,84.22370748782159
2024-09-23 07:20:21.400370,41.57,2.267042,-0.0028852147413806935,-0.024773084789241125,0.09675432418099966,36.09446859390736,-92.24360919585227,84.22370748782159
2024-09-23 07:20:21.412446,41.57,2.267042,-0.0028852147413806935,-0.024773084789241125,0.09675432418099966,36.09446859390736,-92.24360919585227,80.21211738781929
2024-09-23 07:20:21.445928,41.57,2.267092,-0.0028852147413806935,-0.024424863943144692,0.09675432418099966,36.09446859390736,-92.24360919585227,80.21211738781929
2024-09-23 07:20:21.457229,41.57,2.267092,-0.0028852147413806935,-0.024424863943144692,0.09710254654607277,40.106058693909645,-100.26678939585686,80.21211738781929
2024-09-23 07:20:21.499731,41.51,2.267143,-0.003382661564999035,-0.02367869399252531,0.09695331012558621,40.106058693909645,-100.26678939585686,72.1922225099802
2024-09-23 07:20:21.543160,41.51,2.267231,-0.003382661564999035,-0.02367869399252531,0.09695331012558621,40.106058693909645,-100.26678939585686,80.21211738781929
2024-09-23 07:20:21.554478,41.51,2.267231,-0.003382661564999035,-0.023778180888911878,0.09690356060148622,40.106058693909645,-100.26678939585686,80.21211738781929
2024-09-23 07:20:21.597715,41.51,2.267281,-0.0029349636958644295,-0.024176140626271565,0.09690356060148622,44.11764879391193,-96.25519929585457,76.200527287817
2024-09-23 07:20:21.639670,41.51,2.267281,-0.0029349636958644295,-0.024176140626271565,0.09685382322919964,40.106058693909645,-96.25519929585457,76.200527287817
2024-09-23 07:20:21.651055,41.51,2.267332,-0.0032831742888682963,-0.024176140626271565,0.09685382322919964,40.106058693909645,-96.25519929585457,80.21211738781929
2024-09-23 07:20:21.694357,41.51,2.267425,-0.0032831742888682963,-0.024076653729884996,0.09715228999426605,52.137550501942634,-88.23529758782387,76.200527287817
2024-09-23 07:20:21.737408,41.51,2.267425,-0.0028852147413806935,-0.02412639262114825,0.09764974270391902,52.137550501942634,-88.23529758782387,76.200527287817
2024-09-23 07:20:21.749341,41.51,2.267425,-0.0028852147413806935,-0.02412639262114825,0.09764974270391902,48.12595698684454,-96.25519929585457,76.200527287817
2024-09-23 07:20:21.791403,41.51,2.267477,-0.0034324103296106863,-0.024176140626271565,0.09690356060148622,40.106058693909645,-96.25519929585457,76.200527287817
2024-09-23 07:20:21.834022,41.51,2.267527,-0.0034324103296106863,-0.024176140626271565,0.09690356060148622,40.106058693909645,-96.25519929585457,80.21211738781929
2024-09-23 07:20:21.845066,41.51,2.267527,-0.0037308827908396356,-0.024474613467244683,0.0966050877605131,48.12595698684454,-96.25519929585457,80.21211738781929
2024-09-23 07:20:21.889339,41.51,2.267578,-0.0035816467500972456,-0.024176140626271565,0.0966050877605131,48.12595698684454,-92.24360919585227,80.21211738781929
2024-09-23 07:20:21.900741,41.51,2.267578,-0.0035816467500972456,-0.024176140626271565,0.09715228999426605,48.12595698684454,-92.24360919585227,80.21211738781929
2024-09-23 07:20:21.934395,41.51,2.267629,-0.0035816467500972456,-0.024176140626271565,0.09715228999426605,36.09446859390736,-104.27510100388527,80.21211738781929
2024-09-23 07:20:21.945643,41.51,2.267629,-0.003482159473966507,-0.024076653729884996,0.09715228999426605,36.09446859390736,-104.27510100388527,80.21211738781929
2024-09-23 07:20:21.977464,41.51,2.267629,-0.003482159473966507,-0.024076653729884996,0.09725178296655933,36.09446859390736,-104.27510100388527,80.21211738781929
2024-09-23 07:20:21.989474,41.51,2.267679,-0.0030841997366068195,-0.024076653729884996,0.09725178296655933,36.09446859390736,-104.27510100388527,76.200527287817
2024-09-23 07:20:22.032590,41.51,2.267679,-0.0030841997366068195,-0.023728432883788564,0.0970030596496862,32.08287849390507,-104.27510100388527,76.200527287817
2024-09-23 07:20:22.044147,41.51,2.267766,-0.0030841997366068195,-0.023728432883788564,0.0970030596496862,32.08287849390507,-104.27510100388527,80.21211738781929
2024-09-23 07:20:22.077864,41.51,2.267766,-0.0030344509719951677,-0.02457410036363125,0.0970030596496862,32.08287849390507,-104.27510100388527,80.21211738781929
2024-09-23 07:20:22.090309,41.51,2.267766,-0.0030344509719951677,-0.02457410036363125,0.09670458680871308,40.106058693909645,-96.25519929585457,72.1922225099802
2024-09-23 07:20:22.134443,41.51,2.267818,-0.0030841997366068195,-0.024375126570858115,0.09630662707135339,44.11764879391193,-96.25519929585457,72.1922225099802
2024-09-23 07:20:22.178020,41.51,2.267868,-0.0036811340262279837,-0.024325377046758124,0.09630662707135339,44.11764879391193,-96.25519929585457,72.1922225099802
2024-09-23 07:20:22.189100,41.51,2.267868,-0.0036811340262279837,-0.024325377046758124,0.09740101331113918,32.08287849390507,-96.25519929585457,72.1922225099802
2024-09-23 07:20:22.222714,41.51,2.267868,-0.0036811340262279837,-0.024325377046758124,0.09740101331113918,32.08287849390507,-96.25519929585457,72.1922225099802
2024-09-23 07:20:22.234725,41.51,2.267919,-0.0033329230534799477,-0.024275627522658133,0.09670458680871308,32.08287849390507,-96.25519929585457,80.21211738781929
2024-09-23 07:20:22.277396,41.51,2.26797,-0.0032831742888682963,-0.024275627522658133,0.09670458680871308,36.09446859390736,-92.24360919585227,76.200527287817
2024-09-23 07:20:22.289432,41.51,2.26797,-0.0032831742888682963,-0.02487257320460437,0.09670458680871308,36.09446859390736,-92.24360919585227,76.200527287817
2024-09-23 07:20:22.322274,41.51,2.26797,-0.0032831742888682963,-0.02487257320460437,0.09740101331113918,36.09446859390736,-96.25519929585457,76.200527287817
2024-09-23 07:20:22.333301,41.51,2.26802,-0.0032831742888682963,-0.02487257320460437,0.09740101331113918,36.09446859390736,-96.25519929585457,76.200527287817
2024-09-23 07:20:22.376125,41.51,2.268108,-0.0032831742888682963,-0.024275627522658133,0.09655535038822652,36.09446859390736,-96.25519929585457,80.21211738781929
2024-09-23 07:20:22.418862,41.51,2.268108,-0.0034324103296106863,-0.024275627522658133,0.09655535038822652,36.09446859390736,-96.25519929585457,80.21211738781929
2024-09-23 07:20:22.430760,41.51,2.268108,-0.0034324103296106863,-0.024275627522658133,0.09685382322919964,40.106058693909645,-100.26678939585686,76.200527287817
2024-09-23 07:20:22.472488,41.51,2.268159,-0.0031339382481259063,-0.023927417309398437,0.09715228999426605,36.09446859390736,-100.26678939585686,76.200527287817
2024-09-23 07:20:22.484613,41.51,2.268159,-0.0031339382481259063,-0.023927417309398437,0.09715228999426605,36.09446859390736,-104.27510100388527,76.200527287817
2024-09-23 07:20:22.517921,42.0,2.26821,-0.003233425524256645,-0.023927417309398437,0.09715228999426605,36.09446859390736,-104.27510100388527,76.200527287817
2024-09-23 07:20:22.529707,42.0,2.26821,-0.003233425524256645,-0.024176140626271565,0.09720203344245934,44.11764879391193,-104.27510100388527,76.200527287817
2024-09-23 07:20:22.572149,42.0,2.26826,-0.003233425524256645,-0.024922321209727684,0.0973015264147526,44.11764879391193,-96.25519929585457,80.21211738781929
2024-09-23 07:20:22.615453,42.0,2.26826,-0.003233425524256645,-0.024922321209727684,0.0973015264147526,36.09446859390736,-92.24360919585227,80.21211738781929
2024-09-23 07:20:22.627192,42.0,2.268311,-0.003382661564999035,-0.02397715620066169,0.0973015264147526,36.09446859390736,-92.24360919585227,80.21211738781929
2024-09-23 07:20:22.670313,42.0,2.268311,-0.003382661564999035,-0.02397715620066169,0.09680407370509965,40.106058693909645,-96.25519929585457,80.21211738781929
2024-09-23 07:20:22.713870,42.0,2.268362,-0.0030841997366068195,-0.02397715620066169,0.09680407370509965,40.106058693909645,-96.25519929585457,72.1922225099802
2024-09-23 07:20:22.725248,42.0,2.268362,-0.0030841997366068195,-0.024524361472367997,0.09655535038822652,36.09446859390736,-96.25519929585457,72.1922225099802
2024-09-23 07:20:22.757873,42.0,2.268362,-0.0030841997366068195,-0.024524361472367997,0.09655535038822652,36.09446859390736,-96.25519929585457,72.1922225099802
2024-09-23 07:20:22.769441,42.0,2.268449,-0.003382661564999035,-0.024176140626271565,0.0976994861521123,36.09446859390736,-96.25519929585457,84.22370748782159
2024-09-23 07:20:22.811698,42.0,2.2685,-0.003382661564999035,-0.024176140626271565,0.0976994861521123,36.09446859390736,-96.25519929585457,80.21211738781929
2024-09-23 07:20:22.823280,42.0,2.2685,-0.0034324103296106863,-0.024076653729884996,0.0976994861521123,36.09446859390736,-96.25519929585457,80.21211738781929
2024-09-23 07:20:22.855099,42.0,2.2685,-0.0034324103296106863,-0.024076653729884996,0.09745075675933246,36.09446859390736,-96.25519929585457,80.21211738781929
2024-09-23 07:20:22.869909,42.0,2.268551,-0.0028354659767690416,-0.024076653729884996,0.09745075675933246,32.08287849390507,-96.25519929585457,76.200527287817
2024-09-23 07:20:22.912084,42.0,2.268602,-0.0028354659767690416,-0.023728432883788564,0.09705279702197278,36.09446859390736,-100.26678939585686,80.21211738781929
2024-09-23 07:20:22.955232,42.0,2.268602,-0.003382661564999035,-0.024474613467244683,0.09705279702197278,36.09446859390736,-100.26678939585686,80.21211738781929
2024-09-23 07:20:22.966983,42.0,2.268602,-0.003382661564999035,-0.024474613467244683,0.09705279702197278,32.08287849390507,-92.24360919585227,84.22370748782159
2024-09-23 07:20:23.009731,42.0,2.268693,-0.0033329230534799477,-0.023827930413011865,0.09695331012558621,28.07457030097246,-100.26678939585686,84.22370748782159
2024-09-23 07:20:23.052521,42.0,2.268744,-0.0033329230534799477,-0.023827930413011865,0.09695331012558621,28.07457030097246,-100.26678939585686,80.21211738781929
2024-09-23 07:20:23.063959,42.0,2.268744,-0.0030344509719951677,-0.024275627522658133,0.09705279702197278,36.09446859390736,-100.26678939585686,80.21211738781929
2024-09-23 07:20:23.106159,42.0,2.268795,-0.0030841997366068195,-0.024325377046758124,0.09705279702197278,36.09446859390736,-92.24360919585227,80.21211738781929
2024-09-23 07:20:23.118432,42.0,2.268795,-0.0030841997366068195,-0.024325377046758124,0.09710254654607277,36.09446859390736,-92.24360919585227,80.21211738781929
2024-09-23 07:20:23.150289,42.0,2.268795,-0.0030841997366068195,-0.024325377046758124,0.09710254654607277,32.08287849390507,-96.25519929585457,80.21211738781929
2024-09-23 07:20:23.161413,42.0,2.268846,-0.0030344509719951677,-0.02412639262114825,0.09710254654607277,32.08287849390507,-96.25519929585457,72.1922225099802
2024-09-23 07:20:23.255657,42.0,2.268896,-0.0031339382481259063,-0.02412639262114825,0.09655535038822652,44.11764879391193,-96.25519929585457,80.21211738781929
2024-09-23 07:20:23.299987,42.0,2.268896,-0.0031339382481259063,-0.024524361472367997,0.09645586349183995,36.09446859390736,-100.26678939585686,80.21211738781929
2024-09-23 07:20:23.311732,42.0,2.268985,-0.0031339382481259063,-0.024524361472367997,0.09645586349183995,36.09446859390736,-100.26678939585686,76.200527287817
2024-09-23 07:20:23.345214,42.0,2.268985,-0.0028852147413806935,-0.023927417309398437,0.09645586349183995,36.09446859390736,-100.26678939585686,76.200527287817
2024-09-23 07:20:23.357112,42.0,2.268985,-0.0028852147413806935,-0.023927417309398437,0.09710254654607277,32.08287849390507,-96.25519929585457,76.200527287817
2024-09-23 07:20:23.442028,42.0,2.269037,-0.0028852147413806935,-0.023927417309398437,0.09710254654607277,32.08287849390507,-96.25519929585457,76.200527287817
2024-09-23 07:20:23.453587,42.0,2.269037,-0.0031339382481259063,-0.024424863943144692,0.09705279702197278,40.106058693909645,-100.26678939585686,76.200527287817
2024-09-23 07:20:23.497991,42.0,2.269087,-0.003382661564999035,-0.02367869399252531,0.09705279702197278,40.106058693909645,-100.26678939585686,76.200527287817
2024-09-23 07:20:23.510695,42.0,2.269087,-0.003382661564999035,-0.02367869399252531,0.09705279702197278,36.09446859390736,-100.26678939585686,76.200527287817
2024-09-23 07:20:23.543335,41.91,2.269182,-0.0029349636958644295,-0.02367869399252531,0.09705279702197278,36.09446859390736,-100.26678939585686,76.200527287817
2024-09-23 07:20:23.554532,41.91,2.269182,-0.0029349636958644295,-0.02367869399252531,0.09655535038822652,36.09446859390736,-100.26678939585686,76.200527287817
2024-09-23 07:20:23.586456,41.91,2.269182,-0.0029349636958644295,-0.02367869399252531,0.09655535038822652,40.106058693909645,-100.26678939585686,76.200527287817
2024-09-23 07:20:23.599208,41.91,2.269232,-0.0031836870127375577,-0.02367869399252531,0.09655535038822652,40.106058693909645,-96.25519929585457,80.21211738781929
2024-09-23 07:20:23.694617,41.91,2.269283,-0.0031836870127375577,-0.02457410036363125,0.09670458680871308,36.09446859390736,-100.26678939585686,80.21211738781929
2024-09-23 07:20:23.736873,41.91,2.269283,-0.0026862297461545674,-0.024623849887731242,0.09720203344245934,36.09446859390736,-100.26678939585686,80.21211738781929
2024-09-23 07:20:23.748567,41.91,2.269283,-0.0026862297461545674,-0.024623849887731242,0.09720203344245934,40.106058693909645,-100.26678939585686,80.21211738781929
2024-09-23 07:20:23.792149,41.91,2.269424,-0.0029847020175114316,-0.024225890150371555,0.09640611396773996,40.106058693909645,-96.25519929585457,80.21211738781929
2024-09-23 07:20:23.834322,41.91,2.269475,-0.003233425524256645,-0.024225890150371555,0.09640611396773996,40.106058693909645,-96.25519929585457,76.200527287817
2024-09-23 07:20:23.845301,41.91,2.269475,-0.003233425524256645,-0.02397715620066169,0.09690356060148622,36.09446859390736,-96.25519929585457,76.200527287817
2024-09-23 07:20:23.888770,41.91,2.269526,-0.0035816467500972456,-0.024424863943144692,0.09675432418099966,36.09446859390736,-96.25519929585457,76.200527287817
2024-09-23 07:20:23.931287,41.91,2.269526,-0.0035816467500972456,-0.024424863943144692,0.09675432418099966,40.106058693909645,-104.27510100388527,80.21211738781929
2024-09-23 07:20:23.942573,41.91,2.269621,-0.002636491424507565,-0.024673597892854556,0.09675432418099966,40.106058693909645,-104.27510100388527,80.21211738781929
2024-09-23 07:20:24.025857,41.91,2.269621,-0.002636491424507565,-0.024673597892854556,0.09655535038822652,40.106058693909645,-104.27510100388527,80.21211738781929
2024-09-23 07:20:24.037785,41.91,2.269672,-0.0033329230534799477,-0.024673597892854556,0.09655535038822652,36.09446859390736,-100.26678939585686,72.1922225099802
2024-09-23 07:20:24.081017,41.91,2.269672,-0.0033329230534799477,-0.02397715620066169,0.09710254654607277,36.09446859390736,-96.25519929585457,80.21211738781929
2024-09-23 07:20:24.093556,41.91,2.269765,-0.0033329230534799477,-0.02397715620066169,0.09710254654607277,36.09446859390736,-96.25519929585457,80.21211738781929
2024-09-23 07:20:24.125675,41.91,2.269765,-0.003382661564999035,-0.024176140626271565,0.09710254654607277,36.09446859390736,-96.25519929585457,80.21211738781929
2024-09-23 07:20:24.137536,41.91,2.269765,-0.003382661564999035,-0.024176140626271565,0.09720203344245934,40.106058693909645,-96.25519929585457,80.21211738781929
2024-09-23 07:20:24.180924,41.91,2.269817,-0.0037308827908396356,-0.023877669304275123,0.09665483728461309,36.09446859390736,-96.25519929585457,80.21211738781929
2024-09-23 07:20:24.274391,41.91,2.269867,-0.0033329230534799477,-0.024524361472367997,0.09665483728461309,36.09446859390736,-96.25519929585457,76.200527287817
2024-09-23 07:20:24.286384,41.91,2.269867,-0.0033329230534799477,-0.024524361472367997,0.09705279702197278,44.11764879391193,-96.25519929585457,76.200527287817
2024-09-23 07:20:24.319209,41.91,2.269867,-0.0033329230534799477,-0.024524361472367997,0.09705279702197278,44.11764879391193,-92.24360919585227,76.200527287817
2024-09-23 07:20:24.330984,41.91,2.269962,-0.0027359787006383035,-0.023927417309398437,0.09705279702197278,44.11764879391193,-92.24360919585227,80.21211738781929
2024-09-23 07:20:24.372686,41.91,2.270013,-0.0027359787006383035,-0.023927417309398437,0.09640611396773996,40.106058693909645,-96.25519929585457,80.21211738781929
2024-09-23 07:20:24.384343,41.91,2.270013,-0.0035318979854855937,-0.023927417309398437,0.09640611396773996,40.106058693909645,-96.25519929585457,80.21211738781929
2024-09-23 07:20:24.416602,41.91,2.270013,-0.0035318979854855937,-0.02472333678411781,0.09640611396773996,40.106058693909645,-96.25519929585457,80.21211738781929
2024-09-23 07:20:24.427969,41.91,2.270063,-0.0035318979854855937,-0.02472333678411781,0.09690356060148622,36.09446859390736,-100.26678939585686,80.21211738781929
2024-09-23 07:20:24.469879,41.91,2.270063,-0.002785727465249955,-0.023479709566915436,0.09680407370509965,32.08287849390507,-100.26678939585686,80.21211738781929
2024-09-23 07:20:24.481538,41.91,2.270063,-0.002785727465249955,-0.023479709566915436,0.09680407370509965,32.08287849390507,-96.25519929585457,80.21211738781929
2024-09-23 07:20:24.514092,41.91,2.270204,-0.002785727465249955,-0.023479709566915436,0.09680407370509965,32.08287849390507,-96.25519929585457,80.21211738781929
2024-09-23 07:20:24.525342,41.91,2.270204,-0.0028354659767690416,-0.023877669304275123,0.09705279702197278,36.09446859390736,-96.25519929585457,80.21211738781929
2024-09-23 07:20:24.568686,41.89,2.270255,-0.0030841997366068195,-0.023728432883788564,0.09705279702197278,36.09446859390736,-96.25519929585457,80.21211738781929
2024-09-23 07:20:24.580674,41.89,2.270255,-0.0030841997366068195,-0.023728432883788564,0.09680407370509965,36.09446859390736,-96.25519929585457,80.21211738781929
2024-09-23 07:20:24.613221,41.89,2.270255,-0.0030841997366068195,-0.023728432883788564,0.09680407370509965,36.09446859390736,-100.26678939585686,76.200527287817
2024-09-23 07:20:24.624411,41.89,2.270306,-0.0030841997366068195,-0.024176140626271565,0.09764974270391902,36.09446859390736,-100.26678939585686,76.200527287817
2024-09-23 07:20:24.667224,41.89,2.270357,-0.0027359787006383035,-0.024176140626271565,0.09764974270391902,48.12595698684454,-96.25519929585457,76.200527287817
2024-09-23 07:20:24.679009,41.89,2.270357,-0.0027359787006383035,-0.024026904205785005,0.09764974270391902,48.12595698684454,-96.25519929585457,76.200527287817
2024-09-23 07:20:24.712031,41.89,2.270357,-0.0027359787006383035,-0.024026904205785005,0.09705279702197278,40.106058693909645,-96.25519929585457,76.200527287817
2024-09-23 07:20:24.723491,41.89,2.270407,-0.003382661564999035,-0.024026904205785005,0.09705279702197278,40.106058693909645,-96.25519929585457,76.200527287817
2024-09-23 07:20:24.756390,41.89,2.270407,-0.003382661564999035,-0.024176140626271565,0.09705279702197278,40.106058693909645,-96.25519929585457,76.200527287817
2024-09-23 07:20:24.810087,41.89,2.270407,-0.003382661564999035,-0.024176140626271565,0.09695331012558621,40.106058693909645,-100.26678939585686,76.200527287817
