Ayaan's Suite
Timestamp,Sample Rate (Hz),Time,Ax,Ay,Az,Gx,Gy,Gz
2024-09-23 01:55:52.636626,0,8.375654,-0.012012843752733671,0.020549948366167105,1.0138396944596255,0.39373674749694765,-1.0980740039605648,-1.3911993609655648
2024-09-23 01:55:52.680019,0,8.375704,-0.016098470255261652,0.02140366946034718,1.0122541258459061,0.39373674749694765,-1.028115873093903,-1.4524485706396402
2024-09-23 01:55:52.722465,0,8.375704,-0.016098470255261652,0.02140366946034718,1.0122541258459061,0.4155664400962181,-1.0762442846808582,-1.4524485706396402
2024-09-23 01:55:52.733724,0,8.375755,-0.009085831140280984,0.023476961738108128,1.0122541258459061,0.4155664400962181,-1.0762442846808582,-1.4524485706396402
2024-09-23 01:55:52.775882,0,8.375806,-0.009085831140280984,0.023476961738108128,1.0146322843374704,0.3411964856958948,-1.1462025222692638,-1.448094003321603
2024-09-23 01:55:52.787501,0,8.375806,-0.010793271809664462,0.023476961738108128,1.0146322843374704,0.3411964856958948,-1.1462025222692638,-1.448094003321603
2024-09-23 01:55:52.819467,0,8.375806,-0.010793271809664462,0.021708563015730736,1.0152421109416312,0.3411964856958948,-1.1462025222692638,-1.448094003321603
2024-09-23 01:55:52.830654,0,8.375893,-0.010793271809664462,0.021708563015730736,1.0152421109416312,0.24499683869630098,-1.0105833048339934,-1.4218526205908506
2024-09-23 01:55:52.872441,0,8.375893,-0.014634963569291141,0.019696228790963704,1.0125589905407328,0.24499683869630098,-1.0718325145080685,-1.4218526205908506
2024-09-23 01:55:52.884358,0,8.375893,-0.014634963569291141,0.019696228790963704,1.0125589905407328,0.24499683869630098,-1.0718325145080685,-1.4174980532728136
2024-09-23 01:55:52.916997,0,8.375944,-0.013232416455291218,0.019696228790963704,1.0125589905407328,0.24499683869630098,-1.0718325145080685,-1.4174980532728136
2024-09-23 01:55:52.928937,0,8.375944,-0.013232416455291218,0.018415698035412244,1.0157299333391567,0.27559278874509036,-1.1068402347296475,-1.4174980532728136
2024-09-23 01:55:52.971405,0,8.375995,-0.010000509527966639,0.01914740125216718,1.0140835084438808,0.3674952580444515,-1.1068402347296475,-1.4174980532728136
2024-09-23 01:55:53.014641,0,8.375995,-0.010000509527966639,0.01914740125216718,1.0140835084438808,0.3674952580444515,-1.028115873093903,-1.3999655917346479
2024-09-23 01:55:53.026428,0,8.376046,-0.01341539238571027,0.01811080599900536,1.0116442992417454,0.3674952580444515,-1.028115873093903,-1.3999655917346479
2024-09-23 01:55:53.069827,0,8.376096,-0.01164699290384454,0.019513251341567978,1.0116442992417454,0.3237212803733535,-1.0674780539117754,-1.2774671723864972
2024-09-23 01:55:53.111719,0,8.376096,-0.01164699290384454,0.019513251341567978,1.0133517748475924,0.3280757409696467,-1.0674780539117754,-1.2774671723864972
2024-09-23 01:55:53.123438,0,8.376147,-0.013537308491698099,0.019513251341567978,1.0133517748475924,0.3280757409696467,-1.0937195433642715,-1.3693696416858583
2024-09-23 01:55:53.166119,0,8.376234,-0.013537308491698099,0.01939133523558015,1.0160348952484908,0.3543172304221429,-1.0893650827679784,-1.413086283100024
2024-09-23 01:55:53.210677,0,8.376234,-0.014147094083488534,0.02189143717471248,1.0160348952484908,0.3543172304221429,-1.0893650827679784,-1.413086283100024
2024-09-23 01:55:53.221983,0,8.376234,-0.014147094083488534,0.02189143717471248,1.0093270942462451,0.27123832814879717,-1.1199610328167677,-1.4174980532728136
2024-09-23 01:55:53.264828,0,8.376286,-0.012500713238536278,0.01975718684395762,1.0137175930384832,0.2537058132497594,-1.0718325145080685,-1.4174980532728136
2024-09-23 01:55:53.307463,0,8.376336,-0.014878899071680782,0.01975718684395762,1.0137175930384832,0.2537058132497594,-1.0718325145080685,-1.3518370734259486
2024-09-23 01:55:53.318794,0,8.376336,-0.014878899071680782,0.02085484192155066,1.0105467474545664,0.2186980663477443,-1.0718325145080685,-1.3518370734259486
2024-09-23 01:55:53.361125,0,8.376387,-0.012744546969488612,0.019330377182586234,1.011034569852092,0.2186980663477443,-1.15932321363464,-1.43932777255252
2024-09-23 01:55:53.403483,0,8.376387,-0.012744546969488612,0.019330377182586234,1.011034569852092,0.2843590461946093,-1.15932321363464,-1.43932777255252
2024-09-23 01:55:53.414690,0,8.376438,-0.013293374508285133,0.02402578927690465,1.011034569852092,0.2843590461946093,-1.1768557818945498,-1.531230241851881
2024-09-23 01:55:53.457930,0,8.376488,-0.013293374508285133,0.02402578927690465,1.0115223922496177,0.2843590461946093,-1.0368247942864894,-1.434973311956227
2024-09-23 01:55:53.470084,0,8.376488,-0.011037206552565765,0.02402578927690465,1.0115223922496177,0.2843590461946093,-1.0368247942864894,-1.434973311956227
2024-09-23 01:55:53.503108,0,8.376488,-0.011037206552565765,0.020610907938137694,1.0150592504534395,0.3849704900474288,-1.0368247942864894,-1.434973311956227
2024-09-23 01:55:53.514304,0,8.376575,-0.011037206552565765,0.020610907938137694,1.0150592504534395,0.3849704900474288,-1.0980740039605648,-1.3868447936475277
2024-09-23 01:55:53.556252,0,8.376575,-0.009451681989170117,0.020062078880364497,1.0120712653577144,0.35872900059493257,-1.0805987452771515,-1.5268184716790913
2024-09-23 01:55:53.599181,0,8.376627,-0.011281142054955407,0.020062078880364497,1.0120712653577144,0.35872900059493257,-1.0805987452771515,-1.5268184716790913
2024-09-23 01:55:53.610120,0,8.376627,-0.011281142054955407,0.019696228790963704,1.012620041251304,0.2668265312955715,-1.1549687530383468,-1.5268184716790913
2024-09-23 01:55:53.653067,41.85,8.376678,-0.012744546969488612,0.020366972435748053,1.0165836711420804,0.2668265312955715,-1.1549687530383468,-1.4174980532728136
2024-09-23 01:55:53.665135,41.85,8.376678,-0.012744546969488612,0.020366972435748053,1.0165836711420804,0.41121195281948897,-1.1549687530383468,-1.4174980532728136
2024-09-23 01:55:53.698847,41.85,8.376729,-0.012744546969488612,0.020366972435748053,1.0165836711420804,0.41121195281948897,-1.1374934943549335,-1.3911993609655648
2024-09-23 01:55:53.710242,41.85,8.376729,-0.01341539238571027,0.02134260963591596,1.0160958487445546,0.41121195281948897,-1.1374934943549335,-1.3911993609655648
2024-09-23 01:55:53.752666,41.85,8.376779,-0.014512945691866003,0.019574312684975875,1.0160958487445546,0.3280757409696467,-1.1024857741333545,-1.3911993609655648
2024-09-23 01:55:53.794929,41.85,8.376779,-0.014512945691866003,0.019574312684975875,1.0137175930384832,0.3674952580444515,-1.1024857741333545,-1.3911993609655648
2024-09-23 01:55:53.806232,41.85,8.37683,-0.008476044789002211,0.019574312684975875,1.0137175930384832,0.3674952580444515,-1.15932321363464,-1.3999655917346479
2024-09-23 01:55:53.849181,41.85,8.376917,-0.008476044789002211,0.021037716080532405,1.0119492611510794,0.3499627431454137,-1.0543573625463993,-1.4218526205908506
2024-09-23 01:55:53.891768,41.85,8.376917,-0.01408613603049462,0.019513251341567978,1.0119492611510794,0.3499627431454137,-1.0543573625463993,-1.4218526205908506
2024-09-23 01:55:53.903016,41.85,8.376917,-0.01408613603049462,0.019513251341567978,1.01542506864433,0.3411964856958948,-1.1199610328167677,-1.3562488435987383
2024-09-23 01:55:53.946541,41.85,8.376968,-0.014695923141261731,0.02018409827676631,1.0134127283436565,0.3411964856958948,-1.1199610328167677,-1.3562488435987383
2024-09-23 01:55:53.988932,41.85,8.376968,-0.014695923141261731,0.02018409827676631,1.0134127283436565,0.2537058132497594,-1.1987427040290088,-1.3562488435987383
2024-09-23 01:55:54.000589,41.85,8.377019,-0.012744546969488612,0.021952496999143704,1.0134127283436565,0.2537058132497594,-1.1987427040290088,-1.2731127117902041
2024-09-23 01:55:54.043761,41.85,8.377069,-0.012256778495634975,0.021952496999143704,1.015546975636458,0.29747979092085736,-1.1768557818945498,-1.3824903330512346
2024-09-23 01:55:54.086315,41.85,8.377069,-0.012256778495634975,0.019086441680196593,1.0138396944596255,0.29747979092085736,-1.1768557818945498,-1.3824903330512346
2024-09-23 01:55:54.097811,41.85,8.37712,-0.012256778495634975,0.019086441680196593,1.0138396944596255,0.3237212803733535,-1.1243154934130608,-1.3387163820605725
2024-09-23 01:55:54.139650,41.85,8.37712,-0.013537308491698099,0.020366972435748053,1.0114003880429827,0.28871353347133843,-1.1549687530383468,-1.3387163820605725
2024-09-23 01:55:54.151684,41.85,8.37712,-0.013537308491698099,0.020366972435748053,1.0114003880429827,0.28871353347133843,-1.1549687530383468,-1.3518370734259486
2024-09-23 01:55:54.183999,41.85,8.377171,-0.015061773230662524,0.020366972435748053,1.0114003880429827,0.28871353347133843,-1.1549687530383468,-1.3518370734259486
2024-09-23 01:55:54.195370,41.85,8.377171,-0.015061773230662524,0.020306014382754138,1.015668979843093,0.2581175834225491,-1.1199610328167677,-1.3518370734259486
2024-09-23 01:55:54.237247,41.85,8.377259,-0.012500713238536278,0.02201345505213762,1.0152421109416312,0.2581175834225491,-1.1199610328167677,-1.3911993609655648
2024-09-23 01:55:54.248944,41.85,8.377259,-0.012500713238536278,0.02201345505213762,1.0152421109416312,0.3062460483703762,-1.1199610328167677,-1.3911993609655648
2024-09-23 01:55:54.280530,41.85,8.377259,-0.012500713238536278,0.02201345505213762,1.0152421109416312,0.3062460483703762,-1.1330817241821438,-1.3911993609655648
2024-09-23 01:55:54.292362,41.85,8.37731,-0.012988480952901577,0.020366972435748053,1.0151811574455674,0.3062460483703762,-1.1330817241821438,-1.3911993609655648
2024-09-23 01:55:54.336044,41.85,8.377361,-0.012256778495634975,0.020366972435748053,1.0151811574455674,0.17933585884943604,-1.1680894444037229,-1.3037086618389935
2024-09-23 01:55:54.347767,41.85,8.377361,-0.012256778495634975,0.01914740125216718,1.0151811574455674,0.17933585884943604,-1.1680894444037229,-1.3037086618389935
2024-09-23 01:55:54.380693,41.85,8.377361,-0.012256778495634975,0.01914740125216718,1.0143883731387076,0.2405850685235113,-1.1637349838074296,-1.3037086618389935
2024-09-23 01:55:54.392573,41.85,8.377411,-0.012256778495634975,0.01914740125216718,1.0143883731387076,0.2405850685235113,-1.1637349838074296,-1.4218526205908506
2024-09-23 01:55:54.435272,41.85,8.377411,-0.012439653414105056,0.021464627513341095,1.0164616669354454,0.3237212803733535,-1.1724439050000162,-1.4437395427253097
2024-09-23 01:55:54.477578,41.85,8.377502,-0.008719979531903514,0.020793883868556746,1.0164616669354454,0.3237212803733535,-1.1724439050000162,-1.4437395427253097
2024-09-23 01:55:54.488610,41.85,8.377502,-0.008719979531903514,0.020793883868556746,1.0119492611510794,0.27994727602181957,-1.1812102424908428,-1.4437395427253097
2024-09-23 01:55:54.530686,41.85,8.377553,-0.01481783924724956,0.020915799974544576,1.0151202039495033,0.27994727602181957,-1.1812102424908428,-1.4218526205908506
2024-09-23 01:55:54.542908,41.85,8.377553,-0.01481783924724956,0.020915799974544576,1.0151202039495033,0.3324875378228724,-1.1812102424908428,-1.4218526205908506
2024-09-23 01:55:54.576288,41.85,8.377604,-0.01481783924724956,0.020915799974544576,1.0151202039495033,0.3324875378228724,-1.1024857741333545,-1.43932777255252
2024-09-23 01:55:54.587547,41.85,8.377604,-0.014695923141261731,0.02152558556633501,1.0143274196426437,0.3324875378228724,-1.1024857741333545,-1.43932777255252
2024-09-23 01:55:54.629928,41.85,8.377655,-0.013537308491698099,0.019940162774376668,1.0143274196426437,0.3674952580444515,-1.2118635021161288,-1.5224640110827983
2024-09-23 01:55:54.671868,42.52,8.377655,-0.013537308491698099,0.019940162774376668,1.0121322188537785,0.37184974532118065,-1.2118635021161288,-1.5224640110827983
2024-09-23 01:55:54.683806,42.52,8.377706,-0.012988480952901577,0.019940162774376668,1.0121322188537785,0.37184974532118065,-1.0937195433642715,-1.404320052330941
2024-09-23 01:55:54.726416,42.52,8.377706,-0.012988480952901577,0.02201345505213762,1.0118273541589518,0.38061600277069957,-1.1287272635858505,-1.4306188513599336
2024-09-23 01:55:54.738267,42.52,8.377794,-0.012988480952901577,0.02201345505213762,1.0118273541589518,0.38061600277069957,-1.1287272635858505,-1.4306188513599336
2024-09-23 01:55:54.772584,42.52,8.377794,-0.01378124399408774,0.01695219134944173,1.014022554947817,0.38061600277069957,-1.1287272635858505,-1.4306188513599336
2024-09-23 01:55:54.784278,42.52,8.377794,-0.01378124399408774,0.01695219134944173,1.014022554947817,0.3674952580444515,-1.1330817241821438,-1.3737241022821516
2024-09-23 01:55:54.818069,42.52,8.377846,-0.011403058160943235,0.01695219134944173,1.014022554947817,0.3674952580444515,-1.1330817241821438,-1.3737241022821516
2024-09-23 01:55:54.829308,42.52,8.377846,-0.011403058160943235,0.021830479121718566,1.0132908213515286,0.4155664400962181,-1.0805987452771515,-1.3737241022821516
2024-09-23 01:55:54.871245,42.52,8.377897,-0.011768909009832369,0.019696228790963704,1.01426646614658,0.4155664400962181,-1.0805987452771515,-1.3824903330512346
2024-09-23 01:55:54.882740,42.52,8.377897,-0.011768909009832369,0.019696228790963704,1.01426646614658,0.3499627431454137,-1.0805987452771515,-1.3824903330512346
2024-09-23 01:55:54.915098,42.52,8.377897,-0.011768909009832369,0.019696228790963704,1.01426646614658,0.3499627431454137,-1.1287272635858505,-1.4087318225037306
2024-09-23 01:55:54.926187,42.52,8.377948,-0.012866564846913748,0.02097675802753849,1.0136566395424191,0.3499627431454137,-1.1287272635858505,-1.4087318225037306
2024-09-23 01:55:54.968015,42.52,8.377998,-0.012866564846913748,0.02097675802753849,1.0136566395424191,0.26247207069927825,-1.1943309338562191,-1.404320052330941
2024-09-23 01:55:54.979811,42.52,8.377998,-0.013598266544692013,0.019513251341567978,1.0136566395424191,0.26247207069927825,-1.1943309338562191,-1.404320052330941
2024-09-23 01:55:55.012052,42.52,8.377998,-0.013598266544692013,0.019513251341567978,1.015608026347029,0.26247207069927825,-1.1943309338562191,-1.404320052330941
2024-09-23 01:55:55.024185,42.52,8.378049,-0.013232416455291218,0.019513251341567978,1.015608026347029,0.223109849860752,-1.224984193481505,-1.3606034109167755
2024-09-23 01:55:55.066179,42.52,8.378049,-0.013232416455291218,0.021281651582922046,1.015546975636458,0.3543172304221429,-1.1680894444037229,-1.474335492774099
2024-09-23 01:55:55.078079,42.52,8.378135,-0.013232416455291218,0.021281651582922046,1.015546975636458,0.3543172304221429,-1.1680894444037229,-1.474335492774099
2024-09-23 01:55:55.110046,42.52,8.378135,-0.01378124399408774,0.020549948366167105,1.015546975636458,0.3543172304221429,-1.1680894444037229,-1.474335492774099
2024-09-23 01:55:55.121476,42.52,8.378135,-0.01378124399408774,0.020549948366167105,1.01426646614658,0.3411964856958948,-1.238104991568625,-1.3999655917346479
2024-09-23 01:55:55.165575,42.52,8.378187,-0.01164699290384454,0.020245056329760223,1.014144559154452,0.20998910513450392,-1.1943309338562191,-1.3999655917346479
2024-09-23 01:55:55.208919,42.52,8.378238,-0.012012843752733671,0.020245056329760223,1.014144559154452,0.20998910513450392,-1.1943309338562191,-1.4437395427253097
2024-09-23 01:55:55.221325,42.52,8.378238,-0.012012843752733671,0.017622936513202757,1.0121322188537785,0.2405850685235113,-1.1943309338562191,-1.4437395427253097
2024-09-23 01:55:55.263828,42.52,8.378288,-0.012927522899907663,0.02012303845233509,1.0089612760553544,0.2405850685235113,-1.1024857741333545,-1.4655692620050162
2024-09-23 01:55:55.306740,42.52,8.378288,-0.012927522899907663,0.02012303845233509,1.0089612760553544,0.3456082558686845,-1.1768557818945498,-1.4655692620050162
2024-09-23 01:55:55.318442,42.52,8.378339,-0.014695923141261731,0.021159735476934217,1.0089612760553544,0.3456082558686845,-1.1768557818945498,-1.3868447936475277
2024-09-23 01:55:55.361304,42.52,8.37839,-0.014695923141261731,0.021159735476934217,1.0148152420401695,0.3456082558686845,-1.1243154934130608,-1.413086283100024
2024-09-23 01:55:55.403897,42.52,8.37839,-0.010549337066763158,0.02176952106872465,1.0120102146471432,0.3456082558686845,-1.1243154934130608,-1.413086283100024
2024-09-23 01:55:55.416116,42.52,8.37839,-0.010549337066763158,0.02176952106872465,1.0120102146471432,0.2843590461946093,-1.1812102424908428,-1.3780785628784449
2024-09-23 01:55:55.459631,42.52,8.378477,-0.014269113479890346,0.019513251341567978,1.0089003225592905,0.3674952580444515,-1.2336931146740913,-1.3780785628784449
2024-09-23 01:55:55.501800,42.52,8.378528,-0.01164699290384454,0.019513251341567978,1.0089003225592905,0.3674952580444515,-1.2336931146740913,-1.3649578715130686
2024-09-23 01:55:55.513988,42.52,8.378528,-0.01164699290384454,0.01798878660260355,1.0089003225592905,0.3674952580444515,-1.2336931146740913,-1.3649578715130686
2024-09-23 01:55:55.556924,42.52,8.378579,-0.012500713238536278,0.01798878660260355,1.012742045457939,0.3237212803733535,-1.1637349838074296,-1.4787472629468887
2024-09-23 01:55:55.599162,42.52,8.378579,-0.012500713238536278,0.023476961738108128,1.0132908213515286,0.3237212803733535,-1.1637349838074296,-1.4787472629468887
2024-09-23 01:55:55.610703,42.52,8.378629,-0.012500713238536278,0.023476961738108128,1.0132908213515286,0.3018342781975865,-1.0805987452771515,-1.4087318225037306
2024-09-23 01:55:55.653317,42.52,8.378629,-0.01268358815700636,0.021708563015730736,1.0107297051572652,0.3062460483703762,-1.224984193481505,-1.4655692620050162
2024-09-23 01:55:55.696951,42.98,8.37868,-0.015183792627064338,0.02329398580768908,1.0107297051572652,0.3062460483703762,-1.224984193481505,-1.4655692620050162
2024-09-23 01:55:55.708462,42.98,8.37868,-0.015183792627064338,0.02329398580768908,1.0147542885441054,0.38061600277069957,-1.0762442846808582,-1.4655692620050162
2024-09-23 01:55:55.750972,42.98,8.378769,-0.013354434332716355,0.018659531766364576,1.0139616014517532,0.3062460483703762,-1.0762442846808582,-1.448094003321603
2024-09-23 01:55:55.792954,42.98,8.378769,-0.013354434332716355,0.018659531766364576,1.0139616014517532,0.3062460483703762,-1.0412365644592791,-1.434973311956227
2024-09-23 01:55:55.804385,42.98,8.378821,-0.011951885699739756,0.020915799974544576,1.0103637897518674,0.3062460483703762,-1.0412365644592791,-1.434973311956227
2024-09-23 01:55:55.846577,42.98,8.378871,-0.011890927646745842,0.020915799974544576,1.0103637897518674,0.26247207069927825,-1.1506142924420535,-1.3693696416858583
2024-09-23 01:55:55.858742,42.98,8.378871,-0.011890927646745842,0.022562284109910815,1.0103637897518674,0.26247207069927825,-1.1506142924420535,-1.3693696416858583
2024-09-23 01:55:55.890613,42.98,8.378871,-0.011890927646745842,0.022562284109910815,1.014022554947817,0.39373674749694765,-1.1506142924420535,-1.3693696416858583
2024-09-23 01:55:55.902432,42.98,8.378922,-0.015061773230662524,0.022562284109910815,1.014022554947817,0.39373674749694765,-1.0674780539117754,-1.504988752399385
2024-09-23 01:55:55.945232,42.98,8.379013,-0.015061773230662524,0.02018409827676631,1.0160348952484908,0.31060053564710544,-1.1462025222692638,-1.404320052330941
2024-09-23 01:55:55.987333,42.98,8.379013,-0.011281142054955407,0.01939133523558015,1.0160348952484908,0.31060053564710544,-1.1462025222692638,-1.404320052330941
2024-09-23 01:55:55.998794,42.98,8.379013,-0.011281142054955407,0.01939133523558015,1.0132298678554648,0.3674952580444515,-1.1330817241821438,-1.3299501512914895
2024-09-23 01:55:56.040913,42.98,8.379065,-0.011707950956838454,0.01853761414140007,1.0178032271358946,0.3543172304221429,-1.1330817241821438,-1.3299501512914895
2024-09-23 01:55:56.053120,42.98,8.379065,-0.011707950956838454,0.01853761414140007,1.0178032271358946,0.3543172304221429,-1.0937195433642715,-1.3299501512914895
2024-09-23 01:55:56.086187,42.98,8.379115,-0.011707950956838454,0.01853761414140007,1.0178032271358946,0.3543172304221429,-1.0937195433642715,-1.3693696416858583
2024-09-23 01:55:56.098089,42.98,8.379115,-0.012500713238536278,0.021098777423940302,1.0135956860463553,0.3149550229238346,-1.0937195433642715,-1.3693696416858583
2024-09-23 01:55:56.141759,42.98,8.379166,-0.010061467580960552,0.018659531766364576,1.0160958487445546,0.3149550229238346,-1.1724439050000162,-1.4087318225037306
2024-09-23 01:55:56.185881,42.98,8.379217,-0.010061467580960552,0.018659531766364576,1.0160958487445546,0.3368419984191656,-1.2118635021161288,-1.413086283100024
2024-09-23 01:55:56.197252,42.98,8.379217,-0.016464321863639123,0.019818144896951533,1.0160958487445546,0.3368419984191656,-1.2118635021161288,-1.413086283100024
2024-09-23 01:55:56.229163,42.98,8.379217,-0.016464321863639123,0.019818144896951533,1.0132298678554648,0.3368419984191656,-1.2118635021161288,-1.413086283100024
2024-09-23 01:55:56.241247,42.98,8.379268,-0.015122834574070423,0.019818144896951533,1.0132298678554648,0.3411964856958948,-1.1111946953259408,-1.4655692620050162
2024-09-23 01:55:56.282779,42.98,8.379268,-0.015122834574070423,0.01835463821098102,1.0145713308414066,0.37184974532118065,-1.1111946953259408,-1.4655692620050162
2024-09-23 01:55:56.294603,42.98,8.379354,-0.015122834574070423,0.01835463821098102,1.0145713308414066,0.37184974532118065,-1.1111946953259408,-1.2643463742993772
2024-09-23 01:55:56.328015,42.98,8.379354,-0.012134760618209839,0.01835463821098102,1.0145713308414066,0.37184974532118065,-1.1111946953259408,-1.2643463742993772
2024-09-23 01:55:56.339222,42.98,8.379354,-0.012134760618209839,0.021037716080532405,1.011095523348156,0.35872900059493257,-1.0849533125951887,-1.3911993609655648
2024-09-23 01:55:56.382685,42.98,8.379406,-0.01219582044264106,0.020427930488741967,1.0115833457456815,0.40685746554275976,-1.0849533125951887,-1.3911993609655648
2024-09-23 01:55:56.425892,42.98,8.379406,-0.01219582044264106,0.020427930488741967,1.0115833457456815,0.40685746554275976,-1.0412365644592791,-1.3911993609655648
2024-09-23 01:55:56.437733,42.98,8.379456,-0.013049540777332799,0.019940162774376668,1.0115833457456815,0.40685746554275976,-1.0412365644592791,-1.474335492774099
2024-09-23 01:55:56.480402,42.98,8.379507,-0.010000509527966639,0.019940162774376668,1.0115833457456815,0.3324875378228724,-1.1462025222692638,-1.4087318225037306
2024-09-23 01:55:56.492457,42.98,8.379507,-0.010000509527966639,0.020427930488741967,1.0115833457456815,0.3324875378228724,-1.1462025222692638,-1.4087318225037306
2024-09-23 01:55:56.524116,42.98,8.379507,-0.010000509527966639,0.020427930488741967,1.0114003880429827,0.3193667930966243,-1.1462025222692638,-1.4087318225037306
2024-09-23 01:55:56.535320,42.98,8.379558,-0.012439653414105056,0.020427930488741967,1.0114003880429827,0.3193667930966243,-1.0630662837389857,-1.404320052330941
2024-09-23 01:55:56.578904,42.98,8.379558,-0.012439653414105056,0.020001120827370582,1.0087173648565917,0.3193667930966243,-1.1637349838074296,-1.43932777255252
2024-09-23 01:55:56.590427,42.98,8.379608,-0.012439653414105056,0.020001120827370582,1.0087173648565917,0.3193667930966243,-1.1637349838074296,-1.43932777255252
2024-09-23 01:55:56.622250,42.98,8.379608,-0.015427726610477303,0.02067186599113161,1.0087173648565917,0.3193667930966243,-1.1637349838074296,-1.43932777255252
2024-09-23 01:55:56.675503,42.98,8.379696,-0.015427726610477303,0.02067186599113161,1.0113394345469187,0.3149550229238346,-1.1024857741333545,-1.518109550486505
2024-09-23 01:55:56.687644,42.98,8.379696,-0.013903160100075569,0.02067186599113161,1.0113394345469187,0.3149550229238346,-1.1024857741333545,-1.518109550486505
2024-09-23 01:55:56.721089,43.22,8.379696,-0.013903160100075569,0.019025483627202678,1.0139006479556893,0.3149550229238346,-1.1024857741333545,-1.518109550486505
2024-09-23 01:55:56.732361,43.22,8.379747,-0.013903160100075569,0.019025483627202678,1.0139006479556893,0.3149550229238346,-1.1330817241821438,-1.461214801408723
2024-09-23 01:55:56.775112,43.22,8.379747,-0.013232416455291218,0.021464627513341095,1.0118883076550156,0.3018342781975865,-1.15932321363464,-1.4437395427253097
2024-09-23 01:55:56.817891,43.22,8.379798,-0.010915188675140628,0.02067186599113161,1.0118883076550156,0.3018342781975865,-1.15932321363464,-1.4437395427253097
2024-09-23 01:55:56.829431,43.22,8.379798,-0.010915188675140628,0.02067186599113161,1.0162178529511898,0.3018342781975865,-1.1462025222692638,-1.4437395427253097
2024-09-23 01:55:56.872266,43.22,8.379849,-0.013110498830326714,0.020549948366167105,1.0099369208504057,0.3324875378228724,-1.1462025222692638,-1.461214801408723
2024-09-23 01:55:56.914029,43.22,8.379849,-0.013110498830326714,0.020549948366167105,1.0099369208504057,0.3324875378228724,-1.1418479549512268,-1.4306188513599336
2024-09-23 01:55:56.925595,43.22,8.379941,-0.011037206552565765,0.019025483627202678,1.014144559154452,0.3324875378228724,-1.1418479549512268,-1.4306188513599336
2024-09-23 01:55:56.968542,43.22,8.379991,-0.011220081471035847,0.019025483627202678,1.014144559154452,0.3324875378228724,-1.1199610328167677,-1.4568603408124299
2024-09-23 01:55:56.980305,43.22,8.379991,-0.011220081471035847,0.021037716080532405,1.014144559154452,0.3324875378228724,-1.1199610328167677,-1.4568603408124299
2024-09-23 01:55:57.012991,43.22,8.379991,-0.011220081471035847,0.021037716080532405,1.014205512650516,0.3368419984191656,-1.2205724233087152,-1.4568603408124299
2024-09-23 01:55:57.024695,43.22,8.380042,-0.01378124399408774,0.021037716080532405,1.014205512650516,0.3368419984191656,-1.2205724233087152,-1.4437395427253097
2024-09-23 01:55:57.066499,43.22,8.380134,-0.01378124399408774,0.019452293288574063,1.0166446246381442,0.41997821026900783,-1.2424594521649182,-1.461214801408723
2024-09-23 01:55:57.109253,43.22,8.380134,-0.014939857124674697,0.019208359305161096,1.0166446246381442,0.41997821026900783,-1.2424594521649182,-1.461214801408723
2024-09-23 01:55:57.120434,43.22,8.380134,-0.014939857124674697,0.019208359305161096,1.013778546534547,0.3193667930966243,-1.216217962712422,-1.3956111311383546
2024-09-23 01:55:57.214678,43.22,8.380186,-0.01365932788809991,0.019879204721382753,1.0136566395424191,0.41121195281948897,-1.1812102424908428,-1.3956111311383546
2024-09-23 01:55:57.257003,43.22,8.380236,-0.010610295879245411,0.019879204721382753,1.0136566395424191,0.41121195281948897,-1.1812102424908428,-1.4874562908612192
2024-09-23 01:55:57.268509,43.22,8.380236,-0.010610295879245411,0.018659531766364576,1.0139006479556893,0.3543172304221429,-1.1812102424908428,-1.4874562908612192
2024-09-23 01:55:57.311232,43.22,8.380287,-0.01378124399408774,0.02225739055452726,1.015608026347029,0.3543172304221429,-1.2336931146740913,-1.3562488435987383
2024-09-23 01:55:57.352977,43.22,8.380287,-0.01378124399408774,0.02225739055452726,1.015608026347029,0.3018342781975865,-1.1068402347296475,-1.3562488435987383
2024-09-23 01:55:57.365225,43.22,8.380338,-0.01536666678604608,0.019086441680196593,1.015608026347029,0.3018342781975865,-1.1068402347296475,-1.3299501512914895
2024-09-23 01:55:57.408512,43.22,8.380388,-0.015793578218854774,0.019086441680196593,1.0120102146471432,0.3149550229238346,-1.1987427040290088,-1.413086283100024
2024-09-23 01:55:57.450567,43.22,8.380388,-0.015793578218854774,0.022928134199311608,1.0151811574455674,0.3149550229238346,-1.1987427040290088,-1.413086283100024
2024-09-23 01:55:57.462530,43.22,8.380524,-0.015793578218854774,0.022928134199311608,1.0151811574455674,0.3324875378228724,-1.1287272635858505,-1.496222521630302
2024-09-23 01:55:57.506386,43.22,8.380524,-0.015183792627064338,0.01798878660260355,1.014205512650516,0.3499627431454137,-0.9799873547852039,-1.3780785628784449
2024-09-23 01:55:57.548967,43.22,8.380576,-0.013232416455291218,0.019940162774376668,1.014205512650516,0.3499627431454137,-0.9799873547852039,-1.3780785628784449
2024-09-23 01:55:57.560285,43.22,8.380576,-0.013232416455291218,0.019940162774376668,1.015973941752427,0.3543172304221429,-1.1068402347296475,-1.3780785628784449
2024-09-23 01:55:57.603809,43.22,8.380626,-0.013903160100075569,0.02237930666051509,1.0146322843374704,0.3456082558686845,-1.1068402347296475,-1.469981032177806
2024-09-23 01:55:57.647653,43.22,8.380677,-0.013903160100075569,0.02237930666051509,1.0146322843374704,0.3456082558686845,-1.1812102424908428,-1.3911993609655648
2024-09-23 01:55:57.659015,43.22,8.380677,-0.012134760618209839,0.01798878660260355,1.012620041251304,0.3456082558686845,-1.1812102424908428,-1.3911993609655648
2024-09-23 01:55:57.701695,43.22,8.380728,-0.015000815177668611,0.022196330730096036,1.012620041251304,0.3543172304221429,-1.0937195433642715,-1.3649578715130686
2024-09-23 01:55:57.744246,42.0,8.380728,-0.015000815177668611,0.022196330730096036,1.014205512650516,0.3018342781975865,-1.0718325145080685,-1.3649578715130686
2024-09-23 01:55:57.756341,42.0,8.380778,-0.014512945691866003,0.022196330730096036,1.014205512650516,0.3018342781975865,-1.0718325145080685,-1.4437395427253097
2024-09-23 01:55:57.790063,42.0,8.380778,-0.014512945691866003,0.01939133523558015,1.014205512650516,0.3018342781975865,-1.0718325145080685,-1.4437395427253097
2024-09-23 01:55:57.801396,42.0,8.380778,-0.014512945691866003,0.01939133523558015,1.0130469101527657,0.3018342781975865,-1.0718325145080685,-1.4437395427253097
2024-09-23 01:55:57.843309,42.0,8.380865,-0.014512945691866003,0.01939133523558015,1.0130469101527657,0.3237212803733535,-1.1812102424908428,-1.491868061034009
2024-09-23 01:55:57.854965,42.0,8.380865,-0.017013149402435646,0.018476656088406155,1.0130469101527657,0.3237212803733535,-1.1812102424908428,-1.491868061034009
2024-09-23 01:55:57.887661,42.0,8.380865,-0.017013149402435646,0.018476656088406155,1.015973941752427,0.3237212803733535,-1.1812102424908428,-1.491868061034009
2024-09-23 01:55:57.898923,42.0,8.380917,-0.011524974266931064,0.018476656088406155,1.015973941752427,0.2274643237972632,-1.1024857741333545,-1.3911993609655648
2024-09-23 01:55:57.941095,42.0,8.380917,-0.011524974266931064,0.02134260963591596,1.0152421109416312,0.3499627431454137,-1.1374934943549335,-1.3911993609655648
2024-09-23 01:55:57.953034,42.0,8.380968,-0.011524974266931064,0.02134260963591596,1.0152421109416312,0.3499627431454137,-1.1374934943549335,-1.3999655917346479
2024-09-23 01:55:57.984812,42.0,8.380968,-0.01536666678604608,0.02134260963591596,1.0152421109416312,0.3499627431454137,-1.1374934943549335,-1.3999655917346479
2024-09-23 01:55:57.996800,42.0,8.380968,-0.01536666678604608,0.02097675802753849,1.0121931723498423,0.3237212803733535,-1.0937195433642715,-1.3518370734259486
2024-09-23 01:55:58.038820,42.0,8.381019,-0.013598266544692013,0.022989092252305523,1.0133517748475924,0.3237212803733535,-1.0937195433642715,-1.3518370734259486
2024-09-23 01:55:58.050597,42.0,8.381019,-0.013598266544692013,0.022989092252305523,1.0133517748475924,0.2668265312955715,-1.15932321363464,-1.3518370734259486
2024-09-23 01:55:58.082836,42.0,8.381019,-0.013598266544692013,0.022989092252305523,1.0133517748475924,0.2668265312955715,-1.15932321363464,-1.518109550486505
2024-09-23 01:55:58.094330,42.0,8.38111,-0.012500713238536278,0.021464627513341095,1.0148152420401695,0.2668265312955715,-1.15932321363464,-1.518109550486505
2024-09-23 01:55:58.137385,42.0,8.381161,-0.009268807070700035,0.02237930666051509,1.0148152420401695,0.2668265312955715,-1.1637349838074296,-1.4787472629468887
2024-09-23 01:55:58.149034,42.0,8.381161,-0.009268807070700035,0.02237930666051509,1.0121322188537785,0.2668265312955715,-1.1637349838074296,-1.4787472629468887
2024-09-23 01:55:58.181385,42.0,8.381161,-0.009268807070700035,0.02237930666051509,1.0121322188537785,0.3237212803733535,-1.1768557818945498,-1.4787472629468887
2024-09-23 01:55:58.192837,42.0,8.381212,-0.010732313756670548,0.020427930488741967,1.0121322188537785,0.3237212803733535,-1.1768557818945498,-1.3562488435987383
2024-09-23 01:55:58.235827,42.0,8.381263,-0.010732313756670548,0.020427930488741967,1.0134127283436565,0.3849704900474288,-1.216217962712422,-1.4087318225037306
2024-09-23 01:55:58.248093,42.0,8.381263,-0.010915188675140628,0.020427930488741967,1.0134127283436565,0.3849704900474288,-1.216217962712422,-1.4087318225037306
2024-09-23 01:55:58.281274,42.0,8.381263,-0.010915188675140628,0.018476656088406155,1.0117053499523165,0.27123832814879717,-1.216217962712422,-1.4087318225037306
2024-09-23 01:55:58.292886,42.0,8.381353,-0.010915188675140628,0.018476656088406155,1.0117053499523165,0.27123832814879717,-1.1068402347296475,-1.259991913703084
2024-09-23 01:55:58.377472,42.0,8.381353,-0.011342100107949322,0.01939133523558015,1.0117053499523165,0.27123832814879717,-1.1068402347296475,-1.259991913703084
2024-09-23 01:55:58.389929,42.0,8.381353,-0.011342100107949322,0.01939133523558015,1.0145103773453428,0.3324875378228724,-1.1330817241821438,-1.3693696416858583
2024-09-23 01:55:58.432672,42.0,8.381404,-0.012500713238536278,0.02164760496273682,1.011217527554791,0.2143435924112331,-1.1374934943549335,-1.3693696416858583
2024-09-23 01:55:58.476015,42.0,8.381455,-0.01219582044264106,0.02164760496273682,1.011217527554791,0.2143435924112331,-1.1374934943549335,-1.3649578715130686
2024-09-23 01:55:58.487129,42.0,8.381455,-0.01219582044264106,0.021952496999143704,1.0146933350480416,0.3411964856958948,-1.1374934943549335,-1.3649578715130686
2024-09-23 01:55:58.530038,42.0,8.381506,-0.01256167205101853,0.021281651582922046,1.0114003880429827,0.3411964856958948,-1.1418479549512268,-1.43932777255252
2024-09-23 01:55:58.573651,42.0,8.381506,-0.01256167205101853,0.021281651582922046,1.0114003880429827,0.4155664400962181,-1.1855647030871361,-1.3562488435987383
2024-09-23 01:55:58.585183,42.0,8.381557,-0.012866564846913748,0.02067186599113161,1.0114003880429827,0.4155664400962181,-1.1855647030871361,-1.3562488435987383
2024-09-23 01:55:58.629086,42.0,8.381648,-0.012012843752733671,0.02067186599113161,1.01231507934197,0.3411964856958948,-1.1199610328167677,-1.426207081187144
2024-09-23 01:55:58.671620,42.0,8.381648,-0.012012843752733671,0.01975718684395762,1.0109736163560281,0.27559278874509036,-1.1199610328167677,-1.426207081187144
2024-09-23 01:55:58.682682,42.0,8.381743,-0.012012843752733671,0.01975718684395762,1.0109736163560281,0.27559278874509036,-1.1418479549512268,-1.3824903330512346
2024-09-23 01:55:58.724834,42.0,8.381743,-0.010549337066763158,0.016342405757651293,1.0103028362558035,0.3630834878716618,-1.0674780539117754,-1.3343619214642792
2024-09-23 01:55:58.767814,42.17,8.381794,-0.01408613603049462,0.02201345505213762,1.0103028362558035,0.3630834878716618,-1.0674780539117754,-1.3343619214642792
2024-09-23 01:55:58.779935,42.17,8.381794,-0.01408613603049462,0.02201345505213762,1.015608026347029,0.3237212803733535,-1.1156065722204744,-1.3343619214642792
2024-09-23 01:55:58.822340,42.17,8.381845,-0.011342100107949322,0.020001120827370582,1.0118883076550156,0.41997821026900783,-1.1156065722204744,-1.404320052330941
2024-09-23 01:55:58.864759,42.17,8.381845,-0.011342100107949322,0.020001120827370582,1.0118883076550156,0.41997821026900783,-1.1812102424908428,-1.2774671723864972
2024-09-23 01:55:58.876425,42.17,8.381896,-0.011586034850850625,0.01811080599900536,1.0146322843374704,0.41997821026900783,-1.1812102424908428,-1.2774671723864972
2024-09-23 01:55:58.919345,42.17,8.381947,-0.011159123418041933,0.018964423802771455,1.0146322843374704,0.37184974532118065,-1.1855647030871361,-1.404320052330941
2024-09-23 01:55:58.961169,42.17,8.381947,-0.011159123418041933,0.018964423802771455,1.0149982969573756,0.3674952580444515,-1.1855647030871361,-1.404320052330941
2024-09-23 01:55:58.972496,42.17,8.381997,-0.017805912443621806,0.018964423802771455,1.0149982969573756,0.3674952580444515,-1.15932321363464,-1.3430708426568656
2024-09-23 01:55:59.014745,42.17,8.381997,-0.017805912443621806,0.019879204721382753,1.0143274196426437,0.3018342781975865,-1.1111946953259408,-1.3430708426568656
2024-09-23 01:55:59.026992,42.17,8.382084,-0.017805912443621806,0.019879204721382753,1.0143274196426437,0.3018342781975865,-1.1111946953259408,-1.3430708426568656
2024-09-23 01:55:59.059247,42.17,8.382084,-0.013842202047081654,0.02085484192155066,1.0143274196426437,0.3018342781975865,-1.1111946953259408,-1.3430708426568656
2024-09-23 01:55:59.070533,42.17,8.382084,-0.013842202047081654,0.02085484192155066,1.0146933350480416,0.35872900059493257,-1.2336931146740913,-1.4174980532728136
2024-09-23 01:55:59.112802,42.17,8.382136,-0.012439653414105056,0.020306014382754138,1.0131078636488298,0.3368419984191656,-1.2336931146740913,-1.4174980532728136
2024-09-23 01:55:59.124956,42.17,8.382136,-0.012439653414105056,0.020306014382754138,1.0131078636488298,0.3368419984191656,-1.1156065722204744,-1.4174980532728136
2024-09-23 01:55:59.157835,42.17,8.382187,-0.012744546969488612,0.020306014382754138,1.0131078636488298,0.3368419984191656,-1.1156065722204744,-1.3693696416858583
2024-09-23 01:55:59.168976,42.17,8.382187,-0.012744546969488612,0.018049744655597465,1.0120712653577144,0.3368419984191656,-1.1156065722204744,-1.3693696416858583
2024-09-23 01:55:59.211408,42.17,8.382238,-0.009146789193274898,0.023050050305299438,1.0092051872541172,0.3368419984191656,-1.0412365644592791,-1.3999655917346479
2024-09-23 01:55:59.254435,42.17,8.382238,-0.009146789193274898,0.023050050305299438,1.0092051872541172,0.31060053564710544,-1.0543573625463993,-1.3999655917346479
2024-09-23 01:55:59.265725,42.17,8.382288,-0.014208053655459124,0.020001120827370582,1.0092051872541172,0.31060053564710544,-1.0543573625463993,-1.491868061034009
2024-09-23 01:55:59.308736,42.17,8.382339,-0.010671253932239326,0.020001120827370582,1.0109736163560281,0.37620423259790986,-1.1549687530383468,-1.3562488435987383
2024-09-23 01:55:59.351735,42.17,8.382339,-0.010671253932239326,0.02164760496273682,1.0133517748475924,0.37620423259790986,-1.1549687530383468,-1.3562488435987383
2024-09-23 01:55:59.363550,42.17,8.382426,-0.010671253932239326,0.02164760496273682,1.0133517748475924,0.3062460483703762,-1.1462025222692638,-1.3780785628784449
2024-09-23 01:55:59.407347,42.17,8.382426,-0.012988480952901577,0.020366972435748053,1.0151811574455674,0.27994727602181957,-1.0674780539117754,-1.404320052330941
2024-09-23 01:55:59.450505,42.17,8.382477,-0.014391029585878175,0.020366972435748053,1.0151811574455674,0.27994727602181957,-1.0674780539117754,-1.404320052330941
2024-09-23 01:55:59.461567,42.17,8.382477,-0.014391029585878175,0.022684200215898644,1.0131688171448936,0.27994727602181957,-1.15932321363464,-1.404320052330941
2024-09-23 01:55:59.503945,42.17,8.382528,-0.011159123418041933,0.02048899031317319,1.0122541258459061,0.29747979092085736,-1.15932321363464,-1.4524485706396402
2024-09-23 01:55:59.546664,42.17,8.382528,-0.011159123418041933,0.02048899031317319,1.0122541258459061,0.29747979092085736,-1.216217962712422,-1.4174980532728136
2024-09-23 01:55:59.557834,42.17,8.382578,-0.010976248499571852,0.019330377182586234,1.0121322188537785,0.29747979092085736,-1.216217962712422,-1.4174980532728136
2024-09-23 01:55:59.601109,42.17,8.382629,-0.011281142054955407,0.019330377182586234,1.0121322188537785,0.2843590461946093,-1.0980740039605648,-1.4568603408124299
2024-09-23 01:55:59.613546,42.17,8.382629,-0.011281142054955407,0.018415698035412244,1.0121322188537785,0.2843590461946093,-1.0980740039605648,-1.4568603408124299
2024-09-23 01:55:59.646948,42.17,8.382629,-0.011281142054955407,0.018415698035412244,1.0162178529511898,0.3062460483703762,-1.207451731943339,-1.4568603408124299
2024-09-23 01:55:59.658321,42.17,8.38268,-0.012134760618209839,0.018415698035412244,1.0162178529511898,0.3062460483703762,-1.207451731943339,-1.509343212995678
2024-09-23 01:55:59.701224,42.17,8.382767,-0.012134760618209839,0.019879204721382753,1.0129859566567019,0.3324875378228724,-1.1068402347296475,-1.469981032177806
2024-09-23 01:55:59.744411,42.17,8.382767,-0.014634963569291141,0.018415698035412244,1.0120102146471432,0.3324875378228724,-1.1068402347296475,-1.469981032177806
2024-09-23 01:55:59.755674,42.17,8.382767,-0.014634963569291141,0.018415698035412244,1.0120102146471432,0.3193667930966243,-1.1812102424908428,-1.4787472629468887
2024-09-23 01:55:59.788553,42.3,8.382818,-0.014634963569291141,0.018415698035412244,1.0120102146471432,0.3193667930966243,-1.1812102424908428,-1.4787472629468887
2024-09-23 01:55:59.799861,42.3,8.382818,-0.014025177977500705,0.0187205915907958,1.007985631260303,0.3280757409696467,-1.1068402347296475,-1.4787472629468887
2024-09-23 01:55:59.842636,42.3,8.382869,-0.015061773230662524,0.019818144896951533,1.007985631260303,0.3280757409696467,-1.1068402347296475,-1.474335492774099
2024-09-23 01:55:59.853760,42.3,8.382869,-0.015061773230662524,0.019818144896951533,1.012742045457939,0.3674952580444515,-1.1068402347296475,-1.474335492774099
2024-09-23 01:55:59.886334,42.3,8.382869,-0.015061773230662524,0.019818144896951533,1.012742045457939,0.3674952580444515,-1.1330817241821438,-1.474335492774099
2024-09-23 01:55:59.897672,42.3,8.38292,-0.010976248499571852,0.019940162774376668,1.0104856967439952,0.3674952580444515,-1.1330817241821438,-1.474335492774099
2024-09-23 01:55:59.941447,42.3,8.38297,-0.012500713238536278,0.019940162774376668,1.0104856967439952,0.4549859571710229,-1.0674780539117754,-1.4655692620050162
2024-09-23 01:55:59.953121,42.3,8.38297,-0.012500713238536278,0.02067186599113161,1.0104856967439952,0.4549859571710229,-1.0674780539117754,-1.4655692620050162
2024-09-23 01:55:59.985178,42.3,8.38297,-0.012500713238536278,0.02067186599113161,1.0145713308414066,0.3018342781975865,-1.0674780539117754,-1.4655692620050162
2024-09-23 01:55:59.996810,42.3,8.383021,-0.015793578218854774,0.02067186599113161,1.0145713308414066,0.3018342781975865,-1.1987427040290088,-1.4568603408124299
2024-09-23 01:56:00.039993,42.3,8.383108,-0.015793578218854774,0.022501222766502915,1.0117664006628877,0.28871353347133843,-1.1899764732599258,-1.426207081187144
2024-09-23 01:56:00.083336,42.3,8.383108,-0.012012843752733671,0.01939133523558015,1.0117664006628877,0.28871353347133843,-1.1899764732599258,-1.426207081187144
2024-09-23 01:56:00.094702,42.3,8.383108,-0.012012843752733671,0.01939133523558015,1.0130469101527657,0.31060053564710544,-1.0587118231426924,-1.4655692620050162
2024-09-23 01:56:00.137993,42.3,8.383159,-0.011098165365048018,0.01890346574977754,1.0121931723498423,0.3324875378228724,-1.1637349838074296,-1.4655692620050162
2024-09-23 01:56:00.180235,42.3,8.38321,-0.011098165365048018,0.01890346574977754,1.0121931723498423,0.3324875378228724,-1.1637349838074296,-1.413086283100024
2024-09-23 01:56:00.191743,42.3,8.38321,-0.014939857124674697,0.02134260963591596,1.0140835084438808,0.38061600277069957,-1.1637349838074296,-1.413086283100024
2024-09-23 01:56:00.233622,42.3,8.383261,-0.011524974266931064,0.016708257366028764,1.0140835084438808,0.38061600277069957,-1.1418479549512268,-1.4568603408124299
2024-09-23 01:56:00.245764,42.3,8.383261,-0.011524974266931064,0.016708257366028764,1.015486022140394,0.38061600277069957,-1.1418479549512268,-1.4568603408124299
2024-09-23 01:56:00.277884,42.3,8.383261,-0.011524974266931064,0.016708257366028764,1.015486022140394,0.35872900059493257,-1.0980740039605648,-1.4568603408124299
2024-09-23 01:56:00.289279,42.3,8.383312,-0.011890927646745842,0.02018409827676631,1.015486022140394,0.35872900059493257,-1.0980740039605648,-1.4655692620050162
2024-09-23 01:56:00.331682,42.3,8.383312,-0.011890927646745842,0.02018409827676631,1.015546975636458,0.39373674749694765,-1.0980740039605648,-1.4655692620050162
2024-09-23 01:56:00.374804,42.3,8.383312,-0.011890927646745842,0.02018409827676631,1.015546975636458,0.39373674749694765,-0.993108152872324,-1.4655692620050162
2024-09-23 01:56:00.386807,42.3,8.383362,-0.01445198763887209,0.021098777423940302,1.012925003160638,0.39373674749694765,-0.993108152872324,-1.3518370734259486
2024-09-23 01:56:00.429445,42.3,8.383449,-0.011220081471035847,0.021098777423940302,1.012925003160638,0.3018342781975865,-1.1812102424908428,-1.4655692620050162
2024-09-23 01:56:00.441219,42.3,8.383449,-0.011220081471035847,0.02311100987727003,1.012925003160638,0.3018342781975865,-1.1812102424908428,-1.4655692620050162
2024-09-23 01:56:00.472806,42.3,8.383449,-0.011220081471035847,0.02311100987727003,1.0103028362558035,0.29306802074806765,-1.1812102424908428,-1.4655692620050162
2024-09-23 01:56:00.484662,42.3,8.383501,-0.011524974266931064,0.02311100987727003,1.0103028362558035,0.29306802074806765,-1.0849533125951887,-1.448094003321603
2024-09-23 01:56:00.528771,42.3,8.383551,-0.011524974266931064,0.019818144896951533,1.0124370835486052,0.3411964856958948,-1.1724439050000162,-1.461214801408723
2024-09-23 01:56:00.571752,42.3,8.383551,-0.016525279916633037,0.02122069352992813,1.0163397599433175,0.3411964856958948,-1.1724439050000162,-1.461214801408723
2024-09-23 01:56:00.583464,42.3,8.383551,-0.016525279916633037,0.02122069352992813,1.0163397599433175,0.29306802074806765,-1.1287272635858505,-1.3911993609655648
2024-09-23 01:56:00.625966,42.3,8.383645,-0.011159123418041933,0.019025483627202678,1.0120102146471432,0.3062460483703762,-1.1855647030871361,-1.3911993609655648
2024-09-23 01:56:00.669386,42.3,8.383696,-0.01182986782231462,0.019025483627202678,1.0120102146471432,0.3062460483703762,-1.1855647030871361,-1.4437395427253097
2024-09-23 01:56:00.680998,42.3,8.383696,-0.01182986782231462,0.02018409827676631,1.012498037044669,0.3456082558686845,-1.1855647030871361,-1.4437395427253097
2024-09-23 01:56:00.723732,42.3,8.383747,-0.01182986782231462,0.02018409827676631,1.012498037044669,0.3456082558686845,-1.1899764732599258,-1.434973311956227
2024-09-23 01:56:00.765441,42.3,8.383747,-0.012317737308117227,0.019696228790963704,1.012498037044669,0.3456082558686845,-1.1899764732599258,-1.434973311956227
2024-09-23 01:56:00.777372,42.3,8.383747,-0.012317737308117227,0.019696228790963704,1.0146933350480416,0.3630834878716618,-1.216217962712422,-1.404320052330941
2024-09-23 01:56:00.820153,42.35,8.383798,-0.012317737308117227,0.021952496999143704,1.0139006479556893,0.4287444677185267,-1.216217962712422,-1.404320052330941
2024-09-23 01:56:00.831915,42.35,8.383798,-0.012317737308117227,0.021952496999143704,1.0139006479556893,0.4287444677185267,-1.1330817241821438,-1.404320052330941
2024-09-23 01:56:00.864508,42.35,8.383848,-0.011951885699739756,0.021952496999143704,1.0139006479556893,0.4287444677185267,-1.1330817241821438,-1.3868447936475277
2024-09-23 01:56:00.875690,42.35,8.383848,-0.011951885699739756,0.020427930488741967,1.0122541258459061,0.3018342781975865,-1.1330817241821438,-1.3868447936475277
2024-09-23 01:56:00.919114,42.35,8.383937,-0.015488684663471218,0.022196330730096036,1.0114614387535539,0.3018342781975865,-1.0630662837389857,-1.4655692620050162
2024-09-23 01:56:00.961829,42.35,8.383937,-0.015488684663471218,0.022196330730096036,1.0114614387535539,0.35872900059493257,-1.1637349838074296,-1.4218526205908506
2024-09-23 01:56:00.972984,42.35,8.383988,-0.01268358815700636,0.017805912443621806,1.0114614387535539,0.35872900059493257,-1.1637349838074296,-1.4218526205908506
2024-09-23 01:56:01.016599,42.35,8.384038,-0.015915494324842603,0.017805912443621806,1.013778546534547,0.37184974532118065,-1.1899764732599258,-1.5355847024481744
2024-09-23 01:56:01.061829,42.35,8.384038,-0.015915494324842603,0.02262324216290473,1.0140835084438808,0.2581175834225491,-1.0718325145080685,-1.5355847024481744
2024-09-23 01:56:01.073273,42.35,8.384132,-0.015915494324842603,0.02262324216290473,1.0140835084438808,0.2581175834225491,-1.0718325145080685,-1.3343619214642792
2024-09-23 01:56:01.104776,42.35,8.384132,-0.012744546969488612,0.02262324216290473,1.0140835084438808,0.2581175834225491,-1.0718325145080685,-1.3343619214642792
2024-09-23 01:56:01.115959,42.35,8.384132,-0.012744546969488612,0.02018409827676631,1.0129859566567019,0.3630834878716618,-1.1462025222692638,-1.3911993609655648
2024-09-23 01:56:01.157924,42.35,8.384183,-0.012988480952901577,0.022196330730096036,1.0133517748475924,0.3630834878716618,-1.1462025222692638,-1.3911993609655648
2024-09-23 01:56:01.169039,42.35,8.384183,-0.012988480952901577,0.022196330730096036,1.0133517748475924,0.2581175834225491,-1.2731127117902041,-1.3911993609655648
2024-09-23 01:56:01.211408,42.35,8.384234,-0.012500713238536278,0.02176952106872465,1.0139006479556893,0.3674952580444515,-1.2731127117902041,-1.3606034109167755
2024-09-23 01:56:01.253225,42.35,8.384234,-0.012500713238536278,0.02176952106872465,1.0139006479556893,0.3674952580444515,-1.1111946953259408,-1.4306188513599336
2024-09-23 01:56:01.265274,42.35,8.384285,-0.012378695361111141,0.020793883868556746,1.0140835084438808,0.3674952580444515,-1.1111946953259408,-1.4306188513599336
2024-09-23 01:56:01.308089,42.35,8.384335,-0.012256778495634975,0.019025483627202678,1.0140835084438808,0.3630834878716618,-1.0105833048339934,-1.404320052330941
2024-09-23 01:56:01.350471,42.35,8.384335,-0.012256778495634975,0.019025483627202678,1.0138396944596255,0.4155664400962181,-1.0105833048339934,-1.404320052330941
2024-09-23 01:56:01.361586,42.35,8.384386,-0.014634963569291141,0.019025483627202678,1.0138396944596255,0.4155664400962181,-1.0543573625463993,-1.3518370734259486
2024-09-23 01:56:01.405026,42.35,8.384386,-0.014634963569291141,0.018964423802771455,1.01426646614658,0.31060053564710544,-1.1680894444037229,-1.4306188513599336
2024-09-23 01:56:01.417144,42.35,8.384473,-0.014634963569291141,0.018964423802771455,1.01426646614658,0.31060053564710544,-1.1680894444037229,-1.4306188513599336
2024-09-23 01:56:01.449601,42.35,8.384473,-0.014939857124674697,0.02067186599113161,1.0125589905407328,0.31060053564710544,-1.1680894444037229,-1.4306188513599336
2024-09-23 01:56:01.461171,42.35,8.384473,-0.014939857124674697,0.02067186599113161,1.0125589905407328,0.28871353347133843,-1.0805987452771515,-1.4524485706396402
2024-09-23 01:56:01.503793,42.35,8.384524,-0.010000509527966639,0.018049744655597465,1.0143883731387076,0.18374762902222574,-1.1680894444037229,-1.4524485706396402
2024-09-23 01:56:01.547393,42.35,8.384575,-0.01573262016586086,0.018049744655597465,1.0143883731387076,0.18374762902222574,-1.1680894444037229,-1.504988752399385
2024-09-23 01:56:01.559672,42.35,8.384575,-0.01573262016586086,0.021281651582922046,1.01737645544894,0.223109849860752,-1.1680894444037229,-1.504988752399385
2024-09-23 01:56:01.592076,42.35,8.384575,-0.01573262016586086,0.021281651582922046,1.01737645544894,0.223109849860752,-1.1330817241821438,-1.504988752399385
2024-09-23 01:56:01.603528,42.35,8.384626,-0.011403058160943235,0.02048899031317319,1.0093881449568163,0.223109849860752,-1.1330817241821438,-1.3999655917346479
2024-09-23 01:56:01.645939,42.35,8.384677,-0.011403058160943235,0.02048899031317319,1.0093881449568163,0.3324875378228724,-1.1068402347296475,-1.404320052330941
2024-09-23 01:56:01.657155,42.35,8.384677,-0.016830173472016593,0.020610907938137694,1.0093881449568163,0.3324875378228724,-1.1068402347296475,-1.404320052330941
2024-09-23 01:56:01.689322,42.35,8.384677,-0.016830173472016593,0.020610907938137694,1.0153031616522024,0.3324875378228724,-1.1068402347296475,-1.404320052330941
2024-09-23 01:56:01.700993,42.35,8.384727,-0.01341539238571027,0.020610907938137694,1.0153031616522024,0.24499683869630098,-1.0674780539117754,-1.3037086618389935
2024-09-23 01:56:01.744071,42.35,8.384727,-0.01341539238571027,0.017805912443621806,1.0124370835486052,0.27123832814879717,-1.1855647030871361,-1.3037086618389935
2024-09-23 01:56:01.755462,42.35,8.384814,-0.01341539238571027,0.017805912443621806,1.0124370835486052,0.27123832814879717,-1.1855647030871361,-1.4306188513599336
2024-09-23 01:56:01.787113,42.35,8.384814,-0.010549337066763158,0.017805912443621806,1.0124370835486052,0.27123832814879717,-1.1855647030871361,-1.4306188513599336
2024-09-23 01:56:01.799100,42.35,8.384814,-0.010549337066763158,0.02201345505213762,1.0122541258459061,0.3543172304221429,-1.1899764732599258,-1.4087318225037306
2024-09-23 01:56:01.842365,42.53,8.384866,-0.013537308491698099,0.022562284109910815,1.0131078636488298,0.3193667930966243,-1.1899764732599258,-1.4087318225037306
2024-09-23 01:56:01.854042,42.53,8.384866,-0.013537308491698099,0.022562284109910815,1.0131078636488298,0.3193667930966243,-1.15932321363464,-1.4087318225037306
2024-09-23 01:56:01.886231,42.53,8.384916,-0.013537308491698099,0.022562284109910815,1.0131078636488298,0.3193667930966243,-1.15932321363464,-1.4524485706396402
2024-09-23 01:56:01.897908,42.53,8.384916,-0.012988480952901577,0.018293680157987106,1.0124370835486052,0.27559278874509036,-1.15932321363464,-1.4524485706396402
2024-09-23 01:56:01.941232,42.53,8.384967,-0.011098165365048018,0.01768389456619667,1.0121322188537785,0.27559278874509036,-1.1637349838074296,-1.3956111311383546
2024-09-23 01:56:01.984231,42.53,8.384967,-0.011098165365048018,0.01768389456619667,1.0121322188537785,0.3368419984191656,-1.238104991568625,-1.3956111311383546
2024-09-23 01:56:01.995311,42.53,8.385018,-0.012805606793919833,0.022867176146317694,1.0121322188537785,0.3368419984191656,-1.238104991568625,-1.5574717313043773
2024-09-23 01:56:02.037207,42.53,8.385069,-0.012805606793919833,0.022867176146317694,1.0149982969573756,0.41121195281948897,-1.1243154934130608,-1.5443510399390012
2024-09-23 01:56:02.049168,42.53,8.385069,-0.012378695361111141,0.022867176146317694,1.0149982969573756,0.41121195281948897,-1.1243154934130608,-1.5443510399390012
2024-09-23 01:56:02.081765,42.53,8.385069,-0.012378695361111141,0.019574312684975875,1.0125589905407328,0.41121195281948897,-1.1243154934130608,-1.5443510399390012
2024-09-23 01:56:02.093111,42.53,8.385156,-0.012378695361111141,0.019574312684975875,1.0125589905407328,0.3630834878716618,-1.1374934943549335,-1.5136977803137153
2024-09-23 01:56:02.135805,42.53,8.385156,-0.010732313756670548,0.020062078880364497,1.01231507934197,0.41997821026900783,-1.0849533125951887,-1.5136977803137153
2024-09-23 01:56:02.147776,42.53,8.385156,-0.010732313756670548,0.020062078880364497,1.01231507934197,0.41997821026900783,-1.0849533125951887,-1.4787472629468887
2024-09-23 01:56:02.182311,42.53,8.385207,-0.011098165365048018,0.02018409827676631,1.01231507934197,0.41997821026900783,-1.0849533125951887,-1.4787472629468887
2024-09-23 01:56:02.193780,42.53,8.385207,-0.011098165365048018,0.02018409827676631,1.0101808320491685,0.4155664400962181,-1.1199610328167677,-1.4787472629468887
2024-09-23 01:56:02.225910,42.53,8.385207,-0.011098165365048018,0.02018409827676631,1.0101808320491685,0.4155664400962181,-1.1199610328167677,-1.4874562908612192
2024-09-23 01:56:02.236888,42.53,8.385258,-0.012012843752733671,0.016891131525010507,1.014022554947817,0.3324875378228724,-1.1199610328167677,-1.4874562908612192
2024-09-23 01:56:02.279406,42.53,8.385308,-0.011524974266931064,0.016891131525010507,1.014022554947817,0.3324875378228724,-1.1330817241821438,-1.3999655917346479
2024-09-23 01:56:02.290895,42.53,8.385308,-0.011524974266931064,0.021037716080532405,1.0135956860463553,0.3324875378228724,-1.1330817241821438,-1.3999655917346479
2024-09-23 01:56:02.324471,42.53,8.385308,-0.011524974266931064,0.021037716080532405,1.0135956860463553,0.37184974532118065,-1.1330817241821438,-1.3999655917346479
2024-09-23 01:56:02.336390,42.53,8.385359,-0.01365932788809991,0.02067186599113161,1.0135956860463553,0.37184974532118065,-1.0937195433642715,-1.469981032177806
2024-09-23 01:56:02.379305,42.53,8.38541,-0.01365932788809991,0.02067186599113161,1.014144559154452,0.42433269754573705,-1.1855647030871361,-1.4437395427253097
2024-09-23 01:56:02.391317,42.53,8.38541,-0.011342100107949322,0.02067186599113161,1.014144559154452,0.42433269754573705,-1.1855647030871361,-1.4437395427253097
2024-09-23 01:56:02.475480,42.53,8.38541,-0.011342100107949322,0.02280611632188647,1.0128639524500669,0.29306802074806765,-1.0980740039605648,-1.4437395427253097
2024-09-23 01:56:02.486696,42.53,8.385497,-0.011342100107949322,0.02280611632188647,1.0128639524500669,0.29306802074806765,-1.0980740039605648,-1.4174980532728136
2024-09-23 01:56:02.519595,42.53,8.385497,-0.011403058160943235,0.02280611632188647,1.0128639524500669,0.29306802074806765,-1.0980740039605648,-1.4174980532728136
2024-09-23 01:56:02.531630,42.53,8.385497,-0.011403058160943235,0.020610907938137694,1.0131688171448936,0.27559278874509036,-1.1024857741333545,-1.4218526205908506
2024-09-23 01:56:02.575640,42.53,8.385548,-0.013903160100075569,0.02176952106872465,1.0161568022406187,0.2537058132497594,-1.1024857741333545,-1.4218526205908506
2024-09-23 01:56:02.586993,42.53,8.385548,-0.013903160100075569,0.02176952106872465,1.0161568022406187,0.2537058132497594,-1.0587118231426924,-1.4218526205908506
2024-09-23 01:56:02.619556,42.53,8.385599,-0.011220081471035847,0.02176952106872465,1.0161568022406187,0.2537058132497594,-1.0587118231426924,-1.4437395427253097
2024-09-23 01:56:02.631236,42.53,8.385599,-0.011220081471035847,0.022318348607521174,1.0115833457456815,0.39373674749694765,-1.0587118231426924,-1.4437395427253097
2024-09-23 01:56:02.674896,42.53,8.38565,-0.015000815177668611,0.02085484192155066,1.0163397599433175,0.39373674749694765,-1.1899764732599258,-1.483101830264926
2024-09-23 01:56:02.718494,42.53,8.38565,-0.015000815177668611,0.02085484192155066,1.0163397599433175,0.2668265312955715,-1.1506142924420535,-1.4087318225037306
2024-09-23 01:56:02.730706,42.53,8.385743,-0.015793578218854774,0.0187205915907958,1.0163397599433175,0.2668265312955715,-1.1506142924420535,-1.4087318225037306
2024-09-23 01:56:02.762463,42.53,8.385743,-0.015793578218854774,0.0187205915907958,1.0115833457456815,0.2668265312955715,-1.1506142924420535,-1.4087318225037306
2024-09-23 01:56:02.773905,42.53,8.385793,-0.012073802565215924,0.0187205915907958,1.0115833457456815,0.40244569536997005,-1.028115873093903,-1.2818216329827905
2024-09-23 01:56:02.816093,42.53,8.385793,-0.012073802565215924,0.02274515826889256,1.0093881449568163,0.29306802074806765,-1.1768557818945498,-1.2818216329827905
2024-09-23 01:56:02.827659,42.53,8.385887,-0.012073802565215924,0.02274515826889256,1.0093881449568163,0.29306802074806765,-1.1768557818945498,-1.404320052330941
2024-09-23 01:56:02.859352,42.8,8.385887,-0.014695923141261731,0.02274515826889256,1.0093881449568163,0.29306802074806765,-1.1768557818945498,-1.404320052330941
2024-09-23 01:56:02.871039,42.8,8.385887,-0.014695923141261731,0.019696228790963704,1.0143274196426437,0.29747979092085736,-1.0937195433642715,-1.4218526205908506
2024-09-23 01:56:02.914211,42.8,8.385938,-0.014574005516297226,0.019818144896951533,1.0117664006628877,0.29747979092085736,-1.0937195433642715,-1.4218526205908506
2024-09-23 01:56:02.925243,42.8,8.385938,-0.014574005516297226,0.019818144896951533,1.0117664006628877,0.3018342781975865,-1.1680894444037229,-1.4218526205908506
2024-09-23 01:56:02.956943,42.8,8.385938,-0.014574005516297226,0.019818144896951533,1.0117664006628877,0.3018342781975865,-1.1680894444037229,-1.3999655917346479
2024-09-23 01:56:02.968390,42.8,8.385989,-0.011586034850850625,0.022196330730096036,1.0139616014517532,0.3456082558686845,-1.1680894444037229,-1.3999655917346479
2024-09-23 01:56:03.011403,42.8,8.38604,-0.012256778495634975,0.022196330730096036,1.0139616014517532,0.3456082558686845,-1.0674780539117754,-1.4306188513599336
2024-09-23 01:56:03.022902,42.8,8.38604,-0.012256778495634975,0.0187205915907958,1.0136566395424191,0.3456082558686845,-1.0674780539117754,-1.4306188513599336
2024-09-23 01:56:03.055953,42.8,8.38604,-0.012256778495634975,0.0187205915907958,1.0136566395424191,0.27559278874509036,-1.1855647030871361,-1.4306188513599336
2024-09-23 01:56:03.068494,42.8,8.38609,-0.012378695361111141,0.019940162774376668,1.0136566395424191,0.27559278874509036,-1.1855647030871361,-1.3562488435987383
2024-09-23 01:56:03.111301,42.8,8.386141,-0.012805606793919833,0.019940162774376668,1.0151202039495033,0.3368419984191656,-1.1243154934130608,-1.404320052330941
2024-09-23 01:56:03.154945,42.8,8.386141,-0.012805606793919833,0.02134260963591596,1.0128639524500669,0.3368419984191656,-1.1243154934130608,-1.404320052330941
2024-09-23 01:56:03.166090,42.8,8.386228,-0.012805606793919833,0.02134260963591596,1.0128639524500669,0.2537058132497594,-1.0630662837389857,-1.3999655917346479
2024-09-23 01:56:03.249353,42.8,8.386228,-0.013171458402297304,0.02134260963591596,1.0128639524500669,0.2537058132497594,-1.0630662837389857,-1.3999655917346479
2024-09-23 01:56:03.260545,42.8,8.386228,-0.013171458402297304,0.021952496999143704,1.0128639524500669,0.3543172304221429,-1.1418479549512268,-1.404320052330941
2024-09-23 01:56:03.303712,42.8,8.386279,-0.013354434332716355,0.020732824044125523,1.0145103773453428,0.3543172304221429,-1.1418479549512268,-1.404320052330941
2024-09-23 01:56:03.315564,42.8,8.386279,-0.013354434332716355,0.020732824044125523,1.0145103773453428,0.3630834878716618,-1.1024857741333545,-1.404320052330941
2024-09-23 01:56:03.348611,42.8,8.38633,-0.013354434332716355,0.020732824044125523,1.0145103773453428,0.3630834878716618,-1.1024857741333545,-1.4437395427253097
2024-09-23 01:56:03.360496,42.8,8.38633,-0.013476350438704184,0.019574312684975875,1.01231507934197,0.3193667930966243,-1.1024857741333545,-1.4437395427253097
2024-09-23 01:56:03.402440,42.8,8.386381,-0.011220081471035847,0.018476656088406155,1.01231507934197,0.3193667930966243,-1.1855647030871361,-1.426207081187144
2024-09-23 01:56:03.414400,42.8,8.386381,-0.011220081471035847,0.018476656088406155,1.0139006479556893,0.3193667930966243,-1.1855647030871361,-1.426207081187144
2024-09-23 01:56:03.498825,42.8,8.386432,-0.011220081471035847,0.018476656088406155,1.0139006479556893,0.3456082558686845,-1.1418479549512268,-1.3518370734259486
2024-09-23 01:56:03.510727,42.8,8.386432,-0.014634963569291141,0.020245056329760223,1.0139006479556893,0.3456082558686845,-1.1418479549512268,-1.3518370734259486
2024-09-23 01:56:03.544768,42.8,8.386432,-0.014634963569291141,0.020245056329760223,1.012925003160638,0.3411964856958948,-1.1418479549512268,-1.3518370734259486
2024-09-23 01:56:03.556685,42.8,8.386523,-0.011037206552565765,0.020245056329760223,1.012925003160638,0.3411964856958948,-1.1199610328167677,-1.461214801408723
2024-09-23 01:56:03.598784,42.8,8.386523,-0.011037206552565765,0.01914740125216718,1.0114003880429827,0.3543172304221429,-1.1506142924420535,-1.2643463742993772
2024-09-23 01:56:03.610493,42.8,8.386618,-0.011037206552565765,0.01914740125216718,1.0114003880429827,0.3543172304221429,-1.1506142924420535,-1.2643463742993772
2024-09-23 01:56:03.643200,42.8,8.386618,-0.011951885699739756,0.01939133523558015,1.0139006479556893,0.3543172304221429,-1.1506142924420535,-1.2643463742993772
2024-09-23 01:56:03.654874,42.8,8.386618,-0.011951885699739756,0.01939133523558015,1.0139006479556893,0.31060053564710544,-1.1943309338562191,-1.3868447936475277
2024-09-23 01:56:03.697568,42.8,8.386669,-0.014025177977500705,0.019696228790963704,1.012925003160638,0.3237212803733535,-1.1549687530383468,-1.3868447936475277
2024-09-23 01:56:03.740185,42.8,8.386765,-0.014147094083488534,0.019696228790963704,1.012925003160638,0.3237212803733535,-1.1549687530383468,-1.3430708426568656
2024-09-23 01:56:03.751470,42.8,8.386765,-0.014147094083488534,0.023050050305299438,1.0129859566567019,0.3324875378228724,-1.1549687530383468,-1.3430708426568656
2024-09-23 01:56:03.795088,42.8,8.386816,-0.008049235127630826,0.01939133523558015,1.0148152420401695,0.3324875378228724,-1.1549687530383468,-1.3430708426568656
2024-09-23 01:56:03.837605,42.8,8.386816,-0.008049235127630826,0.01939133523558015,1.0148152420401695,0.38061600277069957,-1.1156065722204744,-1.491868061034009
2024-09-23 01:56:03.849366,42.8,8.386867,-0.014512945691866003,0.02067186599113161,1.0148152420401695,0.38061600277069957,-1.1156065722204744,-1.491868061034009
2024-09-23 01:56:03.891306,42.78,8.386918,-0.01433007153288426,0.02067186599113161,1.0152421109416312,0.40685746554275976,-1.2205724233087152,-1.2993542012427002
2024-09-23 01:56:03.935144,42.78,8.386918,-0.01433007153288426,0.02122069352992813,1.01231507934197,0.29306802074806765,-1.2205724233087152,-1.2993542012427002
2024-09-23 01:56:03.987994,42.78,8.387008,-0.01182986782231462,0.016342405757651293,1.01231507934197,0.29306802074806765,-1.1462025222692638,-1.5005769822265953
2024-09-23 01:56:03.999481,42.78,8.387008,-0.01182986782231462,0.016342405757651293,1.0114614387535539,0.29306802074806765,-1.1462025222692638,-1.5005769822265953
2024-09-23 01:56:04.032255,42.78,8.387008,-0.01182986782231462,0.016342405757651293,1.0114614387535539,0.3499627431454137,-1.0937195433642715,-1.5005769822265953
2024-09-23 01:56:04.044061,42.78,8.387059,-0.012073802565215924,0.020427930488741967,1.0114614387535539,0.3499627431454137,-1.0937195433642715,-1.474335492774099
2024-09-23 01:56:04.087335,42.78,8.38711,-0.015671560341429636,0.020427930488741967,1.0123761300525411,0.29306802074806765,-1.1680894444037229,-1.461214801408723
2024-09-23 01:56:04.129911,42.78,8.38711,-0.015671560341429636,0.022440264713509,1.0118883076550156,0.29306802074806765,-1.1680894444037229,-1.461214801408723
2024-09-23 01:56:04.183277,42.78,8.387161,-0.013842202047081654,0.022440264713509,1.0118883076550156,0.38061600277069957,-1.1987427040290088,-1.3649578715130686
2024-09-23 01:56:04.195136,42.78,8.387161,-0.013842202047081654,0.019696228790963704,1.0118883076550156,0.38061600277069957,-1.1987427040290088,-1.3649578715130686
2024-09-23 01:56:04.227394,42.78,8.387161,-0.013842202047081654,0.019696228790963704,1.0146322843374704,0.3456082558686845,-1.1987427040290088,-1.3649578715130686
2024-09-23 01:56:04.238555,42.78,8.387252,-0.013537308491698099,0.019696228790963704,1.0146322843374704,0.3456082558686845,-1.216217962712422,-1.3780785628784449
2024-09-23 01:56:04.282430,42.78,8.387304,-0.013537308491698099,0.022867176146317694,1.0138396944596255,0.29306802074806765,-1.1024857741333545,-1.4218526205908506
2024-09-23 01:56:04.324684,42.78,8.387304,-0.013598266544692013,0.020549948366167105,1.0138396944596255,0.29306802074806765,-1.1024857741333545,-1.4218526205908506
2024-09-23 01:56:04.335900,42.78,8.387304,-0.013598266544692013,0.020549948366167105,1.0112784810508548,0.3324875378228724,-1.1068402347296475,-1.4218526205908506
2024-09-23 01:56:04.378312,42.78,8.387354,-0.012744546969488612,0.01890346574977754,1.0167666288447792,0.3324875378228724,-1.1068402347296475,-1.4218526205908506
2024-09-23 01:56:04.391547,42.78,8.387354,-0.012744546969488612,0.01890346574977754,1.0167666288447792,0.27559278874509036,-1.0937195433642715,-1.4218526205908506
2024-09-23 01:56:04.423380,42.78,8.387448,-0.013903160100075569,0.01890346574977754,1.0167666288447792,0.27559278874509036,-1.0937195433642715,-1.3299501512914895
2024-09-23 01:56:04.434832,42.78,8.387448,-0.013903160100075569,0.018049744655597465,1.0137175930384832,0.2362305812467821,-1.0937195433642715,-1.3299501512914895
2024-09-23 01:56:04.519114,42.78,8.387448,-0.013903160100075569,0.018049744655597465,1.0137175930384832,0.2362305812467821,-1.1068402347296475,-1.3299501512914895
2024-09-23 01:56:04.531488,42.78,8.387499,-0.013049540777332799,0.021159735476934217,1.012925003160638,0.2362305812467821,-1.1068402347296475,-1.3956111311383546
2024-09-23 01:56:04.576031,42.78,8.38755,-0.015000815177668611,0.01963527073796979,1.012925003160638,0.35872900059493257,-1.0805987452771515,-1.3606034109167755
2024-09-23 01:56:04.619112,42.78,8.38755,-0.015000815177668611,0.01963527073796979,1.011095523348156,0.3193667930966243,-1.1024857741333545,-1.3606034109167755
2024-09-23 01:56:04.630197,42.78,8.3876,-0.008963914274804818,0.01963527073796979,1.011095523348156,0.3193667930966243,-1.1024857741333545,-1.4655692620050162
2024-09-23 01:56:04.664530,42.78,8.3876,-0.008963914274804818,0.021464627513341095,1.011095523348156,0.3193667930966243,-1.1024857741333545,-1.4655692620050162
2024-09-23 01:56:04.676320,42.78,8.38769,-0.008963914274804818,0.021464627513341095,1.009510051948944,0.3849704900474288,-1.2205724233087152,-1.4087318225037306
2024-09-23 01:56:04.718439,42.78,8.38769,-0.012988480952901577,0.02365983741606655,1.0120712653577144,0.2362305812467821,-1.2205724233087152,-1.4087318225037306
2024-09-23 01:56:04.730185,42.78,8.38769,-0.012988480952901577,0.02365983741606655,1.0120712653577144,0.2362305812467821,-1.1462025222692638,-1.3999655917346479
2024-09-23 01:56:04.762468,42.78,8.387789,-0.014025177977500705,0.02365983741606655,1.0120712653577144,0.2362305812467821,-1.1462025222692638,-1.3999655917346479
2024-09-23 01:56:04.774210,42.78,8.387789,-0.014025177977500705,0.020366972435748053,1.0118883076550156,0.27559278874509036,-1.1637349838074296,-1.3999655917346479
2024-09-23 01:56:04.817381,42.78,8.38784,-0.009756574785065334,0.018598572194393984,1.0111565740587272,0.3237212803733535,-1.1637349838074296,-1.4874562908612192
2024-09-23 01:56:04.860426,42.78,8.38784,-0.009756574785065334,0.018598572194393984,1.0111565740587272,0.3237212803733535,-1.1637349838074296,-1.483101830264926
2024-09-23 01:56:04.872148,42.78,8.387891,-0.014695923141261731,0.018964423802771455,1.0121931723498423,0.3237212803733535,-1.1637349838074296,-1.483101830264926
2024-09-23 01:56:04.915372,42.57,8.387941,-0.014391029585878175,0.020427930488741967,1.0121931723498423,0.2843590461946093,-1.0893650827679784,-1.448094003321603
2024-09-23 01:56:04.957374,42.57,8.387941,-0.014391029585878175,0.020427930488741967,1.0151811574455674,0.28871353347133843,-1.0893650827679784,-1.448094003321603
2024-09-23 01:56:04.969066,42.57,8.387992,-0.01408613603049462,0.020427930488741967,1.0151811574455674,0.28871353347133843,-1.1068402347296475,-1.434973311956227
2024-09-23 01:56:05.012363,42.57,8.388081,-0.01408613603049462,0.020610907938137694,1.0160348952484908,0.28871353347133843,-1.1462025222692638,-1.3737241022821516
2024-09-23 01:56:05.055042,42.57,8.388081,-0.014147094083488534,0.017622936513202757,1.0160348952484908,0.28871353347133843,-1.1462025222692638,-1.3737241022821516
2024-09-23 01:56:05.066436,42.57,8.388081,-0.014147094083488534,0.017622936513202757,1.012742045457939,0.35872900059493257,-1.0718325145080685,-1.469981032177806
2024-09-23 01:56:05.108844,42.57,8.388132,-0.010488379013769245,0.020610907938137694,1.0149372462468045,0.3149550229238346,-1.0718325145080685,-1.469981032177806
2024-09-23 01:56:05.120851,42.57,8.388132,-0.010488379013769245,0.020610907938137694,1.0149372462468045,0.3149550229238346,-1.0805987452771515,-1.469981032177806
2024-09-23 01:56:05.153311,42.57,8.388183,-0.010488379013769245,0.020610907938137694,1.0149372462468045,0.3149550229238346,-1.0805987452771515,-1.43932777255252
2024-09-23 01:56:05.165330,42.57,8.388183,-0.010976248499571852,0.02122069352992813,1.012620041251304,0.38061600277069957,-1.0805987452771515,-1.43932777255252
2024-09-23 01:56:05.208572,42.57,8.388233,-0.01341539238571027,0.016342405757651293,1.0076198130694125,0.38061600277069957,-1.1111946953259408,-1.469981032177806
2024-09-23 01:56:05.252233,42.57,8.388233,-0.01341539238571027,0.016342405757651293,1.0076198130694125,0.3018342781975865,-1.0849533125951887,-1.4306188513599336
2024-09-23 01:56:05.263801,42.57,8.388284,-0.014025177977500705,0.01926931735815501,1.0076198130694125,0.3018342781975865,-1.0849533125951887,-1.4306188513599336
2024-09-23 01:56:05.306115,42.57,8.388335,-0.013049540777332799,0.01926931735815501,1.0153641151482662,0.3062460483703762,-1.0674780539117754,-1.3649578715130686
2024-09-23 01:56:05.348172,42.57,8.388335,-0.013049540777332799,0.019086441680196593,1.012802998954003,0.3062460483703762,-1.0674780539117754,-1.3649578715130686
2024-09-23 01:56:05.359358,42.57,8.388422,-0.013049540777332799,0.019086441680196593,1.012802998954003,0.3018342781975865,-1.1330817241821438,-1.43932777255252
2024-09-23 01:56:05.403070,42.57,8.388422,-0.01408613603049462,0.02134260963591596,1.0130469101527657,0.3324875378228724,-1.1287272635858505,-1.43932777255252
2024-09-23 01:56:05.414552,42.57,8.388422,-0.01408613603049462,0.02134260963591596,1.0130469101527657,0.3324875378228724,-1.1287272635858505,-1.4174980532728136
2024-09-23 01:56:05.447035,42.57,8.388473,-0.010976248499571852,0.02152558556633501,1.0130469101527657,0.3324875378228724,-1.1287272635858505,-1.4174980532728136
2024-09-23 01:56:05.458633,42.57,8.388473,-0.010976248499571852,0.02152558556633501,1.0115833457456815,0.3499627431454137,-1.1462025222692638,-1.4174980532728136
2024-09-23 01:56:05.501359,42.57,8.388524,-0.014939857124674697,0.021098777423940302,1.0125589905407328,0.3149550229238346,-1.1462025222692638,-1.3824903330512346
2024-09-23 01:56:05.545099,42.57,8.388575,-0.014939857124674697,0.021098777423940302,1.0125589905407328,0.3149550229238346,-1.2293386540777982,-1.3606034109167755
2024-09-23 01:56:05.556783,42.57,8.388575,-0.011890927646745842,0.021708563015730736,1.0170715907541132,0.3149550229238346,-1.2293386540777982,-1.3606034109167755
2024-09-23 01:56:05.599866,42.57,8.388625,-0.01182986782231462,0.021586543619328925,1.0170715907541132,0.35872900059493257,-1.0674780539117754,-1.216217962712422
2024-09-23 01:56:05.642063,42.57,8.388625,-0.01182986782231462,0.021586543619328925,1.009510051948944,0.3062460483703762,-1.0718325145080685,-1.216217962712422
2024-09-23 01:56:05.653814,42.57,8.388676,-0.011890927646745842,0.021586543619328925,1.009510051948944,0.3062460483703762,-1.0718325145080685,-1.4087318225037306
2024-09-23 01:56:05.696939,42.57,8.388763,-0.011890927646745842,0.02122069352992813,1.0136566395424191,0.3324875378228724,-1.0674780539117754,-1.3956111311383546
2024-09-23 01:56:05.740378,42.57,8.388763,-0.010000509527966639,0.020610907938137694,1.0128639524500669,0.3324875378228724,-1.0674780539117754,-1.3956111311383546
2024-09-23 01:56:05.752996,42.57,8.388763,-0.010000509527966639,0.020610907938137694,1.0128639524500669,0.3456082558686845,-1.15932321363464,-1.3956111311383546
2024-09-23 01:56:05.786212,42.57,8.388763,-0.010000509527966639,0.020610907938137694,1.0128639524500669,0.3456082558686845,-1.15932321363464,-1.3737241022821516
2024-09-23 01:56:05.797743,42.57,8.388815,-0.013049540777332799,0.021464627513341095,1.014144559154452,0.3411964856958948,-1.15932321363464,-1.3737241022821516
2024-09-23 01:56:05.840416,42.57,8.388865,-0.016037512202267738,0.023354943860682993,1.014144559154452,0.3411964856958948,-1.1768557818945498,-1.434973311956227
2024-09-23 01:56:05.852566,42.57,8.388865,-0.016037512202267738,0.023354943860682993,1.0151202039495033,0.3411964856958948,-1.1768557818945498,-1.434973311956227
2024-09-23 01:56:05.884398,42.57,8.388865,-0.016037512202267738,0.023354943860682993,1.0151202039495033,0.3280757409696467,-1.1987427040290088,-1.434973311956227
2024-09-23 01:56:05.896313,42.57,8.388916,-0.013049540777332799,0.01835463821098102,1.0151202039495033,0.3280757409696467,-1.1987427040290088,-1.413086283100024
2024-09-23 01:56:05.938764,42.38,8.388967,-0.012073802565215924,0.01835463821098102,1.0169495865474782,0.3499627431454137,-1.1899764732599258,-1.4787472629468887
2024-09-23 01:56:05.981311,42.38,8.388967,-0.012073802565215924,0.020062078880364497,1.0133517748475924,0.3499627431454137,-1.1899764732599258,-1.4787472629468887
2024-09-23 01:56:05.993240,42.38,8.389018,-0.012073802565215924,0.020062078880364497,1.0133517748475924,0.3324875378228724,-1.1330817241821438,-1.3737241022821516
2024-09-23 01:56:06.036189,42.38,8.389018,-0.012927522899907663,0.02262324216290473,1.0120102146471432,0.29747979092085736,-1.1199610328167677,-1.3737241022821516
2024-09-23 01:56:06.048200,42.38,8.389018,-0.012927522899907663,0.02262324216290473,1.0120102146471432,0.29747979092085736,-1.1199610328167677,-1.461214801408723
2024-09-23 01:56:06.081203,42.38,8.389105,-0.013476350438704184,0.01835463821098102,1.0120102146471432,0.29747979092085736,-1.1199610328167677,-1.461214801408723
2024-09-23 01:56:06.092608,42.38,8.389105,-0.013476350438704184,0.01835463821098102,1.0128639524500669,0.28871353347133843,-1.1680894444037229,-1.461214801408723
2024-09-23 01:56:06.135086,42.38,8.389157,-0.011890927646745842,0.020915799974544576,1.0105467474545664,0.37184974532118065,-1.1680894444037229,-1.413086283100024
2024-09-23 01:56:06.177405,42.38,8.389207,-0.011890927646745842,0.020915799974544576,1.0105467474545664,0.37184974532118065,-1.1068402347296475,-1.4174980532728136
2024-09-23 01:56:06.188636,42.38,8.389207,-0.011098165365048018,0.022684200215898644,1.0104247432479314,0.37184974532118065,-1.1068402347296475,-1.4174980532728136
2024-09-23 01:56:06.230609,42.38,8.389258,-0.013232416455291218,0.022684200215898644,1.0104247432479314,0.3280757409696467,-1.1812102424908428,-1.413086283100024
2024-09-23 01:56:06.242499,42.38,8.389258,-0.013232416455291218,0.02018409827676631,1.0104247432479314,0.3280757409696467,-1.1812102424908428,-1.413086283100024
2024-09-23 01:56:06.276306,42.38,8.389258,-0.013232416455291218,0.02018409827676631,1.0148762927507406,0.39373674749694765,-1.15932321363464,-1.413086283100024
2024-09-23 01:56:06.287547,42.38,8.389309,-0.010854230622146716,0.02018409827676631,1.0148762927507406,0.39373674749694765,-1.15932321363464,-1.3824903330512346
2024-09-23 01:56:06.329903,42.38,8.389397,-0.010854230622146716,0.02164760496273682,1.0107906586533293,0.29306802074806765,-1.1506142924420535,-1.3911993609655648
2024-09-23 01:56:06.371849,42.38,8.389397,-0.014634963569291141,0.01939133523558015,1.0107906586533293,0.29306802074806765,-1.1506142924420535,-1.3911993609655648
2024-09-23 01:56:06.384053,42.38,8.389397,-0.014634963569291141,0.01939133523558015,1.0143883731387076,0.24935132597303017,-1.1549687530383468,-1.496222521630302
2024-09-23 01:56:06.426568,42.38,8.389448,-0.015976452377836518,0.02012303845233509,1.0161568022406187,0.29306802074806765,-1.0980740039605648,-1.496222521630302
2024-09-23 01:56:06.468977,42.38,8.389499,-0.015976452377836518,0.02012303845233509,1.0161568022406187,0.29306802074806765,-1.0980740039605648,-1.448094003321603
2024-09-23 01:56:06.480265,42.38,8.389499,-0.01365932788809991,0.023964729452473427,1.0111565740587272,0.3193667930966243,-1.0980740039605648,-1.448094003321603
2024-09-23 01:56:06.522575,42.38,8.38955,-0.01823272210499319,0.023964729452473427,1.0111565740587272,0.3193667930966243,-1.0674780539117754,-1.4087318225037306
2024-09-23 01:56:06.534387,42.38,8.38955,-0.01823272210499319,0.021281651582922046,1.0145713308414066,0.3193667930966243,-1.0674780539117754,-1.4087318225037306
2024-09-23 01:56:06.566696,42.38,8.38955,-0.01823272210499319,0.021281651582922046,1.0145713308414066,0.3237212803733535,-1.15932321363464,-1.4087318225037306
2024-09-23 01:56:06.578154,42.38,8.389601,-0.011890927646745842,0.02201345505213762,1.0145713308414066,0.3237212803733535,-1.15932321363464,-1.4524485706396402
2024-09-23 01:56:06.620124,42.38,8.389651,-0.011890927646745842,0.02201345505213762,1.01426646614658,0.3411964856958948,-1.1068402347296475,-1.3780785628784449
2024-09-23 01:56:06.632287,42.38,8.389651,-0.012012843752733671,0.02201345505213762,1.01426646614658,0.3411964856958948,-1.1068402347296475,-1.3780785628784449
2024-09-23 01:56:06.664033,42.38,8.389651,-0.012012843752733671,0.019818144896951533,1.0143883731387076,0.3411964856958948,-1.1068402347296475,-1.3780785628784449
2024-09-23 01:56:06.675635,42.38,8.389738,-0.012012843752733671,0.019818144896951533,1.0143883731387076,0.3149550229238346,-1.1330817241821438,-1.4087318225037306
2024-09-23 01:56:06.718967,42.38,8.389738,-0.015122834574070423,0.019879204721382753,1.0149982969573756,0.3280757409696467,-1.0193495356030762,-1.3868447936475277
2024-09-23 01:56:06.761439,42.38,8.38979,-0.01433007153288426,0.019879204721382753,1.0149982969573756,0.3280757409696467,-1.0193495356030762,-1.3868447936475277
2024-09-23 01:56:06.773190,42.38,8.38979,-0.01433007153288426,0.02189143717471248,1.0124370835486052,0.3630834878716618,-1.2118635021161288,-1.3868447936475277
2024-09-23 01:56:06.815897,42.38,8.38984,-0.012378695361111141,0.02012303845233509,1.013778546534547,0.35872900059493257,-1.2118635021161288,-1.3956111311383546
2024-09-23 01:56:06.858363,42.38,8.38984,-0.012378695361111141,0.02012303845233509,1.013778546534547,0.35872900059493257,-1.1418479549512268,-1.404320052330941
2024-09-23 01:56:06.870013,42.38,8.389891,-0.012378695361111141,0.02012303845233509,1.013778546534547,0.35872900059493257,-1.1418479549512268,-1.404320052330941
2024-09-23 01:56:06.912235,42.38,8.389891,-0.01341539238571027,0.019940162774376668,1.0138396944596255,0.3849704900474288,-1.0893650827679784,-1.404320052330941
2024-09-23 01:56:06.924163,42.38,8.389891,-0.01341539238571027,0.019940162774376668,1.0138396944596255,0.3849704900474288,-1.0893650827679784,-1.3255955839734523
2024-09-23 01:56:06.956046,42.31,8.389942,-0.01341539238571027,0.019940162774376668,1.0138396944596255,0.3849704900474288,-1.0893650827679784,-1.3255955839734523
2024-09-23 01:56:06.967101,42.31,8.389942,-0.014634963569291141,0.02176952106872465,1.0115223922496177,0.3149550229238346,-1.1812102424908428,-1.3255955839734523
2024-09-23 01:56:07.009137,42.31,8.389992,-0.013720285941093825,0.021708563015730736,1.0115223922496177,0.3149550229238346,-1.1812102424908428,-1.3868447936475277
2024-09-23 01:56:07.020948,42.31,8.389992,-0.013720285941093825,0.021708563015730736,1.0134127283436565,0.27559278874509036,-1.1812102424908428,-1.3868447936475277
2024-09-23 01:56:07.053225,42.31,8.389992,-0.013720285941093825,0.021708563015730736,1.0134127283436565,0.27559278874509036,-1.1549687530383468,-1.3868447936475277
2024-09-23 01:56:07.064605,42.31,8.390079,-0.01268358815700636,0.021159735476934217,1.0148762927507406,0.27559278874509036,-1.1549687530383468,-1.4874562908612192
2024-09-23 01:56:07.107432,42.31,8.39013,-0.01268358815700636,0.021159735476934217,1.0148762927507406,0.26247207069927825,-1.1330817241821438,-1.404320052330941
2024-09-23 01:56:07.119229,42.31,8.39013,-0.01268358815700636,0.021464627513341095,1.0148762927507406,0.26247207069927825,-1.1330817241821438,-1.404320052330941
2024-09-23 01:56:07.151871,42.31,8.39013,-0.01268358815700636,0.021464627513341095,1.0126809947473678,0.3280757409696467,-1.1330817241821438,-1.404320052330941
2024-09-23 01:56:07.163195,42.31,8.390181,-0.010610295879245411,0.021464627513341095,1.0126809947473678,0.3280757409696467,-1.1287272635858505,-1.4087318225037306
2024-09-23 01:56:07.205261,42.31,8.390181,-0.010610295879245411,0.020732824044125523,1.0148152420401695,0.29306802074806765,-1.1855647030871361,-1.434973311956227
2024-09-23 01:56:07.217632,42.31,8.390275,-0.010610295879245411,0.020732824044125523,1.0148152420401695,0.29306802074806765,-1.1855647030871361,-1.434973311956227
2024-09-23 01:56:07.250195,42.31,8.390275,-0.013842202047081654,0.020062078880364497,1.0146933350480416,0.29306802074806765,-1.1855647030871361,-1.434973311956227
2024-09-23 01:56:07.261452,42.31,8.390275,-0.013842202047081654,0.020062078880364497,1.0146933350480416,0.3499627431454137,-1.0630662837389857,-1.4568603408124299
2024-09-23 01:56:07.303963,42.31,8.390326,-0.01481783924724956,0.019574312684975875,1.012620041251304,0.3411964856958948,-1.0630662837389857,-1.4568603408124299
2024-09-23 01:56:07.315539,42.31,8.390326,-0.01481783924724956,0.019574312684975875,1.012620041251304,0.3411964856958948,-1.0674780539117754,-1.4568603408124299
2024-09-23 01:56:07.347484,42.31,8.390377,-0.01481783924724956,0.019574312684975875,1.012620041251304,0.3411964856958948,-1.0674780539117754,-1.461214801408723
2024-09-23 01:56:07.359215,42.31,8.390377,-0.012378695361111141,0.019940162774376668,1.0103637897518674,0.3193667930966243,-1.0674780539117754,-1.461214801408723
2024-09-23 01:56:07.402899,42.31,8.390427,-0.016586237969626952,0.019086441680196593,1.0150592504534395,0.3193667930966243,-1.0237041029211134,-1.4437395427253097
2024-09-23 01:56:07.445844,42.31,8.390427,-0.016586237969626952,0.019086441680196593,1.0150592504534395,0.3237212803733535,-1.1199610328167677,-1.4568603408124299
2024-09-23 01:56:07.457701,42.31,8.390478,-0.011281142054955407,0.020001120827370582,1.0150592504534395,0.3237212803733535,-1.1199610328167677,-1.4568603408124299
2024-09-23 01:56:07.500105,42.31,8.390529,-0.011281142054955407,0.020001120827370582,1.0130469101527657,0.29306802074806765,-1.1068402347296475,-1.4087318225037306
2024-09-23 01:56:07.543764,42.31,8.390529,-0.011281142054955407,0.02152558556633501,1.0085954578644638,0.29306802074806765,-1.1068402347296475,-1.4087318225037306
2024-09-23 01:56:07.596871,42.31,8.390615,-0.011342100107949322,0.020549948366167105,1.0085954578644638,0.3674952580444515,-1.1330817241821438,-1.3956111311383546
2024-09-23 01:56:07.639785,42.31,8.390615,-0.011342100107949322,0.020549948366167105,1.0117664006628877,0.3411964856958948,-1.1330817241821438,-1.3956111311383546
2024-09-23 01:56:07.652103,42.31,8.390667,-0.013598266544692013,0.020549948366167105,1.0117664006628877,0.3411964856958948,-1.2687009416174144,-1.448094003321603
2024-09-23 01:56:07.695111,42.31,8.390718,-0.013598266544692013,0.018415698035412244,1.0134127283436565,0.3456082558686845,-1.216217962712422,-1.3562488435987383
2024-09-23 01:56:07.737793,42.31,8.390718,-0.011220081471035847,0.02097675802753849,1.0134127283436565,0.3456082558686845,-1.216217962712422,-1.3562488435987383
2024-09-23 01:56:07.749195,42.31,8.390718,-0.011220081471035847,0.02097675802753849,1.0124370835486052,0.28871353347133843,-1.1199610328167677,-1.43932777255252
2024-09-23 01:56:07.792439,42.31,8.390769,-0.01341539238571027,0.02067186599113161,1.0144494238492787,0.3849704900474288,-1.207451731943339,-1.43932777255252
2024-09-23 01:56:07.835569,42.31,8.39086,-0.013354434332716355,0.02067186599113161,1.0144494238492787,0.3849704900474288,-1.207451731943339,-1.4306188513599336
2024-09-23 01:56:07.847110,42.31,8.39086,-0.013354434332716355,0.01798878660260355,1.0148762927507406,0.3193667930966243,-1.207451731943339,-1.4306188513599336
2024-09-23 01:56:07.890036,42.31,8.390912,-0.010793271809664462,0.021098777423940302,1.0107297051572652,0.3193667930966243,-1.1637349838074296,-1.469981032177806
2024-09-23 01:56:07.932962,42.31,8.390912,-0.010793271809664462,0.021098777423940302,1.0107297051572652,0.3324875378228724,-1.1418479549512268,-1.496222521630302
2024-09-23 01:56:07.944600,42.31,8.390962,-0.014025177977500705,0.01890346574977754,1.0107297051572652,0.3324875378228724,-1.1418479549512268,-1.496222521630302
2024-09-23 01:56:07.987323,42.76,8.391013,-0.010915188675140628,0.01890346574977754,1.0166446246381442,0.31060053564710544,-1.0937195433642715,-1.4787472629468887
2024-09-23 01:56:08.029465,42.76,8.391013,-0.010915188675140628,0.01963527073796979,1.0161568022406187,0.31060053564710544,-1.0937195433642715,-1.4787472629468887
2024-09-23 01:56:08.042193,42.76,8.391103,-0.010915188675140628,0.01963527073796979,1.0161568022406187,0.3062460483703762,-1.0937195433642715,-1.2993542012427002
2024-09-23 01:56:08.085213,42.76,8.391103,-0.013049540777332799,0.021159735476934217,1.015668979843093,0.37184974532118065,-1.1462025222692638,-1.3737241022821516
2024-09-23 01:56:08.128262,42.76,8.391155,-0.01365932788809991,0.02152558556633501,1.015668979843093,0.37184974532118065,-1.1462025222692638,-1.3737241022821516
2024-09-23 01:56:08.140033,42.76,8.391155,-0.01365932788809991,0.02152558556633501,1.0136566395424191,0.29747979092085736,-1.0980740039605648,-1.3737241022821516
2024-09-23 01:56:08.182857,42.76,8.391205,-0.010854230622146716,0.02237930666051509,1.0133517748475924,0.29747979092085736,-1.0980740039605648,-1.5005769822265953
2024-09-23 01:56:08.225135,42.76,8.391205,-0.010854230622146716,0.02237930666051509,1.0133517748475924,0.31060053564710544,-1.0674780539117754,-1.3299501512914895
2024-09-23 01:56:08.236449,42.76,8.391256,-0.013110498830326714,0.019818144896951533,1.0133517748475924,0.31060053564710544,-1.0674780539117754,-1.3299501512914895
2024-09-23 01:56:08.280128,42.76,8.391307,-0.013293374508285133,0.019818144896951533,1.0130469101527657,0.37620423259790986,-1.0937195433642715,-1.3168293532043696
2024-09-23 01:56:08.323672,42.76,8.391307,-0.013293374508285133,0.01890346574977754,1.0144494238492787,0.2843590461946093,-1.0937195433642715,-1.3168293532043696
2024-09-23 01:56:08.334776,42.76,8.391358,-0.013293374508285133,0.01890346574977754,1.0144494238492787,0.2843590461946093,-1.0893650827679784,-1.3780785628784449
2024-09-23 01:56:08.377571,42.76,8.391358,-0.013598266544692013,0.018598572194393984,1.0137175930384832,0.3630834878716618,-1.1768557818945498,-1.3911993609655648
2024-09-23 01:56:08.420315,42.76,8.391444,-0.01481783924724956,0.01939133523558015,1.0137175930384832,0.3630834878716618,-1.1768557818945498,-1.3911993609655648
2024-09-23 01:56:08.473237,42.76,8.391496,-0.01481783924724956,0.01939133523558015,1.01231507934197,0.3674952580444515,-1.1899764732599258,-1.4087318225037306
2024-09-23 01:56:08.485395,42.76,8.391496,-0.014695923141261731,0.01939133523558015,1.01231507934197,0.3674952580444515,-1.1899764732599258,-1.4087318225037306
2024-09-23 01:56:08.518970,42.76,8.391496,-0.014695923141261731,0.020306014382754138,1.0128639524500669,0.35872900059493257,-1.1899764732599258,-1.4087318225037306
2024-09-23 01:56:08.530332,42.76,8.391547,-0.014695923141261731,0.020306014382754138,1.0128639524500669,0.35872900059493257,-1.2336931146740913,-1.483101830264926
2024-09-23 01:56:08.573582,42.76,8.391547,-0.015061773230662524,0.024696534440665677,1.0128639524500669,0.35872900059493257,-1.2336931146740913,-1.483101830264926
2024-09-23 01:56:08.616235,42.76,8.391547,-0.015061773230662524,0.024696534440665677,1.0107906586533293,0.24499683869630098,-1.2336931146740913,-1.483101830264926
2024-09-23 01:56:08.628156,42.76,8.391597,-0.012378695361111141,0.024696534440665677,1.0107906586533293,0.24499683869630098,-1.1243154934130608,-1.413086283100024
2024-09-23 01:56:08.660757,42.76,8.391597,-0.012378695361111141,0.017744852619190586,1.0107906586533293,0.24499683869630098,-1.1243154934130608,-1.413086283100024
2024-09-23 01:56:08.672239,42.76,8.391648,-0.012378695361111141,0.017744852619190586,1.0129859566567019,0.3499627431454137,-1.0762442846808582,-1.3737241022821516
2024-09-23 01:56:08.715235,42.76,8.391648,-0.014939857124674697,0.01890346574977754,1.0139616014517532,0.39373674749694765,-1.0762442846808582,-1.3737241022821516
2024-09-23 01:56:08.727044,42.76,8.391648,-0.014939857124674697,0.01890346574977754,1.0139616014517532,0.39373674749694765,-1.0674780539117754,-1.3956111311383546
2024-09-23 01:56:08.759017,42.76,8.391739,-0.014939857124674697,0.01890346574977754,1.0139616014517532,0.39373674749694765,-1.0674780539117754,-1.3956111311383546
2024-09-23 01:56:08.770506,42.76,8.391739,-0.012439653414105056,0.021708563015730736,1.0120102146471432,0.39373674749694765,-1.1724439050000162,-1.3956111311383546
2024-09-23 01:56:08.813591,42.76,8.391789,-0.011951885699739756,0.02012303845233509,1.014205512650516,0.39373674749694765,-1.1724439050000162,-1.448094003321603
2024-09-23 01:56:08.825274,42.76,8.391789,-0.011951885699739756,0.02012303845233509,1.014205512650516,0.2843590461946093,-1.1724439050000162,-1.448094003321603
2024-09-23 01:56:08.857916,42.76,8.391789,-0.011951885699739756,0.02012303845233509,1.014205512650516,0.2843590461946093,-1.0674780539117754,-1.413086283100024
2024-09-23 01:56:08.869043,42.76,8.391885,-0.012073802565215924,0.020001120827370582,1.0117053499523165,0.2843590461946093,-1.0674780539117754,-1.413086283100024
2024-09-23 01:56:08.911876,42.76,8.391936,-0.01433007153288426,0.020001120827370582,1.0117053499523165,0.29306802074806765,-1.1855647030871361,-1.4174980532728136
2024-09-23 01:56:08.924149,42.76,8.391936,-0.01433007153288426,0.017805912443621806,1.0117053499523165,0.29306802074806765,-1.1855647030871361,-1.4174980532728136
2024-09-23 01:56:08.957046,42.76,8.391936,-0.01433007153288426,0.017805912443621806,1.0134736818397203,0.3149550229238346,-1.0893650827679784,-1.4174980532728136
2024-09-23 01:56:08.968176,42.76,8.391987,-0.01378124399408774,0.017805912443621806,1.0134736818397203,0.3149550229238346,-1.0893650827679784,-1.496222521630302
2024-09-23 01:56:09.010084,42.67,8.392078,-0.01378124399408774,0.019940162774376668,1.0139006479556893,0.29306802074806765,-1.1024857741333545,-1.3737241022821516
2024-09-23 01:56:09.052585,42.67,8.392078,-0.01481783924724956,0.022562284109910815,1.0139006479556893,0.29306802074806765,-1.1024857741333545,-1.3737241022821516
2024-09-23 01:56:09.063974,42.67,8.392078,-0.01481783924724956,0.022562284109910815,1.0120712653577144,0.29306802074806765,-1.1724439050000162,-1.3999655917346479
2024-09-23 01:56:09.107576,42.67,8.39213,-0.013232416455291218,0.02097675802753849,1.0162178529511898,0.35872900059493257,-1.1724439050000162,-1.3999655917346479
2024-09-23 01:56:09.119586,42.67,8.39213,-0.013232416455291218,0.02097675802753849,1.0162178529511898,0.35872900059493257,-1.1899764732599258,-1.3999655917346479
2024-09-23 01:56:09.152091,42.67,8.39218,-0.013232416455291218,0.02097675802753849,1.0162178529511898,0.35872900059493257,-1.1899764732599258,-1.3780785628784449
2024-09-23 01:56:09.163294,42.67,8.39218,-0.012439653414105056,0.019879204721382753,1.0136566395424191,0.3674952580444515,-1.1899764732599258,-1.3780785628784449
2024-09-23 01:56:09.206909,42.67,8.392231,-0.01378124399408774,0.01926931735815501,1.0104247432479314,0.3674952580444515,-1.2293386540777982,-1.413086283100024
2024-09-23 01:56:09.250257,42.67,8.392231,-0.01378124399408774,0.01926931735815501,1.0104247432479314,0.3674952580444515,-1.1724439050000162,-1.3168293532043696
2024-09-23 01:56:09.262075,42.67,8.392282,-0.013476350438704184,0.021952496999143704,1.0104247432479314,0.3674952580444515,-1.1724439050000162,-1.3168293532043696
2024-09-23 01:56:09.304675,42.67,8.392333,-0.011951885699739756,0.021952496999143704,1.0107906586533293,0.3237212803733535,-1.1287272635858505,-1.4874562908612192
2024-09-23 01:56:09.347065,42.67,8.392333,-0.011951885699739756,0.019818144896951533,1.0147542885441054,0.3062460483703762,-1.1287272635858505,-1.4874562908612192
2024-09-23 01:56:09.358768,42.67,8.392419,-0.011951885699739756,0.019818144896951533,1.0147542885441054,0.3062460483703762,-1.0499454856518655,-1.3562488435987383
2024-09-23 01:56:09.401727,42.67,8.392419,-0.013110498830326714,0.019513251341567978,1.0117664006628877,0.3149550229238346,-1.1068402347296475,-1.3693696416858583
2024-09-23 01:56:09.444863,42.67,8.392471,-0.012744546969488612,0.024696534440665677,1.0117664006628877,0.3149550229238346,-1.1068402347296475,-1.3693696416858583
2024-09-23 01:56:09.457296,42.67,8.392471,-0.012744546969488612,0.024696534440665677,1.0131078636488298,0.39809120809324083,-1.1374934943549335,-1.3693696416858583
2024-09-23 01:56:09.489263,42.67,8.392471,-0.012744546969488612,0.024696534440665677,1.0131078636488298,0.39809120809324083,-1.1374934943549335,-1.3649578715130686
2024-09-23 01:56:09.500922,42.67,8.392522,-0.014574005516297226,0.02134260963591596,1.0112784810508548,0.3018342781975865,-1.1374934943549335,-1.3649578715130686
2024-09-23 01:56:09.543601,42.67,8.392572,-0.014574005516297226,0.02134260963591596,1.0112784810508548,0.3018342781975865,-1.1374934943549335,-1.3649578715130686
2024-09-23 01:56:09.554988,42.67,8.392572,-0.016342405757651293,0.018049744655597465,1.0119492611510794,0.3018342781975865,-1.1374934943549335,-1.3649578715130686
2024-09-23 01:56:09.586895,42.67,8.392572,-0.016342405757651293,0.018049744655597465,1.0119492611510794,0.3630834878716618,-1.1374934943549335,-1.3649578715130686
2024-09-23 01:56:09.639789,42.67,8.392623,-0.016342405757651293,0.018049744655597465,1.0119492611510794,0.3630834878716618,-1.1462025222692638,-1.3693696416858583
2024-09-23 01:56:09.651258,42.67,8.392623,-0.011586034850850625,0.02122069352992813,1.012742045457939,0.3630834878716618,-1.1462025222692638,-1.3693696416858583
2024-09-23 01:56:09.693586,42.67,8.392674,-0.01365932788809991,0.02085484192155066,1.012742045457939,0.3324875378228724,-1.1724439050000162,-1.2643463742993772
2024-09-23 01:56:09.737468,42.67,8.392674,-0.01365932788809991,0.02085484192155066,1.0158518403312846,0.3456082558686845,-1.1111946953259408,-1.2643463742993772
2024-09-23 01:56:09.748582,42.67,8.392761,-0.01256167205101853,0.02085484192155066,1.0158518403312846,0.3456082558686845,-1.1111946953259408,-1.4568603408124299
2024-09-23 01:56:09.790851,42.67,8.392813,-0.01256167205101853,0.021281651582922046,1.015546975636458,0.2537058132497594,-1.1111946953259408,-1.3737241022821516
2024-09-23 01:56:09.833102,42.67,8.392813,-0.010488379013769245,0.019879204721382753,1.015546975636458,0.2537058132497594,-1.1111946953259408,-1.3737241022821516
2024-09-23 01:56:09.845084,42.67,8.392813,-0.010488379013769245,0.019879204721382753,1.0115223922496177,0.3368419984191656,-1.0893650827679784,-1.3911993609655648
2024-09-23 01:56:09.888257,42.67,8.392907,-0.01268358815700636,0.020062078880364497,1.0097540603622142,0.38061600277069957,-1.0762442846808582,-1.3911993609655648
2024-09-23 01:56:09.930247,42.67,8.392959,-0.01268358815700636,0.020062078880364497,1.0097540603622142,0.38061600277069957,-1.0762442846808582,-1.4568603408124299
2024-09-23 01:56:09.941872,42.67,8.392959,-0.009817635368984895,0.017257084904825287,1.0131688171448936,0.3849704900474288,-1.0762442846808582,-1.4568603408124299
2024-09-23 01:56:10.026291,42.3,8.392959,-0.009817635368984895,0.017257084904825287,1.0131688171448936,0.3849704900474288,-1.1506142924420535,-1.4568603408124299
2024-09-23 01:56:10.038254,42.3,8.393009,-0.01164699290384454,0.01890346574977754,1.0158518403312846,0.3849704900474288,-1.1506142924420535,-1.3824903330512346
2024-09-23 01:56:10.080058,42.3,8.39306,-0.01164699290384454,0.01890346574977754,1.0158518403312846,0.37620423259790986,-1.1987427040290088,-1.3868447936475277
2024-09-23 01:56:10.092291,42.3,8.39306,-0.016586237969626952,0.02237930666051509,1.0158518403312846,0.37620423259790986,-1.1987427040290088,-1.3868447936475277
2024-09-23 01:56:10.125315,42.3,8.39306,-0.016586237969626952,0.02237930666051509,1.011095523348156,0.3411964856958948,-1.1987427040290088,-1.3868447936475277
2024-09-23 01:56:10.136699,42.3,8.393111,-0.014574005516297226,0.02237930666051509,1.011095523348156,0.3411964856958948,-1.0018170740649104,-1.3343619214642792
2024-09-23 01:56:10.179166,42.3,8.393111,-0.014574005516297226,0.021830479121718566,1.0120712653577144,0.4505741869982332,-1.1287272635858505,-1.5136977803137153
2024-09-23 01:56:10.191283,42.3,8.393199,-0.014574005516297226,0.021830479121718566,1.0120712653577144,0.4505741869982332,-1.1287272635858505,-1.5136977803137153
2024-09-23 01:56:10.224413,42.3,8.393199,-0.012012843752733671,0.020549948366167105,1.0149372462468045,0.4505741869982332,-1.1287272635858505,-1.5136977803137153
2024-09-23 01:56:10.236105,42.3,8.393199,-0.012012843752733671,0.020549948366167105,1.0149372462468045,0.3280757409696467,-1.1812102424908428,-1.3606034109167755
2024-09-23 01:56:10.277986,42.3,8.393297,-0.01164699290384454,0.02311100987727003,1.0135956860463553,0.35872900059493257,-1.1768557818945498,-1.3606034109167755
2024-09-23 01:56:10.320551,42.3,8.393349,-0.01164699290384454,0.02311100987727003,1.0135956860463553,0.35872900059493257,-1.1768557818945498,-1.3474826128296553
2024-09-23 01:56:10.332807,42.3,8.393349,-0.013049540777332799,0.02085484192155066,1.0100589250570406,0.3324875378228724,-1.1768557818945498,-1.3474826128296553
2024-09-23 01:56:10.375992,42.3,8.393399,-0.010610295879245411,0.02225739055452726,1.0104247432479314,0.3324875378228724,-1.1637349838074296,-1.4087318225037306
2024-09-23 01:56:10.418193,42.3,8.393399,-0.010610295879245411,0.02225739055452726,1.0104247432479314,0.35872900059493257,-1.203097164625302,-1.4087318225037306
2024-09-23 01:56:10.429286,42.3,8.39345,-0.013720285941093825,0.020549948366167105,1.0104247432479314,0.35872900059493257,-1.203097164625302,-1.3080631224352866
2024-09-23 01:56:10.471898,42.3,8.393501,-0.013720285941093825,0.020549948366167105,1.01426646614658,0.2537058132497594,-1.1506142924420535,-1.426207081187144
2024-09-23 01:56:10.483967,42.3,8.393501,-0.015122834574070423,0.020549948366167105,1.01426646614658,0.2537058132497594,-1.1506142924420535,-1.426207081187144
2024-09-23 01:56:10.517047,42.3,8.393501,-0.015122834574070423,0.021159735476934217,1.0151202039495033,0.37620423259790986,-1.1506142924420535,-1.426207081187144
2024-09-23 01:56:10.528532,42.3,8.39359,-0.015122834574070423,0.021159735476934217,1.0151202039495033,0.37620423259790986,-1.1024857741333545,-1.5443510399390012
2024-09-23 01:56:10.571241,42.3,8.39359,-0.013110498830326714,0.019879204721382753,1.0118273541589518,0.2843590461946093,-1.1768557818945498,-1.3343619214642792
2024-09-23 01:56:10.614902,42.3,8.393641,-0.01365932788809991,0.02225739055452726,1.0118273541589518,0.2843590461946093,-1.1768557818945498,-1.3343619214642792
2024-09-23 01:56:10.626408,42.3,8.393641,-0.01365932788809991,0.02225739055452726,1.0133517748475924,0.3149550229238346,-1.15932321363464,-1.3343619214642792
2024-09-23 01:56:10.668850,42.3,8.393692,-0.015427726610477303,0.016891131525010507,1.014022554947817,0.3280757409696467,-1.15932321363464,-1.3999655917346479
2024-09-23 01:56:10.711340,42.3,8.393742,-0.015427726610477303,0.016891131525010507,1.014022554947817,0.3280757409696467,-1.1899764732599258,-1.448094003321603
2024-09-23 01:56:10.722540,42.3,8.393742,-0.011707950956838454,0.016586237969626952,1.0112784810508548,0.3280757409696467,-1.1899764732599258,-1.448094003321603
2024-09-23 01:56:10.765092,42.3,8.393793,-0.014878899071680782,0.02067186599113161,1.0112784810508548,0.3630834878716618,-1.1855647030871361,-1.404320052330941
2024-09-23 01:56:10.807426,42.3,8.393793,-0.014878899071680782,0.02067186599113161,1.015486022140394,0.3237212803733535,-1.1855647030871361,-1.404320052330941
2024-09-23 01:56:10.818589,42.3,8.393844,-0.01219582044264106,0.02067186599113161,1.015486022140394,0.3237212803733535,-1.1462025222692638,-1.4087318225037306
2024-09-23 01:56:10.861596,42.3,8.393844,-0.01219582044264106,0.01914740125216718,1.0099369208504057,0.3062460483703762,-1.1068402347296475,-1.4568603408124299
2024-09-23 01:56:10.873786,42.3,8.393931,-0.01219582044264106,0.01914740125216718,1.0099369208504057,0.3062460483703762,-1.1068402347296475,-1.4568603408124299
2024-09-23 01:56:10.905216,42.3,8.393931,-0.012378695361111141,0.021464627513341095,1.0099369208504057,0.3062460483703762,-1.1068402347296475,-1.4568603408124299
2024-09-23 01:56:10.916569,42.3,8.393931,-0.012378695361111141,0.021464627513341095,1.012925003160638,0.2274643237972632,-1.2293386540777982,-1.4568603408124299
2024-09-23 01:56:10.960899,42.3,8.393982,-0.012317737308117227,0.02164760496273682,1.0133517748475924,0.2274643237972632,-1.2293386540777982,-1.3780785628784449
2024-09-23 01:56:10.972560,42.3,8.393982,-0.012317737308117227,0.02164760496273682,1.0133517748475924,0.27559278874509036,-1.2293386540777982,-1.3780785628784449
2024-09-23 01:56:11.005454,42.3,8.394033,-0.012866564846913748,0.02164760496273682,1.0133517748475924,0.27559278874509036,-1.1680894444037229,-1.3387163820605725
2024-09-23 01:56:11.017073,42.3,8.394033,-0.012866564846913748,0.017744852619190586,1.0123761300525411,0.27559278874509036,-1.1680894444037229,-1.3387163820605725
2024-09-23 01:56:11.049419,42.43,8.394033,-0.012866564846913748,0.017744852619190586,1.0123761300525411,0.27559278874509036,-1.1680894444037229,-1.3387163820605725
2024-09-23 01:56:11.060869,42.43,8.394084,-0.013537308491698099,0.020549948366167105,1.0123761300525411,0.27559278874509036,-1.0937195433642715,-1.3693696416858583
2024-09-23 01:56:11.103681,42.43,8.394084,-0.013537308491698099,0.020549948366167105,1.0128639524500669,0.40244569536997005,-1.0762442846808582,-1.3999655917346479
2024-09-23 01:56:11.115891,42.43,8.394134,-0.016037512202267738,0.020549948366167105,1.0128639524500669,0.40244569536997005,-1.0762442846808582,-1.3999655917346479
2024-09-23 01:56:11.148467,42.43,8.394134,-0.016037512202267738,0.018964423802771455,1.0139616014517532,0.40244569536997005,-1.0762442846808582,-1.3999655917346479
2024-09-23 01:56:11.160229,42.43,8.394134,-0.016037512202267738,0.018964423802771455,1.0139616014517532,0.3193667930966243,-1.0762442846808582,-1.3999655917346479
2024-09-23 01:56:11.201943,42.43,8.394185,-0.014025177977500705,0.018964423802771455,1.0139616014517532,0.3193667930966243,-1.1068402347296475,-1.3606034109167755
2024-09-23 01:56:11.213483,42.43,8.394185,-0.014025177977500705,0.02201345505213762,1.0128639524500669,0.3193667930966243,-1.1068402347296475,-1.3606034109167755
2024-09-23 01:56:11.247199,42.43,8.394185,-0.014025177977500705,0.02201345505213762,1.0128639524500669,0.3149550229238346,-1.1287272635858505,-1.3606034109167755
2024-09-23 01:56:11.258351,42.43,8.394273,-0.012317737308117227,0.017744852619190586,1.0128639524500669,0.3149550229238346,-1.1287272635858505,-1.413086283100024
2024-09-23 01:56:11.301281,42.43,8.394324,-0.012317737308117227,0.017744852619190586,1.0153641151482662,0.2405850685235113,-1.2993542012427002,-1.553117270708084
2024-09-23 01:56:11.313417,42.43,8.394324,-0.012500713238536278,0.017744852619190586,1.0153641151482662,0.2405850685235113,-1.2993542012427002,-1.553117270708084
2024-09-23 01:56:11.345094,42.43,8.394324,-0.012500713238536278,0.019818144896951533,1.00969310686615,0.2405850685235113,-1.2993542012427002,-1.553117270708084
2024-09-23 01:56:11.357565,42.43,8.394375,-0.012500713238536278,0.019818144896951533,1.00969310686615,0.29747979092085736,-1.1768557818945498,-1.404320052330941
2024-09-23 01:56:11.401457,42.43,8.394375,-0.013049540777332799,0.01750101888823825,1.0151202039495033,0.27994727602181957,-1.1680894444037229,-1.504988752399385
2024-09-23 01:56:11.444360,42.43,8.394467,-0.01164699290384454,0.020245056329760223,1.012925003160638,0.27994727602181957,-1.1680894444037229,-1.504988752399385
2024-09-23 01:56:11.455932,42.43,8.394467,-0.01164699290384454,0.020245056329760223,1.012925003160638,0.3280757409696467,-1.1680894444037229,-1.504988752399385
2024-09-23 01:56:11.488104,42.43,8.394467,-0.01164699290384454,0.020245056329760223,1.012925003160638,0.3280757409696467,-1.1680894444037229,-1.3737241022821516
2024-09-23 01:56:11.500780,42.43,8.394519,-0.010366361136344109,0.02085484192155066,1.0114003880429827,0.3324875378228724,-1.1680894444037229,-1.3737241022821516
2024-09-23 01:56:11.543015,42.43,8.394569,-0.01378124399408774,0.02085484192155066,1.0114003880429827,0.3324875378228724,-1.1199610328167677,-1.469981032177806
2024-09-23 01:56:11.554681,42.43,8.394569,-0.01378124399408774,0.02201345505213762,1.0119492611510794,0.3324875378228724,-1.1199610328167677,-1.469981032177806
2024-09-23 01:56:11.586697,42.43,8.394569,-0.01378124399408774,0.02201345505213762,1.0119492611510794,0.3456082558686845,-1.1199610328167677,-1.469981032177806
2024-09-23 01:56:11.597870,42.43,8.39462,-0.014147094083488534,0.019696228790963704,1.0119492611510794,0.3456082558686845,-1.1724439050000162,-1.448094003321603
2024-09-23 01:56:11.641093,42.43,8.394671,-0.014147094083488534,0.019696228790963704,1.0116442992417454,0.42433269754573705,-1.1156065722204744,-1.3868447936475277
2024-09-23 01:56:11.652895,42.43,8.394671,-0.013049540777332799,0.019696228790963704,1.0116442992417454,0.42433269754573705,-1.1156065722204744,-1.3868447936475277
2024-09-23 01:56:11.685363,42.43,8.394671,-0.013049540777332799,0.020610907938137694,1.0163397599433175,0.42433269754573705,-1.1156065722204744,-1.3868447936475277
2024-09-23 01:56:11.697404,42.43,8.39476,-0.013049540777332799,0.020610907938137694,1.0163397599433175,0.3630834878716618,-1.1287272635858505,-1.4524485706396402
2024-09-23 01:56:11.740109,42.43,8.39476,-0.015000815177668611,0.01914740125216718,1.009266140750181,0.2668265312955715,-1.1506142924420535,-1.43932777255252
2024-09-23 01:56:11.782595,42.43,8.394811,-0.012317737308117227,0.01914740125216718,1.009266140750181,0.2668265312955715,-1.1506142924420535,-1.43932777255252
2024-09-23 01:56:11.793981,42.43,8.394811,-0.012317737308117227,0.020245056329760223,1.0077417200615404,0.38061600277069957,-1.1768557818945498,-1.43932777255252
2024-09-23 01:56:11.836025,42.43,8.394862,-0.013354434332716355,0.02048899031317319,1.015608026347029,0.38061600277069957,-1.1768557818945498,-1.4524485706396402
2024-09-23 01:56:11.848176,42.43,8.394862,-0.013354434332716355,0.02048899031317319,1.015608026347029,0.3062460483703762,-1.1768557818945498,-1.4524485706396402
2024-09-23 01:56:11.880559,42.43,8.394862,-0.013354434332716355,0.02048899031317319,1.015608026347029,0.3062460483703762,-1.1330817241821438,-1.3999655917346479
2024-09-23 01:56:11.892168,42.43,8.394912,-0.011524974266931064,0.02018409827676631,1.014144559154452,0.3062460483703762,-1.1330817241821438,-1.3999655917346479
2024-09-23 01:56:11.934225,42.43,8.394963,-0.010976248499571852,0.02018409827676631,1.014144559154452,0.37620423259790986,-1.1899764732599258,-1.461214801408723
2024-09-23 01:56:11.946199,42.43,8.394963,-0.010976248499571852,0.019940162774376668,1.014144559154452,0.37620423259790986,-1.1899764732599258,-1.461214801408723
2024-09-23 01:56:11.978020,42.43,8.394963,-0.010976248499571852,0.019940162774376668,1.0121931723498423,0.3499627431454137,-1.1899764732599258,-1.461214801408723
2024-09-23 01:56:11.989325,42.43,8.395014,-0.01219582044264106,0.019940162774376668,1.0121931723498423,0.3499627431454137,-1.1374934943549335,-1.2993542012427002
2024-09-23 01:56:12.031277,42.43,8.395014,-0.01219582044264106,0.018293680157987106,1.0182911467479274,0.3368419984191656,-1.1462025222692638,-1.3956111311383546
2024-09-23 01:56:12.042907,42.43,8.395101,-0.01219582044264106,0.018293680157987106,1.0182911467479274,0.3368419984191656,-1.1462025222692638,-1.3956111311383546
2024-09-23 01:56:12.075292,42.71,8.395101,-0.01268358815700636,0.019818144896951533,1.0182911467479274,0.3368419984191656,-1.1462025222692638,-1.3956111311383546
2024-09-23 01:56:12.087589,42.71,8.395101,-0.01268358815700636,0.019818144896951533,1.012742045457939,0.39373674749694765,-1.1812102424908428,-1.4087318225037306
2024-09-23 01:56:12.130832,42.71,8.395152,-0.012073802565215924,0.02176952106872465,1.0104856967439952,0.4374534422719851,-1.1812102424908428,-1.4087318225037306
2024-09-23 01:56:12.142459,42.71,8.395152,-0.012073802565215924,0.02176952106872465,1.0104856967439952,0.4374534422719851,-1.1111946953259408,-1.4087318225037306
2024-09-23 01:56:12.174482,42.71,8.395203,-0.012073802565215924,0.02176952106872465,1.0104856967439952,0.4374534422719851,-1.1111946953259408,-1.5005769822265953
2024-09-23 01:56:12.185962,42.71,8.395203,-0.010671253932239326,0.020062078880364497,1.0134736818397203,0.40685746554275976,-1.1111946953259408,-1.5005769822265953
2024-09-23 01:56:12.229633,42.71,8.395203,-0.010671253932239326,0.020062078880364497,1.0134736818397203,0.40685746554275976,-1.0762442846808582,-1.5005769822265953
2024-09-23 01:56:12.272117,42.71,8.395203,-0.010671253932239326,0.020062078880364497,1.0134736818397203,0.40685746554275976,-1.0762442846808582,-1.3606034109167755
2024-09-23 01:56:12.324684,42.71,8.395254,-0.012073802565215924,0.019818144896951533,1.0150592504534395,0.3674952580444515,-1.0762442846808582,-1.3606034109167755
2024-09-23 01:56:12.336949,42.71,8.395254,-0.012073802565215924,0.019818144896951533,1.0150592504534395,0.3674952580444515,-1.0893650827679784,-1.3606034109167755
2024-09-23 01:56:12.369637,42.71,8.395304,-0.015915494324842603,0.019818144896951533,1.0150592504534395,0.3674952580444515,-1.0893650827679784,-1.3212411233771593
2024-09-23 01:56:12.381410,42.71,8.395304,-0.015915494324842603,0.019574312684975875,1.0148152420401695,0.29306802074806765,-1.0893650827679784,-1.3212411233771593
2024-09-23 01:56:12.423592,42.71,8.395355,-0.014939857124674697,0.018842507696783625,1.0137175930384832,0.29306802074806765,-1.1680894444037229,-1.4655692620050162
2024-09-23 01:56:12.466238,42.71,8.395355,-0.014939857124674697,0.018842507696783625,1.0137175930384832,0.31060053564710544,-1.1068402347296475,-1.4655692620050162
2024-09-23 01:56:12.478391,42.71,8.395442,-0.016098470255261652,0.019513251341567978,1.0137175930384832,0.31060053564710544,-1.1068402347296475,-1.4306188513599336
2024-09-23 01:56:12.521464,42.71,8.395539,-0.012317737308117227,0.019513251341567978,1.0177422736398305,0.3149550229238346,-1.1768557818945498,-1.504988752399385
2024-09-23 01:56:12.564000,42.71,8.395539,-0.012317737308117227,0.02018409827676631,1.0135347325502915,0.3149550229238346,-1.1768557818945498,-1.504988752399385
2024-09-23 01:56:12.575258,42.71,8.395637,-0.012317737308117227,0.02018409827676631,1.0135347325502915,0.3368419984191656,-1.1418479549512268,-1.4568603408124299
2024-09-23 01:56:12.618791,42.71,8.395637,-0.012378695361111141,0.020306014382754138,1.0117664006628877,0.31060053564710544,-1.1768557818945498,-1.4655692620050162
2024-09-23 01:56:12.661390,42.71,8.395688,-0.013232416455291218,0.020549948366167105,1.0117664006628877,0.31060053564710544,-1.1768557818945498,-1.4655692620050162
2024-09-23 01:56:12.673361,42.71,8.395688,-0.013232416455291218,0.020549948366167105,1.0176202694331955,0.31060053564710544,-1.1768557818945498,-1.4655692620050162
2024-09-23 01:56:12.716101,42.71,8.395739,-0.012317737308117227,0.019574312684975875,1.0176202694331955,0.27994727602181957,-1.1330817241821438,-1.2993542012427002
2024-09-23 01:56:12.759624,42.71,8.395739,-0.012317737308117227,0.019574312684975875,1.010668654446694,0.3368419984191656,-1.207451731943339,-1.2993542012427002
2024-09-23 01:56:12.771137,42.71,8.39579,-0.010915188675140628,0.019574312684975875,1.010668654446694,0.3368419984191656,-1.207451731943339,-1.3911993609655648
2024-09-23 01:56:12.813811,42.71,8.395841,-0.010915188675140628,0.021708563015730736,1.0148762927507406,0.3237212803733535,-1.1506142924420535,-1.3606034109167755
2024-09-23 01:56:12.856853,42.71,8.395841,-0.010854230622146716,0.02134260963591596,1.0148762927507406,0.3237212803733535,-1.1506142924420535,-1.3606034109167755
2024-09-23 01:56:12.869109,42.71,8.395841,-0.010854230622146716,0.02134260963591596,1.0148762927507406,0.29306802074806765,-1.0805987452771515,-1.504988752399385
2024-09-23 01:56:12.902103,42.71,8.395891,-0.010854230622146716,0.02134260963591596,1.0148762927507406,0.29306802074806765,-1.0805987452771515,-1.504988752399385
2024-09-23 01:56:12.913764,42.71,8.395891,-0.012439653414105056,0.022501222766502915,1.01426646614658,0.27123832814879717,-1.1855647030871361,-1.504988752399385
2024-09-23 01:56:12.955610,42.71,8.395979,-0.014878899071680782,0.022501222766502915,1.01426646614658,0.27123832814879717,-1.1855647030871361,-1.3956111311383546
2024-09-23 01:56:12.967244,42.71,8.395979,-0.014878899071680782,0.019696228790963704,1.0160958487445546,0.2537058132497594,-1.1855647030871361,-1.3956111311383546
2024-09-23 01:56:12.999452,42.71,8.395979,-0.014878899071680782,0.019696228790963704,1.0160958487445546,0.2537058132497594,-1.0893650827679784,-1.3956111311383546
2024-09-23 01:56:13.011045,42.71,8.39603,-0.015305708733052167,0.02176952106872465,1.0135347325502915,0.2537058132497594,-1.0893650827679784,-1.3780785628784449
2024-09-23 01:56:13.053084,42.71,8.396081,-0.015305708733052167,0.02176952106872465,1.0135347325502915,0.3630834878716618,-1.1724439050000162,-1.404320052330941
2024-09-23 01:56:13.064509,42.71,8.396081,-0.011586034850850625,0.02097675802753849,1.0135347325502915,0.3630834878716618,-1.1724439050000162,-1.404320052330941
2024-09-23 01:56:13.098269,42.39,8.396081,-0.011586034850850625,0.02097675802753849,1.0068879822586168,0.3630834878716618,-1.1724439050000162,-1.404320052330941
2024-09-23 01:56:13.110467,42.39,8.396132,-0.012805606793919833,0.02097675802753849,1.0068879822586168,0.3193667930966243,-0.9974626134686172,-1.3780785628784449
2024-09-23 01:56:13.153001,42.39,8.396132,-0.012805606793919833,0.020915799974544576,1.0143274196426437,0.3324875378228724,-1.1068402347296475,-1.4218526205908506
2024-09-23 01:56:13.165223,42.39,8.396222,-0.012805606793919833,0.020915799974544576,1.0143274196426437,0.3324875378228724,-1.1068402347296475,-1.4218526205908506
2024-09-23 01:56:13.197598,42.39,8.396222,-0.01365932788809991,0.02140366946034718,1.0157299333391567,0.3324875378228724,-1.1068402347296475,-1.4218526205908506
2024-09-23 01:56:13.249869,42.39,8.396273,-0.012805606793919833,0.02140366946034718,1.0157299333391567,0.20998910513450392,-1.0587118231426924,-1.404320052330941
2024-09-23 01:56:13.261982,42.39,8.396273,-0.012805606793919833,0.01914740125216718,1.0157299333391567,0.20998910513450392,-1.0587118231426924,-1.404320052330941
2024-09-23 01:56:13.294274,42.39,8.396273,-0.012805606793919833,0.01914740125216718,1.0135347325502915,0.3237212803733535,-1.0587118231426924,-1.404320052330941
2024-09-23 01:56:13.305379,42.39,8.396324,-0.012927522899907663,0.01914740125216718,1.0135347325502915,0.3237212803733535,-1.1418479549512268,-1.4218526205908506
2024-09-23 01:56:13.348383,42.39,8.396324,-0.012927522899907663,0.018171764051999276,1.0137175930384832,0.3368419984191656,-1.1111946953259408,-1.3780785628784449
2024-09-23 01:56:13.360316,42.39,8.396375,-0.012927522899907663,0.018171764051999276,1.0137175930384832,0.3368419984191656,-1.1111946953259408,-1.3780785628784449
2024-09-23 01:56:13.393093,42.39,8.396375,-0.010854230622146716,0.02311100987727003,1.0129859566567019,0.3368419984191656,-1.1111946953259408,-1.3780785628784449
2024-09-23 01:56:13.404965,42.39,8.396375,-0.010854230622146716,0.02311100987727003,1.0129859566567019,0.3237212803733535,-0.9886962759777903,-1.413086283100024
2024-09-23 01:56:13.447420,42.39,8.396426,-0.013598266544692013,0.02085484192155066,1.0170715907541132,0.3062460483703762,-1.1287272635858505,-1.413086283100024
2024-09-23 01:56:13.489010,42.39,8.396515,-0.013598266544692013,0.02085484192155066,1.0170715907541132,0.3062460483703762,-1.1287272635858505,-1.3430708426568656
2024-09-23 01:56:13.501347,42.39,8.396515,-0.013903160100075569,0.02176952106872465,1.0162788064472537,0.37184974532118065,-1.1287272635858505,-1.3430708426568656
2024-09-23 01:56:13.545035,42.39,8.396567,-0.012012843752733671,0.019696228790963704,1.0150592504534395,0.37184974532118065,-1.1724439050000162,-1.3911993609655648
2024-09-23 01:56:13.588148,42.39,8.396567,-0.012012843752733671,0.019696228790963704,1.0150592504534395,0.3324875378228724,-1.1899764732599258,-1.4437395427253097
2024-09-23 01:56:13.599081,42.39,8.396617,-0.013171458402297304,0.019818144896951533,1.0150592504534395,0.3324875378228724,-1.1899764732599258,-1.4437395427253097
2024-09-23 01:56:13.642460,42.39,8.396668,-0.010549337066763158,0.019818144896951533,1.0147542885441054,0.27123832814879717,-1.1724439050000162,-1.4218526205908506
2024-09-23 01:56:13.684272,42.39,8.396668,-0.010549337066763158,0.019086441680196593,1.0085954578644638,0.27123832814879717,-1.1724439050000162,-1.4218526205908506
2024-09-23 01:56:13.696023,42.39,8.396668,-0.010549337066763158,0.019086441680196593,1.0085954578644638,0.3193667930966243,-1.0893650827679784,-1.4218526205908506
2024-09-23 01:56:13.738533,42.39,8.396758,-0.012500713238536278,0.017439959063807027,1.0132908213515286,0.3543172304221429,-1.0893650827679784,-1.4524485706396402
2024-09-23 01:56:13.781638,42.39,8.396758,-0.012500713238536278,0.017439959063807027,1.0132908213515286,0.3543172304221429,-1.0674780539117754,-1.404320052330941
2024-09-23 01:56:13.793540,42.39,8.39681,-0.009390723936176203,0.023903771399479513,1.013778546534547,0.3543172304221429,-1.0674780539117754,-1.404320052330941
2024-09-23 01:56:13.836693,42.39,8.396861,-0.013354434332716355,0.01750101888823825,1.013778546534547,0.29306802074806765,-1.1418479549512268,-1.5224640110827983
2024-09-23 01:56:13.878531,42.39,8.396861,-0.013354434332716355,0.01750101888823825,1.0129859566567019,0.3018342781975865,-1.1418479549512268,-1.5224640110827983
2024-09-23 01:56:13.890354,42.39,8.396911,-0.009939551474972724,0.01750101888823825,1.0129859566567019,0.3018342781975865,-1.1243154934130608,-1.469981032177806
