Ayaan's Suite
Timestamp,Sample Rate (Hz),Time,Ax,Ay,Az,Gx,Gy,Gz
2024-09-23 19:22:20.155944,0,45.586838,-0.0028354659767690416,-0.023181236725942318,0.09680407370509965,40.106058693909645,-96.25519929585457,76.200527287817
2024-09-23 19:22:20.291403,0,45.586838,-0.002139034157924574,-0.02308174982955575,0.09720203344245934,44.11764879391193,-96.25519929585457,76.200527287817
2024-09-23 19:22:20.303495,0,45.586838,-0.002139034157924574,-0.02308174982955575,0.09720203344245934,44.11764879391193,-100.26678939585686,72.1922225099802
2024-09-23 19:22:20.335494,0,45.58689,-0.002139034157924574,-0.02308174982955575,0.09720203344245934,44.11764879391193,-100.26678939585686,72.1922225099802
2024-09-23 19:22:20.347273,0,45.58689,-0.002437506429281439,-0.02303200030545576,0.09715228999426605,44.11764879391193,-100.26678939585686,72.1922225099802
2024-09-23 19:22:20.389078,0,45.58694,-0.0029847020175114316,-0.02313149783467906,0.09715228999426605,44.11764879391193,-100.26678939585686,80.21211738781929
2024-09-23 19:22:20.400739,0,45.58694,-0.0029847020175114316,-0.02313149783467906,0.09705279702197278,44.11764879391193,-100.26678939585686,80.21211738781929
2024-09-23 19:22:20.433943,0,45.58694,-0.0029847020175114316,-0.02313149783467906,0.09705279702197278,44.11764879391193,-104.27510100388527,80.21211738781929
2024-09-23 19:22:20.445854,0,45.586991,-0.0029847020175114316,-0.023728432883788564,0.09695331012558621,44.11764879391193,-104.27510100388527,80.21211738781929
2024-09-23 19:22:20.487425,0,45.587042,-0.0023380189632786156,-0.023728432883788564,0.09695331012558621,44.11764879391193,-100.26678939585686,76.200527287817
2024-09-23 19:22:20.499066,0,45.587042,-0.0023380189632786156,-0.02313149783467906,0.09695331012558621,44.11764879391193,-100.26678939585686,76.200527287817
2024-09-23 19:22:20.531607,0,45.587042,-0.0023380189632786156,-0.02313149783467906,0.09670458680871308,44.11764879391193,-100.26678939585686,76.200527287817
2024-09-23 19:22:20.543075,0,45.587182,-0.0026862297461545674,-0.02313149783467906,0.09670458680871308,44.11764879391193,-92.24360919585227,80.21211738781929
2024-09-23 19:22:20.585803,0,45.587182,-0.0026862297461545674,-0.023429960042815445,0.09725178296655933,44.11764879391193,-96.25519929585457,80.21211738781929
2024-09-23 19:22:20.597897,0,45.587277,-0.0026862297461545674,-0.023429960042815445,0.09725178296655933,44.11764879391193,-96.25519929585457,80.21211738781929
2024-09-23 19:22:20.630680,0,45.587277,-0.0026862297461545674,-0.02278327698858263,0.09725178296655933,44.11764879391193,-96.25519929585457,80.21211738781929
2024-09-23 19:22:20.642600,0,45.587277,-0.0026862297461545674,-0.02278327698858263,0.09720203344245934,40.106058693909645,-92.24360919585227,76.200527287817
2024-09-23 19:22:20.685402,0,45.587328,-0.0030344509719951677,-0.023330473146428877,0.09740101331113918,32.08287849390507,-88.23529758782387,76.200527287817
2024-09-23 19:22:20.729338,0,45.587379,-0.0019897979273100995,-0.023330473146428877,0.09740101331113918,32.08287849390507,-88.23529758782387,76.200527287817
2024-09-23 19:22:20.741079,0,45.587379,-0.0019897979273100995,-0.023230986250042305,0.0970030596496862,36.09446859390736,-88.23529758782387,76.200527287817
2024-09-23 19:22:20.774484,0,45.587379,-0.0019897979273100995,-0.023230986250042305,0.0970030596496862,36.09446859390736,-96.25519929585457,76.200527287817
2024-09-23 19:22:20.786187,0,45.587379,-0.0019897979273100995,-0.023230986250042305,0.0970030596496862,36.09446859390736,-96.25519929585457,76.200527287817
2024-09-23 19:22:20.829787,0,45.58743,-0.002636491424507565,-0.02303200030545576,0.09720203344245934,44.11764879391193,-96.25519929585457,76.200527287817
2024-09-23 19:22:20.841731,0,45.58743,-0.002636491424507565,-0.02303200030545576,0.09720203344245934,44.11764879391193,-96.25519929585457,76.200527287817
2024-09-23 19:22:20.873310,0,45.58748,-0.002636491424507565,-0.02303200030545576,0.09720203344245934,44.11764879391193,-96.25519929585457,68.18063240997792
2024-09-23 19:22:20.884410,0,45.58748,-0.0028852147413806935,-0.02338022115155219,0.09690356060148622,48.12595698684454,-96.25519929585457,68.18063240997792
2024-09-23 19:22:20.928014,0,45.587531,-0.0027359787006383035,-0.023330473146428877,0.09690356060148622,48.12595698684454,-96.25519929585457,76.200527287817
2024-09-23 19:22:20.940402,0,45.587531,-0.0027359787006383035,-0.023330473146428877,0.0973015264147526,48.12595698684454,-96.25519929585457,76.200527287817
2024-09-23 19:22:20.972433,0,45.587531,-0.0027359787006383035,-0.023330473146428877,0.0973015264147526,44.11764879391193,-100.26678939585686,80.21211738781929
2024-09-23 19:22:20.983752,0,45.587618,-0.0025369937054121774,-0.023330473146428877,0.0973015264147526,44.11764879391193,-100.26678939585686,80.21211738781929
2024-09-23 19:22:21.026213,0,45.587669,-0.0028354659767690416,-0.023330473146428877,0.09720203344245934,48.12595698684454,-104.27510100388527,72.1922225099802
2024-09-23 19:22:21.069599,0,45.587669,-0.0028354659767690416,-0.023479709566915436,0.09715228999426605,40.106058693909645,-104.27510100388527,72.1922225099802
2024-09-23 19:22:21.081426,0,45.587764,-0.0028354659767690416,-0.023479709566915436,0.09715228999426605,40.106058693909645,-96.25519929585457,76.200527287817
2024-09-23 19:22:21.124599,0,45.587764,-0.0026862297461545674,-0.023778180888911878,0.09695331012558621,40.106058693909645,-96.25519929585457,76.200527287817
2024-09-23 19:22:21.166804,42.07,45.587816,-0.0029349636958644295,-0.023280723622328886,0.09695331012558621,40.106058693909645,-96.25519929585457,76.200527287817
2024-09-23 19:22:21.179880,42.07,45.587816,-0.0029349636958644295,-0.023280723622328886,0.0966050877605131,36.09446859390736,-88.23529758782387,76.200527287817
2024-09-23 19:22:21.263337,42.07,45.587867,-0.0029349636958644295,-0.023280723622328886,0.0966050877605131,36.09446859390736,-88.23529758782387,76.200527287817
2024-09-23 19:22:21.275142,42.07,45.587867,-0.0028354659767690416,-0.02338022115155219,0.09715228999426605,48.12595698684454,-88.23529758782387,76.200527287817
2024-09-23 19:22:21.318939,42.07,45.587917,-0.0029349636958644295,-0.023330473146428877,0.09690356060148622,48.12595698684454,-100.26678939585686,76.200527287817
2024-09-23 19:22:21.362455,42.07,45.587917,-0.0029349636958644295,-0.023330473146428877,0.09690356060148622,48.12595698684454,-96.25519929585457,80.21211738781929
2024-09-23 19:22:21.373858,42.07,45.587968,-0.0024872551938930902,-0.023728432883788564,0.09690356060148622,48.12595698684454,-96.25519929585457,80.21211738781929
2024-09-23 19:22:21.416562,42.07,45.588018,-0.004029355252068585,-0.023728432883788564,0.0966050877605131,44.11764879391193,-92.24360919585227,80.21211738781929
2024-09-23 19:22:21.459623,42.07,45.588018,-0.004029355252068585,-0.02263404056809607,0.09655535038822652,36.09446859390736,-92.24360919585227,80.21211738781929
2024-09-23 19:22:21.471343,42.07,45.588106,-0.004029355252068585,-0.02263404056809607,0.09655535038822652,36.09446859390736,-96.25519929585457,72.1922225099802
2024-09-23 19:22:21.513907,42.07,45.588106,-0.002437506429281439,-0.02367869399252531,0.09750050628343246,40.106058693909645,-92.24360919585227,84.22370748782159
2024-09-23 19:22:21.556022,42.07,45.588204,-0.002586742470023829,-0.02367869399252531,0.09750050628343246,40.106058693909645,-92.24360919585227,84.22370748782159
2024-09-23 19:22:21.567536,42.07,45.588204,-0.002586742470023829,-0.02338022115155219,0.09680407370509965,40.106058693909645,-96.25519929585457,84.22370748782159
2024-09-23 19:22:21.611077,42.07,45.588255,-0.0025369937054121774,-0.02308174982955575,0.09655535038822652,44.11764879391193,-96.25519929585457,76.200527287817
2024-09-23 19:22:21.654142,42.07,45.588255,-0.0025369937054121774,-0.02308174982955575,0.09655535038822652,44.11764879391193,-96.25519929585457,76.200527287817
2024-09-23 19:22:21.665993,42.07,45.588306,-0.0030344509719951677,-0.023330473146428877,0.09680407370509965,44.11764879391193,-96.25519929585457,76.200527287817
2024-09-23 19:22:21.709205,42.07,45.588356,-0.0030344509719951677,-0.02313149783467906,0.09680407370509965,36.09446859390736,-92.24360919585227,80.21211738781929
2024-09-23 19:22:21.752461,42.07,45.588356,-0.0030344509719951677,-0.02313149783467906,0.09715228999426605,36.09446859390736,-100.26678939585686,80.21211738781929
2024-09-23 19:22:21.763647,42.07,45.588407,-0.0025369937054121774,-0.02313149783467906,0.09715228999426605,36.09446859390736,-100.26678939585686,76.200527287817
2024-09-23 19:22:21.807295,42.07,45.588496,-0.0025369937054121774,-0.02293251340906919,0.0973015264147526,44.11764879391193,-92.24360919585227,80.21211738781929
2024-09-23 19:22:21.850398,42.07,45.588496,-0.002785727465249955,-0.02303200030545576,0.09675432418099966,44.11764879391193,-92.24360919585227,80.21211738781929
2024-09-23 19:22:21.861600,42.07,45.588496,-0.002785727465249955,-0.02303200030545576,0.09675432418099966,44.11764879391193,-88.23529758782387,76.200527287817
2024-09-23 19:22:21.904419,42.07,45.588547,-0.002636491424507565,-0.023330473146428877,0.09710254654607277,44.11764879391193,-100.26678939585686,76.200527287817
2024-09-23 19:22:21.946925,42.07,45.588598,-0.002387757474797703,-0.023330473146428877,0.09710254654607277,44.11764879391193,-100.26678939585686,76.200527287817
2024-09-23 19:22:21.958319,42.07,45.588598,-0.002387757474797703,-0.023181236725942318,0.0976994861521123,32.08287849390507,-100.26678939585686,76.200527287817
2024-09-23 19:22:22.000848,42.07,45.588648,-0.003482159473966507,-0.023280723622328886,0.09740101331113918,32.08287849390507,-100.26678939585686,76.200527287817
2024-09-23 19:22:22.043394,42.07,45.588648,-0.003482159473966507,-0.023280723622328886,0.09740101331113918,40.106058693909645,-96.25519929585457,76.200527287817
2024-09-23 19:22:22.055152,42.07,45.588699,-0.0028852147413806935,-0.02313149783467906,0.09740101331113918,40.106058693909645,-96.25519929585457,80.21211738781929
2024-09-23 19:22:22.098911,42.07,45.58875,-0.003233425524256645,-0.02313149783467906,0.09750050628343246,40.106058693909645,-100.26678939585686,76.200527287817
2024-09-23 19:22:22.142461,42.07,45.58875,-0.003233425524256645,-0.02308174982955575,0.09685382322919964,44.11764879391193,-100.26678939585686,76.200527287817
2024-09-23 19:22:22.154085,42.07,45.588837,-0.003233425524256645,-0.02308174982955575,0.09685382322919964,44.11764879391193,-100.26678939585686,72.1922225099802
2024-09-23 19:22:22.196967,39.96,45.588837,-0.0024872551938930902,-0.023479709566915436,0.0970030596496862,40.106058693909645,-96.25519929585457,76.200527287817
2024-09-23 19:22:22.291438,39.96,45.588888,-0.0024872551938930902,-0.02352945757203875,0.0976994861521123,40.106058693909645,-96.25519929585457,76.200527287817
2024-09-23 19:22:22.302775,39.96,45.588888,-0.0024872551938930902,-0.02352945757203875,0.0976994861521123,36.09446859390736,-92.24360919585227,76.200527287817
2024-09-23 19:22:22.336018,39.96,45.588939,-0.0024872551938930902,-0.02352945757203875,0.0976994861521123,36.09446859390736,-92.24360919585227,76.200527287817
2024-09-23 19:22:22.347100,39.96,45.588939,-0.0031836870127375577,-0.023280723622328886,0.09715228999426605,40.106058693909645,-92.24360919585227,76.200527287817
2024-09-23 19:22:22.389866,39.96,45.58899,-0.002636491424507565,-0.02352945757203875,0.09715228999426605,40.106058693909645,-100.26678939585686,72.1922225099802
2024-09-23 19:22:22.401598,39.96,45.58899,-0.002636491424507565,-0.02352945757203875,0.09740101331113918,40.106058693909645,-100.26678939585686,72.1922225099802
2024-09-23 19:22:22.433705,39.96,45.58899,-0.002636491424507565,-0.02352945757203875,0.09740101331113918,44.11764879391193,-96.25519929585457,72.1922225099802
2024-09-23 19:22:22.487451,39.96,45.589041,-0.002437506429281439,-0.023181236725942318,0.09705279702197278,40.106058693909645,-96.25519929585457,72.1922225099802
2024-09-23 19:22:22.530045,39.96,45.589041,-0.002437506429281439,-0.023181236725942318,0.09705279702197278,40.106058693909645,-96.25519929585457,72.1922225099802
2024-09-23 19:22:22.541841,39.96,45.589092,-0.0029349636958644295,-0.02352945757203875,0.09755024973162574,40.106058693909645,-96.25519929585457,76.200527287817
2024-09-23 19:22:22.584660,39.96,45.589227,-0.0027359787006383035,-0.02352945757203875,0.09755024973162574,40.106058693909645,-92.24360919585227,80.21211738781929
2024-09-23 19:22:22.596842,39.96,45.589227,-0.0027359787006383035,-0.023230986250042305,0.09755024973162574,40.106058693909645,-92.24360919585227,80.21211738781929
2024-09-23 19:22:22.629729,39.96,45.589227,-0.0027359787006383035,-0.023230986250042305,0.09690356060148622,40.106058693909645,-92.24360919585227,80.21211738781929
2024-09-23 19:22:22.640947,39.96,45.589278,-0.003382661564999035,-0.023230986250042305,0.09690356060148622,40.106058693909645,-92.24360919585227,76.200527287817
2024-09-23 19:22:22.683363,39.96,45.589278,-0.003382661564999035,-0.023280723622328886,0.0970030596496862,40.106058693909645,-104.27510100388527,84.22370748782159
2024-09-23 19:22:22.696209,39.96,45.589329,-0.003382661564999035,-0.023280723622328886,0.0970030596496862,40.106058693909645,-104.27510100388527,84.22370748782159
2024-09-23 19:22:22.729023,39.96,45.589329,-0.0033329230534799477,-0.02367869399252531,0.09715228999426605,56.14914060194492,-104.27510100388527,84.22370748782159
2024-09-23 19:22:22.740807,39.96,45.589329,-0.0033329230534799477,-0.02367869399252531,0.09715228999426605,56.14914060194492,-100.26678939585686,76.200527287817
2024-09-23 19:22:22.772461,39.96,45.589422,-0.0033329230534799477,-0.02367869399252531,0.09715228999426605,56.14914060194492,-100.26678939585686,76.200527287817
2024-09-23 19:22:22.784062,39.96,45.589422,-0.0025369937054121774,-0.0228827638849692,0.09695331012558621,36.09446859390736,-104.27510100388527,76.200527287817
2024-09-23 19:22:22.826379,39.96,45.589474,-0.0031339382481259063,-0.023280723622328886,0.09695331012558621,36.09446859390736,-104.27510100388527,72.1922225099802
2024-09-23 19:22:22.838253,39.96,45.589474,-0.0031339382481259063,-0.023280723622328886,0.09690356060148622,32.08287849390507,-104.27510100388527,72.1922225099802
2024-09-23 19:22:22.871162,39.96,45.589474,-0.0031339382481259063,-0.023280723622328886,0.09690356060148622,32.08287849390507,-88.23529758782387,72.1922225099802
2024-09-23 19:22:22.882431,39.96,45.589524,-0.0030344509719951677,-0.0228827638849692,0.09670458680871308,32.08287849390507,-88.23529758782387,84.22370748782159
2024-09-23 19:22:22.925030,39.96,45.589575,-0.0029349636958644295,-0.0228827638849692,0.09670458680871308,32.08287849390507,-96.25519929585457,72.1922225099802
2024-09-23 19:22:22.936903,39.96,45.589575,-0.0029349636958644295,-0.022982261414192504,0.09670458680871308,32.08287849390507,-96.25519929585457,72.1922225099802
2024-09-23 19:22:22.970231,39.96,45.589575,-0.0029349636958644295,-0.022982261414192504,0.09745075675933246,32.08287849390507,-96.25519929585457,72.1922225099802
2024-09-23 19:22:22.981300,39.96,45.589626,-0.0030344509719951677,-0.022982261414192504,0.09745075675933246,32.08287849390507,-96.25519929585457,76.200527287817
2024-09-23 19:22:23.023478,39.96,45.589626,-0.0030344509719951677,-0.02308174982955575,0.09705279702197278,36.09446859390736,-96.25519929585457,76.200527287817
2024-09-23 19:22:23.035156,39.96,45.589714,-0.0030344509719951677,-0.02308174982955575,0.09705279702197278,36.09446859390736,-96.25519929585457,76.200527287817
2024-09-23 19:22:23.067607,39.96,45.589714,-0.0031836870127375577,-0.023579196463302005,0.09705279702197278,36.09446859390736,-96.25519929585457,76.200527287817
2024-09-23 19:22:23.079849,39.96,45.589714,-0.0031836870127375577,-0.023579196463302005,0.09740101331113918,44.11764879391193,-88.23529758782387,80.21211738781929
2024-09-23 19:22:23.123634,39.96,45.589766,-0.0030841997366068195,-0.023429960042815445,0.09720203344245934,44.11764879391193,-96.25519929585457,80.21211738781929
2024-09-23 19:22:23.165894,39.96,45.589816,-0.002636491424507565,-0.023429960042815445,0.09720203344245934,44.11764879391193,-96.25519929585457,80.21211738781929
2024-09-23 19:22:23.176735,39.96,45.589816,-0.002636491424507565,-0.02362894446842532,0.09705279702197278,44.11764879391193,-96.25519929585457,80.21211738781929
2024-09-23 19:22:23.220356,41.3,45.589867,-0.0026862297461545674,-0.02308174982955575,0.09715228999426605,44.11764879391193,-92.24360919585227,76.200527287817
2024-09-23 19:22:23.262511,41.3,45.589867,-0.0026862297461545674,-0.02308174982955575,0.09715228999426605,36.09446859390736,-92.24360919585227,76.200527287817
2024-09-23 19:22:23.315002,41.3,45.589918,-0.002785727465249955,-0.023728432883788564,0.09715228999426605,36.09446859390736,-92.24360919585227,72.1922225099802
2024-09-23 19:22:23.327087,41.3,45.589918,-0.002785727465249955,-0.023728432883788564,0.09705279702197278,36.09446859390736,-92.24360919585227,72.1922225099802
2024-09-23 19:22:23.359570,41.3,45.589918,-0.002785727465249955,-0.023728432883788564,0.09705279702197278,48.12595698684454,-92.24360919585227,72.1922225099802
2024-09-23 19:22:23.370589,41.3,45.589968,-0.0029349636958644295,-0.023230986250042305,0.09705279702197278,48.12595698684454,-92.24360919585227,76.200527287817
2024-09-23 19:22:23.413173,41.3,45.590056,-0.0029349636958644295,-0.023230986250042305,0.09695331012558621,48.12595698684454,-92.24360919585227,72.1922225099802
2024-09-23 19:22:23.425357,41.3,45.590056,-0.0028354659767690416,-0.023230986250042305,0.09695331012558621,48.12595698684454,-92.24360919585227,72.1922225099802
2024-09-23 19:22:23.458014,41.3,45.590056,-0.0028354659767690416,-0.0228827638849692,0.09725178296655933,48.12595698684454,-92.24360919585227,72.1922225099802
2024-09-23 19:22:23.469081,41.3,45.590107,-0.0028354659767690416,-0.0228827638849692,0.09725178296655933,48.12595698684454,-104.27510100388527,72.1922225099802
2024-09-23 19:22:23.511575,41.3,45.590107,-0.0029349636958644295,-0.02352945757203875,0.09710254654607277,36.09446859390736,-96.25519929585457,80.21211738781929
2024-09-23 19:22:23.554571,41.3,45.590202,-0.0028852147413806935,-0.02352945757203875,0.09710254654607277,36.09446859390736,-96.25519929585457,80.21211738781929
2024-09-23 19:22:23.566560,41.3,45.590202,-0.0028852147413806935,-0.02338022115155219,0.0973015264147526,44.11764879391193,-96.25519929585457,80.21211738781929
2024-09-23 19:22:23.609320,41.3,45.590254,-0.0028852147413806935,-0.02338022115155219,0.0973015264147526,44.11764879391193,-96.25519929585457,76.200527287817
2024-09-23 19:22:23.651997,41.3,45.590254,-0.002437506429281439,-0.022982261414192504,0.0973015264147526,44.11764879391193,-96.25519929585457,76.200527287817
2024-09-23 19:22:23.663934,41.3,45.590254,-0.002437506429281439,-0.022982261414192504,0.09705279702197278,40.106058693909645,-96.25519929585457,76.200527287817
2024-09-23 19:22:23.707631,41.3,45.590304,-0.0024872551938930902,-0.023181236725942318,0.0970030596496862,44.11764879391193,-92.24360919585227,76.200527287817
2024-09-23 19:22:23.802545,41.3,45.590355,-0.0026862297461545674,-0.02313149783467906,0.09740101331113918,44.11764879391193,-92.24360919585227,76.200527287817
2024-09-23 19:22:23.814552,41.3,45.590355,-0.0026862297461545674,-0.02313149783467906,0.09740101331113918,44.11764879391193,-92.24360919585227,76.200527287817
2024-09-23 19:22:23.846747,41.3,45.590355,-0.0026862297461545674,-0.02313149783467906,0.09740101331113918,44.11764879391193,-100.26678939585686,76.200527287817
2024-09-23 19:22:23.858218,41.3,45.590406,-0.0020395466919217514,-0.02338022115155219,0.0973015264147526,44.11764879391193,-100.26678939585686,76.200527287817
2024-09-23 19:22:23.900882,41.3,45.590494,-0.0028852147413806935,-0.02338022115155219,0.0973015264147526,40.106058693909645,-100.26678939585686,80.21211738781929
2024-09-23 19:22:23.912837,41.3,45.590494,-0.0028852147413806935,-0.023330473146428877,0.0973015264147526,40.106058693909645,-100.26678939585686,80.21211738781929
2024-09-23 19:22:23.946371,41.3,45.590494,-0.0028852147413806935,-0.023330473146428877,0.09685382322919964,40.106058693909645,-100.26678939585686,80.21211738781929
2024-09-23 19:22:23.958185,41.3,45.590546,-0.0035318979854855937,-0.023330473146428877,0.09685382322919964,40.106058693909645,-100.26678939585686,76.200527287817
2024-09-23 19:22:24.000332,41.3,45.590689,-0.0035318979854855937,-0.02352945757203875,0.09725178296655933,36.09446859390736,-104.27510100388527,76.200527287817
2024-09-23 19:22:24.042901,41.3,45.590689,-0.002437506429281439,-0.02338022115155219,0.09715228999426605,36.09446859390736,-104.27510100388527,76.200527287817
2024-09-23 19:22:24.054336,41.3,45.590689,-0.002437506429281439,-0.02338022115155219,0.09715228999426605,36.09446859390736,-100.26678939585686,76.200527287817
2024-09-23 19:22:24.096524,41.3,45.590741,-0.0031836870127375577,-0.023181236725942318,0.09690356060148622,40.106058693909645,-88.23529758782387,76.200527287817
2024-09-23 19:22:24.139352,41.3,45.590792,-0.0031836870127375577,-0.023181236725942318,0.09690356060148622,40.106058693909645,-88.23529758782387,76.200527287817
2024-09-23 19:22:24.150302,41.3,45.590792,-0.0028852147413806935,-0.023479709566915436,0.0973015264147526,40.106058693909645,-88.23529758782387,76.200527287817
2024-09-23 19:22:24.193152,41.3,45.590842,-0.0025369937054121774,-0.023579196463302005,0.0973015264147526,40.106058693909645,-96.25519929585457,80.21211738781929
2024-09-23 19:22:24.205356,41.3,45.590842,-0.0025369937054121774,-0.023579196463302005,0.0973512698629459,40.106058693909645,-96.25519929585457,80.21211738781929
2024-09-23 19:22:24.237340,41.05,45.590842,-0.0025369937054121774,-0.023579196463302005,0.0973512698629459,40.106058693909645,-100.26678939585686,80.21211738781929
2024-09-23 19:22:24.248744,41.05,45.590893,-0.0029847020175114316,-0.023230986250042305,0.0973512698629459,40.106058693909645,-100.26678939585686,76.200527287817
2024-09-23 19:22:24.291323,41.05,45.590893,-0.0029847020175114316,-0.023230986250042305,0.09779897304849887,40.106058693909645,-100.26678939585686,76.200527287817
2024-09-23 19:22:24.335173,41.05,45.590893,-0.0029847020175114316,-0.023230986250042305,0.09779897304849887,44.11764879391193,-96.25519929585457,76.200527287817
2024-09-23 19:22:24.346503,41.05,45.590944,-0.002586742470023829,-0.02362894446842532,0.09779897304849887,44.11764879391193,-96.25519929585457,76.200527287817
2024-09-23 19:22:24.390595,41.05,45.591031,-0.0025369937054121774,-0.02362894446842532,0.09680407370509965,52.137550501942634,-88.23529758782387,80.21211738781929
2024-09-23 19:22:24.433768,41.05,45.591031,-0.0025369937054121774,-0.02313149783467906,0.09685382322919964,40.106058693909645,-88.23529758782387,80.21211738781929
2024-09-23 19:22:24.445597,41.05,45.591082,-0.0025369937054121774,-0.02313149783467906,0.09685382322919964,40.106058693909645,-100.26678939585686,80.21211738781929
2024-09-23 19:22:24.488566,41.05,45.591082,-0.0027359787006383035,-0.023479709566915436,0.09705279702197278,36.09446859390736,-100.26678939585686,80.21211738781929
2024-09-23 19:22:24.530950,41.05,45.591133,-0.0025369937054121774,-0.0225345536717095,0.09705279702197278,36.09446859390736,-100.26678939585686,80.21211738781929
2024-09-23 19:22:24.542755,41.05,45.591133,-0.0025369937054121774,-0.0225345536717095,0.09764974270391902,44.11764879391193,-96.25519929585457,80.21211738781929
2024-09-23 19:22:24.585958,41.05,45.591133,-0.0025369937054121774,-0.0225345536717095,0.09764974270391902,44.11764879391193,-96.25519929585457,76.200527287817
2024-09-23 19:22:24.627745,41.05,45.591227,-0.002586742470023829,-0.022982261414192504,0.09764974270391902,44.11764879391193,-96.25519929585457,76.200527287817
2024-09-23 19:22:24.639047,41.05,45.591227,-0.002586742470023829,-0.022982261414192504,0.0973512698629459,36.09446859390736,-96.25519929585457,76.200527287817
2024-09-23 19:22:24.682296,41.05,45.591278,-0.0032831742888682963,-0.023330473146428877,0.0973512698629459,40.106058693909645,-96.25519929585457,80.21211738781929
2024-09-23 19:22:24.726208,41.05,45.591328,-0.0032831742888682963,-0.023330473146428877,0.0973512698629459,40.106058693909645,-92.24360919585227,80.21211738781929
2024-09-23 19:22:24.737797,41.05,45.591328,-0.002636491424507565,-0.02308174982955575,0.09710254654607277,40.106058693909645,-92.24360919585227,80.21211738781929
2024-09-23 19:22:24.780179,41.05,45.59138,-0.002288270198666964,-0.02362894446842532,0.09710254654607277,36.09446859390736,-92.24360919585227,80.21211738781929
2024-09-23 19:22:24.822669,41.05,45.59138,-0.002288270198666964,-0.02362894446842532,0.09685382322919964,36.09446859390736,-92.24360919585227,80.21211738781929
2024-09-23 19:22:24.834458,41.05,45.591469,-0.002785727465249955,-0.02362894446842532,0.09685382322919964,36.09446859390736,-92.24360919585227,80.21211738781929
2024-09-23 19:22:24.877004,41.05,45.591567,-0.002785727465249955,-0.02362894446842532,0.09715228999426605,44.11764879391193,-100.26678939585686,80.21211738781929
2024-09-23 19:22:24.919146,41.05,45.591567,-0.0022385316871478774,-0.02313149783467906,0.09715228999426605,44.11764879391193,-100.26678939585686,80.21211738781929
2024-09-23 19:22:24.930536,41.05,45.591567,-0.0022385316871478774,-0.02313149783467906,0.09675432418099966,40.106058693909645,-100.26678939585686,80.21211738781929
2024-09-23 19:22:24.974061,41.05,45.591618,-0.0030841997366068195,-0.023181236725942318,0.0976994861521123,36.09446859390736,-92.24360919585227,80.21211738781929
2024-09-23 19:22:25.017219,41.05,45.591669,-0.0030841997366068195,-0.023181236725942318,0.0976994861521123,36.09446859390736,-92.24360919585227,76.200527287817
2024-09-23 19:22:25.028354,41.05,45.591669,-0.002586742470023829,-0.02278327698858263,0.0966050877605131,40.106058693909645,-92.24360919585227,76.200527287817
2024-09-23 19:22:25.070299,41.05,45.59172,-0.002636491424507565,-0.02278327698858263,0.0966050877605131,40.106058693909645,-108.28669110388756,68.18063240997792
2024-09-23 19:22:25.082700,41.05,45.59172,-0.002636491424507565,-0.023479709566915436,0.09685382322919964,40.106058693909645,-108.28669110388756,68.18063240997792
2024-09-23 19:22:25.115478,41.05,45.59172,-0.002636491424507565,-0.023479709566915436,0.09685382322919964,44.11764879391193,-108.28669110388756,76.200527287817
2024-09-23 19:22:25.167766,41.05,45.59177,-0.002785727465249955,-0.023280723622328886,0.09755024973162574,28.07457030097246,-108.28669110388756,76.200527287817
2024-09-23 19:22:25.179499,41.05,45.59177,-0.002785727465249955,-0.023280723622328886,0.09755024973162574,28.07457030097246,-100.26678939585686,76.200527287817
2024-09-23 19:22:25.212171,41.05,45.591821,-0.002785727465249955,-0.023280723622328886,0.09755024973162574,28.07457030097246,-100.26678939585686,84.22370748782159
2024-09-23 19:22:25.223422,41.05,45.591821,-0.002636491424507565,-0.02278327698858263,0.09705279702197278,32.08287849390507,-100.26678939585686,84.22370748782159
2024-09-23 19:22:25.266432,40.81,45.591908,-0.0021887829225362256,-0.02278327698858263,0.09705279702197278,32.08287849390507,-96.25519929585457,80.21211738781929
2024-09-23 19:22:25.277718,40.81,45.591908,-0.0021887829225362256,-0.023330473146428877,0.09745075675933246,32.08287849390507,-96.25519929585457,80.21211738781929
2024-09-23 19:22:25.309814,40.81,45.591908,-0.0021887829225362256,-0.023330473146428877,0.09745075675933246,44.11764879391193,-100.26678939585686,80.21211738781929
2024-09-23 19:22:25.362592,40.81,45.59196,-0.0025369937054121774,-0.023479709566915436,0.09705279702197278,44.11764879391193,-100.26678939585686,80.21211738781929
2024-09-23 19:22:25.374310,40.81,45.59196,-0.0025369937054121774,-0.023479709566915436,0.09705279702197278,36.09446859390736,-100.26678939585686,80.21211738781929
2024-09-23 19:22:25.407656,40.81,45.59196,-0.0025369937054121774,-0.023479709566915436,0.09705279702197278,36.09446859390736,-100.26678939585686,80.21211738781929
2024-09-23 19:22:25.418987,40.81,45.59201,-0.0022385316871478774,-0.023280723622328886,0.09725178296655933,36.09446859390736,-100.26678939585686,80.21211738781929
2024-09-23 19:22:25.462753,40.81,45.592103,-0.0030344509719951677,-0.023330473146428877,0.09725178296655933,40.106058693909645,-92.24360919585227,76.200527287817
2024-09-23 19:22:25.505396,40.81,45.592103,-0.0030344509719951677,-0.023330473146428877,0.09670458680871308,44.11764879391193,-96.25519929585457,76.200527287817
2024-09-23 19:22:25.516605,40.81,45.592155,-0.0031339382481259063,-0.023330473146428877,0.09670458680871308,44.11764879391193,-96.25519929585457,76.200527287817
2024-09-23 19:22:25.558647,40.81,45.592155,-0.0031339382481259063,-0.023728432883788564,0.0966050877605131,44.11764879391193,-96.25519929585457,76.200527287817
2024-09-23 19:22:25.602149,40.81,45.592155,-0.0031339382481259063,-0.023728432883788564,0.0966050877605131,40.106058693909645,-96.25519929585457,76.200527287817
2024-09-23 19:22:25.614045,40.81,45.592205,-0.003382661564999035,-0.023429960042815445,0.0966050877605131,40.106058693909645,-96.25519929585457,80.21211738781929
2024-09-23 19:22:25.697373,40.81,45.592205,-0.003382661564999035,-0.023429960042815445,0.0970030596496862,40.106058693909645,-96.25519929585457,80.21211738781929
2024-09-23 19:22:25.709835,40.81,45.592299,-0.0034324103296106863,-0.023429960042815445,0.0970030596496862,36.09446859390736,-100.26678939585686,76.200527287817
2024-09-23 19:22:25.753218,40.81,45.592299,-0.0034324103296106863,-0.02352945757203875,0.09710254654607277,44.11764879391193,-96.25519929585457,76.200527287817
2024-09-23 19:22:25.765963,40.81,45.59235,-0.0034324103296106863,-0.02352945757203875,0.09710254654607277,44.11764879391193,-96.25519929585457,76.200527287817
2024-09-23 19:22:25.798396,40.81,45.59235,-0.002586742470023829,-0.02313149783467906,0.09710254654607277,44.11764879391193,-96.25519929585457,76.200527287817
2024-09-23 19:22:25.809811,40.81,45.59235,-0.002586742470023829,-0.02313149783467906,0.09759999317981902,44.11764879391193,-96.25519929585457,80.21211738781929
2024-09-23 19:22:25.852790,40.81,45.592401,-0.002636491424507565,-0.023778180888911878,0.09715228999426605,28.07457030097246,-96.25519929585457,80.21211738781929
2024-09-23 19:22:25.894557,40.81,45.592494,-0.002636491424507565,-0.023778180888911878,0.09715228999426605,28.07457030097246,-96.25519929585457,80.21211738781929
2024-09-23 19:22:25.905952,40.81,45.592494,-0.002586742470023829,-0.02308174982955575,0.09720203344245934,40.106058693909645,-96.25519929585457,80.21211738781929
2024-09-23 19:22:25.949272,40.81,45.592592,-0.0030841997366068195,-0.02313149783467906,0.09720203344245934,40.106058693909645,-100.26678939585686,80.21211738781929
2024-09-23 19:22:25.961458,40.81,45.592592,-0.0030841997366068195,-0.02313149783467906,0.09720203344245934,40.106058693909645,-100.26678939585686,80.21211738781929
2024-09-23 19:22:25.993238,40.81,45.592592,-0.0030841997366068195,-0.02313149783467906,0.09720203344245934,32.08287849390507,-92.24360919585227,80.21211738781929
2024-09-23 19:22:26.004376,40.81,45.592643,-0.0031339382481259063,-0.02313149783467906,0.09720203344245934,32.08287849390507,-92.24360919585227,80.21211738781929
2024-09-23 19:22:26.047063,40.81,45.592694,-0.0029349636958644295,-0.02313149783467906,0.09685382322919964,40.106058693909645,-92.24360919585227,80.21211738781929
2024-09-23 19:22:26.089484,40.81,45.592694,-0.0029349636958644295,-0.023280723622328886,0.09755024973162574,40.106058693909645,-92.24360919585227,80.21211738781929
2024-09-23 19:22:26.100672,40.81,45.592786,-0.0029349636958644295,-0.023280723622328886,0.09755024973162574,48.12595698684454,-100.26678939585686,76.200527287817
2024-09-23 19:22:26.142431,40.81,45.592786,-0.002586742470023829,-0.02338022115155219,0.09740101331113918,40.106058693909645,-96.25519929585457,76.200527287817
2024-09-23 19:22:26.154054,40.81,45.592786,-0.002586742470023829,-0.02338022115155219,0.09740101331113918,40.106058693909645,-96.25519929585457,80.21211738781929
2024-09-23 19:22:26.188677,40.81,45.592837,-0.0032831742888682963,-0.02338022115155219,0.09740101331113918,40.106058693909645,-96.25519929585457,80.21211738781929
2024-09-23 19:22:26.199935,40.81,45.592837,-0.0032831742888682963,-0.02352945757203875,0.09750050628343246,40.106058693909645,-92.24360919585227,80.21211738781929
2024-09-23 19:22:26.233620,40.81,45.592837,-0.0032831742888682963,-0.02352945757203875,0.09750050628343246,40.106058693909645,-92.24360919585227,80.21211738781929
2024-09-23 19:22:26.286648,40.87,45.592888,-0.0028354659767690416,-0.023429960042815445,0.09750050628343246,40.106058693909645,-92.24360919585227,80.21211738781929
2024-09-23 19:22:26.298357,40.87,45.592888,-0.0028354659767690416,-0.023429960042815445,0.09764974270391902,36.09446859390736,-92.24360919585227,80.21211738781929
2024-09-23 19:22:26.341073,40.87,45.592888,-0.0028354659767690416,-0.023429960042815445,0.09764974270391902,36.09446859390736,-96.25519929585457,76.200527287817
2024-09-23 19:22:26.383919,40.87,45.592938,-0.002288270198666964,-0.02308174982955575,0.09764974270391902,36.09446859390736,-96.25519929585457,76.200527287817
2024-09-23 19:22:26.395321,40.87,45.592938,-0.002288270198666964,-0.02308174982955575,0.09764974270391902,36.09446859390736,-92.24360919585227,76.200527287817
2024-09-23 19:22:26.438665,40.87,45.592989,-0.0024872551938930902,-0.023479709566915436,0.09665483728461309,48.12595698684454,-92.24360919585227,80.21211738781929
2024-09-23 19:22:26.481972,40.87,45.592989,-0.0024872551938930902,-0.023479709566915436,0.09665483728461309,48.12595698684454,-96.25519929585457,80.21211738781929
2024-09-23 19:22:26.493831,40.87,45.59304,-0.0035816467500972456,-0.02313149783467906,0.09755024973162574,48.12595698684454,-96.25519929585457,80.21211738781929
2024-09-23 19:22:26.525965,40.87,45.59304,-0.0035816467500972456,-0.02313149783467906,0.09755024973162574,40.106058693909645,-96.25519929585457,80.21211738781929
2024-09-23 19:22:26.537632,40.87,45.593127,-0.0028354659767690416,-0.02338022115155219,0.09755024973162574,40.106058693909645,-92.24360919585227,76.200527287817
2024-09-23 19:22:26.579829,40.87,45.593127,-0.0028354659767690416,-0.02338022115155219,0.09690356060148622,44.11764879391193,-92.24360919585227,76.200527287817
2024-09-23 19:22:26.591403,40.87,45.593225,-0.0025369937054121774,-0.02338022115155219,0.09690356060148622,44.11764879391193,-92.24360919585227,76.200527287817
2024-09-23 19:22:26.623291,40.87,45.593225,-0.0025369937054121774,-0.023479709566915436,0.09690356060148622,44.11764879391193,-92.24360919585227,76.200527287817
2024-09-23 19:22:26.634683,40.87,45.593322,-0.0025369937054121774,-0.023479709566915436,0.09695331012558621,36.09446859390736,-100.26678939585686,72.1922225099802
2024-09-23 19:22:26.678523,40.87,45.593322,-0.0033329230534799477,-0.02352945757203875,0.0970030596496862,36.09446859390736,-108.28669110388756,72.1922225099802
2024-09-23 19:22:26.690478,40.87,45.593322,-0.0033329230534799477,-0.02352945757203875,0.0970030596496862,36.09446859390736,-108.28669110388756,72.1922225099802
2024-09-23 19:22:26.722646,40.87,45.593373,-0.0033329230534799477,-0.02352945757203875,0.0970030596496862,36.09446859390736,-108.28669110388756,72.1922225099802
2024-09-23 19:22:26.734038,40.87,45.593373,-0.0030344509719951677,-0.02352945757203875,0.09645586349183995,40.106058693909645,-96.25519929585457,72.1922225099802
2024-09-23 19:22:26.776556,40.87,45.593424,-0.0030344509719951677,-0.02352945757203875,0.09645586349183995,40.106058693909645,-96.25519929585457,76.200527287817
2024-09-23 19:22:26.821406,40.87,45.593424,-0.002139034157924574,-0.023280723622328886,0.09645586349183995,40.106058693909645,-96.25519929585457,76.200527287817
2024-09-23 19:22:26.832579,40.87,45.593424,-0.002139034157924574,-0.023280723622328886,0.09650560086412653,44.11764879391193,-96.25519929585457,72.1922225099802
2024-09-23 19:22:26.874390,40.87,45.593475,-0.0030344509719951677,-0.023579196463302005,0.09695331012558621,44.11764879391193,-96.25519929585457,72.1922225099802
2024-09-23 19:22:26.886462,40.87,45.593475,-0.0030344509719951677,-0.023579196463302005,0.09695331012558621,44.11764879391193,-100.26678939585686,72.1922225099802
2024-09-23 19:22:26.918683,40.87,45.593525,-0.0030344509719951677,-0.023579196463302005,0.09695331012558621,44.11764879391193,-100.26678939585686,72.1922225099802
2024-09-23 19:22:26.930394,40.87,45.593525,-0.0028354659767690416,-0.02338022115155219,0.09740101331113918,44.11764879391193,-100.26678939585686,72.1922225099802
2024-09-23 19:22:26.972777,40.87,45.593577,-0.0025369937054121774,-0.023479709566915436,0.09740101331113918,44.11764879391193,-92.24360919585227,76.200527287817
2024-09-23 19:22:26.983756,40.87,45.593577,-0.0025369937054121774,-0.023479709566915436,0.09725178296655933,44.11764879391193,-92.24360919585227,76.200527287817
2024-09-23 19:22:27.016090,40.87,45.593577,-0.0025369937054121774,-0.023479709566915436,0.09725178296655933,40.106058693909645,-96.25519929585457,76.200527287817
2024-09-23 19:22:27.027408,40.87,45.593663,-0.0029847020175114316,-0.023479709566915436,0.09725178296655933,40.106058693909645,-96.25519929585457,80.21211738781929
2024-09-23 19:22:27.070009,40.87,45.593715,-0.0029847020175114316,-0.023479709566915436,0.09665483728461309,40.106058693909645,-96.25519929585457,76.200527287817
2024-09-23 19:22:27.081766,40.87,45.593715,-0.003382661564999035,-0.023479709566915436,0.09665483728461309,40.106058693909645,-96.25519929585457,76.200527287817
2024-09-23 19:22:27.114312,40.87,45.593715,-0.003382661564999035,-0.02338022115155219,0.0970030596496862,40.106058693909645,-96.25519929585457,76.200527287817
2024-09-23 19:22:27.125821,40.87,45.593809,-0.003382661564999035,-0.02338022115155219,0.0970030596496862,40.106058693909645,-96.25519929585457,72.1922225099802
2024-09-23 19:22:27.169406,40.87,45.593809,-0.0032831742888682963,-0.023778180888911878,0.09794820946898543,32.08287849390507,-96.25519929585457,76.200527287817
2024-09-23 19:22:27.211396,40.87,45.593861,-0.0030841997366068195,-0.023778180888911878,0.09794820946898543,32.08287849390507,-96.25519929585457,76.200527287817
2024-09-23 19:22:27.222566,40.87,45.593861,-0.0030841997366068195,-0.023280723622328886,0.09675432418099966,36.09446859390736,-92.24360919585227,76.200527287817
2024-09-23 19:22:27.265764,40.87,45.593912,-0.0031836870127375577,-0.02338022115155219,0.09705279702197278,36.09446859390736,-92.24360919585227,76.200527287817
2024-09-23 19:22:27.309248,41.46,45.593962,-0.0031836870127375577,-0.02338022115155219,0.09705279702197278,36.09446859390736,-96.25519929585457,80.21211738781929
2024-09-23 19:22:27.320993,41.46,45.593962,-0.002586742470023829,-0.02338022115155219,0.09705279702197278,36.09446859390736,-96.25519929585457,80.21211738781929
2024-09-23 19:22:27.362929,41.46,45.593962,-0.002586742470023829,-0.0228827638849692,0.0970030596496862,36.09446859390736,-96.25519929585457,80.21211738781929
2024-09-23 19:22:27.405172,41.46,45.593962,-0.002586742470023829,-0.0228827638849692,0.0970030596496862,36.09446859390736,-96.25519929585457,76.200527287817
2024-09-23 19:22:27.417253,41.46,45.594013,-0.002586742470023829,-0.0228827638849692,0.0970030596496862,36.09446859390736,-96.25519929585457,76.200527287817
2024-09-23 19:22:27.459687,41.46,45.594013,-0.0028354659767690416,-0.02338022115155219,0.0966050877605131,32.08287849390507,-92.24360919585227,76.200527287817
2024-09-23 19:22:27.471663,41.46,45.594013,-0.0028354659767690416,-0.02338022115155219,0.0966050877605131,32.08287849390507,-92.24360919585227,76.200527287817
2024-09-23 19:22:27.503526,41.46,45.594064,-0.002437506429281439,-0.02338022115155219,0.0966050877605131,32.08287849390507,-92.24360919585227,76.200527287817
2024-09-23 19:22:27.515483,41.46,45.594064,-0.002437506429281439,-0.02352945757203875,0.09740101331113918,44.11764879391193,-96.25519929585457,76.200527287817
2024-09-23 19:22:27.558504,41.46,45.594151,-0.0037308827908396356,-0.023579196463302005,0.09755024973162574,44.11764879391193,-96.25519929585457,76.200527287817
2024-09-23 19:22:27.600366,41.46,45.594151,-0.0037308827908396356,-0.023579196463302005,0.09755024973162574,44.11764879391193,-104.27510100388527,76.200527287817
2024-09-23 19:22:27.611262,41.46,45.594202,-0.0030344509719951677,-0.023280723622328886,0.09750050628343246,44.11764879391193,-104.27510100388527,76.200527287817
2024-09-23 19:22:27.653127,41.46,45.594298,-0.0030344509719951677,-0.023280723622328886,0.09750050628343246,40.106058693909645,-96.25519929585457,76.200527287817
2024-09-23 19:22:27.666966,41.46,45.594298,-0.002437506429281439,-0.023181236725942318,0.09750050628343246,40.106058693909645,-96.25519929585457,76.200527287817
2024-09-23 19:22:27.701124,41.46,45.594298,-0.002437506429281439,-0.023181236725942318,0.09710254654607277,36.09446859390736,-100.26678939585686,76.200527287817
2024-09-23 19:22:27.712395,41.46,45.594349,-0.0032831742888682963,-0.023181236725942318,0.09710254654607277,36.09446859390736,-100.26678939585686,68.18063240997792
2024-09-23 19:22:27.744520,41.46,45.594349,-0.0032831742888682963,-0.0228827638849692,0.09710254654607277,36.09446859390736,-100.26678939585686,68.18063240997792
2024-09-23 19:22:27.756728,41.46,45.594443,-0.0032831742888682963,-0.0228827638849692,0.09710254654607277,44.11764879391193,-100.26678939585686,84.22370748782159
2024-09-23 19:22:27.800135,41.46,45.594443,-0.0029847020175114316,-0.023479709566915436,0.09784872257259886,44.11764879391193,-96.25519929585457,84.22370748782159
2024-09-23 19:22:27.811791,41.46,45.594443,-0.0029847020175114316,-0.023479709566915436,0.09784872257259886,44.11764879391193,-96.25519929585457,80.21211738781929
2024-09-23 19:22:27.844697,41.46,45.594495,-0.0031339382481259063,-0.023479709566915436,0.09784872257259886,44.11764879391193,-96.25519929585457,80.21211738781929
2024-09-23 19:22:27.856580,41.46,45.594495,-0.0031339382481259063,-0.023579196463302005,0.09745075675933246,28.07457030097246,-100.26678939585686,80.21211738781929
2024-09-23 19:22:27.898643,41.46,45.594545,-0.0025369937054121774,-0.02362894446842532,0.09690356060148622,28.07457030097246,-100.26678939585686,80.21211738781929
2024-09-23 19:22:27.910757,41.46,45.594545,-0.0025369937054121774,-0.02362894446842532,0.09690356060148622,44.11764879391193,-100.26678939585686,80.21211738781929
2024-09-23 19:22:27.943601,41.46,45.594596,-0.0025369937054121774,-0.02362894446842532,0.09690356060148622,44.11764879391193,-92.24360919585227,80.21211738781929
2024-09-23 19:22:27.954623,41.46,45.594596,-0.0029349636958644295,-0.02362894446842532,0.0973015264147526,44.11764879391193,-92.24360919585227,80.21211738781929
2024-09-23 19:22:27.996446,41.46,45.594647,-0.0030841997366068195,-0.02338022115155219,0.0973015264147526,40.106058693909645,-100.26678939585686,80.21211738781929
2024-09-23 19:22:28.038814,41.46,45.594647,-0.0030841997366068195,-0.02338022115155219,0.09740101331113918,40.106058693909645,-100.26678939585686,80.21211738781929
2024-09-23 19:22:28.050723,41.46,45.594647,-0.0030841997366068195,-0.02338022115155219,0.09740101331113918,40.106058693909645,-100.26678939585686,80.21211738781929
2024-09-23 19:22:28.093082,41.46,45.594697,-0.002586742470023829,-0.02367869399252531,0.09710254654607277,40.106058693909645,-100.26678939585686,84.22370748782159
2024-09-23 19:22:28.106006,41.46,45.594697,-0.002586742470023829,-0.02367869399252531,0.09710254654607277,36.09446859390736,-100.26678939585686,84.22370748782159
2024-09-23 19:22:28.138641,41.46,45.594784,-0.002586742470023829,-0.02367869399252531,0.09710254654607277,36.09446859390736,-96.25519929585457,76.200527287817
2024-09-23 19:22:28.149935,41.46,45.594784,-0.0028354659767690416,-0.024176140626271565,0.09695331012558621,36.09446859390736,-96.25519929585457,76.200527287817
2024-09-23 19:22:28.193045,41.46,45.594836,-0.003233425524256645,-0.023330473146428877,0.09695331012558621,32.08287849390507,-84.22370748782159,80.21211738781929
2024-09-23 19:22:28.235624,41.46,45.594836,-0.003233425524256645,-0.023330473146428877,0.0973015264147526,40.106058693909645,-96.25519929585457,80.21211738781929
2024-09-23 19:22:28.246804,41.46,45.594887,-0.0022385316871478774,-0.023330473146428877,0.0973015264147526,40.106058693909645,-96.25519929585457,76.200527287817
2024-09-23 19:22:28.289155,41.46,45.594938,-0.0022385316871478774,-0.023579196463302005,0.09685382322919964,40.106058693909645,-92.24360919585227,80.21211738781929
2024-09-23 19:22:28.332350,41.77,45.594938,-0.0031836870127375577,-0.023429960042815445,0.09685382322919964,40.106058693909645,-92.24360919585227,80.21211738781929
2024-09-23 19:22:28.343493,41.77,45.594938,-0.0031836870127375577,-0.023429960042815445,0.0973512698629459,32.08287849390507,-96.25519929585457,80.21211738781929
2024-09-23 19:22:28.385687,41.77,45.595029,-0.0028354659767690416,-0.02313149783467906,0.0973512698629459,32.08287849390507,-96.25519929585457,80.21211738781929
2024-09-23 19:22:28.429147,41.77,45.595029,-0.0028354659767690416,-0.02313149783467906,0.09720203344245934,32.08287849390507,-96.25519929585457,80.21211738781929
2024-09-23 19:22:28.440437,41.77,45.595081,-0.003233425524256645,-0.02313149783467906,0.09720203344245934,28.07457030097246,-100.26678939585686,80.21211738781929
2024-09-23 19:22:28.483931,41.77,45.595081,-0.003233425524256645,-0.02313149783467906,0.0970030596496862,32.08287849390507,-104.27510100388527,80.21211738781929
2024-09-23 19:22:28.495662,41.77,45.595131,-0.003233425524256645,-0.02313149783467906,0.0970030596496862,32.08287849390507,-104.27510100388527,80.21211738781929
2024-09-23 19:22:28.528705,41.77,45.595131,-0.002288270198666964,-0.02278327698858263,0.0970030596496862,32.08287849390507,-104.27510100388527,80.21211738781929
2024-09-23 19:22:28.539774,41.77,45.595131,-0.002288270198666964,-0.02278327698858263,0.09745075675933246,48.12595698684454,-96.25519929585457,76.200527287817
2024-09-23 19:22:28.583032,41.77,45.595182,-0.0030344509719951677,-0.02367869399252531,0.09680407370509965,44.11764879391193,-100.26678939585686,76.200527287817
2024-09-23 19:22:28.626645,41.77,45.595233,-0.002586742470023829,-0.02367869399252531,0.09680407370509965,44.11764879391193,-100.26678939585686,80.21211738781929
2024-09-23 19:22:28.637990,41.77,45.595233,-0.002586742470023829,-0.022833026512682618,0.09710254654607277,44.11764879391193,-100.26678939585686,80.21211738781929
2024-09-23 19:22:28.681388,41.77,45.595322,-0.002586742470023829,-0.02367869399252531,0.0973512698629459,44.11764879391193,-104.27510100388527,76.200527287817
2024-09-23 19:22:28.724307,41.77,45.595373,-0.002586742470023829,-0.02367869399252531,0.0973512698629459,40.106058693909645,-96.25519929585457,80.21211738781929
2024-09-23 19:22:28.735442,41.77,45.595373,-0.002785727465249955,-0.023230986250042305,0.0973512698629459,40.106058693909645,-96.25519929585457,80.21211738781929
2024-09-23 19:22:28.768810,41.77,45.595373,-0.002785727465249955,-0.023230986250042305,0.09759999317981902,40.106058693909645,-96.25519929585457,80.21211738781929
2024-09-23 19:22:28.779801,41.77,45.595424,-0.0027359787006383035,-0.023230986250042305,0.09759999317981902,48.12595698684454,-96.25519929585457,84.22370748782159
2024-09-23 19:22:28.823499,41.77,45.595424,-0.0027359787006383035,-0.023479709566915436,0.09695331012558621,48.12595698684454,-104.27510100388527,84.22370748782159
2024-09-23 19:22:28.837997,41.77,45.595516,-0.0027359787006383035,-0.023479709566915436,0.09695331012558621,48.12595698684454,-104.27510100388527,76.200527287817
2024-09-23 19:22:28.871297,41.77,45.595516,-0.0026862297461545674,-0.023579196463302005,0.0970030596496862,44.11764879391193,-104.27510100388527,76.200527287817
2024-09-23 19:22:28.884016,41.77,45.595516,-0.0026862297461545674,-0.023579196463302005,0.0970030596496862,44.11764879391193,-92.24360919585227,76.200527287817
2024-09-23 19:22:28.916758,41.77,45.595567,-0.0025369937054121774,-0.023579196463302005,0.0970030596496862,44.11764879391193,-92.24360919585227,76.200527287817
2024-09-23 19:22:28.928227,41.77,45.595567,-0.0025369937054121774,-0.0225345536717095,0.09720203344245934,44.11764879391193,-96.25519929585457,76.200527287817
2024-09-23 19:22:28.970736,41.77,45.595618,-0.0027359787006383035,-0.02303200030545576,0.09715228999426605,44.11764879391193,-96.25519929585457,76.200527287817
2024-09-23 19:22:29.013912,41.77,45.595618,-0.0027359787006383035,-0.02303200030545576,0.09715228999426605,40.106058693909645,-96.25519929585457,76.200527287817
2024-09-23 19:22:29.025786,41.77,45.595669,-0.002785727465249955,-0.022484804147609512,0.09715228999426605,40.106058693909645,-96.25519929585457,80.21211738781929
2024-09-23 19:22:29.068924,41.77,45.595719,-0.002785727465249955,-0.022484804147609512,0.0973015264147526,44.11764879391193,-92.24360919585227,72.1922225099802
2024-09-23 19:22:29.081737,41.77,45.595719,-0.0024872551938930902,-0.022484804147609512,0.0973015264147526,44.11764879391193,-92.24360919585227,72.1922225099802
2024-09-23 19:22:29.113865,41.77,45.595719,-0.0024872551938930902,-0.023280723622328886,0.09680407370509965,32.08287849390507,-92.24360919585227,72.1922225099802
2024-09-23 19:22:29.125608,41.77,45.59577,-0.0024872551938930902,-0.023280723622328886,0.09680407370509965,32.08287849390507,-92.24360919585227,84.22370748782159
2024-09-23 19:22:29.169742,41.77,45.59577,-0.003382661564999035,-0.023230986250042305,0.09620712802315341,36.09446859390736,-92.24360919585227,76.200527287817
2024-09-23 19:22:29.211868,41.77,45.595857,-0.0028354659767690416,-0.0228827638849692,0.09650560086412653,36.09446859390736,-92.24360919585227,76.200527287817
2024-09-23 19:22:29.223651,41.77,45.595857,-0.0028354659767690416,-0.0228827638849692,0.09650560086412653,36.09446859390736,-92.24360919585227,76.200527287817
2024-09-23 19:22:29.255751,41.77,45.595857,-0.0028354659767690416,-0.0228827638849692,0.09650560086412653,36.09446859390736,-92.24360919585227,76.200527287817
2024-09-23 19:22:29.267560,41.77,45.595909,-0.0028354659767690416,-0.023429960042815445,0.0973512698629459,36.09446859390736,-92.24360919585227,76.200527287817
2024-09-23 19:22:29.309442,41.77,45.595959,-0.0029349636958644295,-0.023429960042815445,0.0973512698629459,36.09446859390736,-92.24360919585227,76.200527287817
2024-09-23 19:22:29.321125,41.77,45.595959,-0.0029349636958644295,-0.023280723622328886,0.09695331012558621,36.09446859390736,-92.24360919585227,76.200527287817
2024-09-23 19:22:29.353557,42.03,45.595959,-0.0029349636958644295,-0.023280723622328886,0.09695331012558621,40.106058693909645,-92.24360919585227,76.200527287817
2024-09-23 19:22:29.364729,42.03,45.59601,-0.0029847020175114316,-0.0228827638849692,0.09695331012558621,40.106058693909645,-96.25519929585457,80.21211738781929
2024-09-23 19:22:29.406944,42.03,45.59601,-0.0029847020175114316,-0.0228827638849692,0.09720203344245934,44.11764879391193,-104.27510100388527,76.200527287817
2024-09-23 19:22:29.460502,42.03,45.596061,-0.0029349636958644295,-0.02338022115155219,0.09690356060148622,48.12595698684454,-88.23529758782387,76.200527287817
2024-09-23 19:22:29.503917,42.03,45.596149,-0.002636491424507565,-0.02338022115155219,0.09690356060148622,48.12595698684454,-88.23529758782387,76.200527287817
2024-09-23 19:22:29.515303,42.03,45.596149,-0.002636491424507565,-0.023579196463302005,0.09670458680871308,40.106058693909645,-88.23529758782387,76.200527287817
2024-09-23 19:22:29.557751,42.03,45.596201,-0.0029349636958644295,-0.023230986250042305,0.09685382322919964,40.106058693909645,-92.24360919585227,76.200527287817
2024-09-23 19:22:29.600521,42.03,45.596201,-0.0029349636958644295,-0.023230986250042305,0.09685382322919964,48.12595698684454,-96.25519929585457,76.200527287817
2024-09-23 19:22:29.612121,42.03,45.596252,-0.002785727465249955,-0.023230986250042305,0.09685382322919964,48.12595698684454,-96.25519929585457,76.200527287817
2024-09-23 19:22:29.654342,42.03,45.596302,-0.002785727465249955,-0.02367869399252531,0.09705279702197278,40.106058693909645,-100.26678939585686,76.200527287817
2024-09-23 19:22:29.697182,42.03,45.596302,-0.0028852147413806935,-0.023877669304275123,0.09705279702197278,40.106058693909645,-100.26678939585686,76.200527287817
2024-09-23 19:22:29.708354,42.03,45.596302,-0.0028852147413806935,-0.023877669304275123,0.09755024973162574,40.106058693909645,-100.26678939585686,72.1922225099802
2024-09-23 19:22:29.752619,42.03,45.596393,-0.0027359787006383035,-0.02303200030545576,0.09710254654607277,44.11764879391193,-96.25519929585457,72.1922225099802
2024-09-23 19:22:29.795590,42.03,45.596445,-0.0029847020175114316,-0.02303200030545576,0.09710254654607277,44.11764879391193,-96.25519929585457,76.200527287817
2024-09-23 19:22:29.807344,42.03,45.596445,-0.0029847020175114316,-0.023579196463302005,0.09759999317981902,40.106058693909645,-96.25519929585457,76.200527287817
2024-09-23 19:22:29.849426,42.03,45.596495,-0.0028852147413806935,-0.02362894446842532,0.09720203344245934,40.106058693909645,-88.23529758782387,84.22370748782159
2024-09-23 19:22:29.892142,42.03,45.596495,-0.0028852147413806935,-0.02362894446842532,0.09720203344245934,40.106058693909645,-92.24360919585227,84.22370748782159
2024-09-23 19:22:29.903316,42.03,45.596546,-0.002785727465249955,-0.023927417309398437,0.09720203344245934,40.106058693909645,-92.24360919585227,76.200527287817
2024-09-23 19:22:29.946119,42.03,45.596597,-0.002785727465249955,-0.023927417309398437,0.09750050628343246,36.09446859390736,-100.26678939585686,72.1922225099802
2024-09-23 19:22:29.958072,42.03,45.596597,-0.0026862297461545674,-0.023927417309398437,0.09750050628343246,36.09446859390736,-100.26678939585686,72.1922225099802
2024-09-23 19:22:29.990547,42.03,45.596597,-0.0026862297461545674,-0.023479709566915436,0.0973512698629459,36.09446859390736,-100.26678939585686,72.1922225099802
2024-09-23 19:22:30.002078,42.03,45.596686,-0.0026862297461545674,-0.023479709566915436,0.0973512698629459,32.08287849390507,-96.25519929585457,84.22370748782159
2024-09-23 19:22:30.044707,42.03,45.596686,-0.0030841997366068195,-0.02362894446842532,0.09695331012558621,40.106058693909645,-92.24360919585227,80.21211738781929
2024-09-23 19:22:30.086691,42.03,45.596738,-0.0030841997366068195,-0.02362894446842532,0.09695331012558621,40.106058693909645,-92.24360919585227,80.21211738781929
2024-09-23 19:22:30.140341,42.03,45.596738,-0.0029349636958644295,-0.022982261414192504,0.0973015264147526,40.106058693909645,-92.24360919585227,80.21211738781929
2024-09-23 19:22:30.153795,42.03,45.596738,-0.0029349636958644295,-0.022982261414192504,0.0973015264147526,40.106058693909645,-100.26678939585686,72.1922225099802
2024-09-23 19:22:30.186019,42.03,45.596789,-0.0031339382481259063,-0.02362894446842532,0.0973015264147526,40.106058693909645,-100.26678939585686,72.1922225099802
2024-09-23 19:22:30.197839,42.03,45.596789,-0.0031339382481259063,-0.02362894446842532,0.09710254654607277,36.09446859390736,-96.25519929585457,72.1922225099802
2024-09-23 19:22:30.241639,42.03,45.596839,-0.0023380189632786156,-0.023330473146428877,0.09680407370509965,36.09446859390736,-96.25519929585457,80.21211738781929
2024-09-23 19:22:30.283756,42.03,45.59689,-0.0023380189632786156,-0.023330473146428877,0.09680407370509965,36.09446859390736,-92.24360919585227,76.200527287817
2024-09-23 19:22:30.294972,42.03,45.59689,-0.0028354659767690416,-0.023579196463302005,0.09695331012558621,36.09446859390736,-92.24360919585227,76.200527287817
2024-09-23 19:22:30.337435,42.03,45.596941,-0.002636491424507565,-0.022982261414192504,0.09695331012558621,44.11764879391193,-100.26678939585686,76.200527287817
2024-09-23 19:22:30.380694,41.72,45.596941,-0.002636491424507565,-0.022982261414192504,0.09725178296655933,40.106058693909645,-100.26678939585686,76.200527287817
2024-09-23 19:22:30.391776,41.72,45.59703,-0.002785727465249955,-0.022982261414192504,0.09725178296655933,40.106058693909645,-100.26678939585686,80.21211738781929
2024-09-23 19:22:30.433828,41.72,45.59703,-0.002785727465249955,-0.02367869399252531,0.09725178296655933,36.09446859390736,-92.24360919585227,80.21211738781929
2024-09-23 19:22:30.475896,41.72,45.59703,-0.002785727465249955,-0.02367869399252531,0.09725178296655933,36.09446859390736,-92.24360919585227,72.1922225099802
2024-09-23 19:22:30.487368,41.72,45.597125,-0.003233425524256645,-0.02313149783467906,0.09750050628343246,36.09446859390736,-92.24360919585227,72.1922225099802
2024-09-23 19:22:30.530367,41.72,45.597176,-0.0029349636958644295,-0.02313149783467906,0.09750050628343246,36.09446859390736,-100.26678939585686,72.1922225099802
2024-09-23 19:22:30.542177,41.72,45.597176,-0.0029349636958644295,-0.023181236725942318,0.0970030596496862,36.09446859390736,-100.26678939585686,72.1922225099802
2024-09-23 19:22:30.574472,41.72,45.597176,-0.0029349636958644295,-0.023181236725942318,0.0970030596496862,36.09446859390736,-88.23529758782387,72.1922225099802
2024-09-23 19:22:30.585880,41.72,45.597227,-0.0030344509719951677,-0.02338022115155219,0.0970030596496862,36.09446859390736,-88.23529758782387,80.21211738781929
2024-09-23 19:22:30.629133,41.72,45.597227,-0.0030344509719951677,-0.02338022115155219,0.09685382322919964,36.09446859390736,-88.23529758782387,80.21211738781929
2024-09-23 19:22:30.671786,41.72,45.597277,-0.0030344509719951677,-0.02338022115155219,0.09685382322919964,36.09446859390736,-88.23529758782387,80.21211738781929
2024-09-23 19:22:30.683199,41.72,45.597277,-0.0028354659767690416,-0.02338022115155219,0.09690356060148622,48.12595698684454,-88.23529758782387,80.21211738781929
2024-09-23 19:22:30.725965,41.72,45.597328,-0.002586742470023829,-0.02338022115155219,0.09690356060148622,48.12595698684454,-92.24360919585227,76.200527287817
2024-09-23 19:22:30.738128,41.72,45.597328,-0.002586742470023829,-0.02338022115155219,0.09650560086412653,48.12595698684454,-92.24360919585227,76.200527287817
2024-09-23 19:22:30.771531,41.72,45.597328,-0.002586742470023829,-0.02338022115155219,0.09650560086412653,44.11764879391193,-84.22370748782159,84.22370748782159
2024-09-23 19:22:30.782946,41.72,45.597418,-0.0028354659767690416,-0.023181236725942318,0.09650560086412653,44.11764879391193,-84.22370748782159,84.22370748782159
2024-09-23 19:22:30.826856,41.72,45.59747,-0.0024872551938930902,-0.023181236725942318,0.09675432418099966,40.106058693909645,-84.22370748782159,88.23529758782387
2024-09-23 19:22:30.869863,41.72,45.59747,-0.0024872551938930902,-0.023181236725942318,0.09725178296655933,40.106058693909645,-84.22370748782159,88.23529758782387
2024-09-23 19:22:30.881638,41.72,45.59752,-0.0024872551938930902,-0.023181236725942318,0.09725178296655933,44.11764879391193,-88.23529758782387,76.200527287817
2024-09-23 19:22:30.913410,41.72,45.59752,-0.0026862297461545674,-0.023181236725942318,0.09725178296655933,44.11764879391193,-88.23529758782387,76.200527287817
2024-09-23 19:22:30.925198,41.72,45.59752,-0.0026862297461545674,-0.02338022115155219,0.09745075675933246,36.09446859390736,-92.24360919585227,76.200527287817
2024-09-23 19:22:30.967372,41.72,45.597613,-0.0024872551938930902,-0.023181236725942318,0.09715228999426605,36.09446859390736,-92.24360919585227,76.200527287817
2024-09-23 19:22:30.978994,41.72,45.597613,-0.0024872551938930902,-0.023181236725942318,0.09715228999426605,36.09446859390736,-92.24360919585227,76.200527287817
2024-09-23 19:22:31.011106,41.72,45.597613,-0.0024872551938930902,-0.023181236725942318,0.09715228999426605,36.09446859390736,-92.24360919585227,80.21211738781929
2024-09-23 19:22:31.022675,41.72,45.597664,-0.0025369937054121774,-0.023330473146428877,0.09705279702197278,36.09446859390736,-92.24360919585227,80.21211738781929
2024-09-23 19:22:31.065455,41.72,45.597715,-0.002586742470023829,-0.023330473146428877,0.09705279702197278,36.09446859390736,-96.25519929585457,76.200527287817
2024-09-23 19:22:31.077315,41.72,45.597715,-0.002586742470023829,-0.023330473146428877,0.09695331012558621,36.09446859390736,-96.25519929585457,76.200527287817
2024-09-23 19:22:31.110242,41.72,45.597715,-0.002586742470023829,-0.023330473146428877,0.09695331012558621,36.09446859390736,-96.25519929585457,76.200527287817
2024-09-23 19:22:31.121468,41.72,45.597765,-0.002785727465249955,-0.02352945757203875,0.09695331012558621,36.09446859390736,-100.26678939585686,84.22370748782159
2024-09-23 19:22:31.164116,41.72,45.597765,-0.002785727465249955,-0.02352945757203875,0.09650560086412653,32.08287849390507,-96.25519929585457,80.21211738781929
2024-09-23 19:22:31.257882,41.72,45.597816,-0.0025369937054121774,-0.02352945757203875,0.09650560086412653,32.08287849390507,-96.25519929585457,80.21211738781929
2024-09-23 19:22:31.270233,41.72,45.597816,-0.0025369937054121774,-0.023330473146428877,0.09720203344245934,44.11764879391193,-92.24360919585227,80.21211738781929
2024-09-23 19:22:31.312724,41.72,45.597905,-0.002437506429281439,-0.02362894446842532,0.09680407370509965,32.08287849390507,-92.24360919585227,76.200527287817
2024-09-23 19:22:31.406054,41.41,45.597956,-0.0033329230534799477,-0.02362894446842532,0.09680407370509965,32.08287849390507,-96.25519929585457,76.200527287817
2024-09-23 19:22:31.417398,41.41,45.597956,-0.0033329230534799477,-0.023230986250042305,0.09755024973162574,32.08287849390507,-96.25519929585457,76.200527287817
2024-09-23 19:22:31.450511,41.41,45.597956,-0.0033329230534799477,-0.023230986250042305,0.09755024973162574,36.09446859390736,-96.25519929585457,76.200527287817
2024-09-23 19:22:31.461556,41.41,45.598007,-0.0028354659767690416,-0.023230986250042305,0.09755024973162574,36.09446859390736,-100.26678939585686,76.200527287817
2024-09-23 19:22:31.504281,41.41,45.598007,-0.0028354659767690416,-0.02303200030545576,0.09675432418099966,36.09446859390736,-92.24360919585227,76.200527287817
2024-09-23 19:22:31.515993,41.41,45.598057,-0.0028354659767690416,-0.02303200030545576,0.09675432418099966,36.09446859390736,-92.24360919585227,84.22370748782159
2024-09-23 19:22:31.548824,41.41,45.598057,-0.0025369937054121774,-0.02303200030545576,0.09675432418099966,36.09446859390736,-92.24360919585227,84.22370748782159
2024-09-23 19:22:31.560005,41.41,45.598057,-0.0025369937054121774,-0.023230986250042305,0.09675432418099966,36.09446859390736,-96.25519929585457,80.21211738781929
2024-09-23 19:22:31.603411,41.41,45.598197,-0.0025369937054121774,-0.02362894446842532,0.0970030596496862,44.11764879391193,-96.25519929585457,80.21211738781929
2024-09-23 19:22:31.616003,41.41,45.598197,-0.0025369937054121774,-0.02362894446842532,0.0970030596496862,44.11764879391193,-92.24360919585227,80.21211738781929
2024-09-23 19:22:31.648716,41.41,45.598295,-0.0028852147413806935,-0.02362894446842532,0.0970030596496862,44.11764879391193,-92.24360919585227,76.200527287817
2024-09-23 19:22:31.660538,41.41,45.598295,-0.0028852147413806935,-0.02338022115155219,0.09764974270391902,44.11764879391193,-92.24360919585227,76.200527287817
2024-09-23 19:22:31.694879,41.41,45.598295,-0.0028852147413806935,-0.02338022115155219,0.09764974270391902,44.11764879391193,-96.25519929585457,76.200527287817
2024-09-23 19:22:31.706454,41.41,45.598346,-0.0026862297461545674,-0.023429960042815445,0.09710254654607277,44.11764879391193,-96.25519929585457,72.1922225099802
2024-09-23 19:22:31.749273,41.41,45.598346,-0.0026862297461545674,-0.023429960042815445,0.09710254654607277,44.11764879391193,-100.26678939585686,80.21211738781929
2024-09-23 19:22:31.792620,41.41,45.598397,-0.0028852147413806935,-0.023429960042815445,0.09710254654607277,44.11764879391193,-100.26678939585686,80.21211738781929
2024-09-23 19:22:31.804315,41.41,45.598397,-0.0028852147413806935,-0.02397715620066169,0.09720203344245934,48.12595698684454,-96.25519929585457,80.21211738781929
2024-09-23 19:22:31.847035,41.41,45.598448,-0.0019897979273100995,-0.023181236725942318,0.09725178296655933,48.12595698684454,-96.25519929585457,72.1922225099802
2024-09-23 19:22:31.859221,41.41,45.598448,-0.0019897979273100995,-0.023181236725942318,0.09725178296655933,40.106058693909645,-96.25519929585457,72.1922225099802
2024-09-23 19:22:31.892683,41.41,45.598538,-0.0019897979273100995,-0.023181236725942318,0.09725178296655933,40.106058693909645,-104.27510100388527,76.200527287817
2024-09-23 19:22:31.904286,41.41,45.598538,-0.003233425524256645,-0.023927417309398437,0.09720203344245934,40.106058693909645,-104.27510100388527,76.200527287817
2024-09-23 19:22:31.946522,41.41,45.59859,-0.0027359787006383035,-0.02308174982955575,0.09720203344245934,40.106058693909645,-96.25519929585457,72.1922225099802
2024-09-23 19:22:31.990224,41.41,45.59859,-0.0027359787006383035,-0.02308174982955575,0.09695331012558621,40.106058693909645,-88.23529758782387,72.1922225099802
2024-09-23 19:22:32.001465,41.41,45.598641,-0.0027359787006383035,-0.02308174982955575,0.09695331012558621,40.106058693909645,-88.23529758782387,80.21211738781929
2024-09-23 19:22:32.035958,41.41,45.598641,-0.0027359787006383035,-0.02303200030545576,0.09695331012558621,40.106058693909645,-88.23529758782387,80.21211738781929
2024-09-23 19:22:32.047528,41.41,45.598733,-0.0027359787006383035,-0.02303200030545576,0.0970030596496862,40.106058693909645,-96.25519929585457,76.200527287817
2024-09-23 19:22:32.089915,41.41,45.598733,-0.0027359787006383035,-0.02338022115155219,0.09750050628343246,44.11764879391193,-96.25519929585457,76.200527287817
2024-09-23 19:22:32.101052,41.41,45.598733,-0.0027359787006383035,-0.02338022115155219,0.09750050628343246,44.11764879391193,-100.26678939585686,72.1922225099802
2024-09-23 19:22:32.133980,41.41,45.598785,-0.0027359787006383035,-0.02338022115155219,0.09750050628343246,44.11764879391193,-100.26678939585686,72.1922225099802
2024-09-23 19:22:32.145097,41.41,45.598785,-0.002586742470023829,-0.023579196463302005,0.09740101331113918,44.11764879391193,-100.26678939585686,72.1922225099802
2024-09-23 19:22:32.187681,41.41,45.598836,-0.0023380189632786156,-0.02293251340906919,0.09759999317981902,44.11764879391193,-100.26678939585686,72.1922225099802
2024-09-23 19:22:32.199374,41.41,45.598836,-0.0023380189632786156,-0.02293251340906919,0.09759999317981902,40.106058693909645,-100.26678939585686,72.1922225099802
2024-09-23 19:22:32.232491,41.41,45.598836,-0.0023380189632786156,-0.02293251340906919,0.09759999317981902,40.106058693909645,-100.26678939585686,80.21211738781929
2024-09-23 19:22:32.243701,41.41,45.598886,-0.002785727465249955,-0.02293251340906919,0.09755024973162574,40.106058693909645,-100.26678939585686,80.21211738781929
2024-09-23 19:22:32.286740,41.41,45.598937,-0.0027359787006383035,-0.023479709566915436,0.09755024973162574,44.11764879391193,-100.26678939585686,76.200527287817
2024-09-23 19:22:32.329156,41.41,45.598937,-0.0027359787006383035,-0.023479709566915436,0.09665483728461309,44.11764879391193,-100.26678939585686,76.200527287817
2024-09-23 19:22:32.340815,41.41,45.598988,-0.0024872551938930902,-0.023479709566915436,0.09665483728461309,44.11764879391193,-96.25519929585457,80.21211738781929
2024-09-23 19:22:32.384044,41.41,45.599075,-0.0024872551938930902,-0.02293251340906919,0.09725178296655933,36.09446859390736,-92.24360919585227,76.200527287817
2024-09-23 19:22:32.426586,42.23,45.599075,-0.002636491424507565,-0.02338022115155219,0.09725178296655933,36.09446859390736,-92.24360919585227,76.200527287817
2024-09-23 19:22:32.438253,42.23,45.599075,-0.002636491424507565,-0.02338022115155219,0.09665483728461309,32.08287849390507,-108.28669110388756,72.1922225099802
2024-09-23 19:22:32.479896,42.23,45.599127,-0.0029847020175114316,-0.023479709566915436,0.0970030596496862,40.106058693909645,-108.28669110388756,72.1922225099802
2024-09-23 19:22:32.522772,42.23,45.599127,-0.0029847020175114316,-0.023479709566915436,0.0970030596496862,40.106058693909645,-96.25519929585457,72.1922225099802
2024-09-23 19:22:32.534206,42.23,45.599177,-0.0032831742888682963,-0.023330473146428877,0.09755024973162574,40.106058693909645,-96.25519929585457,76.200527287817
2024-09-23 19:22:32.576791,42.23,45.599228,-0.0032831742888682963,-0.023330473146428877,0.09755024973162574,36.09446859390736,-96.25519929585457,80.21211738781929
2024-09-23 19:22:32.589343,42.23,45.599228,-0.0028852147413806935,-0.023330473146428877,0.09755024973162574,36.09446859390736,-96.25519929585457,80.21211738781929
2024-09-23 19:22:32.622534,42.23,45.599228,-0.0028852147413806935,-0.023827930413011865,0.0973512698629459,36.09446859390736,-96.25519929585457,80.21211738781929
2024-09-23 19:22:32.634435,42.23,45.599279,-0.0028852147413806935,-0.023827930413011865,0.0973512698629459,48.12595698684454,-100.26678939585686,76.200527287817
2024-09-23 19:22:32.718609,42.23,45.599279,-0.002437506429281439,-0.023827930413011865,0.0973512698629459,48.12595698684454,-100.26678939585686,76.200527287817
2024-09-23 19:22:32.730586,42.23,45.599279,-0.002437506429281439,-0.02352945757203875,0.09710254654607277,52.137550501942634,-100.26678939585686,76.200527287817
2024-09-23 19:22:32.773901,42.23,45.599329,-0.002785727465249955,-0.023728432883788564,0.09705279702197278,52.137550501942634,-100.26678939585686,76.200527287817
2024-09-23 19:22:32.786290,42.23,45.599329,-0.002785727465249955,-0.023728432883788564,0.09705279702197278,40.106058693909645,-92.24360919585227,76.200527287817
2024-09-23 19:22:32.818542,42.23,45.599416,-0.002636491424507565,-0.023728432883788564,0.09705279702197278,40.106058693909645,-92.24360919585227,76.200527287817
2024-09-23 19:22:32.829923,42.23,45.599416,-0.002636491424507565,-0.02362894446842532,0.09690356060148622,36.09446859390736,-92.24360919585227,76.200527287817
2024-09-23 19:22:32.914269,42.23,45.599416,-0.002636491424507565,-0.02362894446842532,0.09690356060148622,36.09446859390736,-96.25519929585457,80.21211738781929
2024-09-23 19:22:32.925873,42.23,45.599468,-0.002586742470023829,-0.023479709566915436,0.0966050877605131,36.09446859390736,-96.25519929585457,80.21211738781929
2024-09-23 19:22:32.968498,42.23,45.599518,-0.0025369937054121774,-0.023479709566915436,0.0966050877605131,36.09446859390736,-100.26678939585686,80.21211738781929
2024-09-23 19:22:32.980644,42.23,45.599518,-0.0025369937054121774,-0.02313149783467906,0.0966050877605131,36.09446859390736,-100.26678939585686,80.21211738781929
2024-09-23 19:22:33.014417,42.23,45.599518,-0.0025369937054121774,-0.02313149783467906,0.0973015264147526,40.106058693909645,-96.25519929585457,80.21211738781929
2024-09-23 19:22:33.026173,42.23,45.599614,-0.002785727465249955,-0.02313149783467906,0.0973015264147526,40.106058693909645,-96.25519929585457,84.22370748782159
2024-09-23 19:22:33.109434,42.23,45.599614,-0.002785727465249955,-0.02308174982955575,0.09720203344245934,40.106058693909645,-96.25519929585457,84.22370748782159
2024-09-23 19:22:33.121725,42.23,45.599708,-0.002785727465249955,-0.02308174982955575,0.09720203344245934,48.12595698684454,-100.26678939585686,84.22370748782159
2024-09-23 19:22:33.164677,42.23,45.599708,-0.0024872551938930902,-0.02293251340906919,0.09620712802315341,36.09446859390736,-96.25519929585457,80.21211738781929
2024-09-23 19:22:33.206964,42.23,45.599806,-0.0027359787006383035,-0.02293251340906919,0.09620712802315341,36.09446859390736,-96.25519929585457,80.21211738781929
2024-09-23 19:22:33.218157,42.23,45.599806,-0.0027359787006383035,-0.023330473146428877,0.09764974270391902,32.08287849390507,-96.25519929585457,80.21211738781929
2024-09-23 19:22:33.261027,42.23,45.599858,-0.003233425524256645,-0.023330473146428877,0.09695331012558621,32.08287849390507,-96.25519929585457,84.22370748782159
2024-09-23 19:22:33.273028,42.23,45.599858,-0.003233425524256645,-0.023330473146428877,0.09695331012558621,28.07457030097246,-96.25519929585457,84.22370748782159
2024-09-23 19:22:33.305995,42.23,45.599908,-0.003233425524256645,-0.023330473146428877,0.09695331012558621,28.07457030097246,-96.25519929585457,80.21211738781929
2024-09-23 19:22:33.317228,42.23,45.599908,-0.002139034157924574,-0.023280723622328886,0.09755024973162574,28.07457030097246,-96.25519929585457,80.21211738781929
2024-09-23 19:22:33.360493,42.23,45.600003,-0.0032831742888682963,-0.02308174982955575,0.09755024973162574,40.106058693909645,-92.24360919585227,76.200527287817
2024-09-23 19:22:33.455613,41.63,45.600054,-0.0032831742888682963,-0.02308174982955575,0.09685382322919964,36.09446859390736,-100.26678939585686,80.21211738781929
2024-09-23 19:22:33.467214,41.63,45.600054,-0.0027359787006383035,-0.02308174982955575,0.09685382322919964,36.09446859390736,-100.26678939585686,80.21211738781929
2024-09-23 19:22:33.500122,41.63,45.600054,-0.0027359787006383035,-0.02308174982955575,0.09705279702197278,36.09446859390736,-100.26678939585686,80.21211738781929
2024-09-23 19:22:33.511341,41.63,45.600147,-0.0027359787006383035,-0.02308174982955575,0.09705279702197278,40.106058693909645,-100.26678939585686,76.200527287817
2024-09-23 19:22:33.554018,41.63,45.600147,-0.0028354659767690416,-0.02338022115155219,0.09650560086412653,40.106058693909645,-92.24360919585227,76.200527287817
2024-09-23 19:22:33.566420,41.63,45.600147,-0.0028354659767690416,-0.02338022115155219,0.09650560086412653,40.106058693909645,-92.24360919585227,72.1922225099802
2024-09-23 19:22:33.598351,41.63,45.600199,-0.003482159473966507,-0.023778180888911878,0.09650560086412653,40.106058693909645,-92.24360919585227,72.1922225099802
2024-09-23 19:22:33.609721,41.63,45.600199,-0.003482159473966507,-0.023778180888911878,0.09640611396773996,44.11764879391193,-96.25519929585457,72.1922225099802
2024-09-23 19:22:33.652970,41.63,45.600249,-0.0023380189632786156,-0.022982261414192504,0.09710254654607277,36.09446859390736,-96.25519929585457,84.22370748782159
2024-09-23 19:22:33.695452,41.63,45.600249,-0.0023380189632786156,-0.022982261414192504,0.09710254654607277,36.09446859390736,-100.26678939585686,80.21211738781929
2024-09-23 19:22:33.706699,41.63,45.600344,-0.0030344509719951677,-0.023330473146428877,0.09710254654607277,36.09446859390736,-100.26678939585686,80.21211738781929
2024-09-23 19:22:33.750394,41.63,45.600394,-0.0030344509719951677,-0.02338022115155219,0.09710254654607277,36.09446859390736,-92.24360919585227,84.22370748782159
2024-09-23 19:22:33.793688,41.63,45.600394,-0.0030344509719951677,-0.02338022115155219,0.09695331012558621,48.12595698684454,-92.24360919585227,84.22370748782159
2024-09-23 19:22:33.805164,41.63,45.600445,-0.0028852147413806935,-0.02338022115155219,0.09695331012558621,48.12595698684454,-92.24360919585227,84.22370748782159
2024-09-23 19:22:33.847950,41.63,45.600537,-0.0028852147413806935,-0.022982261414192504,0.09725178296655933,44.11764879391193,-100.26678939585686,80.21211738781929
2024-09-23 19:22:33.892310,41.63,45.600537,-0.002437506429281439,-0.02293251340906919,0.09690356060148622,44.11764879391193,-100.26678939585686,80.21211738781929
2024-09-23 19:22:33.903429,41.63,45.600537,-0.002437506429281439,-0.02293251340906919,0.09690356060148622,36.09446859390736,-100.26678939585686,80.21211738781929
2024-09-23 19:22:33.946192,41.63,45.600589,-0.002785727465249955,-0.023230986250042305,0.09695331012558621,48.12595698684454,-92.24360919585227,80.21211738781929
2024-09-23 19:22:33.988037,41.63,45.600639,-0.003382661564999035,-0.023230986250042305,0.09695331012558621,48.12595698684454,-92.24360919585227,80.21211738781929
2024-09-23 19:22:33.999594,41.63,45.600639,-0.003382661564999035,-0.02303200030545576,0.09710254654607277,36.09446859390736,-92.24360919585227,80.21211738781929
2024-09-23 19:22:34.042560,41.63,45.60069,-0.002288270198666964,-0.02278327698858263,0.09710254654607277,36.09446859390736,-92.24360919585227,80.21211738781929
2024-09-23 19:22:34.054083,41.63,45.60069,-0.002288270198666964,-0.02278327698858263,0.09740101331113918,36.09446859390736,-92.24360919585227,80.21211738781929
2024-09-23 19:22:34.086375,41.63,45.60069,-0.002288270198666964,-0.02278327698858263,0.09740101331113918,36.09446859390736,-88.23529758782387,84.22370748782159
2024-09-23 19:22:34.097617,41.63,45.600741,-0.0025369937054121774,-0.023728432883788564,0.09740101331113918,36.09446859390736,-88.23529758782387,84.22370748782159
2024-09-23 19:22:34.140923,41.63,45.600791,-0.0025369937054121774,-0.023728432883788564,0.09725178296655933,40.106058693909645,-96.25519929585457,80.21211738781929
2024-09-23 19:22:34.183053,41.63,45.600791,-0.0025369937054121774,-0.023479709566915436,0.09725178296655933,44.11764879391193,-96.25519929585457,80.21211738781929
2024-09-23 19:22:34.194126,41.63,45.600878,-0.0025369937054121774,-0.023479709566915436,0.09725178296655933,44.11764879391193,-92.24360919585227,72.1922225099802
2024-09-23 19:22:34.236145,41.63,45.600878,-0.0030344509719951677,-0.023579196463302005,0.09695331012558621,44.11764879391193,-92.24360919585227,72.1922225099802
2024-09-23 19:22:34.248210,41.63,45.600878,-0.0030344509719951677,-0.023579196463302005,0.09695331012558621,44.11764879391193,-92.24360919585227,84.22370748782159
2024-09-23 19:22:34.281028,41.63,45.60093,-0.0027359787006383035,-0.023429960042815445,0.09695331012558621,44.11764879391193,-92.24360919585227,84.22370748782159
2024-09-23 19:22:34.293466,41.63,45.60093,-0.0027359787006383035,-0.023429960042815445,0.09710254654607277,44.11764879391193,-96.25519929585457,84.22370748782159
2024-09-23 19:22:34.336411,41.63,45.60098,-0.0028354659767690416,-0.023778180888911878,0.09710254654607277,32.08287849390507,-96.25519929585457,80.21211738781929
2024-09-23 19:22:34.377975,41.63,45.601031,-0.0028354659767690416,-0.023778180888911878,0.09710254654607277,32.08287849390507,-96.25519929585457,84.22370748782159
2024-09-23 19:22:34.389454,41.63,45.601031,-0.003382661564999035,-0.023280723622328886,0.09690356060148622,32.08287849390507,-96.25519929585457,84.22370748782159
2024-09-23 19:22:34.473333,41.72,45.601031,-0.003382661564999035,-0.023280723622328886,0.09690356060148622,36.09446859390736,-96.25519929585457,84.22370748782159
2024-09-23 19:22:34.484611,41.72,45.601082,-0.0026862297461545674,-0.023479709566915436,0.09690356060148622,36.09446859390736,-104.27510100388527,76.200527287817
2024-09-23 19:22:34.528616,41.72,45.601132,-0.0026862297461545674,-0.023479709566915436,0.09710254654607277,40.106058693909645,-96.25519929585457,76.200527287817
2024-09-23 19:22:34.540751,41.72,45.601132,-0.0032831742888682963,-0.023479709566915436,0.09710254654607277,40.106058693909645,-96.25519929585457,76.200527287817
2024-09-23 19:22:34.572862,41.72,45.601132,-0.0032831742888682963,-0.023429960042815445,0.09715228999426605,40.106058693909645,-96.25519929585457,76.200527287817
2024-09-23 19:22:34.625338,41.72,45.60122,-0.0029349636958644295,-0.023429960042815445,0.09715228999426605,52.137550501942634,-96.25519929585457,80.21211738781929
2024-09-23 19:22:34.637649,41.72,45.60122,-0.0029349636958644295,-0.02293251340906919,0.09715228999426605,52.137550501942634,-96.25519929585457,80.21211738781929
2024-09-23 19:22:34.670476,41.72,45.60122,-0.0029349636958644295,-0.02293251340906919,0.0973015264147526,48.12595698684454,-96.25519929585457,80.21211738781929
2024-09-23 19:22:34.682398,41.72,45.601271,-0.0027359787006383035,-0.02293251340906919,0.0973015264147526,48.12595698684454,-92.24360919585227,76.200527287817
2024-09-23 19:22:34.724686,41.72,45.601367,-0.0027359787006383035,-0.02362894446842532,0.0973512698629459,36.09446859390736,-100.26678939585686,80.21211738781929
2024-09-23 19:22:34.766765,41.72,45.601367,-0.0026862297461545674,-0.023330473146428877,0.0973512698629459,36.09446859390736,-100.26678939585686,80.21211738781929
2024-09-23 19:22:34.778605,41.72,45.601367,-0.0026862297461545674,-0.023330473146428877,0.09685382322919964,32.08287849390507,-96.25519929585457,76.200527287817
2024-09-23 19:22:34.821692,41.72,45.601418,-0.0030841997366068195,-0.023280723622328886,0.09715228999426605,48.12595698684454,-96.25519929585457,76.200527287817
2024-09-23 19:22:34.833313,41.72,45.601418,-0.0030841997366068195,-0.023280723622328886,0.09715228999426605,48.12595698684454,-96.25519929585457,76.200527287817
2024-09-23 19:22:34.865801,41.72,45.601513,-0.002636491424507565,-0.023280723622328886,0.09715228999426605,48.12595698684454,-96.25519929585457,80.21211738781929
2024-09-23 19:22:34.876881,41.72,45.601513,-0.002636491424507565,-0.02293251340906919,0.09705279702197278,44.11764879391193,-96.25519929585457,80.21211738781929
2024-09-23 19:22:34.919585,41.72,45.601564,-0.0029349636958644295,-0.022982261414192504,0.09715228999426605,44.11764879391193,-100.26678939585686,84.22370748782159
2024-09-23 19:22:34.961910,41.72,45.601564,-0.0029349636958644295,-0.022982261414192504,0.09715228999426605,36.09446859390736,-92.24360919585227,84.22370748782159
2024-09-23 19:22:34.973148,41.72,45.601615,-0.0021887829225362256,-0.023230986250042305,0.09715228999426605,36.09446859390736,-92.24360919585227,84.22370748782159
2024-09-23 19:22:35.015152,41.72,45.601666,-0.0021887829225362256,-0.023230986250042305,0.09799795899308542,40.106058693909645,-96.25519929585457,76.200527287817
2024-09-23 19:22:35.027252,41.72,45.601666,-0.0026862297461545674,-0.023230986250042305,0.09799795899308542,40.106058693909645,-96.25519929585457,76.200527287817
2024-09-23 19:22:35.059487,41.72,45.601666,-0.0026862297461545674,-0.023280723622328886,0.0973512698629459,40.106058693909645,-96.25519929585457,76.200527287817
2024-09-23 19:22:35.070570,41.72,45.601756,-0.0026862297461545674,-0.023280723622328886,0.0973512698629459,44.11764879391193,-96.25519929585457,76.200527287817
2024-09-23 19:22:35.112950,41.72,45.601756,-0.002586742470023829,-0.02293251340906919,0.09675432418099966,44.11764879391193,-96.25519929585457,76.200527287817
2024-09-23 19:22:35.155518,41.72,45.601756,-0.002586742470023829,-0.02293251340906919,0.09675432418099966,40.106058693909645,-96.25519929585457,76.200527287817
2024-09-23 19:22:35.167706,41.72,45.601807,-0.0029847020175114316,-0.023479709566915436,0.09675432418099966,40.106058693909645,-96.25519929585457,76.200527287817
2024-09-23 19:22:35.210828,41.72,45.601858,-0.0029847020175114316,-0.023479709566915436,0.09745075675933246,40.106058693909645,-100.26678939585686,80.21211738781929
2024-09-23 19:22:35.222892,41.72,45.601858,-0.0029847020175114316,-0.023479709566915436,0.09745075675933246,40.106058693909645,-100.26678939585686,80.21211738781929
2024-09-23 19:22:35.254460,41.72,45.601858,-0.0029847020175114316,-0.023429960042815445,0.09670458680871308,40.106058693909645,-100.26678939585686,80.21211738781929
2024-09-23 19:22:35.265671,41.72,45.601909,-0.0029847020175114316,-0.023429960042815445,0.09670458680871308,40.106058693909645,-96.25519929585457,76.200527287817
2024-09-23 19:22:35.308842,41.72,45.601909,-0.0035816467500972456,-0.02352945757203875,0.0970030596496862,40.106058693909645,-100.26678939585686,76.200527287817
2024-09-23 19:22:35.352293,41.72,45.601959,-0.0029349636958644295,-0.02352945757203875,0.0970030596496862,40.106058693909645,-100.26678939585686,76.200527287817
2024-09-23 19:22:35.364056,41.72,45.601959,-0.0029349636958644295,-0.02362894446842532,0.0966050877605131,36.09446859390736,-92.24360919585227,76.200527287817
2024-09-23 19:22:35.407019,41.72,45.602049,-0.0030841997366068195,-0.02303200030545576,0.09670458680871308,32.08287849390507,-92.24360919585227,80.21211738781929
2024-09-23 19:22:35.501800,41.82,45.602101,-0.0034324103296106863,-0.02303200030545576,0.09670458680871308,32.08287849390507,-96.25519929585457,76.200527287817
2024-09-23 19:22:35.513682,41.82,45.602101,-0.0034324103296106863,-0.023280723622328886,0.09725178296655933,32.08287849390507,-96.25519929585457,76.200527287817
2024-09-23 19:22:35.547145,41.82,45.602101,-0.0034324103296106863,-0.023280723622328886,0.09725178296655933,32.08287849390507,-100.26678939585686,76.200527287817
2024-09-23 19:22:35.558395,41.82,45.602151,-0.0026862297461545674,-0.02308174982955575,0.09725178296655933,32.08287849390507,-100.26678939585686,80.21211738781929
2024-09-23 19:22:35.600707,41.82,45.602202,-0.0026862297461545674,-0.02308174982955575,0.09665483728461309,40.106058693909645,-88.23529758782387,84.22370748782159
2024-09-23 19:22:35.613014,41.82,45.602202,-0.0029349636958644295,-0.02308174982955575,0.09665483728461309,40.106058693909645,-88.23529758782387,84.22370748782159
2024-09-23 19:22:35.645446,41.82,45.602202,-0.0029349636958644295,-0.023330473146428877,0.09675432418099966,40.106058693909645,-88.23529758782387,84.22370748782159
2024-09-23 19:22:35.657223,41.82,45.602202,-0.0029349636958644295,-0.023330473146428877,0.09675432418099966,36.09446859390736,-92.24360919585227,80.21211738781929
2024-09-23 19:22:35.700455,41.82,45.602292,-0.003233425524256645,-0.023230986250042305,0.0970030596496862,32.08287849390507,-92.24360919585227,80.21211738781929
2024-09-23 19:22:35.742440,41.82,45.60239,-0.003233425524256645,-0.023230986250042305,0.0970030596496862,32.08287849390507,-92.24360919585227,84.22370748782159
2024-09-23 19:22:35.753485,41.82,45.60239,-0.0027359787006383035,-0.02308174982955575,0.09705279702197278,40.106058693909645,-92.24360919585227,84.22370748782159
2024-09-23 19:22:35.798024,41.82,45.602442,-0.003382661564999035,-0.023927417309398437,0.09764974270391902,40.106058693909645,-100.26678939585686,80.21211738781929
2024-09-23 19:22:35.841389,41.82,45.602442,-0.003382661564999035,-0.023927417309398437,0.09764974270391902,36.09446859390736,-96.25519929585457,80.21211738781929
2024-09-23 19:22:35.853088,41.82,45.602493,-0.0031339382481259063,-0.02362894446842532,0.09764974270391902,36.09446859390736,-96.25519929585457,80.21211738781929
2024-09-23 19:22:35.895906,41.82,45.602543,-0.0027359787006383035,-0.02362894446842532,0.0973015264147526,44.11764879391193,-96.25519929585457,76.200527287817
2024-09-23 19:22:35.938569,41.82,45.602543,-0.0027359787006383035,-0.023579196463302005,0.09665483728461309,40.106058693909645,-96.25519929585457,76.200527287817
2024-09-23 19:22:35.950277,41.82,45.602634,-0.0027359787006383035,-0.023579196463302005,0.09665483728461309,40.106058693909645,-96.25519929585457,76.200527287817
2024-09-23 19:22:35.992626,41.82,45.602634,-0.0026862297461545674,-0.023330473146428877,0.0966050877605131,32.08287849390507,-100.26678939585686,80.21211738781929
2024-09-23 19:22:36.034662,41.82,45.602685,-0.0028852147413806935,-0.023330473146428877,0.0966050877605131,32.08287849390507,-100.26678939585686,80.21211738781929
2024-09-23 19:22:36.046841,41.82,45.602685,-0.0028852147413806935,-0.023579196463302005,0.09725178296655933,36.09446859390736,-96.25519929585457,80.21211738781929
2024-09-23 19:22:36.089276,41.82,45.602736,-0.003482159473966507,-0.023479709566915436,0.09705279702197278,44.11764879391193,-96.25519929585457,80.21211738781929
2024-09-23 19:22:36.131408,41.82,45.602736,-0.003482159473966507,-0.023479709566915436,0.09705279702197278,44.11764879391193,-96.25519929585457,80.21211738781929
2024-09-23 19:22:36.142846,41.82,45.602787,-0.002636491424507565,-0.023230986250042305,0.09715228999426605,44.11764879391193,-96.25519929585457,80.21211738781929
2024-09-23 19:22:36.237723,41.82,45.602838,-0.0032831742888682963,-0.022584292562972758,0.09715228999426605,36.09446859390736,-96.25519929585457,80.21211738781929
2024-09-23 19:22:36.281200,41.82,45.602838,-0.0032831742888682963,-0.022584292562972758,0.09690356060148622,40.106058693909645,-96.25519929585457,80.21211738781929
2024-09-23 19:22:36.293345,41.82,45.602888,-0.0028354659767690416,-0.022584292562972758,0.09690356060148622,40.106058693909645,-96.25519929585457,80.21211738781929
2024-09-23 19:22:36.326033,41.82,45.602888,-0.0028354659767690416,-0.023280723622328886,0.09690356060148622,40.106058693909645,-96.25519929585457,80.21211738781929
2024-09-23 19:22:36.337453,41.82,45.602975,-0.0028354659767690416,-0.023280723622328886,0.09710254654607277,48.12595698684454,-92.24360919585227,76.200527287817
2024-09-23 19:22:36.380018,41.82,45.602975,-0.0029847020175114316,-0.02338022115155219,0.09715228999426605,40.106058693909645,-96.25519929585457,76.200527287817
2024-09-23 19:22:36.391724,41.82,45.602975,-0.0029847020175114316,-0.02338022115155219,0.09715228999426605,40.106058693909645,-96.25519929585457,80.21211738781929
2024-09-23 19:22:36.424385,41.82,45.603026,-0.0026862297461545674,-0.02338022115155219,0.09715228999426605,40.106058693909645,-96.25519929585457,80.21211738781929
2024-09-23 19:22:36.435856,41.82,45.603026,-0.0026862297461545674,-0.023181236725942318,0.09680407370509965,40.106058693909645,-80.21211738781929,80.21211738781929
2024-09-23 19:22:36.530130,41.59,45.603123,-0.0033329230534799477,-0.023579196463302005,0.09705279702197278,48.12595698684454,-80.21211738781929,84.22370748782159
2024-09-23 19:22:36.573048,41.59,45.603123,-0.0033329230534799477,-0.023579196463302005,0.09705279702197278,48.12595698684454,-88.23529758782387,80.21211738781929
2024-09-23 19:22:36.584390,41.59,45.603174,-0.002785727465249955,-0.023181236725942318,0.09695331012558621,48.12595698684454,-88.23529758782387,80.21211738781929
2024-09-23 19:22:36.627615,41.59,45.603224,-0.0028852147413806935,-0.02308174982955575,0.09695331012558621,36.09446859390736,-96.25519929585457,80.21211738781929
2024-09-23 19:22:36.670718,41.59,45.603224,-0.0028852147413806935,-0.02308174982955575,0.09764974270391902,40.106058693909645,-96.25519929585457,80.21211738781929
2024-09-23 19:22:36.685154,41.59,45.603275,-0.0030841997366068195,-0.02308174982955575,0.09764974270391902,40.106058693909645,-96.25519929585457,76.200527287817
2024-09-23 19:22:36.768258,41.59,45.603275,-0.0030841997366068195,-0.02352945757203875,0.09685382322919964,36.09446859390736,-96.25519929585457,76.200527287817
2024-09-23 19:22:36.779582,41.59,45.603365,-0.0030841997366068195,-0.02352945757203875,0.09685382322919964,36.09446859390736,-96.25519929585457,80.21211738781929
2024-09-23 19:22:36.813819,41.59,45.603365,-0.0025369937054121774,-0.02352945757203875,0.09685382322919964,36.09446859390736,-96.25519929585457,80.21211738781929
2024-09-23 19:22:36.825826,41.59,45.603365,-0.0025369937054121774,-0.023927417309398437,0.09755024973162574,36.09446859390736,-100.26678939585686,76.200527287817
2024-09-23 19:22:36.868063,41.59,45.603463,-0.0029847020175114316,-0.022833026512682618,0.09720203344245934,40.106058693909645,-100.26678939585686,76.200527287817
2024-09-23 19:22:36.880387,41.59,45.603463,-0.0029847020175114316,-0.022833026512682618,0.09720203344245934,40.106058693909645,-96.25519929585457,76.200527287817
2024-09-23 19:22:36.912357,41.59,45.603514,-0.0029847020175114316,-0.022833026512682618,0.09720203344245934,40.106058693909645,-96.25519929585457,76.200527287817
2024-09-23 19:22:36.923286,41.59,45.603514,-0.002586742470023829,-0.023429960042815445,0.09665483728461309,36.09446859390736,-96.25519929585457,76.200527287817
2024-09-23 19:22:36.964906,41.59,45.603565,-0.002636491424507565,-0.02338022115155219,0.09665483728461309,36.09446859390736,-92.24360919585227,80.21211738781929
2024-09-23 19:22:36.976727,41.59,45.603565,-0.002636491424507565,-0.02338022115155219,0.09705279702197278,36.09446859390736,-92.24360919585227,80.21211738781929
2024-09-23 19:22:37.008402,41.59,45.603565,-0.002636491424507565,-0.02338022115155219,0.09705279702197278,32.08287849390507,-92.24360919585227,80.21211738781929
2024-09-23 19:22:37.019835,41.59,45.603659,-0.0030841997366068195,-0.02308174982955575,0.09705279702197278,32.08287849390507,-100.26678939585686,76.200527287817
2024-09-23 19:22:37.062206,41.59,45.60371,-0.0030841997366068195,-0.02308174982955575,0.0973512698629459,40.106058693909645,-96.25519929585457,84.22370748782159
2024-09-23 19:22:37.074341,41.59,45.60371,-0.002437506429281439,-0.02308174982955575,0.0973512698629459,40.106058693909645,-96.25519929585457,84.22370748782159
2024-09-23 19:22:37.106224,41.59,45.60371,-0.002437506429281439,-0.023230986250042305,0.0973512698629459,40.106058693909645,-96.25519929585457,84.22370748782159
2024-09-23 19:22:37.117898,41.59,45.603803,-0.002437506429281439,-0.023230986250042305,0.09750050628343246,40.106058693909645,-96.25519929585457,76.200527287817
2024-09-23 19:22:37.160711,41.59,45.603803,-0.0023380189632786156,-0.023181236725942318,0.09650560086412653,36.09446859390736,-96.25519929585457,76.200527287817
2024-09-23 19:22:37.172771,41.59,45.603803,-0.0023380189632786156,-0.023181236725942318,0.09650560086412653,36.09446859390736,-96.25519929585457,84.22370748782159
2024-09-23 19:22:37.206357,41.59,45.603855,-0.0030344509719951677,-0.023230986250042305,0.09650560086412653,36.09446859390736,-96.25519929585457,84.22370748782159
2024-09-23 19:22:37.217664,41.59,45.603855,-0.0030344509719951677,-0.023230986250042305,0.0973512698629459,40.106058693909645,-92.24360919585227,84.22370748782159
2024-09-23 19:22:37.259912,41.59,45.603906,-0.002636491424507565,-0.02308174982955575,0.0973512698629459,40.106058693909645,-92.24360919585227,80.21211738781929
2024-09-23 19:22:37.302397,41.59,45.603906,-0.002636491424507565,-0.02308174982955575,0.09710254654607277,32.08287849390507,-92.24360919585227,80.21211738781929
2024-09-23 19:22:37.314327,41.59,45.603957,-0.0028852147413806935,-0.02308174982955575,0.09710254654607277,32.08287849390507,-96.25519929585457,84.22370748782159
2024-09-23 19:22:37.357002,41.59,45.603957,-0.0028852147413806935,-0.02293251340906919,0.09784872257259886,40.106058693909645,-92.24360919585227,80.21211738781929
2024-09-23 19:22:37.368602,41.59,45.604007,-0.0028852147413806935,-0.02293251340906919,0.09784872257259886,40.106058693909645,-92.24360919585227,80.21211738781929
2024-09-23 19:22:37.403082,41.59,45.604007,-0.0028354659767690416,-0.02362894446842532,0.09715228999426605,40.106058693909645,-92.24360919585227,80.21211738781929
2024-09-23 19:22:37.414854,41.59,45.604007,-0.0028354659767690416,-0.02362894446842532,0.09715228999426605,40.106058693909645,-88.23529758782387,80.21211738781929
2024-09-23 19:22:37.447727,41.59,45.604058,-0.0028354659767690416,-0.02362894446842532,0.09715228999426605,40.106058693909645,-88.23529758782387,80.21211738781929
2024-09-23 19:22:37.458809,41.59,45.604058,-0.0030841997366068195,-0.02308174982955575,0.09705279702197278,36.09446859390736,-96.25519929585457,80.21211738781929
2024-09-23 19:22:37.552865,41.3,45.604145,-0.0030841997366068195,-0.023280723622328886,0.09715228999426605,36.09446859390736,-96.25519929585457,80.21211738781929
2024-09-23 19:22:37.565186,41.3,45.604145,-0.0030841997366068195,-0.023280723622328886,0.09715228999426605,36.09446859390736,-96.25519929585457,80.21211738781929
2024-09-23 19:22:37.598943,41.3,45.604196,-0.0030344509719951677,-0.023280723622328886,0.09715228999426605,36.09446859390736,-92.24360919585227,76.200527287817
2024-09-23 19:22:37.611383,41.3,45.604196,-0.0030344509719951677,-0.023330473146428877,0.09720203344245934,36.09446859390736,-92.24360919585227,76.200527287817
2024-09-23 19:22:37.643536,41.3,45.604196,-0.0030344509719951677,-0.023330473146428877,0.09720203344245934,40.106058693909645,-92.24360919585227,76.200527287817
2024-09-23 19:22:37.654703,41.3,45.604247,-0.0027359787006383035,-0.023280723622328886,0.09720203344245934,40.106058693909645,-92.24360919585227,84.22370748782159
2024-09-23 19:22:37.738675,41.3,45.604247,-0.0027359787006383035,-0.023280723622328886,0.09685382322919964,40.106058693909645,-92.24360919585227,84.22370748782159
2024-09-23 19:22:37.750117,41.3,45.604247,-0.0027359787006383035,-0.023280723622328886,0.09685382322919964,40.106058693909645,-96.25519929585457,84.22370748782159
2024-09-23 19:22:37.792162,41.3,45.604298,-0.0029349636958644295,-0.023479709566915436,0.09685382322919964,40.106058693909645,-96.25519929585457,84.22370748782159
2024-09-23 19:22:37.803626,41.3,45.604298,-0.0029349636958644295,-0.023479709566915436,0.09740101331113918,36.09446859390736,-100.26678939585686,84.22370748782159
2024-09-23 19:22:37.838504,41.3,45.604388,-0.0029349636958644295,-0.023479709566915436,0.09740101331113918,36.09446859390736,-100.26678939585686,84.22370748782159
2024-09-23 19:22:37.849967,41.3,45.604388,-0.0030344509719951677,-0.023230986250042305,0.09705279702197278,32.08287849390507,-100.26678939585686,84.22370748782159
2024-09-23 19:22:37.891932,41.3,45.604486,-0.0022385316871478774,-0.023280723622328886,0.09705279702197278,32.08287849390507,-88.23529758782387,80.21211738781929
2024-09-23 19:22:37.904187,41.3,45.604486,-0.0022385316871478774,-0.023280723622328886,0.0976994861521123,32.08287849390507,-88.23529758782387,80.21211738781929
2024-09-23 19:22:37.937850,41.3,45.604486,-0.0022385316871478774,-0.023280723622328886,0.0976994861521123,40.106058693909645,-100.26678939585686,80.21211738781929
2024-09-23 19:22:37.949858,41.3,45.604538,-0.002586742470023829,-0.022833026512682618,0.0976994861521123,40.106058693909645,-100.26678939585686,80.21211738781929
2024-09-23 19:22:37.992522,41.3,45.604634,-0.0026862297461545674,-0.022833026512682618,0.09695331012558621,32.08287849390507,-100.26678939585686,80.21211738781929
2024-09-23 19:22:38.037255,41.3,45.604634,-0.0026862297461545674,-0.023778180888911878,0.09665483728461309,36.09446859390736,-100.26678939585686,80.21211738781929
2024-09-23 19:22:38.049212,41.3,45.60473,-0.0026862297461545674,-0.023778180888911878,0.09665483728461309,36.09446859390736,-96.25519929585457,72.1922225099802
2024-09-23 19:22:38.082710,41.3,45.60473,-0.0024872551938930902,-0.023429960042815445,0.09665483728461309,36.09446859390736,-96.25519929585457,72.1922225099802
2024-09-23 19:22:38.094388,41.3,45.60473,-0.0024872551938930902,-0.023429960042815445,0.09670458680871308,40.106058693909645,-100.26678939585686,80.21211738781929
2024-09-23 19:22:38.137793,41.3,45.604781,-0.0032831742888682963,-0.02263404056809607,0.09680407370509965,36.09446859390736,-100.26678939585686,80.21211738781929
2024-09-23 19:22:38.181314,41.3,45.604832,-0.0029349636958644295,-0.02263404056809607,0.09680407370509965,36.09446859390736,-100.26678939585686,80.21211738781929
2024-09-23 19:22:38.192761,41.3,45.604832,-0.0029349636958644295,-0.023429960042815445,0.09685382322919964,32.08287849390507,-100.26678939585686,80.21211738781929
2024-09-23 19:22:38.235476,41.3,45.604883,-0.0027359787006383035,-0.023579196463302005,0.09695331012558621,32.08287849390507,-96.25519929585457,80.21211738781929
2024-09-23 19:22:38.278034,41.3,45.604883,-0.0027359787006383035,-0.023579196463302005,0.09695331012558621,36.09446859390736,-96.25519929585457,84.22370748782159
2024-09-23 19:22:38.290123,41.3,45.604933,-0.002785727465249955,-0.022982261414192504,0.09695331012558621,36.09446859390736,-96.25519929585457,84.22370748782159
2024-09-23 19:22:38.332560,41.3,45.604984,-0.0021887829225362256,-0.022982261414192504,0.09715228999426605,40.106058693909645,-100.26678939585686,80.21211738781929
2024-09-23 19:22:38.374485,41.3,45.604984,-0.0021887829225362256,-0.02397715620066169,0.09725178296655933,40.106058693909645,-100.26678939585686,80.21211738781929
2024-09-23 19:22:38.385589,41.3,45.605071,-0.0021887829225362256,-0.02397715620066169,0.09725178296655933,36.09446859390736,-92.24360919585227,76.200527287817
2024-09-23 19:22:38.428082,41.3,45.605071,-0.0024872551938930902,-0.023579196463302005,0.09745075675933246,44.11764879391193,-96.25519929585457,76.200527287817
2024-09-23 19:22:38.440055,41.3,45.605071,-0.0024872551938930902,-0.023579196463302005,0.09745075675933246,44.11764879391193,-96.25519929585457,80.21211738781929
2024-09-23 19:22:38.471901,41.3,45.605122,-0.0025369937054121774,-0.023579196463302005,0.09745075675933246,44.11764879391193,-96.25519929585457,80.21211738781929
2024-09-23 19:22:38.483178,41.3,45.605122,-0.0025369937054121774,-0.023230986250042305,0.09670458680871308,40.106058693909645,-92.24360919585227,80.21211738781929
2024-09-23 19:22:38.576529,41.01,45.605173,-0.0029349636958644295,-0.023280723622328886,0.09715228999426605,44.11764879391193,-92.24360919585227,72.1922225099802
2024-09-23 19:22:38.620050,41.01,45.605224,-0.0029349636958644295,-0.023280723622328886,0.09715228999426605,44.11764879391193,-96.25519929585457,72.1922225099802
2024-09-23 19:22:38.631652,41.01,45.605224,-0.0028852147413806935,-0.02303200030545576,0.0970030596496862,44.11764879391193,-96.25519929585457,72.1922225099802
2024-09-23 19:22:38.674143,41.01,45.605274,-0.002586742470023829,-0.023728432883788564,0.0970030596496862,40.106058693909645,-96.25519929585457,72.1922225099802
2024-09-23 19:22:38.717624,41.01,45.605274,-0.002586742470023829,-0.023728432883788564,0.09740101331113918,36.09446859390736,-96.25519929585457,72.1922225099802
2024-09-23 19:22:38.729160,41.01,45.605325,-0.002785727465249955,-0.023728432883788564,0.09740101331113918,36.09446859390736,-96.25519929585457,76.200527287817
2024-09-23 19:22:38.772288,41.01,45.605325,-0.002785727465249955,-0.02367869399252531,0.0973015264147526,36.09446859390736,-96.25519929585457,76.200527287817
2024-09-23 19:22:38.815412,41.01,45.605412,-0.002785727465249955,-0.02367869399252531,0.0973015264147526,36.09446859390736,-100.26678939585686,80.21211738781929
2024-09-23 19:22:38.827164,41.01,45.605412,-0.0028852147413806935,-0.02352945757203875,0.09725178296655933,36.09446859390736,-100.26678939585686,80.21211738781929
2024-09-23 19:22:38.859964,41.01,45.605412,-0.0028852147413806935,-0.02352945757203875,0.09725178296655933,44.11764879391193,-100.26678939585686,80.21211738781929
2024-09-23 19:22:38.871750,41.01,45.60551,-0.0028852147413806935,-0.02352945757203875,0.09725178296655933,44.11764879391193,-92.24360919585227,76.200527287817
2024-09-23 19:22:38.914168,41.01,45.60551,-0.0020892956464054874,-0.02313149783467906,0.0973512698629459,36.09446859390736,-92.24360919585227,76.200527287817
2024-09-23 19:22:38.925984,41.01,45.60551,-0.0020892956464054874,-0.02313149783467906,0.0973512698629459,36.09446859390736,-100.26678939585686,76.200527287817
2024-09-23 19:22:38.958674,41.01,45.605562,-0.0020892956464054874,-0.02313149783467906,0.0973512698629459,36.09446859390736,-100.26678939585686,76.200527287817
2024-09-23 19:22:38.970689,41.01,45.605562,-0.002785727465249955,-0.02352945757203875,0.0973512698629459,44.11764879391193,-96.25519929585457,76.200527287817
2024-09-23 19:22:39.013325,41.01,45.605612,-0.0028354659767690416,-0.023827930413011865,0.09740101331113918,44.11764879391193,-96.25519929585457,76.200527287817
2024-09-23 19:22:39.025229,41.01,45.605612,-0.0028354659767690416,-0.023827930413011865,0.09740101331113918,44.11764879391193,-96.25519929585457,76.200527287817
2024-09-23 19:22:39.057162,41.01,45.605612,-0.0028354659767690416,-0.023827930413011865,0.09740101331113918,44.11764879391193,-92.24360919585227,76.200527287817
2024-09-23 19:22:39.068669,41.01,45.605705,-0.002636491424507565,-0.02308174982955575,0.09685382322919964,44.11764879391193,-92.24360919585227,76.200527287817
2024-09-23 19:22:39.111866,41.01,45.605757,-0.0019897979273100995,-0.023230986250042305,0.09685382322919964,40.106058693909645,-96.25519929585457,80.21211738781929
2024-09-23 19:22:39.154123,41.01,45.605757,-0.0019897979273100995,-0.023230986250042305,0.09690356060148622,40.106058693909645,-96.25519929585457,80.21211738781929
2024-09-23 19:22:39.165678,41.01,45.605807,-0.0026862297461545674,-0.023230986250042305,0.09690356060148622,40.106058693909645,-96.25519929585457,84.22370748782159
2024-09-23 19:22:39.207961,41.01,45.605807,-0.0026862297461545674,-0.023728432883788564,0.09740101331113918,44.11764879391193,-96.25519929585457,80.21211738781929
2024-09-23 19:22:39.220073,41.01,45.6059,-0.0026862297461545674,-0.023728432883788564,0.09740101331113918,44.11764879391193,-96.25519929585457,80.21211738781929
2024-09-23 19:22:39.253471,41.01,45.6059,-0.003233425524256645,-0.023230986250042305,0.09740101331113918,44.11764879391193,-96.25519929585457,80.21211738781929
2024-09-23 19:22:39.264870,41.01,45.6059,-0.003233425524256645,-0.023230986250042305,0.0973015264147526,36.09446859390736,-92.24360919585227,80.21211738781929
2024-09-23 19:22:39.307773,41.01,45.605951,-0.002785727465249955,-0.023927417309398437,0.09695331012558621,44.11764879391193,-96.25519929585457,80.21211738781929
2024-09-23 19:22:39.349938,41.01,45.606002,-0.002785727465249955,-0.023927417309398437,0.09695331012558621,44.11764879391193,-96.25519929585457,76.200527287817
2024-09-23 19:22:39.361239,41.01,45.606002,-0.002785727465249955,-0.02397715620066169,0.09745075675933246,44.11764879391193,-96.25519929585457,76.200527287817
2024-09-23 19:22:39.403572,41.01,45.606053,-0.002586742470023829,-0.023181236725942318,0.09745075675933246,44.11764879391193,-92.24360919585227,76.200527287817
2024-09-23 19:22:39.446988,41.01,45.606053,-0.002586742470023829,-0.023181236725942318,0.09675432418099966,40.106058693909645,-92.24360919585227,76.200527287817
2024-09-23 19:22:39.458412,41.01,45.606103,-0.0027359787006383035,-0.023181236725942318,0.09675432418099966,40.106058693909645,-96.25519929585457,76.200527287817
2024-09-23 19:22:39.502227,41.01,45.606154,-0.0027359787006383035,-0.023330473146428877,0.09675432418099966,36.09446859390736,-96.25519929585457,80.21211738781929
2024-09-23 19:22:39.596781,40.62,45.606154,-0.002387757474797703,-0.02303200030545576,0.09725178296655933,40.106058693909645,-96.25519929585457,80.21211738781929
2024-09-23 19:22:39.608721,40.62,45.606154,-0.002387757474797703,-0.02303200030545576,0.09725178296655933,40.106058693909645,-92.24360919585227,76.200527287817
2024-09-23 19:22:39.642028,40.62,45.606241,-0.0026862297461545674,-0.02303200030545576,0.09725178296655933,40.106058693909645,-92.24360919585227,76.200527287817
2024-09-23 19:22:39.654166,40.62,45.606241,-0.0026862297461545674,-0.023280723622328886,0.09750050628343246,40.106058693909645,-96.25519929585457,76.200527287817
2024-09-23 19:22:39.696041,40.62,45.606292,-0.0027359787006383035,-0.02308174982955575,0.09675432418099966,40.106058693909645,-96.25519929585457,88.23529758782387
2024-09-23 19:22:39.707972,40.62,45.606292,-0.0027359787006383035,-0.02308174982955575,0.09675432418099966,36.09446859390736,-96.25519929585457,88.23529758782387
2024-09-23 19:22:39.742561,40.62,45.606343,-0.0027359787006383035,-0.02308174982955575,0.09675432418099966,36.09446859390736,-92.24360919585227,76.200527287817
2024-09-23 19:22:39.753809,40.62,45.606343,-0.0029847020175114316,-0.023429960042815445,0.09750050628343246,36.09446859390736,-92.24360919585227,76.200527287817
2024-09-23 19:22:39.786380,40.62,45.606343,-0.0029847020175114316,-0.023429960042815445,0.09750050628343246,36.09446859390736,-92.24360919585227,76.200527287817
2024-09-23 19:22:39.798303,40.62,45.606394,-0.0028852147413806935,-0.023429960042815445,0.09750050628343246,36.09446859390736,-96.25519929585457,80.21211738781929
2024-09-23 19:22:39.840623,40.62,45.606394,-0.0028852147413806935,-0.023429960042815445,0.09685382322919964,36.09446859390736,-92.24360919585227,84.22370748782159
2024-09-23 19:22:39.852373,40.62,45.606488,-0.002636491424507565,-0.023429960042815445,0.09685382322919964,36.09446859390736,-92.24360919585227,84.22370748782159
2024-09-23 19:22:39.884946,40.62,45.606488,-0.002636491424507565,-0.022982261414192504,0.09685382322919964,36.09446859390736,-92.24360919585227,84.22370748782159
2024-09-23 19:22:39.896917,40.62,45.606582,-0.002636491424507565,-0.022982261414192504,0.0966050877605131,40.106058693909645,-96.25519929585457,76.200527287817
2024-09-23 19:22:39.939069,40.62,45.606582,-0.0028354659767690416,-0.023579196463302005,0.09745075675933246,40.106058693909645,-104.27510100388527,76.200527287817
2024-09-23 19:22:39.950792,40.62,45.606582,-0.0028354659767690416,-0.023579196463302005,0.09745075675933246,40.106058693909645,-104.27510100388527,76.200527287817
2024-09-23 19:22:39.983848,40.62,45.606634,-0.0028852147413806935,-0.023579196463302005,0.09745075675933246,40.106058693909645,-104.27510100388527,76.200527287817
2024-09-23 19:22:39.995685,40.62,45.606634,-0.0028852147413806935,-0.023579196463302005,0.09630662707135339,40.106058693909645,-96.25519929585457,76.200527287817
2024-09-23 19:22:40.038865,40.62,45.606684,-0.0031836870127375577,-0.023778180888911878,0.09720203344245934,36.09446859390736,-96.25519929585457,76.200527287817
2024-09-23 19:22:40.082504,40.62,45.606735,-0.0031836870127375577,-0.023778180888911878,0.09720203344245934,36.09446859390736,-100.26678939585686,72.1922225099802
2024-09-23 19:22:40.094066,40.62,45.606735,-0.0030344509719951677,-0.023479709566915436,0.09745075675933246,36.09446859390736,-100.26678939585686,72.1922225099802
2024-09-23 19:22:40.136693,40.62,45.606786,-0.0028852147413806935,-0.02397715620066169,0.09745075675933246,36.09446859390736,-96.25519929585457,76.200527287817
2024-09-23 19:22:40.180112,40.62,45.606786,-0.0028852147413806935,-0.02397715620066169,0.09715228999426605,40.106058693909645,-92.24360919585227,76.200527287817
2024-09-23 19:22:40.191554,40.62,45.606836,-0.002288270198666964,-0.02397715620066169,0.09715228999426605,40.106058693909645,-92.24360919585227,76.200527287817
2024-09-23 19:22:40.225596,40.62,45.606836,-0.002288270198666964,-0.023479709566915436,0.09715228999426605,40.106058693909645,-92.24360919585227,76.200527287817
2024-09-23 19:22:40.237089,40.62,45.606923,-0.002288270198666964,-0.023479709566915436,0.09690356060148622,36.09446859390736,-92.24360919585227,76.200527287817
2024-09-23 19:22:40.279224,40.62,45.606923,-0.0030344509719951677,-0.023429960042815445,0.09670458680871308,40.106058693909645,-92.24360919585227,76.200527287817
2024-09-23 19:22:40.291081,40.62,45.606923,-0.0030344509719951677,-0.023429960042815445,0.09670458680871308,40.106058693909645,-88.23529758782387,72.1922225099802
2024-09-23 19:22:40.324336,40.62,45.606975,-0.0031836870127375577,-0.023429960042815445,0.09670458680871308,40.106058693909645,-88.23529758782387,72.1922225099802
2024-09-23 19:22:40.335902,40.62,45.606975,-0.0031836870127375577,-0.02268379009219606,0.09655535038822652,40.106058693909645,-96.25519929585457,72.1922225099802
2024-09-23 19:22:40.378735,40.62,45.607026,-0.003233425524256645,-0.023877669304275123,0.09720203344245934,40.106058693909645,-96.25519929585457,84.22370748782159
2024-09-23 19:22:40.390369,40.62,45.607026,-0.003233425524256645,-0.023877669304275123,0.09720203344245934,44.11764879391193,-96.25519929585457,84.22370748782159
2024-09-23 19:22:40.422081,40.62,45.607026,-0.003233425524256645,-0.023877669304275123,0.09720203344245934,44.11764879391193,-104.27510100388527,84.22370748782159
2024-09-23 19:22:40.433886,40.62,45.607076,-0.002288270198666964,-0.02362894446842532,0.09720203344245934,44.11764879391193,-104.27510100388527,84.22370748782159
2024-09-23 19:22:40.477933,40.62,45.607127,-0.0030841997366068195,-0.023728432883788564,0.09720203344245934,36.09446859390736,-100.26678939585686,76.200527287817
2024-09-23 19:22:40.520856,40.62,45.607127,-0.0030841997366068195,-0.023728432883788564,0.09650560086412653,36.09446859390736,-104.27510100388527,76.200527287817
2024-09-23 19:22:40.533160,40.62,45.607178,-0.002785727465249955,-0.023728432883788564,0.09650560086412653,36.09446859390736,-104.27510100388527,76.200527287817
2024-09-23 19:22:40.617221,41.13,45.607178,-0.002785727465249955,-0.023330473146428877,0.09720203344245934,36.09446859390736,-104.27510100388527,76.200527287817
2024-09-23 19:22:40.629619,41.13,45.607265,-0.002785727465249955,-0.023330473146428877,0.09720203344245934,40.106058693909645,-96.25519929585457,80.21211738781929
2024-09-23 19:22:40.672883,41.13,45.607265,-0.0028354659767690416,-0.023280723622328886,0.09685382322919964,40.106058693909645,-92.24360919585227,76.200527287817
2024-09-23 19:22:40.716485,41.13,45.607316,-0.0028852147413806935,-0.023579196463302005,0.09685382322919964,40.106058693909645,-92.24360919585227,76.200527287817
2024-09-23 19:22:40.727533,41.13,45.607316,-0.0028852147413806935,-0.023579196463302005,0.09685382322919964,40.106058693909645,-100.26678939585686,76.200527287817
2024-09-23 19:22:40.770435,41.13,45.607367,-0.0030344509719951677,-0.0228827638849692,0.09665483728461309,40.106058693909645,-100.26678939585686,76.200527287817
2024-09-23 19:22:40.812861,41.13,45.607367,-0.0030344509719951677,-0.0228827638849692,0.09665483728461309,40.106058693909645,-96.25519929585457,76.200527287817
2024-09-23 19:22:40.824058,41.13,45.607418,-0.0028852147413806935,-0.02308174982955575,0.09705279702197278,40.106058693909645,-96.25519929585457,76.200527287817
2024-09-23 19:22:40.867088,41.13,45.607511,-0.003382661564999035,-0.023280723622328886,0.09705279702197278,40.106058693909645,-96.25519929585457,80.21211738781929
2024-09-23 19:22:40.911913,41.13,45.607511,-0.003382661564999035,-0.023280723622328886,0.09755024973162574,36.09446859390736,-88.23529758782387,80.21211738781929
2024-09-23 19:22:40.923270,41.13,45.607561,-0.0026862297461545674,-0.023280723622328886,0.09755024973162574,36.09446859390736,-88.23529758782387,80.21211738781929
2024-09-23 19:22:40.965196,41.13,45.607655,-0.0026862297461545674,-0.023479709566915436,0.0973512698629459,40.106058693909645,-92.24360919585227,76.200527287817
2024-09-23 19:22:41.008515,41.13,45.607655,-0.0028852147413806935,-0.023330473146428877,0.0973512698629459,40.106058693909645,-92.24360919585227,76.200527287817
2024-09-23 19:22:41.020478,41.13,45.607655,-0.0028852147413806935,-0.023330473146428877,0.0973512698629459,36.09446859390736,-92.24360919585227,76.200527287817
2024-09-23 19:22:41.062717,41.13,45.607706,-0.0029847020175114316,-0.02313149783467906,0.09685382322919964,40.106058693909645,-96.25519929585457,76.200527287817
2024-09-23 19:22:41.104703,41.13,45.607757,-0.0029847020175114316,-0.02313149783467906,0.09685382322919964,40.106058693909645,-96.25519929585457,80.21211738781929
2024-09-23 19:22:41.116807,41.13,45.607757,-0.0029847020175114316,-0.02352945757203875,0.09750050628343246,40.106058693909645,-96.25519929585457,80.21211738781929
2024-09-23 19:22:41.160300,41.13,45.607808,-0.003233425524256645,-0.023280723622328886,0.09670458680871308,40.106058693909645,-104.27510100388527,76.200527287817
2024-09-23 19:22:41.202492,41.13,45.607808,-0.003233425524256645,-0.023280723622328886,0.09670458680871308,48.12595698684454,-96.25519929585457,76.200527287817
2024-09-23 19:22:41.214090,41.13,45.607858,-0.0027359787006383035,-0.023579196463302005,0.09670458680871308,48.12595698684454,-96.25519929585457,76.200527287817
2024-09-23 19:22:41.256675,41.13,45.607909,-0.0027359787006383035,-0.023579196463302005,0.0970030596496862,36.09446859390736,-92.24360919585227,76.200527287817
2024-09-23 19:22:41.268650,41.13,45.607909,-0.0029349636958644295,-0.023579196463302005,0.0970030596496862,36.09446859390736,-92.24360919585227,76.200527287817
2024-09-23 19:22:41.300557,41.13,45.607909,-0.0029349636958644295,-0.0228827638849692,0.09705279702197278,44.11764879391193,-92.24360919585227,76.200527287817
2024-09-23 19:22:41.311752,41.13,45.607996,-0.0029349636958644295,-0.0228827638849692,0.09705279702197278,44.11764879391193,-100.26678939585686,76.200527287817
2024-09-23 19:22:41.354107,41.13,45.607996,-0.0028354659767690416,-0.023330473146428877,0.09725178296655933,36.09446859390736,-96.25519929585457,76.200527287817
2024-09-23 19:22:41.397266,41.13,45.608048,-0.002636491424507565,-0.023330473146428877,0.09725178296655933,36.09446859390736,-96.25519929585457,76.200527287817
2024-09-23 19:22:41.409027,41.13,45.608048,-0.002636491424507565,-0.02303200030545576,0.09715228999426605,40.106058693909645,-104.27510100388527,76.200527287817
2024-09-23 19:22:41.452680,41.13,45.608098,-0.002387757474797703,-0.02362894446842532,0.09740101331113918,36.09446859390736,-104.27510100388527,72.1922225099802
2024-09-23 19:22:41.547410,41.13,45.608149,-0.002288270198666964,-0.02362894446842532,0.09740101331113918,36.09446859390736,-100.26678939585686,72.1922225099802
2024-09-23 19:22:41.560447,41.13,45.608149,-0.002288270198666964,-0.022733528983459317,0.09715228999426605,36.09446859390736,-100.26678939585686,72.1922225099802
2024-09-23 19:22:41.592819,41.13,45.608149,-0.002288270198666964,-0.022733528983459317,0.09715228999426605,44.11764879391193,-100.26678939585686,72.1922225099802
2024-09-23 19:22:41.645956,41.02,45.6082,-0.0031339382481259063,-0.023429960042815445,0.09715228999426605,44.11764879391193,-88.23529758782387,72.1922225099802
2024-09-23 19:22:41.657809,41.02,45.6082,-0.0031339382481259063,-0.023429960042815445,0.09755024973162574,44.11764879391193,-88.23529758782387,72.1922225099802
2024-09-23 19:22:41.691175,41.02,45.6082,-0.0031339382481259063,-0.023429960042815445,0.09755024973162574,48.12595698684454,-104.27510100388527,76.200527287817
2024-09-23 19:22:41.702923,41.02,45.60825,-0.0024872551938930902,-0.022733528983459317,0.09755024973162574,48.12595698684454,-104.27510100388527,76.200527287817
2024-09-23 19:22:41.746169,41.02,45.608337,-0.0026862297461545674,-0.022733528983459317,0.09774922960030558,44.11764879391193,-100.26678939585686,84.22370748782159
2024-09-23 19:22:41.788626,41.02,45.608337,-0.0026862297461545674,-0.02352945757203875,0.09720203344245934,32.08287849390507,-100.26678939585686,84.22370748782159
2024-09-23 19:22:41.800291,41.02,45.608435,-0.0026862297461545674,-0.02352945757203875,0.09720203344245934,32.08287849390507,-92.24360919585227,80.21211738781929
2024-09-23 19:22:41.843040,41.02,45.608435,-0.0023380189632786156,-0.02367869399252531,0.09705279702197278,44.11764879391193,-88.23529758782387,80.21211738781929
2024-09-23 19:22:41.886312,41.02,45.608533,-0.002387757474797703,-0.02303200030545576,0.09705279702197278,44.11764879391193,-88.23529758782387,80.21211738781929
2024-09-23 19:22:41.897465,41.02,45.608533,-0.002387757474797703,-0.02303200030545576,0.0970030596496862,40.106058693909645,-92.24360919585227,80.21211738781929
2024-09-23 19:22:41.940997,41.02,45.608584,-0.0028354659767690416,-0.022833026512682618,0.09690356060148622,44.11764879391193,-92.24360919585227,72.1922225099802
2024-09-23 19:22:41.983719,41.02,45.608635,-0.0028354659767690416,-0.022833026512682618,0.09690356060148622,44.11764879391193,-96.25519929585457,80.21211738781929
2024-09-23 19:22:41.995438,41.02,45.608635,-0.002636491424507565,-0.023181236725942318,0.09720203344245934,44.11764879391193,-96.25519929585457,80.21211738781929
2024-09-23 19:22:42.038533,41.02,45.608686,-0.002785727465249955,-0.023181236725942318,0.09720203344245934,44.11764879391193,-104.27510100388527,80.21211738781929
2024-09-23 19:22:42.082314,41.02,45.608686,-0.002785727465249955,-0.023181236725942318,0.09740101331113918,40.106058693909645,-104.27510100388527,76.200527287817
2024-09-23 19:22:42.094195,41.02,45.608736,-0.0029349636958644295,-0.023181236725942318,0.09740101331113918,40.106058693909645,-104.27510100388527,76.200527287817
2024-09-23 19:22:42.125641,41.02,45.608736,-0.0029349636958644295,-0.023181236725942318,0.09740101331113918,40.106058693909645,-104.27510100388527,76.200527287817
2024-09-23 19:22:42.178592,41.02,45.608736,-0.0029349636958644295,-0.023181236725942318,0.09720203344245934,44.11764879391193,-92.24360919585227,76.200527287817
2024-09-23 19:22:42.190219,41.02,45.608825,-0.0030841997366068195,-0.023181236725942318,0.09720203344245934,44.11764879391193,-92.24360919585227,76.200527287817
2024-09-23 19:22:42.233737,41.02,45.608876,-0.0030841997366068195,-0.023230986250042305,0.09710254654607277,40.106058693909645,-92.24360919585227,80.21211738781929
2024-09-23 19:22:42.275912,41.02,45.608876,-0.002387757474797703,-0.02308174982955575,0.09710254654607277,40.106058693909645,-92.24360919585227,80.21211738781929
2024-09-23 19:22:42.287697,41.02,45.608876,-0.002387757474797703,-0.02308174982955575,0.09720203344245934,36.09446859390736,-92.24360919585227,80.21211738781929
