Ayaan's Suite
Timestamp,Sample Rate (Hz),Time,Ax,Ay,Az,Gx,Gy,Gz
2024-09-23 08:11:11.556271,0,5.317353,-0.0033329230534799477,-0.023429960042815445,0.09680407370509965,40.106058693909645,-92.24360919585227,76.200527287817
2024-09-23 08:11:11.599582,0,5.317353,-0.0036811340262279837,-0.023330473146428877,0.09680407370509965,32.08287849390507,-96.25519929585457,80.21211738781929
2024-09-23 08:11:11.642984,0,5.317404,-0.0029349636958644295,-0.023728432883788564,0.09680407370509965,32.08287849390507,-96.25519929585457,80.21211738781929
2024-09-23 08:11:11.654601,0,5.317404,-0.0029349636958644295,-0.023728432883788564,0.09705279702197278,40.106058693909645,-104.27510100388527,80.21211738781929
2024-09-23 08:11:11.687009,0,5.317404,-0.0029349636958644295,-0.023728432883788564,0.09705279702197278,40.106058693909645,-104.27510100388527,76.200527287817
2024-09-23 08:11:11.698228,0,5.317455,-0.003631395514708897,-0.024076653729884996,0.09725178296655933,44.11764879391193,-104.27510100388527,76.200527287817
2024-09-23 08:11:11.740647,0,5.317505,-0.003233425524256645,-0.024076653729884996,0.09725178296655933,44.11764879391193,-96.25519929585457,76.200527287817
2024-09-23 08:11:11.752035,0,5.317505,-0.003233425524256645,-0.02362894446842532,0.09675432418099966,44.11764879391193,-96.25519929585457,76.200527287817
2024-09-23 08:11:11.784290,0,5.317505,-0.003233425524256645,-0.02362894446842532,0.09675432418099966,40.106058693909645,-96.25519929585457,76.200527287817
2024-09-23 08:11:11.796098,0,5.317556,-0.002785727465249955,-0.02338022115155219,0.09675432418099966,40.106058693909645,-92.24360919585227,76.200527287817
2024-09-23 08:11:11.838452,0,5.317556,-0.002785727465249955,-0.02338022115155219,0.09665483728461309,32.08287849390507,-100.26678939585686,80.21211738781929
2024-09-23 08:11:11.849447,0,5.317607,-0.0035318979854855937,-0.02338022115155219,0.09665483728461309,32.08287849390507,-100.26678939585686,80.21211738781929
2024-09-23 08:11:11.881285,0,5.317607,-0.0035318979854855937,-0.02412639262114825,0.09665483728461309,32.08287849390507,-100.26678939585686,80.21211738781929
2024-09-23 08:11:11.892804,0,5.317694,-0.0035318979854855937,-0.02412639262114825,0.09670458680871308,40.106058693909645,-100.26678939585686,80.21211738781929
2024-09-23 08:11:11.986236,0,5.317694,-0.0031339382481259063,-0.024076653729884996,0.09715228999426605,36.09446859390736,-96.25519929585457,80.21211738781929
2024-09-23 08:11:11.998357,0,5.317694,-0.0031339382481259063,-0.024076653729884996,0.09715228999426605,36.09446859390736,-96.25519929585457,80.21211738781929
2024-09-23 08:11:12.030358,0,5.317745,-0.0030841997366068195,-0.024076653729884996,0.09715228999426605,36.09446859390736,-96.25519929585457,80.21211738781929
2024-09-23 08:11:12.041325,0,5.317745,-0.0030841997366068195,-0.023778180888911878,0.09680407370509965,32.08287849390507,-100.26678939585686,80.21211738781929
2024-09-23 08:11:12.083549,0,5.317796,-0.003631395514708897,-0.024375126570858115,0.09755024973162574,32.08287849390507,-100.26678939585686,80.21211738781929
2024-09-23 08:11:12.095076,0,5.317796,-0.003631395514708897,-0.024375126570858115,0.09755024973162574,36.09446859390736,-100.26678939585686,80.21211738781929
2024-09-23 08:11:12.128725,0,5.317796,-0.003631395514708897,-0.024375126570858115,0.09755024973162574,36.09446859390736,-100.26678939585686,72.1922225099802
2024-09-23 08:11:12.140221,0,5.317847,-0.0030841997366068195,-0.023827930413011865,0.09750050628343246,36.09446859390736,-100.26678939585686,72.1922225099802
2024-09-23 08:11:12.183426,0,5.317897,-0.0028852147413806935,-0.024076653729884996,0.09750050628343246,36.09446859390736,-96.25519929585457,80.21211738781929
2024-09-23 08:11:12.226814,0,5.317897,-0.0028852147413806935,-0.024076653729884996,0.09750050628343246,36.09446859390736,-96.25519929585457,80.21211738781929
2024-09-23 08:11:12.238081,0,5.317989,-0.0029349636958644295,-0.024076653729884996,0.09750050628343246,36.09446859390736,-96.25519929585457,76.200527287817
2024-09-23 08:11:12.280640,0,5.318084,-0.0029349636958644295,-0.02367869399252531,0.09685382322919964,36.09446859390736,-96.25519929585457,80.21211738781929
2024-09-23 08:11:12.322422,0,5.318084,-0.0029349636958644295,-0.023827930413011865,0.09685382322919964,36.09446859390736,-96.25519929585457,80.21211738781929
2024-09-23 08:11:12.333839,0,5.318084,-0.0029349636958644295,-0.023827930413011865,0.09725178296655933,40.106058693909645,-96.25519929585457,76.200527287817
2024-09-23 08:11:12.377341,0,5.318135,-0.0029349636958644295,-0.023479709566915436,0.09720203344245934,40.106058693909645,-92.24360919585227,76.200527287817
2024-09-23 08:11:12.419969,0,5.318186,-0.0029349636958644295,-0.023479709566915436,0.09720203344245934,40.106058693909645,-92.24360919585227,80.21211738781929
2024-09-23 08:11:12.431189,0,5.318186,-0.003233425524256645,-0.02397715620066169,0.09710254654607277,44.11764879391193,-92.24360919585227,80.21211738781929
2024-09-23 08:11:12.474090,0,5.318237,-0.0031836870127375577,-0.024076653729884996,0.09710254654607277,44.11764879391193,-92.24360919585227,84.22370748782159
2024-09-23 08:11:12.486166,0,5.318237,-0.0031836870127375577,-0.024076653729884996,0.09715228999426605,44.11764879391193,-92.24360919585227,84.22370748782159
2024-09-23 08:11:12.519092,0,5.318237,-0.0031836870127375577,-0.024076653729884996,0.09715228999426605,36.09446859390736,-104.27510100388527,76.200527287817
2024-09-23 08:11:12.530667,0,5.318287,-0.0031836870127375577,-0.023827930413011865,0.09715228999426605,36.09446859390736,-104.27510100388527,76.200527287817
2024-09-23 08:11:12.573472,42.77,5.318338,-0.0030344509719951677,-0.023827930413011865,0.09685382322919964,40.106058693909645,-108.28669110388756,72.1922225099802
2024-09-23 08:11:12.616254,42.77,5.318338,-0.0030344509719951677,-0.02367869399252531,0.09690356060148622,44.11764879391193,-108.28669110388756,72.1922225099802
2024-09-23 08:11:12.628237,42.77,5.318425,-0.0030344509719951677,-0.02367869399252531,0.09690356060148622,44.11764879391193,-104.27510100388527,76.200527287817
2024-09-23 08:11:12.671344,42.77,5.318425,-0.0030841997366068195,-0.023280723622328886,0.0973512698629459,36.09446859390736,-100.26678939585686,76.200527287817
2024-09-23 08:11:12.714788,42.77,5.318477,-0.002785727465249955,-0.023778180888911878,0.0973512698629459,36.09446859390736,-100.26678939585686,76.200527287817
2024-09-23 08:11:12.726555,42.77,5.318477,-0.002785727465249955,-0.023778180888911878,0.0970030596496862,44.11764879391193,-100.26678939585686,76.200527287817
2024-09-23 08:11:12.759327,42.77,5.318477,-0.002785727465249955,-0.023778180888911878,0.0970030596496862,44.11764879391193,-100.26678939585686,80.21211738781929
2024-09-23 08:11:12.770641,42.77,5.318527,-0.003382661564999035,-0.023827930413011865,0.0970030596496862,40.106058693909645,-100.26678939585686,80.21211738781929
2024-09-23 08:11:12.813305,42.77,5.318578,-0.0031339382481259063,-0.023827930413011865,0.0970030596496862,40.106058693909645,-96.25519929585457,84.22370748782159
2024-09-23 08:11:12.825830,42.77,5.318578,-0.0031339382481259063,-0.023827930413011865,0.09705279702197278,40.106058693909645,-96.25519929585457,84.22370748782159
2024-09-23 08:11:12.857644,42.77,5.318578,-0.0031339382481259063,-0.023827930413011865,0.09705279702197278,40.106058693909645,-96.25519929585457,84.22370748782159
2024-09-23 08:11:12.868854,42.77,5.318629,-0.0032831742888682963,-0.023827930413011865,0.09705279702197278,40.106058693909645,-96.25519929585457,80.21211738781929
2024-09-23 08:11:12.912209,42.77,5.318629,-0.0032831742888682963,-0.023479709566915436,0.09645586349183995,32.08287849390507,-96.25519929585457,80.21211738781929
2024-09-23 08:11:12.924169,42.77,5.318679,-0.0032831742888682963,-0.023479709566915436,0.09645586349183995,32.08287849390507,-96.25519929585457,84.22370748782159
2024-09-23 08:11:12.956178,42.77,5.318679,-0.0028852147413806935,-0.023479709566915436,0.09645586349183995,32.08287849390507,-96.25519929585457,84.22370748782159
2024-09-23 08:11:13.008809,42.77,5.318679,-0.0028852147413806935,-0.02367869399252531,0.09645586349183995,32.08287849390507,-96.25519929585457,84.22370748782159
2024-09-23 08:11:13.053742,42.77,5.318679,-0.0028852147413806935,-0.02367869399252531,0.0973015264147526,32.08287849390507,-96.25519929585457,84.22370748782159
2024-09-23 08:11:13.065021,42.77,5.318766,-0.002636491424507565,-0.02367869399252531,0.0973015264147526,32.08287849390507,-108.28669110388756,80.21211738781929
2024-09-23 08:11:13.107974,42.77,5.318766,-0.002636491424507565,-0.02367869399252531,0.09740101331113918,32.08287849390507,-104.27510100388527,80.21211738781929
2024-09-23 08:11:13.119821,42.77,5.318818,-0.002636491424507565,-0.02367869399252531,0.09740101331113918,32.08287849390507,-104.27510100388527,80.21211738781929
2024-09-23 08:11:13.153377,42.77,5.318818,-0.0031836870127375577,-0.02362894446842532,0.09715228999426605,32.08287849390507,-104.27510100388527,80.21211738781929
2024-09-23 08:11:13.164907,42.77,5.318818,-0.0031836870127375577,-0.02362894446842532,0.09715228999426605,36.09446859390736,-100.26678939585686,80.21211738781929
2024-09-23 08:11:13.207366,42.77,5.318869,-0.0029847020175114316,-0.024076653729884996,0.0973015264147526,36.09446859390736,-100.26678939585686,80.21211738781929
2024-09-23 08:11:13.249777,42.77,5.318919,-0.003631395514708897,-0.024076653729884996,0.0973015264147526,36.09446859390736,-100.26678939585686,72.1922225099802
2024-09-23 08:11:13.261933,42.77,5.318919,-0.003631395514708897,-0.024076653729884996,0.09710254654607277,28.07457030097246,-100.26678939585686,72.1922225099802
2024-09-23 08:11:13.346514,42.77,5.318919,-0.003631395514708897,-0.024076653729884996,0.09710254654607277,28.07457030097246,-100.26678939585686,80.21211738781929
2024-09-23 08:11:13.357555,42.77,5.319061,-0.0033329230534799477,-0.02338022115155219,0.09710254654607277,28.07457030097246,-100.26678939585686,80.21211738781929
2024-09-23 08:11:13.441692,42.77,5.319061,-0.0033329230534799477,-0.02338022115155219,0.09710254654607277,48.12595698684454,-100.26678939585686,80.21211738781929
2024-09-23 08:11:13.453478,42.77,5.319061,-0.0033329230534799477,-0.02338022115155219,0.09710254654607277,48.12595698684454,-100.26678939585686,76.200527287817
2024-09-23 08:11:13.496069,42.77,5.319111,-0.004377565845072451,-0.023728432883788564,0.09680407370509965,48.12595698684454,-100.26678939585686,76.200527287817
2024-09-23 08:11:13.507871,42.77,5.319111,-0.004377565845072451,-0.023728432883788564,0.09680407370509965,32.08287849390507,-96.25519929585457,76.200527287817
2024-09-23 08:11:13.541270,42.77,5.319162,-0.004377565845072451,-0.023728432883788564,0.09680407370509965,32.08287849390507,-96.25519929585457,80.21211738781929
2024-09-23 08:11:13.552487,42.77,5.319162,-0.0032831742888682963,-0.023479709566915436,0.09655535038822652,44.11764879391193,-96.25519929585457,80.21211738781929
2024-09-23 08:11:13.595145,41.45,5.319254,-0.0031836870127375577,-0.023728432883788564,0.09655535038822652,44.11764879391193,-96.25519929585457,84.22370748782159
2024-09-23 08:11:13.607143,41.45,5.319254,-0.0031836870127375577,-0.023728432883788564,0.09680407370509965,44.11764879391193,-96.25519929585457,84.22370748782159
2024-09-23 08:11:13.639575,41.45,5.319254,-0.0031836870127375577,-0.023728432883788564,0.09680407370509965,36.09446859390736,-92.24360919585227,84.22370748782159
2024-09-23 08:11:13.650823,41.45,5.319352,-0.003482159473966507,-0.02367869399252531,0.09680407370509965,36.09446859390736,-92.24360919585227,80.21211738781929
2024-09-23 08:11:13.693776,41.45,5.31945,-0.003482159473966507,-0.02367869399252531,0.09695331012558621,32.08287849390507,-100.26678939585686,80.21211738781929
2024-09-23 08:11:13.705686,41.45,5.31945,-0.003233425524256645,-0.02367869399252531,0.09695331012558621,32.08287849390507,-100.26678939585686,80.21211738781929
2024-09-23 08:11:13.737114,41.45,5.31945,-0.003233425524256645,-0.023479709566915436,0.09665483728461309,36.09446859390736,-100.26678939585686,80.21211738781929
2024-09-23 08:11:13.748335,41.45,5.319547,-0.003233425524256645,-0.023479709566915436,0.09665483728461309,36.09446859390736,-100.26678939585686,80.21211738781929
2024-09-23 08:11:13.790964,41.45,5.319547,-0.0028852147413806935,-0.02362894446842532,0.09675432418099966,36.09446859390736,-100.26678939585686,80.21211738781929
2024-09-23 08:11:13.833653,41.45,5.319598,-0.003233425524256645,-0.02362894446842532,0.09675432418099966,36.09446859390736,-100.26678939585686,80.21211738781929
2024-09-23 08:11:13.844911,41.45,5.319598,-0.003233425524256645,-0.023927417309398437,0.0970030596496862,28.07457030097246,-100.26678939585686,80.21211738781929
2024-09-23 08:11:13.889398,41.45,5.319649,-0.0034324103296106863,-0.023827930413011865,0.09750050628343246,28.07457030097246,-100.26678939585686,80.21211738781929
2024-09-23 08:11:13.901022,41.45,5.319649,-0.0034324103296106863,-0.023827930413011865,0.09750050628343246,40.106058693909645,-100.26678939585686,80.21211738781929
2024-09-23 08:11:13.933348,41.45,5.319699,-0.0034324103296106863,-0.023827930413011865,0.09750050628343246,40.106058693909645,-96.25519929585457,80.21211738781929
2024-09-23 08:11:13.945162,41.45,5.319699,-0.0031836870127375577,-0.023927417309398437,0.09690356060148622,40.106058693909645,-96.25519929585457,80.21211738781929
2024-09-23 08:11:13.978210,41.45,5.319699,-0.0031836870127375577,-0.023927417309398437,0.09690356060148622,36.09446859390736,-96.25519929585457,80.21211738781929
2024-09-23 08:11:13.989684,41.45,5.31975,-0.003382661564999035,-0.02367869399252531,0.09690356060148622,36.09446859390736,-104.27510100388527,76.200527287817
2024-09-23 08:11:14.031650,41.45,5.31975,-0.003382661564999035,-0.02367869399252531,0.09710254654607277,40.106058693909645,-96.25519929585457,80.21211738781929
2024-09-23 08:11:14.043251,41.45,5.319801,-0.0037308827908396356,-0.02367869399252531,0.09710254654607277,40.106058693909645,-96.25519929585457,80.21211738781929
2024-09-23 08:11:14.075025,41.45,5.319801,-0.0037308827908396356,-0.02367869399252531,0.09710254654607277,40.106058693909645,-96.25519929585457,80.21211738781929
2024-09-23 08:11:14.086508,41.45,5.319888,-0.0037308827908396356,-0.02367869399252531,0.09715228999426605,40.106058693909645,-96.25519929585457,80.21211738781929
2024-09-23 08:11:14.128684,41.45,5.319888,-0.003233425524256645,-0.023827930413011865,0.0970030596496862,40.106058693909645,-96.25519929585457,80.21211738781929
2024-09-23 08:11:14.139927,41.45,5.319888,-0.003233425524256645,-0.023827930413011865,0.0970030596496862,32.08287849390507,-96.25519929585457,80.21211738781929
2024-09-23 08:11:14.182371,41.45,5.319939,-0.0033329230534799477,-0.02308174982955575,0.0973015264147526,36.09446859390736,-96.25519929585457,84.22370748782159
2024-09-23 08:11:14.225069,41.45,5.31999,-0.0033329230534799477,-0.02308174982955575,0.0973015264147526,36.09446859390736,-100.26678939585686,80.21211738781929
2024-09-23 08:11:14.236246,41.45,5.31999,-0.003482159473966507,-0.024076653729884996,0.09655535038822652,36.09446859390736,-100.26678939585686,80.21211738781929
2024-09-23 08:11:14.278596,41.45,5.320041,-0.0028852147413806935,-0.024375126570858115,0.09655535038822652,44.11764879391193,-92.24360919585227,84.22370748782159
2024-09-23 08:11:14.320857,41.45,5.320041,-0.0028852147413806935,-0.024375126570858115,0.09710254654607277,44.11764879391193,-92.24360919585227,84.22370748782159
2024-09-23 08:11:14.375167,41.45,5.320091,-0.002785727465249955,-0.024375126570858115,0.09710254654607277,44.11764879391193,-92.24360919585227,80.21211738781929
2024-09-23 08:11:14.387173,41.45,5.320091,-0.002785727465249955,-0.02397715620066169,0.09710254654607277,44.11764879391193,-92.24360919585227,80.21211738781929
2024-09-23 08:11:14.418717,41.45,5.320091,-0.002785727465249955,-0.02397715620066169,0.09710254654607277,32.08287849390507,-92.24360919585227,80.21211738781929
2024-09-23 08:11:14.430044,41.45,5.320142,-0.002785727465249955,-0.02397715620066169,0.09710254654607277,32.08287849390507,-104.27510100388527,80.21211738781929
2024-09-23 08:11:14.472603,41.45,5.320142,-0.0035816467500972456,-0.02367869399252531,0.09690356060148622,36.09446859390736,-92.24360919585227,80.21211738781929
2024-09-23 08:11:14.484818,41.45,5.320142,-0.0035816467500972456,-0.02367869399252531,0.09690356060148622,36.09446859390736,-92.24360919585227,76.200527287817
2024-09-23 08:11:14.517813,41.45,5.320229,-0.0029349636958644295,-0.02352945757203875,0.09690356060148622,36.09446859390736,-92.24360919585227,76.200527287817
2024-09-23 08:11:14.529453,41.45,5.320229,-0.0029349636958644295,-0.02352945757203875,0.0973015264147526,44.11764879391193,-92.24360919585227,76.200527287817
2024-09-23 08:11:14.572267,41.45,5.320281,-0.0037308827908396356,-0.023877669304275123,0.09655535038822652,44.11764879391193,-92.24360919585227,80.21211738781929
2024-09-23 08:11:14.614939,42.67,5.320376,-0.0037308827908396356,-0.023877669304275123,0.09655535038822652,44.11764879391193,-96.25519929585457,76.200527287817
2024-09-23 08:11:14.625928,42.67,5.320376,-0.003233425524256645,-0.02412639262114825,0.09740101331113918,44.11764879391193,-96.25519929585457,76.200527287817
2024-09-23 08:11:14.667749,42.67,5.320427,-0.0027359787006383035,-0.02412639262114825,0.09740101331113918,36.09446859390736,-96.25519929585457,80.21211738781929
2024-09-23 08:11:14.679669,42.67,5.320427,-0.0027359787006383035,-0.023877669304275123,0.09740101331113918,36.09446859390736,-96.25519929585457,80.21211738781929
2024-09-23 08:11:14.712031,42.67,5.320427,-0.0027359787006383035,-0.023877669304275123,0.09740101331113918,32.08287849390507,-96.25519929585457,80.21211738781929
2024-09-23 08:11:14.723108,42.67,5.320478,-0.0035318979854855937,-0.023877669304275123,0.09740101331113918,32.08287849390507,-92.24360919585227,84.22370748782159
2024-09-23 08:11:14.765678,42.67,5.32057,-0.0035318979854855937,-0.023579196463302005,0.09695331012558621,40.106058693909645,-100.26678939585686,76.200527287817
2024-09-23 08:11:14.808440,42.67,5.32057,-0.003233425524256645,-0.023579196463302005,0.09695331012558621,40.106058693909645,-100.26678939585686,76.200527287817
2024-09-23 08:11:14.820100,42.67,5.32057,-0.003233425524256645,-0.023579196463302005,0.09705279702197278,40.106058693909645,-100.26678939585686,80.21211738781929
2024-09-23 08:11:14.862739,42.67,5.320622,-0.003482159473966507,-0.02362894446842532,0.09705279702197278,40.106058693909645,-100.26678939585686,80.21211738781929
2024-09-23 08:11:14.874823,42.67,5.320622,-0.003482159473966507,-0.02362894446842532,0.09705279702197278,40.106058693909645,-96.25519929585457,80.21211738781929
2024-09-23 08:11:14.906656,42.67,5.320672,-0.003482159473966507,-0.02362894446842532,0.09705279702197278,40.106058693909645,-96.25519929585457,80.21211738781929
2024-09-23 08:11:14.918078,42.67,5.320672,-0.0032831742888682963,-0.023877669304275123,0.09725178296655933,32.08287849390507,-96.25519929585457,80.21211738781929
2024-09-23 08:11:14.960695,42.67,5.320723,-0.0026862297461545674,-0.023827930413011865,0.09725178296655933,32.08287849390507,-96.25519929585457,84.22370748782159
2024-09-23 08:11:14.972632,42.67,5.320723,-0.0026862297461545674,-0.023827930413011865,0.09675432418099966,32.08287849390507,-96.25519929585457,84.22370748782159
2024-09-23 08:11:15.004433,42.67,5.320723,-0.0026862297461545674,-0.023827930413011865,0.09675432418099966,40.106058693909645,-104.27510100388527,84.22370748782159
2024-09-23 08:11:15.015292,42.67,5.320774,-0.0030841997366068195,-0.024076653729884996,0.09675432418099966,40.106058693909645,-104.27510100388527,72.1922225099802
2024-09-23 08:11:15.058838,42.67,5.320824,-0.0028852147413806935,-0.024076653729884996,0.09745075675933246,36.09446859390736,-96.25519929585457,76.200527287817
2024-09-23 08:11:15.102825,42.67,5.320824,-0.0028852147413806935,-0.023280723622328886,0.09705279702197278,36.09446859390736,-96.25519929585457,76.200527287817
2024-09-23 08:11:15.114579,42.67,5.320911,-0.0028852147413806935,-0.023280723622328886,0.09705279702197278,36.09446859390736,-92.24360919585227,84.22370748782159
2024-09-23 08:11:15.156670,42.67,5.320911,-0.003482159473966507,-0.02362894446842532,0.09750050628343246,40.106058693909645,-100.26678939585686,72.1922225099802
2024-09-23 08:11:15.200028,42.67,5.320963,-0.0030841997366068195,-0.024275627522658133,0.09750050628343246,40.106058693909645,-100.26678939585686,72.1922225099802
2024-09-23 08:11:15.212288,42.67,5.320963,-0.0030841997366068195,-0.024275627522658133,0.09695331012558621,32.08287849390507,-100.26678939585686,72.1922225099802
2024-09-23 08:11:15.255429,42.67,5.321014,-0.0033329230534799477,-0.02367869399252531,0.09690356060148622,28.07457030097246,-100.26678939585686,76.200527287817
2024-09-23 08:11:15.297827,42.67,5.321014,-0.0033329230534799477,-0.02367869399252531,0.09690356060148622,28.07457030097246,-100.26678939585686,80.21211738781929
2024-09-23 08:11:15.309299,42.67,5.321064,-0.0033329230534799477,-0.024026904205785005,0.09680407370509965,28.07457030097246,-100.26678939585686,80.21211738781929
2024-09-23 08:11:15.353294,42.67,5.321115,-0.0030841997366068195,-0.024026904205785005,0.09680407370509965,44.11764879391193,-100.26678939585686,84.22370748782159
2024-09-23 08:11:15.395101,42.67,5.321115,-0.0030841997366068195,-0.024026904205785005,0.09705279702197278,36.09446859390736,-100.26678939585686,84.22370748782159
2024-09-23 08:11:15.406087,42.67,5.321166,-0.003233425524256645,-0.024026904205785005,0.09705279702197278,36.09446859390736,-100.26678939585686,80.21211738781929
2024-09-23 08:11:15.488992,42.67,5.321166,-0.003233425524256645,-0.024176140626271565,0.09705279702197278,36.09446859390736,-100.26678939585686,80.21211738781929
2024-09-23 08:11:15.541960,42.67,5.321166,-0.003233425524256645,-0.024176140626271565,0.09635636444363997,36.09446859390736,-96.25519929585457,80.21211738781929
2024-09-23 08:11:15.553583,42.67,5.321253,-0.003233425524256645,-0.024176140626271565,0.09635636444363997,36.09446859390736,-96.25519929585457,76.200527287817
2024-09-23 08:11:15.596162,42.67,5.321253,-0.003382661564999035,-0.023827930413011865,0.09645586349183995,40.106058693909645,-96.25519929585457,80.21211738781929
2024-09-23 08:11:15.639401,42.01,5.321304,-0.003382661564999035,-0.023827930413011865,0.09645586349183995,40.106058693909645,-96.25519929585457,80.21211738781929
2024-09-23 08:11:15.691517,42.01,5.321304,-0.003631395514708897,-0.023827930413011865,0.0973015264147526,28.07457030097246,-92.24360919585227,80.21211738781929
2024-09-23 08:11:15.703431,42.01,5.321304,-0.003631395514708897,-0.023827930413011865,0.0973015264147526,28.07457030097246,-92.24360919585227,80.21211738781929
2024-09-23 08:11:15.736775,42.01,5.321355,-0.0033329230534799477,-0.02367869399252531,0.0973015264147526,28.07457030097246,-92.24360919585227,80.21211738781929
2024-09-23 08:11:15.748395,42.01,5.321355,-0.0033329230534799477,-0.02367869399252531,0.09720203344245934,32.08287849390507,-96.25519929585457,80.21211738781929
2024-09-23 08:11:15.790942,42.01,5.321406,-0.003482159473966507,-0.023728432883788564,0.09690356060148622,40.106058693909645,-96.25519929585457,84.22370748782159
2024-09-23 08:11:15.834817,42.01,5.321547,-0.003482159473966507,-0.023728432883788564,0.09690356060148622,40.106058693909645,-96.25519929585457,76.200527287817
2024-09-23 08:11:15.849847,42.01,5.321547,-0.0035318979854855937,-0.023778180888911878,0.09685382322919964,40.106058693909645,-96.25519929585457,76.200527287817
2024-09-23 08:11:15.881549,42.01,5.321547,-0.0035318979854855937,-0.023778180888911878,0.09685382322919964,40.106058693909645,-96.25519929585457,76.200527287817
2024-09-23 08:11:15.892736,42.01,5.321598,-0.0028354659767690416,-0.024375126570858115,0.09685382322919964,40.106058693909645,-96.25519929585457,80.21211738781929
2024-09-23 08:11:15.935337,42.01,5.321694,-0.0028354659767690416,-0.024375126570858115,0.09670458680871308,28.07457030097246,-96.25519929585457,84.22370748782159
2024-09-23 08:11:15.947482,42.01,5.321694,-0.0029847020175114316,-0.024375126570858115,0.09670458680871308,28.07457030097246,-96.25519929585457,84.22370748782159
2024-09-23 08:11:15.980593,42.01,5.321694,-0.0029847020175114316,-0.023927417309398437,0.09745075675933246,32.08287849390507,-96.25519929585457,84.22370748782159
2024-09-23 08:11:15.992655,42.01,5.321789,-0.0029847020175114316,-0.023927417309398437,0.09745075675933246,32.08287849390507,-100.26678939585686,80.21211738781929
2024-09-23 08:11:16.035573,42.01,5.321789,-0.0030841997366068195,-0.023877669304275123,0.09705279702197278,40.106058693909645,-96.25519929585457,88.23529758782387
2024-09-23 08:11:16.077574,42.01,5.321841,-0.0032831742888682963,-0.023877669304275123,0.09705279702197278,40.106058693909645,-96.25519929585457,88.23529758782387
2024-09-23 08:11:16.089236,42.01,5.321841,-0.0032831742888682963,-0.023877669304275123,0.09750050628343246,28.07457030097246,-96.25519929585457,88.23529758782387
2024-09-23 08:11:16.133379,42.01,5.321891,-0.002785727465249955,-0.023877669304275123,0.09655535038822652,28.07457030097246,-96.25519929585457,84.22370748782159
2024-09-23 08:11:16.175636,42.01,5.321942,-0.002785727465249955,-0.023877669304275123,0.09655535038822652,28.07457030097246,-104.27510100388527,80.21211738781929
2024-09-23 08:11:16.187008,42.01,5.321942,-0.003482159473966507,-0.024275627522658133,0.09695331012558621,28.07457030097246,-104.27510100388527,80.21211738781929
2024-09-23 08:11:16.230014,42.01,5.321993,-0.003482159473966507,-0.02412639262114825,0.09695331012558621,20.05138839341998,-100.26678939585686,72.1922225099802
2024-09-23 08:11:16.271647,42.01,5.321993,-0.003482159473966507,-0.02412639262114825,0.09750050628343246,36.09446859390736,-100.26678939585686,72.1922225099802
2024-09-23 08:11:16.283541,42.01,5.322043,-0.0030841997366068195,-0.02412639262114825,0.09750050628343246,36.09446859390736,-100.26678939585686,80.21211738781929
2024-09-23 08:11:16.326217,42.01,5.322043,-0.0030841997366068195,-0.024026904205785005,0.09705279702197278,44.11764879391193,-108.28669110388756,84.22370748782159
2024-09-23 08:11:16.338378,42.01,5.32213,-0.0030841997366068195,-0.024026904205785005,0.09705279702197278,44.11764879391193,-108.28669110388756,84.22370748782159
2024-09-23 08:11:16.370596,42.01,5.32213,-0.002636491424507565,-0.023579196463302005,0.09670458680871308,44.11764879391193,-108.28669110388756,84.22370748782159
2024-09-23 08:11:16.382139,42.01,5.32213,-0.002636491424507565,-0.023579196463302005,0.09670458680871308,36.09446859390736,-108.28669110388756,84.22370748782159
2024-09-23 08:11:16.424686,42.01,5.322182,-0.0029847020175114316,-0.023728432883788564,0.09680407370509965,40.106058693909645,-104.27510100388527,84.22370748782159
2024-09-23 08:11:16.570129,42.01,5.322232,-0.003382661564999035,-0.023778180888911878,0.09680407370509965,40.106058693909645,-104.27510100388527,80.21211738781929
2024-09-23 08:11:16.613954,42.01,5.322232,-0.003382661564999035,-0.023778180888911878,0.09690356060148622,40.106058693909645,-104.27510100388527,80.21211738781929
2024-09-23 08:11:16.625201,42.01,5.322283,-0.0037308827908396356,-0.023778180888911878,0.09690356060148622,40.106058693909645,-104.27510100388527,80.21211738781929
2024-09-23 08:11:16.668020,40.99,5.322283,-0.0037308827908396356,-0.02412639262114825,0.0970030596496862,36.09446859390736,-96.25519929585457,84.22370748782159
2024-09-23 08:11:16.680311,40.99,5.322334,-0.0037308827908396356,-0.02412639262114825,0.0970030596496862,36.09446859390736,-96.25519929585457,84.22370748782159
2024-09-23 08:11:16.713363,40.99,5.322334,-0.0030841997366068195,-0.02362894446842532,0.09675432418099966,36.09446859390736,-96.25519929585457,84.22370748782159
2024-09-23 08:11:16.724553,40.99,5.322334,-0.0030841997366068195,-0.02362894446842532,0.09675432418099966,36.09446859390736,-96.25519929585457,88.23529758782387
2024-09-23 08:11:16.756795,40.99,5.322384,-0.0030841997366068195,-0.02362894446842532,0.09675432418099966,36.09446859390736,-96.25519929585457,88.23529758782387
2024-09-23 08:11:16.768419,40.99,5.322384,-0.0032831742888682963,-0.02367869399252531,0.09675432418099966,36.09446859390736,-96.25519929585457,88.23529758782387
2024-09-23 08:11:16.811472,40.99,5.322384,-0.0032831742888682963,-0.02367869399252531,0.0962568775472534,44.11764879391193,-100.26678939585686,80.21211738781929
2024-09-23 08:11:16.824938,40.99,5.322569,-0.003482159473966507,-0.02367869399252531,0.0962568775472534,44.11764879391193,-100.26678939585686,80.21211738781929
2024-09-23 08:11:16.858160,40.99,5.322569,-0.003482159473966507,-0.023827930413011865,0.09650560086412653,40.106058693909645,-100.26678939585686,80.21211738781929
2024-09-23 08:11:16.869839,40.99,5.322621,-0.003482159473966507,-0.023827930413011865,0.09650560086412653,40.106058693909645,-100.26678939585686,80.21211738781929
2024-09-23 08:11:16.913752,40.99,5.322621,-0.0028852147413806935,-0.023827930413011865,0.09705279702197278,36.09446859390736,-96.25519929585457,84.22370748782159
2024-09-23 08:11:16.956296,40.99,5.322671,-0.003979606107712764,-0.02397715620066169,0.09705279702197278,36.09446859390736,-96.25519929585457,84.22370748782159
2024-09-23 08:11:16.968252,40.99,5.322671,-0.003979606107712764,-0.02397715620066169,0.09690356060148622,36.09446859390736,-92.24360919585227,84.22370748782159
2024-09-23 08:11:17.000404,40.99,5.322671,-0.003979606107712764,-0.02397715620066169,0.09690356060148622,36.09446859390736,-92.24360919585227,80.21211738781929
2024-09-23 08:11:17.011700,40.99,5.322722,-0.0030344509719951677,-0.02412639262114825,0.09690356060148622,40.106058693909645,-92.24360919585227,80.21211738781929
2024-09-23 08:11:17.053882,40.99,5.322814,-0.0029349636958644295,-0.02412639262114825,0.09690356060148622,40.106058693909645,-96.25519929585457,84.22370748782159
2024-09-23 08:11:17.065584,40.99,5.322814,-0.0029349636958644295,-0.023778180888911878,0.09670458680871308,40.106058693909645,-96.25519929585457,84.22370748782159
2024-09-23 08:11:17.097788,40.99,5.322814,-0.0029349636958644295,-0.023778180888911878,0.09670458680871308,36.09446859390736,-96.25519929585457,84.22370748782159
2024-09-23 08:11:17.109301,40.99,5.322865,-0.003382661564999035,-0.02338022115155219,0.09670458680871308,36.09446859390736,-96.25519929585457,80.21211738781929
2024-09-23 08:11:17.151973,40.99,5.322865,-0.003382661564999035,-0.02338022115155219,0.09650560086412653,40.106058693909645,-104.27510100388527,80.21211738781929
2024-09-23 08:11:17.204830,40.99,5.322916,-0.0033329230534799477,-0.023728432883788564,0.09705279702197278,40.106058693909645,-100.26678939585686,80.21211738781929
2024-09-23 08:11:17.248111,40.99,5.323008,-0.003482159473966507,-0.023728432883788564,0.09705279702197278,40.106058693909645,-100.26678939585686,80.21211738781929
2024-09-23 08:11:17.259448,40.99,5.323008,-0.003482159473966507,-0.023579196463302005,0.09680407370509965,32.08287849390507,-100.26678939585686,80.21211738781929
2024-09-23 08:11:17.302232,40.99,5.323059,-0.0033329230534799477,-0.023728432883788564,0.09720203344245934,32.08287849390507,-104.27510100388527,76.200527287817
2024-09-23 08:11:17.345481,40.99,5.323059,-0.0033329230534799477,-0.023728432883788564,0.09720203344245934,32.08287849390507,-100.26678939585686,76.200527287817
2024-09-23 08:11:17.357271,40.99,5.32311,-0.0035318979854855937,-0.02362894446842532,0.09720203344245934,32.08287849390507,-100.26678939585686,76.200527287817
2024-09-23 08:11:17.399668,40.99,5.323161,-0.0030344509719951677,-0.02362894446842532,0.09759999317981902,40.106058693909645,-96.25519929585457,76.200527287817
2024-09-23 08:11:17.441478,40.99,5.323161,-0.0030344509719951677,-0.023579196463302005,0.09630662707135339,40.106058693909645,-96.25519929585457,76.200527287817
2024-09-23 08:11:17.452657,40.99,5.323252,-0.0030344509719951677,-0.023579196463302005,0.09630662707135339,40.106058693909645,-96.25519929585457,80.21211738781929
2024-09-23 08:11:17.495994,40.99,5.323252,-0.002636491424507565,-0.023877669304275123,0.09695331012558621,40.106058693909645,-96.25519929585457,80.21211738781929
2024-09-23 08:11:17.538006,40.99,5.323252,-0.002636491424507565,-0.023877669304275123,0.09695331012558621,36.09446859390736,-96.25519929585457,80.21211738781929
2024-09-23 08:11:17.549164,40.99,5.323303,-0.0030344509719951677,-0.023728432883788564,0.09695331012558621,36.09446859390736,-92.24360919585227,84.22370748782159
2024-09-23 08:11:17.591288,40.99,5.323303,-0.0030344509719951677,-0.023728432883788564,0.0970030596496862,36.09446859390736,-104.27510100388527,76.200527287817
2024-09-23 08:11:17.634996,40.99,5.323354,-0.0030344509719951677,-0.023728432883788564,0.0970030596496862,36.09446859390736,-104.27510100388527,76.200527287817
2024-09-23 08:11:17.647031,40.99,5.323354,-0.0035318979854855937,-0.02397715620066169,0.09685382322919964,24.06297849342227,-100.26678939585686,76.200527287817
2024-09-23 08:11:17.688879,41.18,5.323404,-0.0034324103296106863,-0.023230986250042305,0.09685382322919964,24.06297849342227,-100.26678939585686,76.200527287817
2024-09-23 08:11:17.700455,41.18,5.323404,-0.0034324103296106863,-0.023230986250042305,0.09740101331113918,28.07457030097246,-100.26678939585686,76.200527287817
2024-09-23 08:11:17.732897,41.18,5.323404,-0.0034324103296106863,-0.023230986250042305,0.09740101331113918,28.07457030097246,-104.27510100388527,76.200527287817
2024-09-23 08:11:17.744763,41.18,5.323455,-0.0034324103296106863,-0.02472333678411781,0.09650560086412653,28.07457030097246,-104.27510100388527,80.21211738781929
2024-09-23 08:11:17.786980,41.18,5.323545,-0.002636491424507565,-0.02472333678411781,0.09650560086412653,36.09446859390736,-96.25519929585457,80.21211738781929
2024-09-23 08:11:17.798600,41.18,5.323545,-0.002636491424507565,-0.023778180888911878,0.09650560086412653,36.09446859390736,-96.25519929585457,80.21211738781929
2024-09-23 08:11:17.881866,41.18,5.323545,-0.002636491424507565,-0.023778180888911878,0.0973015264147526,36.09446859390736,-100.26678939585686,80.21211738781929
2024-09-23 08:11:17.893618,41.18,5.323596,-0.003233425524256645,-0.023778180888911878,0.0973015264147526,36.09446859390736,-100.26678939585686,80.21211738781929
2024-09-23 08:11:17.936095,41.18,5.32369,-0.003233425524256645,-0.023728432883788564,0.09764974270391902,36.09446859390736,-104.27510100388527,72.1922225099802
2024-09-23 08:11:17.979843,41.18,5.32369,-0.0031339382481259063,-0.023181236725942318,0.09685382322919964,36.09446859390736,-104.27510100388527,72.1922225099802
2024-09-23 08:11:17.991064,41.18,5.32369,-0.0031339382481259063,-0.023181236725942318,0.09685382322919964,36.09446859390736,-96.25519929585457,80.21211738781929
2024-09-23 08:11:18.034742,41.18,5.323742,-0.003233425524256645,-0.024076653729884996,0.09705279702197278,40.106058693909645,-100.26678939585686,80.21211738781929
2024-09-23 08:11:18.077870,41.18,5.323793,-0.0033329230534799477,-0.02397715620066169,0.09705279702197278,40.106058693909645,-100.26678939585686,84.22370748782159
2024-09-23 08:11:18.089614,41.18,5.323793,-0.0033329230534799477,-0.02397715620066169,0.09685382322919964,40.106058693909645,-100.26678939585686,84.22370748782159
2024-09-23 08:11:18.121297,41.18,5.323793,-0.0033329230534799477,-0.02397715620066169,0.09685382322919964,40.106058693909645,-96.25519929585457,84.22370748782159
2024-09-23 08:11:18.133053,41.18,5.323887,-0.0038801188315820256,-0.023778180888911878,0.09755024973162574,40.106058693909645,-96.25519929585457,80.21211738781929
2024-09-23 08:11:18.175972,41.18,5.323938,-0.0038801188315820256,-0.023778180888911878,0.09755024973162574,32.08287849390507,-96.25519929585457,76.200527287817
2024-09-23 08:11:18.187128,41.18,5.323938,-0.0029349636958644295,-0.024225890150371555,0.09755024973162574,32.08287849390507,-96.25519929585457,76.200527287817
2024-09-23 08:11:18.219195,41.18,5.323938,-0.0029349636958644295,-0.024225890150371555,0.09635636444363997,32.08287849390507,-96.25519929585457,76.200527287817
2024-09-23 08:11:18.231163,41.18,5.323988,-0.0031339382481259063,-0.024225890150371555,0.09635636444363997,40.106058693909645,-100.26678939585686,80.21211738781929
2024-09-23 08:11:18.274643,41.18,5.323988,-0.0031339382481259063,-0.023728432883788564,0.09715228999426605,28.07457030097246,-96.25519929585457,88.23529758782387
2024-09-23 08:11:18.286272,41.18,5.32408,-0.0031339382481259063,-0.023728432883788564,0.09715228999426605,28.07457030097246,-96.25519929585457,88.23529758782387
2024-09-23 08:11:18.318526,41.18,5.32408,-0.0036811340262279837,-0.024076653729884996,0.09715228999426605,28.07457030097246,-96.25519929585457,88.23529758782387
2024-09-23 08:11:18.329909,41.18,5.32408,-0.0036811340262279837,-0.024076653729884996,0.09705279702197278,28.07457030097246,-100.26678939585686,80.21211738781929
2024-09-23 08:11:18.372304,41.18,5.324133,-0.0034324103296106863,-0.023827930413011865,0.09710254654607277,40.106058693909645,-100.26678939585686,80.21211738781929
2024-09-23 08:11:18.384353,41.18,5.324133,-0.0034324103296106863,-0.023827930413011865,0.09710254654607277,40.106058693909645,-100.26678939585686,80.21211738781929
2024-09-23 08:11:18.416734,41.18,5.324183,-0.0034324103296106863,-0.023827930413011865,0.09710254654607277,40.106058693909645,-100.26678939585686,76.200527287817
2024-09-23 08:11:18.428402,41.18,5.324183,-0.0034324103296106863,-0.02352945757203875,0.09705279702197278,40.106058693909645,-100.26678939585686,76.200527287817
2024-09-23 08:11:18.471474,41.18,5.324234,-0.003382661564999035,-0.024176140626271565,0.09705279702197278,40.106058693909645,-100.26678939585686,80.21211738781929
2024-09-23 08:11:18.482937,41.18,5.324234,-0.003382661564999035,-0.024176140626271565,0.09695331012558621,40.106058693909645,-100.26678939585686,80.21211738781929
2024-09-23 08:11:18.515924,41.18,5.324234,-0.003382661564999035,-0.024176140626271565,0.09695331012558621,36.09446859390736,-96.25519929585457,80.21211738781929
2024-09-23 08:11:18.527479,41.18,5.324285,-0.0030841997366068195,-0.023330473146428877,0.09695331012558621,36.09446859390736,-96.25519929585457,80.21211738781929
2024-09-23 08:11:18.571543,41.18,5.324335,-0.002785727465249955,-0.023330473146428877,0.0970030596496862,44.11764879391193,-92.24360919585227,76.200527287817
2024-09-23 08:11:18.613663,41.18,5.324335,-0.002785727465249955,-0.023479709566915436,0.0973015264147526,44.11764879391193,-92.24360919585227,76.200527287817
2024-09-23 08:11:18.667224,41.18,5.324422,-0.0035318979854855937,-0.024026904205785005,0.0973015264147526,40.106058693909645,-96.25519929585457,84.22370748782159
2024-09-23 08:11:18.710594,41.31,5.324422,-0.0035318979854855937,-0.024026904205785005,0.09740101331113918,40.106058693909645,-96.25519929585457,84.22370748782159
2024-09-23 08:11:18.722100,41.31,5.324473,-0.0028852147413806935,-0.024026904205785005,0.09740101331113918,40.106058693909645,-96.25519929585457,76.200527287817
2024-09-23 08:11:18.765759,41.31,5.324524,-0.0028852147413806935,-0.02362894446842532,0.09720203344245934,44.11764879391193,-96.25519929585457,76.200527287817
2024-09-23 08:11:18.808250,41.31,5.324524,-0.0033329230534799477,-0.023927417309398437,0.09640611396773996,44.11764879391193,-96.25519929585457,76.200527287817
2024-09-23 08:11:18.819496,41.31,5.324524,-0.0033329230534799477,-0.023927417309398437,0.09640611396773996,40.106058693909645,-92.24360919585227,80.21211738781929
2024-09-23 08:11:18.862295,41.31,5.324574,-0.0035318979854855937,-0.023877669304275123,0.09680407370509965,36.09446859390736,-92.24360919585227,80.21211738781929
2024-09-23 08:11:18.905602,41.31,5.324666,-0.0035816467500972456,-0.023877669304275123,0.09680407370509965,36.09446859390736,-92.24360919585227,84.22370748782159
2024-09-23 08:11:18.917248,41.31,5.324666,-0.0035816467500972456,-0.023877669304275123,0.09695331012558621,44.11764879391193,-92.24360919585227,84.22370748782159
2024-09-23 08:11:18.959738,41.31,5.324717,-0.0030344509719951677,-0.023778180888911878,0.0970030596496862,44.11764879391193,-92.24360919585227,76.200527287817
2024-09-23 08:11:19.002995,41.31,5.324717,-0.0030344509719951677,-0.023778180888911878,0.0970030596496862,40.106058693909645,-100.26678939585686,80.21211738781929
2024-09-23 08:11:19.014542,41.31,5.324768,-0.003482159473966507,-0.02352945757203875,0.0970030596496862,40.106058693909645,-100.26678939585686,80.21211738781929
2024-09-23 08:11:19.057633,41.31,5.324819,-0.0034324103296106863,-0.02352945757203875,0.09725178296655933,44.11764879391193,-100.26678939585686,68.18063240997792
2024-09-23 08:11:19.100112,41.31,5.324819,-0.0034324103296106863,-0.02362894446842532,0.09675432418099966,44.11764879391193,-100.26678939585686,68.18063240997792
2024-09-23 08:11:19.111477,41.31,5.324909,-0.0034324103296106863,-0.02362894446842532,0.09675432418099966,44.11764879391193,-100.26678939585686,76.200527287817
2024-09-23 08:11:19.154587,41.31,5.324909,-0.0029847020175114316,-0.023479709566915436,0.09680407370509965,40.106058693909645,-96.25519929585457,84.22370748782159
2024-09-23 08:11:19.196695,41.31,5.324961,-0.0031836870127375577,-0.023479709566915436,0.09680407370509965,40.106058693909645,-96.25519929585457,84.22370748782159
2024-09-23 08:11:19.207806,41.31,5.324961,-0.0031836870127375577,-0.02367869399252531,0.0970030596496862,32.08287849390507,-104.27510100388527,84.22370748782159
2024-09-23 08:11:19.249869,41.31,5.325011,-0.0031339382481259063,-0.02338022115155219,0.09710254654607277,32.08287849390507,-104.27510100388527,76.200527287817
2024-09-23 08:11:19.261798,41.31,5.325011,-0.0031339382481259063,-0.02338022115155219,0.09710254654607277,40.106058693909645,-104.27510100388527,76.200527287817
2024-09-23 08:11:19.294237,41.31,5.325011,-0.0031339382481259063,-0.02338022115155219,0.09710254654607277,40.106058693909645,-92.24360919585227,80.21211738781929
2024-09-23 08:11:19.306133,41.31,5.325062,-0.0032831742888682963,-0.024225890150371555,0.09695331012558621,40.106058693909645,-92.24360919585227,80.21211738781929
2024-09-23 08:11:19.349422,41.31,5.325113,-0.003482159473966507,-0.023479709566915436,0.09695331012558621,44.11764879391193,-100.26678939585686,76.200527287817
2024-09-23 08:11:19.391555,41.31,5.325113,-0.003482159473966507,-0.023479709566915436,0.09725178296655933,36.09446859390736,-100.26678939585686,76.200527287817
2024-09-23 08:11:19.402983,41.31,5.325163,-0.0036811340262279837,-0.023479709566915436,0.09725178296655933,36.09446859390736,-92.24360919585227,76.200527287817
2024-09-23 08:11:19.445835,41.31,5.325163,-0.0036811340262279837,-0.02367869399252531,0.09725178296655933,40.106058693909645,-92.24360919585227,80.21211738781929
2024-09-23 08:11:19.457850,41.31,5.325251,-0.0036811340262279837,-0.02367869399252531,0.09725178296655933,40.106058693909645,-92.24360919585227,80.21211738781929
2024-09-23 08:11:19.490394,41.31,5.325251,-0.003631395514708897,-0.024325377046758124,0.09779897304849887,40.106058693909645,-92.24360919585227,80.21211738781929
2024-09-23 08:11:19.502065,41.31,5.325251,-0.003631395514708897,-0.024325377046758124,0.09779897304849887,32.08287849390507,-92.24360919585227,88.23529758782387
2024-09-23 08:11:19.544736,41.31,5.325302,-0.0034324103296106863,-0.023877669304275123,0.09680407370509965,28.07457030097246,-100.26678939585686,88.23529758782387
2024-09-23 08:11:19.587151,41.31,5.325353,-0.0032831742888682963,-0.023877669304275123,0.09680407370509965,28.07457030097246,-100.26678939585686,80.21211738781929
2024-09-23 08:11:19.598228,41.31,5.325353,-0.0032831742888682963,-0.02313149783467906,0.09710254654607277,40.106058693909645,-100.26678939585686,80.21211738781929
2024-09-23 08:11:19.641060,41.31,5.325403,-0.0033329230534799477,-0.023877669304275123,0.09695331012558621,40.106058693909645,-88.23529758782387,72.1922225099802
2024-09-23 08:11:19.683686,41.31,5.325403,-0.0033329230534799477,-0.023877669304275123,0.09695331012558621,40.106058693909645,-96.25519929585457,72.1922225099802
2024-09-23 08:11:19.694956,41.31,5.325454,-0.0029847020175114316,-0.02412639262114825,0.09695331012558621,40.106058693909645,-96.25519929585457,80.21211738781929
2024-09-23 08:11:19.738006,41.26,5.325505,-0.0029847020175114316,-0.02412639262114825,0.09680407370509965,36.09446859390736,-96.25519929585457,84.22370748782159
2024-09-23 08:11:19.749761,41.26,5.325505,-0.0032831742888682963,-0.02412639262114825,0.09680407370509965,36.09446859390736,-96.25519929585457,84.22370748782159
2024-09-23 08:11:19.783114,41.26,5.325505,-0.0032831742888682963,-0.023827930413011865,0.09690356060148622,40.106058693909645,-96.25519929585457,84.22370748782159
2024-09-23 08:11:19.794661,41.26,5.325592,-0.0032831742888682963,-0.023827930413011865,0.09690356060148622,40.106058693909645,-96.25519929585457,84.22370748782159
2024-09-23 08:11:19.836989,41.26,5.325592,-0.0029847020175114316,-0.024176140626271565,0.09665483728461309,40.106058693909645,-96.25519929585457,80.21211738781929
2024-09-23 08:11:19.880559,41.26,5.325643,-0.0031339382481259063,-0.023230986250042305,0.09665483728461309,40.106058693909645,-96.25519929585457,80.21211738781929
2024-09-23 08:11:19.892066,41.26,5.325643,-0.0031339382481259063,-0.023230986250042305,0.09665483728461309,36.09446859390736,-96.25519929585457,80.21211738781929
2024-09-23 08:11:19.934558,41.26,5.325694,-0.0037308827908396356,-0.02412639262114825,0.0966050877605131,36.09446859390736,-96.25519929585457,76.200527287817
2024-09-23 08:11:19.977981,41.26,5.325744,-0.0037308827908396356,-0.02412639262114825,0.0966050877605131,36.09446859390736,-92.24360919585227,80.21211738781929
2024-09-23 08:11:19.989652,41.26,5.325744,-0.0034324103296106863,-0.023927417309398437,0.09725178296655933,36.09446859390736,-92.24360919585227,80.21211738781929
2024-09-23 08:11:20.033603,41.26,5.325795,-0.0024872551938930902,-0.023579196463302005,0.09725178296655933,36.09446859390736,-96.25519929585457,80.21211738781929
2024-09-23 08:11:20.076501,41.26,5.325795,-0.0024872551938930902,-0.023579196463302005,0.09670458680871308,36.09446859390736,-92.24360919585227,84.22370748782159
2024-09-23 08:11:20.088149,41.26,5.325846,-0.0037308827908396356,-0.023579196463302005,0.09670458680871308,36.09446859390736,-92.24360919585227,84.22370748782159
2024-09-23 08:11:20.120157,41.26,5.325846,-0.0037308827908396356,-0.02352945757203875,0.09670458680871308,36.09446859390736,-92.24360919585227,84.22370748782159
2024-09-23 08:11:20.132866,41.26,5.325933,-0.0037308827908396356,-0.02352945757203875,0.09725178296655933,36.09446859390736,-92.24360919585227,76.200527287817
2024-09-23 08:11:20.175963,41.26,5.325933,-0.0030841997366068195,-0.024225890150371555,0.09725178296655933,32.08287849390507,-100.26678939585686,76.200527287817
2024-09-23 08:11:20.187707,41.26,5.325933,-0.0030841997366068195,-0.024225890150371555,0.09725178296655933,32.08287849390507,-100.26678939585686,80.21211738781929
2024-09-23 08:11:20.219384,41.26,5.325984,-0.0031836870127375577,-0.024225890150371555,0.09725178296655933,32.08287849390507,-100.26678939585686,80.21211738781929
2024-09-23 08:11:20.230785,41.26,5.325984,-0.0031836870127375577,-0.024076653729884996,0.09690356060148622,32.08287849390507,-96.25519929585457,80.21211738781929
2024-09-23 08:11:20.273605,41.26,5.326035,-0.0030841997366068195,-0.024176140626271565,0.09705279702197278,32.08287849390507,-96.25519929585457,76.200527287817
2024-09-23 08:11:20.285844,41.26,5.326035,-0.0030841997366068195,-0.024176140626271565,0.09705279702197278,28.07457030097246,-96.25519929585457,76.200527287817
2024-09-23 08:11:20.317744,41.26,5.326035,-0.0030841997366068195,-0.024176140626271565,0.09705279702197278,28.07457030097246,-96.25519929585457,80.21211738781929
2024-09-23 08:11:20.329665,41.26,5.326086,-0.0031339382481259063,-0.02397715620066169,0.09710254654607277,28.07457030097246,-96.25519929585457,80.21211738781929
2024-09-23 08:11:20.373282,41.26,5.326137,-0.0029349636958644295,-0.02397715620066169,0.09710254654607277,32.08287849390507,-96.25519929585457,80.21211738781929
2024-09-23 08:11:20.415696,41.26,5.326137,-0.0029349636958644295,-0.02397715620066169,0.09715228999426605,40.106058693909645,-92.24360919585227,80.21211738781929
2024-09-23 08:11:20.468203,41.26,5.326187,-0.0027359787006383035,-0.024225890150371555,0.09680407370509965,40.106058693909645,-92.24360919585227,84.22370748782159
2024-09-23 08:11:20.479872,41.26,5.326187,-0.0027359787006383035,-0.024225890150371555,0.09680407370509965,40.106058693909645,-92.24360919585227,84.22370748782159
2024-09-23 08:11:20.512873,41.26,5.326187,-0.0027359787006383035,-0.024225890150371555,0.09680407370509965,40.106058693909645,-92.24360919585227,80.21211738781929
2024-09-23 08:11:20.524893,41.26,5.326274,-0.0028354659767690416,-0.024076653729884996,0.09725178296655933,40.106058693909645,-92.24360919585227,80.21211738781929
2024-09-23 08:11:20.568047,41.26,5.326326,-0.0030344509719951677,-0.023877669304275123,0.09725178296655933,36.09446859390736,-96.25519929585457,80.21211738781929
2024-09-23 08:11:20.610332,41.26,5.326326,-0.0030344509719951677,-0.023877669304275123,0.09720203344245934,32.08287849390507,-96.25519929585457,80.21211738781929
2024-09-23 08:11:20.622201,41.26,5.326376,-0.0033329230534799477,-0.023877669304275123,0.09720203344245934,32.08287849390507,-96.25519929585457,76.200527287817
2024-09-23 08:11:20.665640,41.26,5.326427,-0.0033329230534799477,-0.024076653729884996,0.09705279702197278,32.08287849390507,-92.24360919585227,80.21211738781929
2024-09-23 08:11:20.707868,41.26,5.326427,-0.0030841997366068195,-0.024375126570858115,0.09705279702197278,32.08287849390507,-92.24360919585227,80.21211738781929
2024-09-23 08:11:20.719650,41.26,5.326427,-0.0030841997366068195,-0.024375126570858115,0.0973015264147526,36.09446859390736,-96.25519929585457,76.200527287817
2024-09-23 08:11:20.763324,41.44,5.326518,-0.0031339382481259063,-0.02338022115155219,0.09710254654607277,40.106058693909645,-92.24360919585227,76.200527287817
2024-09-23 08:11:20.805369,41.44,5.32657,-0.0031339382481259063,-0.02338022115155219,0.09710254654607277,40.106058693909645,-92.24360919585227,80.21211738781929
2024-09-23 08:11:20.816998,41.44,5.32657,-0.0033329230534799477,-0.02362894446842532,0.0973015264147526,40.106058693909645,-92.24360919585227,80.21211738781929
2024-09-23 08:11:20.859662,41.44,5.32662,-0.004178591292810975,-0.023827930413011865,0.0973015264147526,40.106058693909645,-100.26678939585686,80.21211738781929
2024-09-23 08:11:20.871822,41.44,5.32662,-0.004178591292810975,-0.023827930413011865,0.09715228999426605,40.106058693909645,-100.26678939585686,80.21211738781929
2024-09-23 08:11:20.903773,41.44,5.32662,-0.004178591292810975,-0.023827930413011865,0.09715228999426605,32.08287849390507,-104.27510100388527,76.200527287817
2024-09-23 08:11:20.915622,41.44,5.326671,-0.003233425524256645,-0.023778180888911878,0.09715228999426605,32.08287849390507,-104.27510100388527,76.200527287817
2024-09-23 08:11:20.958700,41.44,5.326722,-0.003233425524256645,-0.023778180888911878,0.09680407370509965,36.09446859390736,-96.25519929585457,80.21211738781929
2024-09-23 08:11:21.001294,41.44,5.326722,-0.003233425524256645,-0.024275627522658133,0.09715228999426605,36.09446859390736,-96.25519929585457,80.21211738781929
2024-09-23 08:11:21.012728,41.44,5.32681,-0.003233425524256645,-0.024275627522658133,0.09715228999426605,36.09446859390736,-100.26678939585686,80.21211738781929
2024-09-23 08:11:21.055952,41.44,5.32681,-0.003929857343101113,-0.024076653729884996,0.09695331012558621,32.08287849390507,-100.26678939585686,84.22370748782159
2024-09-23 08:11:21.099287,41.44,5.326862,-0.0029349636958644295,-0.023827930413011865,0.09695331012558621,32.08287849390507,-100.26678939585686,84.22370748782159
2024-09-23 08:11:21.110563,41.44,5.326862,-0.0029349636958644295,-0.023827930413011865,0.09720203344245934,40.106058693909645,-96.25519929585457,84.22370748782159
2024-09-23 08:11:21.153964,41.44,5.326912,-0.002586742470023829,-0.02397715620066169,0.09680407370509965,40.106058693909645,-96.25519929585457,80.21211738781929
2024-09-23 08:11:21.196456,41.44,5.326912,-0.002586742470023829,-0.02397715620066169,0.09680407370509965,40.106058693909645,-96.25519929585457,80.21211738781929
2024-09-23 08:11:21.208073,41.44,5.326963,-0.003482159473966507,-0.02308174982955575,0.09715228999426605,40.106058693909645,-96.25519929585457,80.21211738781929
2024-09-23 08:11:21.250934,41.44,5.327014,-0.0026862297461545674,-0.024076653729884996,0.09715228999426605,36.09446859390736,-100.26678939585686,80.21211738781929
2024-09-23 08:11:21.294671,41.44,5.327014,-0.0026862297461545674,-0.024076653729884996,0.09685382322919964,48.12595698684454,-104.27510100388527,80.21211738781929
2024-09-23 08:11:21.306440,41.44,5.327064,-0.0026862297461545674,-0.024076653729884996,0.09685382322919964,48.12595698684454,-104.27510100388527,76.200527287817
2024-09-23 08:11:21.349286,41.44,5.327152,-0.0026862297461545674,-0.024225890150371555,0.09710254654607277,40.106058693909645,-100.26678939585686,80.21211738781929
2024-09-23 08:11:21.391258,41.44,5.327152,-0.0034324103296106863,-0.023579196463302005,0.09690356060148622,40.106058693909645,-100.26678939585686,80.21211738781929
2024-09-23 08:11:21.403494,41.44,5.327152,-0.0034324103296106863,-0.023579196463302005,0.09690356060148622,32.08287849390507,-88.23529758782387,84.22370748782159
2024-09-23 08:11:21.446008,41.44,5.327203,-0.0033329230534799477,-0.023429960042815445,0.09685382322919964,32.08287849390507,-92.24360919585227,84.22370748782159
2024-09-23 08:11:21.489573,41.44,5.327254,-0.0030344509719951677,-0.023429960042815445,0.09685382322919964,32.08287849390507,-92.24360919585227,84.22370748782159
2024-09-23 08:11:21.501050,41.44,5.327254,-0.0030344509719951677,-0.02367869399252531,0.09670458680871308,32.08287849390507,-92.24360919585227,84.22370748782159
2024-09-23 08:11:21.544548,41.44,5.327305,-0.0031339382481259063,-0.023728432883788564,0.09720203344245934,32.08287849390507,-92.24360919585227,80.21211738781929
2024-09-23 08:11:21.638843,41.44,5.327356,-0.0037308827908396356,-0.023728432883788564,0.09720203344245934,36.09446859390736,-96.25519929585457,80.21211738781929
2024-09-23 08:11:21.650985,41.44,5.327356,-0.0037308827908396356,-0.023827930413011865,0.09720203344245934,36.09446859390736,-96.25519929585457,80.21211738781929
2024-09-23 08:11:21.684112,41.44,5.327356,-0.0037308827908396356,-0.023827930413011865,0.09715228999426605,44.11764879391193,-92.24360919585227,80.21211738781929
2024-09-23 08:11:21.695709,41.44,5.327406,-0.003233425524256645,-0.023827930413011865,0.09715228999426605,44.11764879391193,-92.24360919585227,84.22370748782159
2024-09-23 08:11:21.738304,41.44,5.327493,-0.003233425524256645,-0.023827930413011865,0.09740101331113918,40.106058693909645,-96.25519929585457,72.1922225099802
2024-09-23 08:11:21.780984,41.03,5.327493,-0.0030841997366068195,-0.02412639262114825,0.09740101331113918,40.106058693909645,-96.25519929585457,72.1922225099802
2024-09-23 08:11:21.792623,41.03,5.327493,-0.0030841997366068195,-0.02412639262114825,0.09725178296655933,36.09446859390736,-100.26678939585686,80.21211738781929
2024-09-23 08:11:21.835651,41.03,5.327544,-0.0029847020175114316,-0.023778180888911878,0.09779897304849887,44.11764879391193,-96.25519929585457,80.21211738781929
2024-09-23 08:11:21.879042,41.03,5.32764,-0.003631395514708897,-0.023778180888911878,0.09779897304849887,44.11764879391193,-96.25519929585457,80.21211738781929
2024-09-23 08:11:21.890587,41.03,5.32764,-0.003631395514708897,-0.023778180888911878,0.09665483728461309,48.12595698684454,-96.25519929585457,80.21211738781929
2024-09-23 08:11:21.934232,41.03,5.327691,-0.003382661564999035,-0.02362894446842532,0.09720203344245934,48.12595698684454,-96.25519929585457,80.21211738781929
2024-09-23 08:11:21.977123,41.03,5.327691,-0.003382661564999035,-0.02362894446842532,0.09720203344245934,40.106058693909645,-96.25519929585457,80.21211738781929
2024-09-23 08:11:21.988464,41.03,5.327742,-0.0030841997366068195,-0.02338022115155219,0.09720203344245934,40.106058693909645,-96.25519929585457,76.200527287817
2024-09-23 08:11:22.031000,41.03,5.327793,-0.0028354659767690416,-0.02338022115155219,0.09705279702197278,40.106058693909645,-96.25519929585457,80.21211738781929
2024-09-23 08:11:22.074315,41.03,5.327793,-0.0028354659767690416,-0.024076653729884996,0.09755024973162574,32.08287849390507,-96.25519929585457,80.21211738781929
2024-09-23 08:11:22.085712,41.03,5.327883,-0.0028354659767690416,-0.024076653729884996,0.09755024973162574,32.08287849390507,-104.27510100388527,84.22370748782159
2024-09-23 08:11:22.128952,41.03,5.327883,-0.0030841997366068195,-0.023579196463302005,0.09725178296655933,40.106058693909645,-104.27510100388527,84.22370748782159
2024-09-23 08:11:22.171448,41.03,5.327934,-0.0030841997366068195,-0.023579196463302005,0.09725178296655933,40.106058693909645,-96.25519929585457,84.22370748782159
2024-09-23 08:11:22.183427,41.03,5.327934,-0.002586742470023829,-0.02412639262114825,0.09715228999426605,40.106058693909645,-96.25519929585457,84.22370748782159
2024-09-23 08:11:22.226158,41.03,5.327985,-0.0029349636958644295,-0.02397715620066169,0.09715228999426605,48.12595698684454,-88.23529758782387,80.21211738781929
2024-09-23 08:11:22.269417,41.03,5.327985,-0.0029349636958644295,-0.02397715620066169,0.09755024973162574,40.106058693909645,-96.25519929585457,80.21211738781929
2024-09-23 08:11:22.280691,41.03,5.328036,-0.0033329230534799477,-0.02397715620066169,0.09755024973162574,40.106058693909645,-96.25519929585457,76.200527287817
2024-09-23 08:11:22.324332,41.03,5.328086,-0.0033329230534799477,-0.023429960042815445,0.09665483728461309,44.11764879391193,-100.26678939585686,80.21211738781929
2024-09-23 08:11:22.367364,41.03,5.328086,-0.003382661564999035,-0.02352945757203875,0.09655535038822652,44.11764879391193,-100.26678939585686,80.21211738781929
2024-09-23 08:11:22.379053,41.03,5.328086,-0.003382661564999035,-0.02352945757203875,0.09655535038822652,32.08287849390507,-104.27510100388527,84.22370748782159
2024-09-23 08:11:22.421695,41.03,5.328176,-0.0026862297461545674,-0.02362894446842532,0.0973512698629459,32.08287849390507,-104.27510100388527,84.22370748782159
2024-09-23 08:11:22.464269,41.03,5.328227,-0.0031836870127375577,-0.02362894446842532,0.0973512698629459,32.08287849390507,-104.27510100388527,84.22370748782159
2024-09-23 08:11:22.475599,41.03,5.328227,-0.0031836870127375577,-0.02352945757203875,0.0966050877605131,32.08287849390507,-104.27510100388527,84.22370748782159
2024-09-23 08:11:22.518375,41.03,5.328278,-0.0035318979854855937,-0.02362894446842532,0.0970030596496862,32.08287849390507,-104.27510100388527,80.21211738781929
2024-09-23 08:11:22.560760,41.03,5.328278,-0.0035318979854855937,-0.02362894446842532,0.0970030596496862,32.08287849390507,-96.25519929585457,80.21211738781929
2024-09-23 08:11:22.572567,41.03,5.328328,-0.0027359787006383035,-0.023778180888911878,0.0970030596496862,32.08287849390507,-96.25519929585457,76.200527287817
2024-09-23 08:11:22.615759,41.03,5.328379,-0.0031339382481259063,-0.023778180888911878,0.09740101331113918,32.08287849390507,-100.26678939585686,80.21211738781929
2024-09-23 08:11:22.658297,41.03,5.328379,-0.0031339382481259063,-0.023579196463302005,0.09715228999426605,32.08287849390507,-100.26678939585686,80.21211738781929
2024-09-23 08:11:22.711191,41.03,5.328379,-0.0031339382481259063,-0.023579196463302005,0.09715228999426605,28.07457030097246,-100.26678939585686,80.21211738781929
2024-09-23 08:11:22.805868,40.36,5.328379,-0.0031339382481259063,-0.023579196463302005,0.09715228999426605,28.07457030097246,-100.26678939585686,84.22370748782159
2024-09-23 08:11:22.817479,40.36,5.328468,-0.003233425524256645,-0.024275627522658133,0.0973015264147526,28.07457030097246,-100.26678939585686,84.22370748782159
2024-09-23 08:11:22.850673,40.36,5.328468,-0.003233425524256645,-0.024275627522658133,0.0973015264147526,40.106058693909645,-100.26678939585686,84.22370748782159
2024-09-23 08:11:22.861856,40.36,5.328519,-0.0029349636958644295,-0.02367869399252531,0.0973015264147526,40.106058693909645,-88.23529758782387,80.21211738781929
2024-09-23 08:11:22.905302,40.36,5.328519,-0.0029349636958644295,-0.02367869399252531,0.09745075675933246,40.106058693909645,-92.24360919585227,84.22370748782159
2024-09-23 08:11:22.918188,40.36,5.32857,-0.0030841997366068195,-0.02367869399252531,0.09745075675933246,40.106058693909645,-92.24360919585227,84.22370748782159
2024-09-23 08:11:22.950148,40.36,5.32857,-0.0030841997366068195,-0.02412639262114825,0.09695331012558621,40.106058693909645,-92.24360919585227,84.22370748782159
2024-09-23 08:11:22.961669,40.36,5.328621,-0.0030841997366068195,-0.02412639262114825,0.09695331012558621,40.106058693909645,-100.26678939585686,80.21211738781929
2024-09-23 08:11:23.004014,40.36,5.328621,-0.003482159473966507,-0.023330473146428877,0.09740101331113918,44.11764879391193,-100.26678939585686,80.21211738781929
2024-09-23 08:11:23.016149,40.36,5.328621,-0.003482159473966507,-0.023330473146428877,0.09740101331113918,44.11764879391193,-100.26678939585686,84.22370748782159
2024-09-23 08:11:23.049143,40.36,5.32881,-0.0034324103296106863,-0.02367869399252531,0.09740101331113918,44.11764879391193,-100.26678939585686,84.22370748782159
2024-09-23 08:11:23.061558,40.36,5.32881,-0.0034324103296106863,-0.02367869399252531,0.0973015264147526,32.08287849390507,-100.26678939585686,84.22370748782159
2024-09-23 08:11:23.094206,40.36,5.32881,-0.0034324103296106863,-0.02367869399252531,0.0973015264147526,32.08287849390507,-100.26678939585686,80.21211738781929
2024-09-23 08:11:23.105960,40.36,5.328861,-0.0027359787006383035,-0.024225890150371555,0.0976994861521123,40.106058693909645,-100.26678939585686,80.21211738781929
2024-09-23 08:11:23.148611,40.36,5.328912,-0.0028354659767690416,-0.024225890150371555,0.0976994861521123,40.106058693909645,-96.25519929585457,80.21211738781929
2024-09-23 08:11:23.160069,40.36,5.328912,-0.0028354659767690416,-0.023728432883788564,0.09685382322919964,40.106058693909645,-96.25519929585457,80.21211738781929
2024-09-23 08:11:23.193584,40.36,5.328912,-0.0028354659767690416,-0.023728432883788564,0.09685382322919964,36.09446859390736,-96.25519929585457,80.21211738781929
2024-09-23 08:11:23.204932,40.36,5.328963,-0.0030841997366068195,-0.023429960042815445,0.09685382322919964,36.09446859390736,-96.25519929585457,76.200527287817
2024-09-23 08:11:23.247884,40.36,5.329013,-0.0030841997366068195,-0.023429960042815445,0.09675432418099966,40.106058693909645,-104.27510100388527,80.21211738781929
2024-09-23 08:11:23.259082,40.36,5.329013,-0.0028852147413806935,-0.023429960042815445,0.09675432418099966,40.106058693909645,-104.27510100388527,80.21211738781929
2024-09-23 08:11:23.291271,40.36,5.329013,-0.0028852147413806935,-0.023728432883788564,0.09740101331113918,40.106058693909645,-104.27510100388527,80.21211738781929
2024-09-23 08:11:23.303356,40.36,5.329102,-0.0028852147413806935,-0.023728432883788564,0.09740101331113918,32.08287849390507,-104.27510100388527,80.21211738781929
2024-09-23 08:11:23.347083,40.36,5.329102,-0.003780631555451287,-0.024076653729884996,0.0973015264147526,36.09446859390736,-108.28669110388756,76.200527287817
2024-09-23 08:11:23.389184,40.36,5.329153,-0.0030344509719951677,-0.024076653729884996,0.0973015264147526,36.09446859390736,-108.28669110388756,76.200527287817
2024-09-23 08:11:23.401081,40.36,5.329153,-0.0030344509719951677,-0.023728432883788564,0.09620712802315341,36.09446859390736,-100.26678939585686,76.200527287817
2024-09-23 08:11:23.445800,40.36,5.329204,-0.0035816467500972456,-0.023429960042815445,0.09655535038822652,32.08287849390507,-100.26678939585686,80.21211738781929
2024-09-23 08:11:23.488870,40.36,5.329254,-0.0029847020175114316,-0.023429960042815445,0.09655535038822652,32.08287849390507,-100.26678939585686,76.200527287817
2024-09-23 08:11:23.500646,40.36,5.329254,-0.0029847020175114316,-0.02352945757203875,0.09685382322919964,32.08287849390507,-100.26678939585686,76.200527287817
2024-09-23 08:11:23.533920,40.36,5.329254,-0.0029847020175114316,-0.02352945757203875,0.09685382322919964,40.106058693909645,-100.26678939585686,76.200527287817
2024-09-23 08:11:23.547717,40.36,5.329305,-0.0030344509719951677,-0.02412639262114825,0.09685382322919964,40.106058693909645,-100.26678939585686,80.21211738781929
2024-09-23 08:11:23.590970,40.36,5.329356,-0.003482159473966507,-0.02412639262114825,0.09695331012558621,48.12595698684454,-100.26678939585686,76.200527287817
2024-09-23 08:11:23.685428,40.36,5.329356,-0.003482159473966507,-0.02397715620066169,0.09695331012558621,44.11764879391193,-96.25519929585457,76.200527287817
2024-09-23 08:11:23.697181,40.36,5.329443,-0.003482159473966507,-0.02397715620066169,0.09695331012558621,44.11764879391193,-96.25519929585457,80.21211738781929
2024-09-23 08:11:23.730153,40.36,5.329443,-0.0029847020175114316,-0.02397715620066169,0.09695331012558621,44.11764879391193,-96.25519929585457,80.21211738781929
2024-09-23 08:11:23.741844,40.36,5.329443,-0.0029847020175114316,-0.02352945757203875,0.09720203344245934,44.11764879391193,-100.26678939585686,80.21211738781929
2024-09-23 08:11:23.784336,40.36,5.329494,-0.0029349636958644295,-0.024225890150371555,0.09670458680871308,44.11764879391193,-100.26678939585686,80.21211738781929
2024-09-23 08:11:23.796900,40.36,5.329494,-0.0029349636958644295,-0.024225890150371555,0.09670458680871308,40.106058693909645,-100.26678939585686,80.21211738781929
2024-09-23 08:11:23.829697,40.84,5.329545,-0.0029349636958644295,-0.024225890150371555,0.09670458680871308,40.106058693909645,-104.27510100388527,84.22370748782159
2024-09-23 08:11:23.841251,40.84,5.329545,-0.003631395514708897,-0.02352945757203875,0.09675432418099966,40.106058693909645,-104.27510100388527,84.22370748782159
2024-09-23 08:11:23.883511,40.84,5.329596,-0.0032831742888682963,-0.023728432883788564,0.09675432418099966,40.106058693909645,-96.25519929585457,80.21211738781929
2024-09-23 08:11:23.926195,40.84,5.329596,-0.0032831742888682963,-0.023728432883788564,0.0973015264147526,40.106058693909645,-96.25519929585457,80.21211738781929
2024-09-23 08:11:23.937547,40.84,5.329689,-0.0031339382481259063,-0.023728432883788564,0.0973015264147526,40.106058693909645,-96.25519929585457,80.21211738781929
2024-09-23 08:11:23.979680,40.84,5.329784,-0.0031339382481259063,-0.024325377046758124,0.09755024973162574,40.106058693909645,-100.26678939585686,80.21211738781929
2024-09-23 08:11:24.022184,40.84,5.329784,-0.0035318979854855937,-0.02352945757203875,0.09755024973162574,40.106058693909645,-100.26678939585686,80.21211738781929
2024-09-23 08:11:24.033827,40.84,5.329784,-0.0035318979854855937,-0.02352945757203875,0.09680407370509965,40.106058693909645,-96.25519929585457,80.21211738781929
2024-09-23 08:11:24.077072,40.84,5.329836,-0.003382661564999035,-0.023728432883788564,0.09680407370509965,40.106058693909645,-92.24360919585227,80.21211738781929
2024-09-23 08:11:24.119519,40.84,5.329886,-0.003382661564999035,-0.023728432883788564,0.09680407370509965,40.106058693909645,-92.24360919585227,76.200527287817
2024-09-23 08:11:24.130530,40.84,5.329886,-0.003382661564999035,-0.023877669304275123,0.09750050628343246,44.11764879391193,-92.24360919585227,76.200527287817
2024-09-23 08:11:24.173012,40.84,5.329937,-0.0033329230534799477,-0.023479709566915436,0.09750050628343246,44.11764879391193,-88.23529758782387,80.21211738781929
2024-09-23 08:11:24.185321,40.84,5.329937,-0.0033329230534799477,-0.023479709566915436,0.0966050877605131,44.11764879391193,-88.23529758782387,80.21211738781929
2024-09-23 08:11:24.217587,40.84,5.329937,-0.0033329230534799477,-0.023479709566915436,0.0966050877605131,28.07457030097246,-108.28669110388756,80.21211738781929
2024-09-23 08:11:24.228669,40.84,5.329988,-0.0031339382481259063,-0.024176140626271565,0.0966050877605131,28.07457030097246,-108.28669110388756,76.200527287817
2024-09-23 08:11:24.272114,40.84,5.330038,-0.0031339382481259063,-0.024176140626271565,0.09690356060148622,40.106058693909645,-100.26678939585686,80.21211738781929
2024-09-23 08:11:24.284111,40.84,5.330038,-0.0035318979854855937,-0.024176140626271565,0.09690356060148622,40.106058693909645,-100.26678939585686,80.21211738781929
2024-09-23 08:11:24.316085,40.84,5.330038,-0.0035318979854855937,-0.02352945757203875,0.09690356060148622,44.11764879391193,-100.26678939585686,80.21211738781929
2024-09-23 08:11:24.327343,40.84,5.330125,-0.0035318979854855937,-0.02352945757203875,0.09690356060148622,44.11764879391193,-96.25519929585457,76.200527287817
2024-09-23 08:11:24.370253,40.84,5.330125,-0.0028852147413806935,-0.023778180888911878,0.0966050877605131,36.09446859390736,-100.26678939585686,80.21211738781929
2024-09-23 08:11:24.412082,40.84,5.330177,-0.0033329230534799477,-0.023778180888911878,0.0966050877605131,36.09446859390736,-100.26678939585686,80.21211738781929
2024-09-23 08:11:24.423660,40.84,5.330177,-0.0033329230534799477,-0.024076653729884996,0.0973015264147526,40.106058693909645,-104.27510100388527,80.21211738781929
2024-09-23 08:11:24.466937,40.84,5.330227,-0.0034324103296106863,-0.024076653729884996,0.09670458680871308,36.09446859390736,-104.27510100388527,88.23529758782387
2024-09-23 08:11:24.509816,40.84,5.330227,-0.0034324103296106863,-0.024076653729884996,0.09670458680871308,36.09446859390736,-100.26678939585686,84.22370748782159
2024-09-23 08:11:24.521069,40.84,5.330278,-0.0031339382481259063,-0.02352945757203875,0.09720203344245934,36.09446859390736,-100.26678939585686,84.22370748782159
2024-09-23 08:11:24.563934,40.84,5.330329,-0.003233425524256645,-0.02352945757203875,0.09720203344245934,32.08287849390507,-104.27510100388527,80.21211738781929
2024-09-23 08:11:24.575903,40.84,5.330329,-0.003233425524256645,-0.023728432883788564,0.09720203344245934,32.08287849390507,-104.27510100388527,80.21211738781929
2024-09-23 08:11:24.607983,40.84,5.330329,-0.003233425524256645,-0.023728432883788564,0.09640611396773996,36.09446859390736,-104.27510100388527,80.21211738781929
2024-09-23 08:11:24.619843,40.84,5.330379,-0.0031339382481259063,-0.023728432883788564,0.09640611396773996,36.09446859390736,-104.27510100388527,80.21211738781929
2024-09-23 08:11:24.704079,40.84,5.330379,-0.0031339382481259063,-0.023778180888911878,0.09640611396773996,36.09446859390736,-104.27510100388527,80.21211738781929
2024-09-23 08:11:24.715632,40.84,5.330467,-0.0031339382481259063,-0.023778180888911878,0.09685382322919964,40.106058693909645,-92.24360919585227,80.21211738781929
2024-09-23 08:11:24.758222,40.84,5.330467,-0.0037308827908396356,-0.023728432883788564,0.09670458680871308,32.08287849390507,-92.24360919585227,80.21211738781929
2024-09-23 08:11:24.770779,40.84,5.330467,-0.0037308827908396356,-0.023728432883788564,0.09670458680871308,32.08287849390507,-112.29828120388984,68.18063240997792
2024-09-23 08:11:24.802312,40.84,5.330518,-0.003780631555451287,-0.023728432883788564,0.09670458680871308,32.08287849390507,-112.29828120388984,68.18063240997792
2024-09-23 08:11:24.813741,40.84,5.330518,-0.003780631555451287,-0.02367869399252531,0.09665483728461309,36.09446859390736,-100.26678939585686,68.18063240997792
2024-09-23 08:11:24.857024,40.52,5.330569,-0.0028354659767690416,-0.023280723622328886,0.09720203344245934,40.106058693909645,-100.26678939585686,76.200527287817
2024-09-23 08:11:24.900027,40.52,5.330569,-0.0028354659767690416,-0.023280723622328886,0.09720203344245934,40.106058693909645,-100.26678939585686,76.200527287817
2024-09-23 08:11:24.911424,40.52,5.33062,-0.0028852147413806935,-0.023728432883788564,0.09715228999426605,40.106058693909645,-100.26678939585686,76.200527287817
2024-09-23 08:11:24.953735,40.52,5.33062,-0.0028852147413806935,-0.023728432883788564,0.09715228999426605,40.106058693909645,-100.26678939585686,76.200527287817
2024-09-23 08:11:24.996315,40.52,5.33062,-0.0028852147413806935,-0.023728432883788564,0.09715228999426605,40.106058693909645,-104.27510100388527,76.200527287817
2024-09-23 08:11:25.049567,40.52,5.330712,-0.0032831742888682963,-0.02362894446842532,0.09715228999426605,40.106058693909645,-104.27510100388527,72.1922225099802
2024-09-23 08:11:25.061375,40.52,5.330712,-0.0032831742888682963,-0.02362894446842532,0.09715228999426605,28.07457030097246,-104.27510100388527,72.1922225099802
2024-09-23 08:11:25.095226,40.52,5.330712,-0.0032831742888682963,-0.02362894446842532,0.09715228999426605,28.07457030097246,-92.24360919585227,72.1922225099802
2024-09-23 08:11:25.106684,40.52,5.330763,-0.003233425524256645,-0.02412639262114825,0.09720203344245934,28.07457030097246,-92.24360919585227,80.21211738781929
2024-09-23 08:11:25.148848,40.52,5.330856,-0.003233425524256645,-0.02412639262114825,0.09720203344245934,44.11764879391193,-100.26678939585686,76.200527287817
2024-09-23 08:11:25.161263,40.52,5.330856,-0.0032831742888682963,-0.024026904205785005,0.09720203344245934,44.11764879391193,-100.26678939585686,76.200527287817
2024-09-23 08:11:25.194921,40.52,5.330856,-0.0032831742888682963,-0.024026904205785005,0.09720203344245934,32.08287849390507,-96.25519929585457,76.200527287817
2024-09-23 08:11:25.207363,40.52,5.330908,-0.0038303700669703737,-0.024026904205785005,0.09720203344245934,32.08287849390507,-96.25519929585457,76.200527287817
2024-09-23 08:11:25.240601,40.52,5.330908,-0.0038303700669703737,-0.024076653729884996,0.09720203344245934,32.08287849390507,-96.25519929585457,76.200527287817
2024-09-23 08:11:25.252464,40.52,5.331052,-0.0038303700669703737,-0.024076653729884996,0.09720203344245934,28.07457030097246,-100.26678939585686,80.21211738781929
2024-09-23 08:11:25.295000,40.52,5.331052,-0.003233425524256645,-0.023877669304275123,0.09710254654607277,36.09446859390736,-96.25519929585457,80.21211738781929
2024-09-23 08:11:25.306740,40.52,5.331052,-0.003233425524256645,-0.023877669304275123,0.09710254654607277,36.09446859390736,-96.25519929585457,76.200527287817
2024-09-23 08:11:25.339045,40.52,5.331103,-0.0029847020175114316,-0.023877669304275123,0.09710254654607277,36.09446859390736,-96.25519929585457,76.200527287817
2024-09-23 08:11:25.350312,40.52,5.331103,-0.0029847020175114316,-0.02367869399252531,0.09705279702197278,32.08287849390507,-100.26678939585686,76.200527287817
2024-09-23 08:11:25.392237,40.52,5.331154,-0.0031339382481259063,-0.023927417309398437,0.09655535038822652,32.08287849390507,-100.26678939585686,76.200527287817
2024-09-23 08:11:25.404606,40.52,5.331154,-0.0031339382481259063,-0.023927417309398437,0.09655535038822652,44.11764879391193,-100.26678939585686,76.200527287817
2024-09-23 08:11:25.437711,40.52,5.331204,-0.0031339382481259063,-0.023927417309398437,0.09655535038822652,44.11764879391193,-92.24360919585227,76.200527287817
2024-09-23 08:11:25.449402,40.52,5.331204,-0.004079093383843503,-0.024026904205785005,0.09740101331113918,44.11764879391193,-92.24360919585227,76.200527287817
2024-09-23 08:11:25.491809,40.52,5.331255,-0.0031836870127375577,-0.023579196463302005,0.09740101331113918,44.11764879391193,-104.27510100388527,72.1922225099802
2024-09-23 08:11:25.533821,40.52,5.331255,-0.0031836870127375577,-0.023579196463302005,0.09680407370509965,40.106058693909645,-104.27510100388527,72.1922225099802
2024-09-23 08:11:25.544827,40.52,5.331306,-0.003382661564999035,-0.023579196463302005,0.09680407370509965,40.106058693909645,-100.26678939585686,80.21211738781929
2024-09-23 08:11:25.587986,40.52,5.331306,-0.003382661564999035,-0.023877669304275123,0.09725178296655933,40.106058693909645,-104.27510100388527,80.21211738781929
2024-09-23 08:11:25.599838,40.52,5.331393,-0.003382661564999035,-0.023877669304275123,0.09725178296655933,40.106058693909645,-104.27510100388527,80.21211738781929
2024-09-23 08:11:25.633297,40.52,5.331393,-0.0028852147413806935,-0.023827930413011865,0.09650560086412653,40.106058693909645,-104.27510100388527,80.21211738781929
2024-09-23 08:11:25.645998,40.52,5.331393,-0.0028852147413806935,-0.023827930413011865,0.09650560086412653,44.11764879391193,-112.29828120388984,72.1922225099802
2024-09-23 08:11:25.679265,40.52,5.331444,-0.0028852147413806935,-0.023827930413011865,0.09650560086412653,44.11764879391193,-112.29828120388984,72.1922225099802
2024-09-23 08:11:25.691122,40.52,5.331444,-0.0029349636958644295,-0.023778180888911878,0.09695331012558621,36.09446859390736,-104.27510100388527,72.1922225099802
2024-09-23 08:11:25.733916,40.52,5.331495,-0.0028852147413806935,-0.023927417309398437,0.09705279702197278,36.09446859390736,-104.27510100388527,76.200527287817
2024-09-23 08:11:25.745949,40.52,5.331495,-0.0028852147413806935,-0.023927417309398437,0.09705279702197278,32.08287849390507,-104.27510100388527,76.200527287817
2024-09-23 08:11:25.779196,40.52,5.331546,-0.0028852147413806935,-0.023927417309398437,0.09705279702197278,32.08287849390507,-104.27510100388527,80.21211738781929
2024-09-23 08:11:25.791388,40.52,5.331546,-0.003233425524256645,-0.023927417309398437,0.09705279702197278,32.08287849390507,-104.27510100388527,80.21211738781929
2024-09-23 08:11:25.834618,40.52,5.331596,-0.003233425524256645,-0.02338022115155219,0.0973015264147526,36.09446859390736,-100.26678939585686,80.21211738781929
2024-09-23 08:11:25.877407,40.93,5.331596,-0.0035318979854855937,-0.024176140626271565,0.09720203344245934,36.09446859390736,-100.26678939585686,80.21211738781929
2024-09-23 08:11:25.888884,40.93,5.331596,-0.0035318979854855937,-0.024176140626271565,0.09720203344245934,36.09446859390736,-96.25519929585457,80.21211738781929
2024-09-23 08:11:25.921176,40.93,5.331647,-0.0035318979854855937,-0.024176140626271565,0.09720203344245934,36.09446859390736,-96.25519929585457,80.21211738781929
2024-09-23 08:11:25.932929,40.93,5.331647,-0.003233425524256645,-0.023778180888911878,0.09655535038822652,36.09446859390736,-100.26678939585686,80.21211738781929
2024-09-23 08:11:25.975146,40.93,5.331734,-0.0028354659767690416,-0.024325377046758124,0.09655535038822652,36.09446859390736,-100.26678939585686,80.21211738781929
2024-09-23 08:11:25.986616,40.93,5.331734,-0.0028354659767690416,-0.024325377046758124,0.0973512698629459,36.09446859390736,-100.26678939585686,80.21211738781929
2024-09-23 08:11:26.018787,40.93,5.331734,-0.0028354659767690416,-0.024325377046758124,0.0973512698629459,36.09446859390736,-96.25519929585457,80.21211738781929
2024-09-23 08:11:26.031059,40.93,5.331785,-0.0038303700669703737,-0.02367869399252531,0.0966050877605131,36.09446859390736,-96.25519929585457,84.22370748782159
2024-09-23 08:11:26.073271,40.93,5.331785,-0.0038303700669703737,-0.02367869399252531,0.0966050877605131,40.106058693909645,-92.24360919585227,80.21211738781929
2024-09-23 08:11:26.084961,40.93,5.331836,-0.0028354659767690416,-0.02352945757203875,0.0966050877605131,40.106058693909645,-92.24360919585227,80.21211738781929
2024-09-23 08:11:26.118682,40.93,5.331836,-0.0028354659767690416,-0.02352945757203875,0.09745075675933246,44.11764879391193,-92.24360919585227,80.21211738781929
2024-09-23 08:11:26.129854,40.93,5.331886,-0.0034324103296106863,-0.02352945757203875,0.09745075675933246,44.11764879391193,-96.25519929585457,84.22370748782159
2024-09-23 08:11:26.173789,40.93,5.331978,-0.0034324103296106863,-0.024325377046758124,0.09759999317981902,40.106058693909645,-100.26678939585686,76.200527287817
2024-09-23 08:11:26.215947,40.93,5.331978,-0.0024872551938930902,-0.023728432883788564,0.09759999317981902,40.106058693909645,-100.26678939585686,76.200527287817
2024-09-23 08:11:26.227164,40.93,5.331978,-0.0024872551938930902,-0.023728432883788564,0.0966050877605131,48.12595698684454,-92.24360919585227,76.200527287817
2024-09-23 08:11:26.269063,40.93,5.332029,-0.0032831742888682963,-0.02352945757203875,0.09690356060148622,44.11764879391193,-92.24360919585227,76.200527287817
2024-09-23 08:11:26.281210,40.93,5.332029,-0.0032831742888682963,-0.02352945757203875,0.09690356060148622,44.11764879391193,-96.25519929585457,76.200527287817
2024-09-23 08:11:26.313438,40.93,5.33208,-0.0032831742888682963,-0.02352945757203875,0.09690356060148622,44.11764879391193,-96.25519929585457,80.21211738781929
2024-09-23 08:11:26.324774,40.93,5.33208,-0.0031836870127375577,-0.023827930413011865,0.09645586349183995,28.07457030097246,-96.25519929585457,80.21211738781929
2024-09-23 08:11:26.366806,40.93,5.33208,-0.0031836870127375577,-0.023827930413011865,0.09645586349183995,28.07457030097246,-100.26678939585686,76.200527287817
2024-09-23 08:11:26.408569,40.93,5.332131,-0.0031836870127375577,-0.023827930413011865,0.09645586349183995,28.07457030097246,-100.26678939585686,76.200527287817
2024-09-23 08:11:26.421980,40.93,5.332131,-0.0031339382481259063,-0.02412639262114825,0.09715228999426605,32.08287849390507,-96.25519929585457,76.200527287817
2024-09-23 08:11:26.465268,40.93,5.332181,-0.0031836870127375577,-0.023778180888911878,0.09715228999426605,32.08287849390507,-96.25519929585457,96.25519929585457
2024-09-23 08:11:26.477037,40.93,5.332181,-0.0031836870127375577,-0.023778180888911878,0.09675432418099966,36.09446859390736,-96.25519929585457,96.25519929585457
2024-09-23 08:11:26.510378,40.93,5.332232,-0.0031836870127375577,-0.023778180888911878,0.09675432418099966,36.09446859390736,-100.26678939585686,84.22370748782159
2024-09-23 08:11:26.521964,40.93,5.332232,-0.0032831742888682963,-0.024076653729884996,0.09715228999426605,36.09446859390736,-100.26678939585686,84.22370748782159
2024-09-23 08:11:26.564870,40.93,5.332319,-0.0031339382481259063,-0.024325377046758124,0.09715228999426605,44.11764879391193,-100.26678939585686,76.200527287817
2024-09-23 08:11:26.607308,40.93,5.332319,-0.0031339382481259063,-0.024325377046758124,0.09715228999426605,32.08287849390507,-100.26678939585686,76.200527287817
2024-09-23 08:11:26.618422,40.93,5.33237,-0.003482159473966507,-0.024325377046758124,0.09715228999426605,32.08287849390507,-100.26678939585686,84.22370748782159
2024-09-23 08:11:26.660957,40.93,5.332465,-0.003482159473966507,-0.023728432883788564,0.09665483728461309,40.106058693909645,-104.27510100388527,80.21211738781929
2024-09-23 08:11:26.703321,40.93,5.332465,-0.003482159473966507,-0.023778180888911878,0.09665483728461309,40.106058693909645,-104.27510100388527,80.21211738781929
2024-09-23 08:11:26.714796,40.93,5.332465,-0.003482159473966507,-0.023778180888911878,0.09740101331113918,36.09446859390736,-96.25519929585457,84.22370748782159
2024-09-23 08:11:26.757879,40.93,5.332517,-0.003233425524256645,-0.024076653729884996,0.09635636444363997,56.14914060194492,-96.25519929585457,84.22370748782159
2024-09-23 08:11:26.770077,40.93,5.332517,-0.003233425524256645,-0.024076653729884996,0.09635636444363997,56.14914060194492,-100.26678939585686,84.22370748782159
2024-09-23 08:11:26.803118,40.93,5.332568,-0.0032831742888682963,-0.024076653729884996,0.09635636444363997,56.14914060194492,-100.26678939585686,80.21211738781929
2024-09-23 08:11:26.814315,40.93,5.332568,-0.0032831742888682963,-0.02367869399252531,0.09680407370509965,48.12595698684454,-100.26678939585686,80.21211738781929
2024-09-23 08:11:26.857100,40.93,5.332618,-0.003482159473966507,-0.024076653729884996,0.0970030596496862,48.12595698684454,-100.26678939585686,76.200527287817
2024-09-23 08:11:26.900542,41.63,5.332618,-0.003482159473966507,-0.024076653729884996,0.0970030596496862,28.07457030097246,-100.26678939585686,80.21211738781929
2024-09-23 08:11:26.912141,41.63,5.332669,-0.0030344509719951677,-0.023877669304275123,0.0970030596496862,28.07457030097246,-100.26678939585686,80.21211738781929
2024-09-23 08:11:26.955143,41.63,5.33272,-0.0035318979854855937,-0.023877669304275123,0.09690356060148622,24.06297849342227,-104.27510100388527,80.21211738781929
2024-09-23 08:11:26.997749,41.63,5.33272,-0.0035318979854855937,-0.024176140626271565,0.09705279702197278,36.09446859390736,-104.27510100388527,80.21211738781929
2024-09-23 08:11:27.009317,41.63,5.332807,-0.0035318979854855937,-0.024176140626271565,0.09705279702197278,36.09446859390736,-92.24360919585227,84.22370748782159
2024-09-23 08:11:27.053549,41.63,5.332807,-0.0027359787006383035,-0.02367869399252531,0.09720203344245934,36.09446859390736,-96.25519929585457,84.22370748782159
2024-09-23 08:11:27.148165,41.63,5.332858,-0.003382661564999035,-0.023778180888911878,0.09710254654607277,48.12595698684454,-96.25519929585457,84.22370748782159
2024-09-23 08:11:27.160032,41.63,5.332858,-0.003382661564999035,-0.023778180888911878,0.09710254654607277,48.12595698684454,-96.25519929585457,84.22370748782159
2024-09-23 08:11:27.192883,41.63,5.332909,-0.003382661564999035,-0.023778180888911878,0.09710254654607277,48.12595698684454,-96.25519929585457,84.22370748782159
2024-09-23 08:11:27.203980,41.63,5.332909,-0.0025369937054121774,-0.024225890150371555,0.09690356060148622,40.106058693909645,-96.25519929585457,84.22370748782159
2024-09-23 08:11:27.246989,41.63,5.332959,-0.0033329230534799477,-0.023579196463302005,0.09685382322919964,40.106058693909645,-92.24360919585227,80.21211738781929
2024-09-23 08:11:27.289670,41.63,5.332959,-0.0033329230534799477,-0.023579196463302005,0.09685382322919964,40.106058693909645,-92.24360919585227,80.21211738781929
2024-09-23 08:11:27.301081,41.63,5.33301,-0.0032831742888682963,-0.024225890150371555,0.09685382322919964,40.106058693909645,-92.24360919585227,80.21211738781929
2024-09-23 08:11:27.343618,41.63,5.333061,-0.0027359787006383035,-0.024225890150371555,0.09720203344245934,32.08287849390507,-96.25519929585457,76.200527287817
2024-09-23 08:11:27.386626,41.63,5.333061,-0.0027359787006383035,-0.024424863943144692,0.09650560086412653,32.08287849390507,-96.25519929585457,76.200527287817
2024-09-23 08:11:27.397938,41.63,5.333197,-0.0027359787006383035,-0.024424863943144692,0.09650560086412653,44.11764879391193,-96.25519929585457,76.200527287817
2024-09-23 08:11:27.441149,41.63,5.333197,-0.0032831742888682963,-0.023827930413011865,0.09705279702197278,32.08287849390507,-96.25519929585457,80.21211738781929
2024-09-23 08:11:27.483596,41.63,5.333248,-0.003233425524256645,-0.023827930413011865,0.09705279702197278,32.08287849390507,-96.25519929585457,80.21211738781929
2024-09-23 08:11:27.494664,41.63,5.333248,-0.003233425524256645,-0.02367869399252531,0.09645586349183995,32.08287849390507,-96.25519929585457,80.21211738781929
2024-09-23 08:11:27.537795,41.63,5.333299,-0.0028852147413806935,-0.023927417309398437,0.09695331012558621,32.08287849390507,-96.25519929585457,80.21211738781929
2024-09-23 08:11:27.549933,41.63,5.333299,-0.0028852147413806935,-0.023927417309398437,0.09695331012558621,32.08287849390507,-96.25519929585457,80.21211738781929
2024-09-23 08:11:27.582459,41.63,5.333299,-0.0028852147413806935,-0.023927417309398437,0.09695331012558621,32.08287849390507,-100.26678939585686,76.200527287817
2024-09-23 08:11:27.594333,41.63,5.333349,-0.0028354659767690416,-0.023927417309398437,0.09690356060148622,32.08287849390507,-100.26678939585686,76.200527287817
2024-09-23 08:11:27.637850,41.63,5.3334,-0.0035318979854855937,-0.023728432883788564,0.09690356060148622,28.07457030097246,-100.26678939585686,80.21211738781929
2024-09-23 08:11:27.680268,41.63,5.3334,-0.0035318979854855937,-0.023728432883788564,0.0976994861521123,36.09446859390736,-100.26678939585686,80.21211738781929
2024-09-23 08:11:27.734444,41.63,5.333451,-0.0029349636958644295,-0.023877669304275123,0.09750050628343246,36.09446859390736,-104.27510100388527,76.200527287817
2024-09-23 08:11:27.778245,41.63,5.333451,-0.0029349636958644295,-0.023877669304275123,0.09750050628343246,48.12595698684454,-104.27510100388527,76.200527287817
2024-09-23 08:11:27.789419,41.63,5.333538,-0.0030344509719951677,-0.024325377046758124,0.09750050628343246,48.12595698684454,-104.27510100388527,76.200527287817
2024-09-23 08:11:27.832980,41.63,5.333538,-0.0030344509719951677,-0.024325377046758124,0.09650560086412653,44.11764879391193,-104.27510100388527,76.200527287817
2024-09-23 08:11:27.875062,41.63,5.333589,-0.0030344509719951677,-0.024325377046758124,0.09650560086412653,44.11764879391193,-100.26678939585686,76.200527287817
2024-09-23 08:11:27.886623,41.63,5.333589,-0.002785727465249955,-0.023728432883788564,0.09665483728461309,44.11764879391193,-100.26678939585686,76.200527287817
2024-09-23 08:11:27.929554,41.21,5.33364,-0.0031836870127375577,-0.02338022115155219,0.09665483728461309,40.106058693909645,-100.26678939585686,80.21211738781929
2024-09-23 08:11:27.972663,41.21,5.33364,-0.0031836870127375577,-0.02338022115155219,0.09695331012558621,28.07457030097246,-96.25519929585457,80.21211738781929
2024-09-23 08:11:27.983856,41.21,5.333733,-0.0030841997366068195,-0.02338022115155219,0.09695331012558621,28.07457030097246,-96.25519929585457,84.22370748782159
2024-09-23 08:11:28.025960,41.21,5.333785,-0.0030841997366068195,-0.023579196463302005,0.09774922960030558,24.06297849342227,-100.26678939585686,80.21211738781929
2024-09-23 08:11:28.068103,41.21,5.333785,-0.0034324103296106863,-0.024176140626271565,0.09774922960030558,24.06297849342227,-100.26678939585686,80.21211738781929
2024-09-23 08:11:28.080167,41.21,5.333785,-0.0034324103296106863,-0.024176140626271565,0.09745075675933246,32.08287849390507,-92.24360919585227,80.21211738781929
2024-09-23 08:11:28.124618,41.21,5.33388,-0.002785727465249955,-0.02412639262114825,0.09715228999426605,28.07457030097246,-96.25519929585457,80.21211738781929
2024-09-23 08:11:28.168078,41.21,5.333931,-0.0028852147413806935,-0.02412639262114825,0.09715228999426605,28.07457030097246,-96.25519929585457,76.200527287817
2024-09-23 08:11:28.179116,41.21,5.333931,-0.0028852147413806935,-0.02367869399252531,0.09725178296655933,28.07457030097246,-96.25519929585457,76.200527287817
2024-09-23 08:11:28.221854,41.21,5.333982,-0.0037308827908396356,-0.024076653729884996,0.09685382322919964,28.07457030097246,-96.25519929585457,80.21211738781929
2024-09-23 08:11:28.263726,41.21,5.333982,-0.0037308827908396356,-0.024076653729884996,0.09685382322919964,40.106058693909645,-100.26678939585686,80.21211738781929
2024-09-23 08:11:28.275428,41.21,5.334032,-0.003382661564999035,-0.023877669304275123,0.09685382322919964,40.106058693909645,-100.26678939585686,84.22370748782159
2024-09-23 08:11:28.317553,41.21,5.334083,-0.003382661564999035,-0.023877669304275123,0.09710254654607277,44.11764879391193,-104.27510100388527,84.22370748782159
2024-09-23 08:11:28.329756,41.21,5.334083,-0.0027359787006383035,-0.023877669304275123,0.09710254654607277,44.11764879391193,-104.27510100388527,84.22370748782159
2024-09-23 08:11:28.362970,41.21,5.334083,-0.0027359787006383035,-0.02362894446842532,0.0973015264147526,44.11764879391193,-104.27510100388527,84.22370748782159
2024-09-23 08:11:28.374662,41.21,5.334172,-0.0027359787006383035,-0.02362894446842532,0.0973015264147526,44.11764879391193,-96.25519929585457,80.21211738781929
2024-09-23 08:11:28.417716,41.21,5.334172,-0.0031836870127375577,-0.023728432883788564,0.09640611396773996,36.09446859390736,-92.24360919585227,84.22370748782159
2024-09-23 08:11:28.460104,41.21,5.334223,-0.003631395514708897,-0.023728432883788564,0.09640611396773996,36.09446859390736,-92.24360919585227,84.22370748782159
2024-09-23 08:11:28.471993,41.21,5.334223,-0.003631395514708897,-0.023728432883788564,0.09690356060148622,32.08287849390507,-92.24360919585227,84.22370748782159
2024-09-23 08:11:28.514883,41.21,5.334274,-0.0035318979854855937,-0.02367869399252531,0.0970030596496862,8.019899146708847,-92.24360919585227,88.23529758782387
2024-09-23 08:11:28.557129,41.21,5.334324,-0.0035318979854855937,-0.02367869399252531,0.0970030596496862,8.019899146708847,-104.27510100388527,76.200527287817
2024-09-23 08:11:28.568312,41.21,5.334324,-0.002387757474797703,-0.024325377046758124,0.09680407370509965,8.019899146708847,-104.27510100388527,76.200527287817
2024-09-23 08:11:28.612005,41.21,5.334375,-0.002586742470023829,-0.023429960042815445,0.09680407370509965,36.09446859390736,-100.26678939585686,80.21211738781929
2024-09-23 08:11:28.658094,41.21,5.334375,-0.002586742470023829,-0.023429960042815445,0.09705279702197278,36.09446859390736,-100.26678939585686,76.200527287817
2024-09-23 08:11:28.670705,41.21,5.334426,-0.0029349636958644295,-0.023429960042815445,0.09705279702197278,36.09446859390736,-100.26678939585686,76.200527287817
2024-09-23 08:11:28.703372,41.21,5.334426,-0.0029349636958644295,-0.02457410036363125,0.09740101331113918,36.09446859390736,-100.26678939585686,76.200527287817
2024-09-23 08:11:28.714675,41.21,5.334513,-0.0029349636958644295,-0.02457410036363125,0.09740101331113918,24.06297849342227,-104.27510100388527,80.21211738781929
2024-09-23 08:11:28.757672,41.21,5.334513,-0.0028354659767690416,-0.023877669304275123,0.09740101331113918,24.06297849342227,-104.27510100388527,80.21211738781929
2024-09-23 08:11:28.799882,41.21,5.334513,-0.0028354659767690416,-0.023877669304275123,0.09710254654607277,32.08287849390507,-104.27510100388527,80.21211738781929
2024-09-23 08:11:28.811297,41.21,5.334564,-0.003382661564999035,-0.023877669304275123,0.09710254654607277,32.08287849390507,-96.25519929585457,80.21211738781929
2024-09-23 08:11:28.854397,41.21,5.334564,-0.003382661564999035,-0.023579196463302005,0.09710254654607277,32.08287849390507,-96.25519929585457,80.21211738781929
2024-09-23 08:11:28.896631,41.21,5.334564,-0.003382661564999035,-0.023579196463302005,0.09740101331113918,32.08287849390507,-96.25519929585457,80.21211738781929
2024-09-23 08:11:28.908448,41.21,5.334616,-0.0031836870127375577,-0.023579196463302005,0.09740101331113918,36.09446859390736,-100.26678939585686,80.21211738781929
2024-09-23 08:11:28.951926,41.11,5.334616,-0.0031836870127375577,-0.023181236725942318,0.09675432418099966,36.09446859390736,-92.24360919585227,80.21211738781929
2024-09-23 08:11:28.963676,41.11,5.334666,-0.0031836870127375577,-0.023181236725942318,0.09675432418099966,36.09446859390736,-92.24360919585227,80.21211738781929
2024-09-23 08:11:28.995265,41.11,5.334666,-0.003780631555451287,-0.023877669304275123,0.09675432418099966,36.09446859390736,-92.24360919585227,80.21211738781929
2024-09-23 08:11:29.006651,41.11,5.334666,-0.003780631555451287,-0.023877669304275123,0.09685382322919964,32.08287849390507,-100.26678939585686,80.21211738781929
2024-09-23 08:11:29.049588,41.11,5.334717,-0.0033329230534799477,-0.02412639262114825,0.0973015264147526,44.11764879391193,-100.26678939585686,80.21211738781929
2024-09-23 08:11:29.092461,41.11,5.334807,-0.0033329230534799477,-0.02412639262114825,0.0973015264147526,44.11764879391193,-100.26678939585686,84.22370748782159
2024-09-23 08:11:29.103762,41.11,5.334807,-0.0032831742888682963,-0.02362894446842532,0.09710254654607277,36.09446859390736,-100.26678939585686,84.22370748782159
2024-09-23 08:11:29.146504,41.11,5.334905,-0.002586742470023829,-0.023927417309398437,0.09710254654607277,36.09446859390736,-96.25519929585457,80.21211738781929
2024-09-23 08:11:29.158634,41.11,5.334905,-0.002586742470023829,-0.023927417309398437,0.09695331012558621,36.09446859390736,-96.25519929585457,80.21211738781929
2024-09-23 08:11:29.192033,41.11,5.334905,-0.002586742470023829,-0.023927417309398437,0.09695331012558621,44.11764879391193,-88.23529758782387,80.21211738781929
2024-09-23 08:11:29.203151,41.11,5.334955,-0.003631395514708897,-0.023579196463302005,0.09695331012558621,44.11764879391193,-88.23529758782387,80.21211738781929
2024-09-23 08:11:29.245743,41.11,5.335006,-0.0029847020175114316,-0.023579196463302005,0.09685382322919964,36.09446859390736,-92.24360919585227,88.23529758782387
2024-09-23 08:11:29.288587,41.11,5.335006,-0.0029847020175114316,-0.023230986250042305,0.0966050877605131,40.106058693909645,-92.24360919585227,88.23529758782387
2024-09-23 08:11:29.300746,41.11,5.335098,-0.0029847020175114316,-0.023230986250042305,0.0966050877605131,40.106058693909645,-96.25519929585457,80.21211738781929
2024-09-23 08:11:29.334602,41.11,5.335098,-0.0029349636958644295,-0.023230986250042305,0.0966050877605131,40.106058693909645,-96.25519929585457,80.21211738781929
2024-09-23 08:11:29.346033,41.11,5.335098,-0.0029349636958644295,-0.02362894446842532,0.09685382322919964,44.11764879391193,-92.24360919585227,84.22370748782159
2024-09-23 08:11:29.389110,41.11,5.335149,-0.0028852147413806935,-0.02397715620066169,0.09645586349183995,44.11764879391193,-92.24360919585227,84.22370748782159
2024-09-23 08:11:29.401985,41.11,5.335149,-0.0028852147413806935,-0.02397715620066169,0.09645586349183995,44.11764879391193,-92.24360919585227,84.22370748782159
2024-09-23 08:11:29.433840,41.11,5.3352,-0.0028852147413806935,-0.02397715620066169,0.09645586349183995,44.11764879391193,-92.24360919585227,84.22370748782159
2024-09-23 08:11:29.445794,41.11,5.3352,-0.0031339382481259063,-0.023728432883788564,0.09809744588947199,32.08287849390507,-92.24360919585227,84.22370748782159
2024-09-23 08:11:29.490013,41.11,5.335251,-0.0031339382481259063,-0.024026904205785005,0.09680407370509965,32.08287849390507,-92.24360919585227,84.22370748782159
2024-09-23 08:11:29.533899,41.11,5.335301,-0.0031339382481259063,-0.024026904205785005,0.09680407370509965,44.11764879391193,-100.26678939585686,76.200527287817
2024-09-23 08:11:29.545184,41.11,5.335301,-0.003482159473966507,-0.023479709566915436,0.09680407370509965,44.11764879391193,-100.26678939585686,76.200527287817
2024-09-23 08:11:29.577285,41.11,5.335301,-0.003482159473966507,-0.023479709566915436,0.09680407370509965,44.11764879391193,-100.26678939585686,76.200527287817
2024-09-23 08:11:29.589089,41.11,5.335352,-0.0030344509719951677,-0.023479709566915436,0.09680407370509965,36.09446859390736,-96.25519929585457,76.200527287817
2024-09-23 08:11:29.631025,41.11,5.335352,-0.0030344509719951677,-0.023429960042815445,0.09685382322919964,32.08287849390507,-96.25519929585457,76.200527287817
2024-09-23 08:11:29.642494,41.11,5.335439,-0.0030344509719951677,-0.023429960042815445,0.09685382322919964,32.08287849390507,-96.25519929585457,84.22370748782159
2024-09-23 08:11:29.685567,41.11,5.335439,-0.0029847020175114316,-0.023579196463302005,0.09650560086412653,44.11764879391193,-108.28669110388756,76.200527287817
2024-09-23 08:11:29.729385,41.11,5.335491,-0.0030841997366068195,-0.02352945757203875,0.09650560086412653,44.11764879391193,-108.28669110388756,76.200527287817
2024-09-23 08:11:29.742253,41.11,5.335491,-0.0030841997366068195,-0.02352945757203875,0.09650560086412653,40.106058693909645,-104.27510100388527,76.200527287817
2024-09-23 08:11:29.775274,41.11,5.335541,-0.0030841997366068195,-0.02352945757203875,0.09650560086412653,40.106058693909645,-104.27510100388527,76.200527287817
2024-09-23 08:11:29.786679,41.11,5.335541,-0.0030344509719951677,-0.023778180888911878,0.09750050628343246,36.09446859390736,-104.27510100388527,76.200527287817
2024-09-23 08:11:29.829410,41.11,5.335592,-0.0034324103296106863,-0.023479709566915436,0.09690356060148622,36.09446859390736,-96.25519929585457,76.200527287817
2024-09-23 08:11:29.872236,41.11,5.335592,-0.0034324103296106863,-0.023479709566915436,0.09690356060148622,36.09446859390736,-96.25519929585457,76.200527287817
2024-09-23 08:11:29.884156,41.11,5.335643,-0.0031836870127375577,-0.023778180888911878,0.09690356060148622,36.09446859390736,-96.25519929585457,84.22370748782159
2024-09-23 08:11:29.927372,41.11,5.335693,-0.0031836870127375577,-0.023778180888911878,0.09710254654607277,44.11764879391193,-100.26678939585686,80.21211738781929
2024-09-23 08:11:29.970558,41.34,5.335693,-0.0033329230534799477,-0.023579196463302005,0.09710254654607277,44.11764879391193,-100.26678939585686,80.21211738781929
2024-09-23 08:11:29.981709,41.34,5.335693,-0.0033329230534799477,-0.023579196463302005,0.09710254654607277,24.06297849342227,-100.26678939585686,76.200527287817
2024-09-23 08:11:30.025018,41.34,5.33578,-0.0029349636958644295,-0.02352945757203875,0.09740101331113918,28.07457030097246,-100.26678939585686,76.200527287817
2024-09-23 08:11:30.066885,41.34,5.335832,-0.0029349636958644295,-0.02352945757203875,0.09740101331113918,28.07457030097246,-100.26678939585686,76.200527287817
2024-09-23 08:11:30.078444,41.34,5.335832,-0.003482159473966507,-0.023728432883788564,0.09725178296655933,40.106058693909645,-100.26678939585686,76.200527287817
2024-09-23 08:11:30.120595,41.34,5.335883,-0.0030841997366068195,-0.023728432883788564,0.09725178296655933,40.106058693909645,-96.25519929585457,76.200527287817
2024-09-23 08:11:30.132647,41.34,5.335883,-0.0030841997366068195,-0.023927417309398437,0.0976994861521123,40.106058693909645,-96.25519929585457,76.200527287817
2024-09-23 08:11:30.164850,41.34,5.335883,-0.0030841997366068195,-0.023927417309398437,0.0976994861521123,44.11764879391193,-92.24360919585227,76.200527287817
2024-09-23 08:11:30.175998,41.34,5.335933,-0.0035816467500972456,-0.02362894446842532,0.0976994861521123,44.11764879391193,-92.24360919585227,84.22370748782159
2024-09-23 08:11:30.218630,41.34,5.335984,-0.0035816467500972456,-0.02362894446842532,0.09650560086412653,36.09446859390736,-88.23529758782387,84.22370748782159
2024-09-23 08:11:30.230762,41.34,5.335984,-0.0028852147413806935,-0.02362894446842532,0.09650560086412653,36.09446859390736,-88.23529758782387,84.22370748782159
2024-09-23 08:11:30.263973,41.34,5.335984,-0.0028852147413806935,-0.023877669304275123,0.0973015264147526,40.106058693909645,-88.23529758782387,84.22370748782159
2024-09-23 08:11:30.275609,41.34,5.336073,-0.0028852147413806935,-0.023877669304275123,0.0973015264147526,40.106058693909645,-104.27510100388527,80.21211738781929
2024-09-23 08:11:30.318299,41.34,5.336073,-0.0034324103296106863,-0.024176140626271565,0.09685382322919964,44.11764879391193,-100.26678939585686,80.21211738781929
2024-09-23 08:11:30.361120,41.34,5.336124,-0.0028354659767690416,-0.023778180888911878,0.09685382322919964,44.11764879391193,-100.26678939585686,80.21211738781929
2024-09-23 08:11:30.372882,41.34,5.336124,-0.0028354659767690416,-0.023778180888911878,0.09695331012558621,36.09446859390736,-88.23529758782387,80.21211738781929
2024-09-23 08:11:30.415022,41.34,5.336175,-0.0035816467500972456,-0.023877669304275123,0.0973512698629459,40.106058693909645,-88.23529758782387,76.200527287817
2024-09-23 08:11:30.457385,41.34,5.336175,-0.0035816467500972456,-0.023877669304275123,0.0973512698629459,40.106058693909645,-108.28669110388756,68.18063240997792
2024-09-23 08:11:30.468727,41.34,5.336226,-0.0029847020175114316,-0.023927417309398437,0.09685382322919964,40.106058693909645,-108.28669110388756,68.18063240997792
2024-09-23 08:11:30.511506,41.34,5.336276,-0.003780631555451287,-0.023927417309398437,0.09685382322919964,32.08287849390507,-96.25519929585457,80.21211738781929
2024-09-23 08:11:30.523384,41.34,5.336276,-0.003780631555451287,-0.024076653729884996,0.09685382322919964,32.08287849390507,-96.25519929585457,80.21211738781929
2024-09-23 08:11:30.556036,41.34,5.336276,-0.003780631555451287,-0.024076653729884996,0.09630662707135339,40.106058693909645,-100.26678939585686,80.21211738781929
2024-09-23 08:11:30.567300,41.34,5.336327,-0.003482159473966507,-0.024076653729884996,0.09630662707135339,40.106058693909645,-100.26678939585686,76.200527287817
2024-09-23 08:11:30.609248,41.34,5.336414,-0.003482159473966507,-0.02412639262114825,0.09690356060148622,36.09446859390736,-104.27510100388527,72.1922225099802
2024-09-23 08:11:30.652549,41.34,5.336414,-0.002586742470023829,-0.023827930413011865,0.09690356060148622,36.09446859390736,-104.27510100388527,72.1922225099802
2024-09-23 08:11:30.663638,41.34,5.336414,-0.002586742470023829,-0.023827930413011865,0.09695331012558621,40.106058693909645,-104.27510100388527,80.21211738781929
2024-09-23 08:11:30.706169,41.34,5.336466,-0.0035318979854855937,-0.023827930413011865,0.09690356060148622,36.09446859390736,-104.27510100388527,80.21211738781929
2024-09-23 08:11:30.718187,41.34,5.336466,-0.0035318979854855937,-0.023827930413011865,0.09690356060148622,36.09446859390736,-92.24360919585227,80.21211738781929
2024-09-23 08:11:30.752020,41.34,5.336517,-0.0036811340262279837,-0.023827930413011865,0.09690356060148622,36.09446859390736,-92.24360919585227,76.200527287817
2024-09-23 08:11:30.763251,41.34,5.336517,-0.0036811340262279837,-0.023728432883788564,0.09715228999426605,36.09446859390736,-92.24360919585227,76.200527287817
2024-09-23 08:11:30.805558,41.34,5.336568,-0.0035816467500972456,-0.02397715620066169,0.09650560086412653,36.09446859390736,-84.22370748782159,80.21211738781929
2024-09-23 08:11:30.899934,41.34,5.336618,-0.0035816467500972456,-0.02397715620066169,0.09650560086412653,36.09446859390736,-104.27510100388527,76.200527287817
2024-09-23 08:11:30.911698,41.34,5.336618,-0.0037308827908396356,-0.024176140626271565,0.09650560086412653,36.09446859390736,-104.27510100388527,76.200527287817
2024-09-23 08:11:30.945103,41.34,5.336618,-0.0037308827908396356,-0.024176140626271565,0.09720203344245934,36.09446859390736,-104.27510100388527,76.200527287817
2024-09-23 08:11:30.956286,41.34,5.336669,-0.0031836870127375577,-0.024176140626271565,0.09720203344245934,36.09446859390736,-100.26678939585686,76.200527287817
2024-09-23 08:11:30.998624,41.23,5.336669,-0.0031836870127375577,-0.024026904205785005,0.09774922960030558,40.106058693909645,-92.24360919585227,80.21211738781929
2024-09-23 08:11:31.010625,41.23,5.336755,-0.0031836870127375577,-0.024026904205785005,0.09774922960030558,40.106058693909645,-92.24360919585227,80.21211738781929
2024-09-23 08:11:31.044161,41.23,5.336755,-0.002785727465249955,-0.023579196463302005,0.09670458680871308,40.106058693909645,-92.24360919585227,80.21211738781929
2024-09-23 08:11:31.055196,41.23,5.336755,-0.002785727465249955,-0.023579196463302005,0.09670458680871308,40.106058693909645,-104.27510100388527,80.21211738781929
2024-09-23 08:11:31.097178,41.23,5.336807,-0.0029847020175114316,-0.023429960042815445,0.09710254654607277,36.09446859390736,-100.26678939585686,80.21211738781929
2024-09-23 08:11:31.139754,41.23,5.336903,-0.0029847020175114316,-0.023429960042815445,0.09710254654607277,36.09446859390736,-100.26678939585686,80.21211738781929
2024-09-23 08:11:31.151331,41.23,5.336903,-0.003482159473966507,-0.024176140626271565,0.09740101331113918,36.09446859390736,-100.26678939585686,80.21211738781929
2024-09-23 08:11:31.193404,41.23,5.336954,-0.0030344509719951677,-0.024076653729884996,0.09740101331113918,36.09446859390736,-104.27510100388527,80.21211738781929
2024-09-23 08:11:31.205130,41.23,5.336954,-0.0030344509719951677,-0.024076653729884996,0.09680407370509965,36.09446859390736,-104.27510100388527,80.21211738781929
2024-09-23 08:11:31.238222,41.23,5.336954,-0.0030344509719951677,-0.024076653729884996,0.09680407370509965,32.08287849390507,-100.26678939585686,80.21211738781929
2024-09-23 08:11:31.249750,41.23,5.337005,-0.002785727465249955,-0.023280723622328886,0.09680407370509965,32.08287849390507,-100.26678939585686,80.21211738781929
2024-09-23 08:11:31.293071,41.23,5.337056,-0.003482159473966507,-0.023280723622328886,0.09750050628343246,36.09446859390736,-100.26678939585686,76.200527287817
2024-09-23 08:11:31.335792,41.23,5.337056,-0.003482159473966507,-0.023728432883788564,0.09630662707135339,40.106058693909645,-100.26678939585686,76.200527287817
2024-09-23 08:11:31.346944,41.23,5.337145,-0.003482159473966507,-0.023728432883788564,0.09630662707135339,40.106058693909645,-88.23529758782387,76.200527287817
2024-09-23 08:11:31.390450,41.23,5.337145,-0.003482159473966507,-0.023728432883788564,0.0970030596496862,32.08287849390507,-96.25519929585457,80.21211738781929
2024-09-23 08:11:31.434191,41.23,5.337197,-0.0031339382481259063,-0.023728432883788564,0.0970030596496862,32.08287849390507,-96.25519929585457,80.21211738781929
2024-09-23 08:11:31.487279,41.23,5.337197,-0.0031339382481259063,-0.02397715620066169,0.09650560086412653,32.08287849390507,-100.26678939585686,80.21211738781929
2024-09-23 08:11:31.499582,41.23,5.337248,-0.0031339382481259063,-0.02397715620066169,0.09650560086412653,32.08287849390507,-100.26678939585686,80.21211738781929
2024-09-23 08:11:31.532544,41.23,5.337248,-0.0035318979854855937,-0.024275627522658133,0.09640611396773996,32.08287849390507,-100.26678939585686,80.21211738781929
2024-09-23 08:11:31.543939,41.23,5.337248,-0.0035318979854855937,-0.024275627522658133,0.09640611396773996,40.106058693909645,-100.26678939585686,84.22370748782159
2024-09-23 08:11:31.586972,41.23,5.337299,-0.0035318979854855937,-0.023728432883788564,0.09755024973162574,40.106058693909645,-96.25519929585457,84.22370748782159
2024-09-23 08:11:31.629112,41.23,5.337349,-0.003233425524256645,-0.023728432883788564,0.09755024973162574,40.106058693909645,-96.25519929585457,76.200527287817
2024-09-23 08:11:31.640536,41.23,5.337349,-0.003233425524256645,-0.024076653729884996,0.09675432418099966,36.09446859390736,-96.25519929585457,76.200527287817
2024-09-23 08:11:31.683342,41.23,5.3374,-0.003382661564999035,-0.023479709566915436,0.09690356060148622,36.09446859390736,-96.25519929585457,84.22370748782159
2024-09-23 08:11:31.726545,41.23,5.3374,-0.003382661564999035,-0.023479709566915436,0.09690356060148622,36.09446859390736,-96.25519929585457,84.22370748782159
2024-09-23 08:11:31.738148,41.23,5.337489,-0.0028852147413806935,-0.023827930413011865,0.09690356060148622,36.09446859390736,-96.25519929585457,84.22370748782159
2024-09-23 08:11:31.781059,41.23,5.33754,-0.0030841997366068195,-0.023827930413011865,0.09665483728461309,40.106058693909645,-96.25519929585457,80.21211738781929
2024-09-23 08:11:31.824003,41.23,5.33754,-0.0030841997366068195,-0.02397715620066169,0.09755024973162574,40.106058693909645,-96.25519929585457,80.21211738781929
2024-09-23 08:11:31.835456,41.23,5.337633,-0.0030841997366068195,-0.02397715620066169,0.09755024973162574,40.106058693909645,-100.26678939585686,76.200527287817
2024-09-23 08:11:31.878671,41.23,5.337633,-0.0031339382481259063,-0.023479709566915436,0.09695331012558621,40.106058693909645,-104.27510100388527,76.200527287817
2024-09-23 08:11:31.890832,41.23,5.337633,-0.0031339382481259063,-0.023479709566915436,0.09695331012558621,40.106058693909645,-104.27510100388527,72.1922225099802
2024-09-23 08:11:31.923449,41.23,5.337684,-0.0038303700669703737,-0.023877669304275123,0.09695331012558621,40.106058693909645,-104.27510100388527,72.1922225099802
2024-09-23 08:11:31.977260,41.23,5.337735,-0.0032831742888682963,-0.023877669304275123,0.09645586349183995,40.106058693909645,-100.26678939585686,80.21211738781929
2024-09-23 08:11:32.019480,41.51,5.337735,-0.0032831742888682963,-0.023927417309398437,0.09645586349183995,40.106058693909645,-100.26678939585686,80.21211738781929
2024-09-23 08:11:32.031667,41.51,5.337786,-0.0032831742888682963,-0.023927417309398437,0.09645586349183995,40.106058693909645,-100.26678939585686,80.21211738781929
2024-09-23 08:11:32.064083,41.51,5.337786,-0.0030841997366068195,-0.023927417309398437,0.09645586349183995,40.106058693909645,-100.26678939585686,80.21211738781929
2024-09-23 08:11:32.075308,41.51,5.337786,-0.0030841997366068195,-0.024026904205785005,0.09715228999426605,44.11764879391193,-96.25519929585457,80.21211738781929
2024-09-23 08:11:32.117376,41.51,5.337836,-0.0033329230534799477,-0.02367869399252531,0.09685382322919964,44.11764879391193,-96.25519929585457,80.21211738781929
2024-09-23 08:11:32.129241,41.51,5.337836,-0.0033329230534799477,-0.02367869399252531,0.09685382322919964,36.09446859390736,-100.26678939585686,80.21211738781929
2024-09-23 08:11:32.162295,41.51,5.337836,-0.0033329230534799477,-0.02367869399252531,0.09685382322919964,36.09446859390736,-100.26678939585686,80.21211738781929
2024-09-23 08:11:32.173309,41.51,5.337887,-0.0032831742888682963,-0.023280723622328886,0.09695331012558621,32.08287849390507,-100.26678939585686,80.21211738781929
2024-09-23 08:11:32.215693,41.51,5.337976,-0.0036811340262279837,-0.023280723622328886,0.09695331012558621,32.08287849390507,-92.24360919585227,80.21211738781929
2024-09-23 08:11:32.226707,41.51,5.337976,-0.0036811340262279837,-0.024176140626271565,0.0966050877605131,32.08287849390507,-92.24360919585227,80.21211738781929
2024-09-23 08:11:32.258991,41.51,5.337976,-0.0036811340262279837,-0.024176140626271565,0.0966050877605131,36.09446859390736,-92.24360919585227,80.21211738781929
2024-09-23 08:11:32.270696,41.51,5.338027,-0.0031339382481259063,-0.024076653729884996,0.0966050877605131,36.09446859390736,-104.27510100388527,76.200527287817
2024-09-23 08:11:32.314152,41.51,5.338027,-0.0031339382481259063,-0.024076653729884996,0.09725178296655933,40.106058693909645,-96.25519929585457,76.200527287817
2024-09-23 08:11:32.325780,41.51,5.338077,-0.0032831742888682963,-0.024076653729884996,0.09725178296655933,40.106058693909645,-96.25519929585457,76.200527287817
2024-09-23 08:11:32.357688,41.51,5.338077,-0.0032831742888682963,-0.023877669304275123,0.09725178296655933,40.106058693909645,-96.25519929585457,76.200527287817
2024-09-23 08:11:32.369152,41.51,5.338169,-0.0032831742888682963,-0.023877669304275123,0.09695331012558621,40.106058693909645,-96.25519929585457,76.200527287817
2024-09-23 08:11:32.411448,41.51,5.338169,-0.0030841997366068195,-0.023778180888911878,0.09715228999426605,40.106058693909645,-96.25519929585457,76.200527287817
2024-09-23 08:11:32.422895,41.51,5.338169,-0.0030841997366068195,-0.023778180888911878,0.09715228999426605,40.106058693909645,-92.24360919585227,80.21211738781929
2024-09-23 08:11:32.455123,41.51,5.338221,-0.0030841997366068195,-0.023778180888911878,0.09715228999426605,40.106058693909645,-92.24360919585227,80.21211738781929
2024-09-23 08:11:32.467404,41.51,5.338221,-0.0032831742888682963,-0.023330473146428877,0.09680407370509965,40.106058693909645,-92.24360919585227,80.21211738781929
2024-09-23 08:11:32.510105,41.51,5.338271,-0.0031836870127375577,-0.023330473146428877,0.09680407370509965,40.106058693909645,-92.24360919585227,80.21211738781929
2024-09-23 08:11:32.522272,41.51,5.338271,-0.0031836870127375577,-0.023330473146428877,0.09680407370509965,36.09446859390736,-92.24360919585227,80.21211738781929
2024-09-23 08:11:32.555818,41.51,5.338322,-0.0031836870127375577,-0.023330473146428877,0.09680407370509965,36.09446859390736,-100.26678939585686,80.21211738781929
2024-09-23 08:11:32.566931,41.51,5.338322,-0.003631395514708897,-0.023877669304275123,0.09705279702197278,36.09446859390736,-100.26678939585686,80.21211738781929
2024-09-23 08:11:32.609781,41.51,5.338373,-0.0031339382481259063,-0.023280723622328886,0.09705279702197278,40.106058693909645,-100.26678939585686,80.21211738781929
2024-09-23 08:11:32.652187,41.51,5.338373,-0.0031339382481259063,-0.023280723622328886,0.09665483728461309,36.09446859390736,-96.25519929585457,80.21211738781929
2024-09-23 08:11:32.663620,41.51,5.338423,-0.0028354659767690416,-0.023280723622328886,0.09665483728461309,36.09446859390736,-96.25519929585457,84.22370748782159
2024-09-23 08:11:32.706273,41.51,5.338423,-0.0028354659767690416,-0.024225890150371555,0.09675432418099966,44.11764879391193,-100.26678939585686,68.18063240997792
2024-09-23 08:11:32.748333,41.51,5.33851,-0.0031836870127375577,-0.024225890150371555,0.09675432418099966,44.11764879391193,-100.26678939585686,68.18063240997792
2024-09-23 08:11:32.760104,41.51,5.33851,-0.0031836870127375577,-0.02352945757203875,0.09695331012558621,52.137550501942634,-96.25519929585457,68.18063240997792
2024-09-23 08:11:32.802438,41.51,5.338562,-0.003233425524256645,-0.023927417309398437,0.09690356060148622,52.137550501942634,-96.25519929585457,76.200527287817
2024-09-23 08:11:32.814209,41.51,5.338562,-0.003233425524256645,-0.023927417309398437,0.09690356060148622,40.106058693909645,-96.25519929585457,76.200527287817
2024-09-23 08:11:32.846208,41.51,5.338562,-0.003233425524256645,-0.023927417309398437,0.09690356060148622,40.106058693909645,-100.26678939585686,76.200527287817
2024-09-23 08:11:32.857356,41.51,5.338613,-0.003233425524256645,-0.023429960042815445,0.0970030596496862,40.106058693909645,-100.26678939585686,80.21211738781929
2024-09-23 08:11:32.899635,41.51,5.338663,-0.0029349636958644295,-0.023429960042815445,0.0970030596496862,40.106058693909645,-96.25519929585457,80.21211738781929
2024-09-23 08:11:32.911570,41.51,5.338663,-0.0029349636958644295,-0.023579196463302005,0.0970030596496862,40.106058693909645,-96.25519929585457,80.21211738781929
2024-09-23 08:11:32.944226,41.51,5.338663,-0.0029349636958644295,-0.023579196463302005,0.09695331012558621,40.106058693909645,-96.25519929585457,80.21211738781929
2024-09-23 08:11:32.997086,41.51,5.338663,-0.0029349636958644295,-0.023579196463302005,0.09695331012558621,32.08287849390507,-96.25519929585457,80.21211738781929
2024-09-23 08:11:33.039124,42.41,5.338663,-0.0029349636958644295,-0.023579196463302005,0.09695331012558621,32.08287849390507,-96.25519929585457,80.21211738781929
2024-09-23 08:11:33.050577,42.41,5.338714,-0.0029847020175114316,-0.023579196463302005,0.09685382322919964,32.08287849390507,-96.25519929585457,76.200527287817
2024-09-23 08:11:33.093168,42.41,5.338803,-0.0029847020175114316,-0.023579196463302005,0.09685382322919964,44.11764879391193,-100.26678939585686,84.22370748782159
2024-09-23 08:11:33.105182,42.41,5.338803,-0.003631395514708897,-0.023778180888911878,0.09685382322919964,44.11764879391193,-100.26678939585686,84.22370748782159
2024-09-23 08:11:33.137926,42.41,5.338803,-0.003631395514708897,-0.023778180888911878,0.09695331012558621,44.11764879391193,-100.26678939585686,84.22370748782159
2024-09-23 08:11:33.149114,42.41,5.338855,-0.003233425524256645,-0.023778180888911878,0.09695331012558621,40.106058693909645,-92.24360919585227,84.22370748782159
2024-09-23 08:11:33.191931,42.41,5.338855,-0.003233425524256645,-0.023728432883788564,0.09685382322919964,40.106058693909645,-104.27510100388527,76.200527287817
2024-09-23 08:11:33.203765,42.41,5.338906,-0.003233425524256645,-0.023728432883788564,0.09685382322919964,40.106058693909645,-104.27510100388527,76.200527287817
2024-09-23 08:11:33.237578,42.41,5.338906,-0.0036811340262279837,-0.024275627522658133,0.09685382322919964,40.106058693909645,-104.27510100388527,76.200527287817
2024-09-23 08:11:33.248658,42.41,5.338906,-0.0036811340262279837,-0.024275627522658133,0.09670458680871308,36.09446859390736,-92.24360919585227,80.21211738781929
2024-09-23 08:11:33.291725,42.41,5.339048,-0.0032831742888682963,-0.02338022115155219,0.09665483728461309,36.09446859390736,-96.25519929585457,80.21211738781929
2024-09-23 08:11:33.334670,42.41,5.339099,-0.0035318979854855937,-0.02338022115155219,0.09665483728461309,36.09446859390736,-96.25519929585457,84.22370748782159
2024-09-23 08:11:33.345811,42.41,5.339099,-0.0035318979854855937,-0.023728432883788564,0.0973015264147526,48.12595698684454,-96.25519929585457,84.22370748782159
2024-09-23 08:11:33.388007,42.41,5.339149,-0.003233425524256645,-0.023330473146428877,0.0973015264147526,48.12595698684454,-92.24360919585227,80.21211738781929
2024-09-23 08:11:33.399660,42.41,5.339149,-0.003233425524256645,-0.023330473146428877,0.09725178296655933,48.12595698684454,-92.24360919585227,80.21211738781929
2024-09-23 08:11:33.431528,42.41,5.339149,-0.003233425524256645,-0.023330473146428877,0.09725178296655933,36.09446859390736,-104.27510100388527,80.21211738781929
2024-09-23 08:11:33.442684,42.41,5.3392,-0.003233425524256645,-0.023579196463302005,0.09725178296655933,36.09446859390736,-104.27510100388527,80.21211738781929
2024-09-23 08:11:33.485187,42.41,5.3392,-0.003233425524256645,-0.023579196463302005,0.09695331012558621,40.106058693909645,-96.25519929585457,76.200527287817
2024-09-23 08:11:33.496551,42.41,5.339251,-0.0028852147413806935,-0.023579196463302005,0.09695331012558621,40.106058693909645,-96.25519929585457,76.200527287817
