Ayaan's Suite
Timestamp,Sample Rate (Hz),Time,Ax,Ay,Az,Gx,Gy,Gz
2024-09-23 22:42:22.733915,0,57.589631,0.0005471957306340564,-0.023230986250042305,0.09720203344245934,36.09446859390736,-92.24360919585227,72.1922225099802
2024-09-23 22:42:22.766662,0,57.589631,0.0005471957306340564,-0.023230986250042305,0.09740101331113918,44.11764879391193,-96.25519929585457,72.1922225099802
2024-09-23 22:42:22.777843,0,57.589682,0.0008954064660419869,-0.023230986250042305,0.09740101331113918,44.11764879391193,-96.25519929585457,72.1922225099802
2024-09-23 22:42:22.862388,0,57.589682,0.0008954064660419869,-0.0224350561424862,0.09755024973162574,44.11764879391193,-96.25519929585457,72.1922225099802
2024-09-23 22:42:22.874423,0,57.58977,0.0008954064660419869,-0.0224350561424862,0.09755024973162574,48.12595698684454,-92.24360919585227,68.18063240997792
2024-09-23 22:42:22.918377,0,57.58977,0.0011441298778511575,-0.022833026512682618,0.0973512698629459,44.11764879391193,-92.24360919585227,76.200527287817
2024-09-23 22:42:22.960823,0,57.589822,0.0012933660135295898,-0.022833026512682618,0.0973512698629459,44.11764879391193,-92.24360919585227,76.200527287817
2024-09-23 22:42:23.013957,0,57.589822,0.0012933660135295898,-0.02278327698858263,0.09745075675933246,44.11764879391193,-92.24360919585227,80.21211738781929
2024-09-23 22:42:23.026081,0,57.589872,0.0012933660135295898,-0.02278327698858263,0.09745075675933246,44.11764879391193,-92.24360919585227,80.21211738781929
2024-09-23 22:42:23.057969,0,57.589872,0.000845657606494293,-0.02293251340906919,0.09745075675933246,44.11764879391193,-92.24360919585227,80.21211738781929
2024-09-23 22:42:23.069008,0,57.589872,0.000845657606494293,-0.02293251340906919,0.09750050628343246,44.11764879391193,-96.25519929585457,72.1922225099802
2024-09-23 22:42:23.111021,0,57.589923,0.0007461703303635545,-0.02313149783467906,0.09695331012558621,44.11764879391193,-96.25519929585457,72.1922225099802
2024-09-23 22:42:23.122595,0,57.589923,0.0007461703303635545,-0.02313149783467906,0.09695331012558621,44.11764879391193,-92.24360919585227,72.1922225099802
2024-09-23 22:42:23.154643,0,57.590016,0.0007461703303635545,-0.02313149783467906,0.09695331012558621,44.11764879391193,-92.24360919585227,72.1922225099802
2024-09-23 22:42:23.165658,0,57.590016,0.0010943914612681128,-0.022584292562972758,0.09695331012558621,40.106058693909645,-92.24360919585227,72.1922225099802
2024-09-23 22:42:23.207599,0,57.590067,0.0007461703303635545,-0.022584292562972758,0.09695331012558621,40.106058693909645,-88.23529758782387,72.1922225099802
2024-09-23 22:42:23.218882,0,57.590067,0.0007461703303635545,-0.02313149783467906,0.0973015264147526,40.106058693909645,-88.23529758782387,72.1922225099802
2024-09-23 22:42:23.250417,0,57.590067,0.0007461703303635545,-0.02313149783467906,0.0973015264147526,44.11764879391193,-88.23529758782387,72.1922225099802
2024-09-23 22:42:23.263310,0,57.590162,0.00034821073540793035,-0.023330473146428877,0.0973015264147526,44.11764879391193,-88.23529758782387,80.21211738781929
2024-09-23 22:42:23.306569,0,57.590213,0.00034821073540793035,-0.023330473146428877,0.09745075675933246,40.106058693909645,-92.24360919585227,76.200527287817
2024-09-23 22:42:23.318504,0,57.590213,0.0009948937421727254,-0.023330473146428877,0.09745075675933246,40.106058693909645,-92.24360919585227,76.200527287817
2024-09-23 22:42:23.350106,0,57.590213,0.0009948937421727254,-0.022833026512682618,0.09759999317981902,40.106058693909645,-92.24360919585227,76.200527287817
2024-09-23 22:42:23.361275,0,57.590306,0.0009948937421727254,-0.022833026512682618,0.09759999317981902,44.11764879391193,-88.23529758782387,80.21211738781929
2024-09-23 22:42:23.404522,0,57.590306,0.0005471957306340564,-0.02303200030545576,0.0973015264147526,40.106058693909645,-92.24360919585227,76.200527287817
2024-09-23 22:42:23.447487,0,57.590358,0.0009451553255896806,-0.02303200030545576,0.0973015264147526,40.106058693909645,-92.24360919585227,76.200527287817
2024-09-23 22:42:23.459309,0,57.590358,0.0009451553255896806,-0.022484804147609512,0.09755024973162574,44.11764879391193,-96.25519929585457,76.200527287817
2024-09-23 22:42:23.503168,0,57.590408,0.0003979595949556242,-0.0228827638849692,0.0973015264147526,44.11764879391193,-96.25519929585457,76.200527287817
2024-09-23 22:42:23.515709,0,57.590408,0.0003979595949556242,-0.0228827638849692,0.0973015264147526,40.106058693909645,-96.25519929585457,76.200527287817
2024-09-23 22:42:23.548427,0,57.590459,0.0006466830067647949,-0.0228827638849692,0.0973015264147526,40.106058693909645,-104.27510100388527,64.16903547978401
2024-09-23 22:42:23.560222,0,57.590459,0.0006466830067647949,-0.02303200030545576,0.09794820946898543,40.106058693909645,-104.27510100388527,64.16903547978401
2024-09-23 22:42:23.591770,0,57.590459,0.0006466830067647949,-0.02303200030545576,0.09794820946898543,44.11764879391193,-104.27510100388527,64.16903547978401
2024-09-23 22:42:23.603656,0,57.590459,0.0006466830067647949,-0.02303200030545576,0.09794820946898543,44.11764879391193,-104.27510100388527,68.18063240997792
2024-09-23 22:42:23.646095,0,57.59051,0.0005471957306340564,-0.02293251340906919,0.09740101331113918,44.11764879391193,-104.27510100388527,68.18063240997792
2024-09-23 22:42:23.658104,0,57.59051,0.0005471957306340564,-0.02293251340906919,0.09740101331113918,44.11764879391193,-96.25519929585457,68.18063240997792
2024-09-23 22:42:23.690553,0,57.59051,0.0005471957306340564,-0.02293251340906919,0.09740101331113918,44.11764879391193,-96.25519929585457,68.18063240997792
2024-09-23 22:42:23.701905,0,57.59056,0.0004974468710863627,-0.02278327698858263,0.0973015264147526,48.12595698684454,-96.25519929585457,68.18063240997792
2024-09-23 22:42:23.743701,43.92,57.590647,0.0005471957306340564,-0.02278327698858263,0.0973015264147526,48.12595698684454,-84.22370748782159,72.1922225099802
2024-09-23 22:42:23.755638,43.92,57.590647,0.0005471957306340564,-0.023330473146428877,0.09745075675933246,48.12595698684454,-84.22370748782159,72.1922225099802
2024-09-23 22:42:23.789358,43.92,57.590647,0.0005471957306340564,-0.023330473146428877,0.09745075675933246,36.09446859390736,-88.23529758782387,72.1922225099802
2024-09-23 22:42:23.801085,43.92,57.5907,0.0005969341946851222,-0.0224350561424862,0.09745075675933246,36.09446859390736,-88.23529758782387,72.1922225099802
2024-09-23 22:42:23.843117,43.92,57.5907,0.0005969341946851222,-0.0224350561424862,0.09720203344245934,36.09446859390736,-88.23529758782387,72.1922225099802
2024-09-23 22:42:23.886411,43.92,57.5907,0.0005969341946851222,-0.0224350561424862,0.09720203344245934,44.11764879391193,-84.22370748782159,72.1922225099802
2024-09-23 22:42:23.899309,43.92,57.59075,0.0008954064660419869,-0.02263404056809607,0.09720203344245934,44.11764879391193,-84.22370748782159,76.200527287817
2024-09-23 22:42:23.942083,43.92,57.590842,0.0006964318663124887,-0.02263404056809607,0.09750050628343246,52.137550501942634,-92.24360919585227,76.200527287817
2024-09-23 22:42:23.985305,43.92,57.590842,0.0006964318663124887,-0.02263404056809607,0.09740101331113918,48.12595698684454,-92.24360919585227,76.200527287817
2024-09-23 22:42:23.997036,43.92,57.590894,0.0006964318663124887,-0.02263404056809607,0.09740101331113918,48.12595698684454,-92.24360919585227,72.1922225099802
2024-09-23 22:42:24.040222,43.92,57.590894,0.0012933660135295898,-0.023230986250042305,0.09794820946898543,44.11764879391193,-88.23529758782387,68.18063240997792
2024-09-23 22:42:24.082465,43.92,57.590945,0.000845657606494293,-0.02268379009219606,0.09794820946898543,44.11764879391193,-88.23529758782387,68.18063240997792
2024-09-23 22:42:24.093333,43.92,57.590945,0.000845657606494293,-0.02268379009219606,0.0973512698629459,44.11764879391193,-92.24360919585227,68.18063240997792
2024-09-23 22:42:24.135884,43.92,57.591039,0.0009948937421727254,-0.02263404056809607,0.09750050628343246,36.09446859390736,-92.24360919585227,68.18063240997792
2024-09-23 22:42:24.179308,43.92,57.591039,0.0009948937421727254,-0.02263404056809607,0.09750050628343246,36.09446859390736,-92.24360919585227,72.1922225099802
2024-09-23 22:42:24.232439,43.92,57.59109,0.0010943914612681128,-0.02352945757203875,0.09750050628343246,36.09446859390736,-92.24360919585227,72.1922225099802
2024-09-23 22:42:24.245055,43.92,57.59109,0.0010943914612681128,-0.02352945757203875,0.09750050628343246,36.09446859390736,-96.25519929585457,72.1922225099802
2024-09-23 22:42:24.278779,43.92,57.59114,0.0007461703303635545,-0.02352945757203875,0.09750050628343246,36.09446859390736,-96.25519929585457,76.200527287817
2024-09-23 22:42:24.290669,43.92,57.59114,0.0007461703303635545,-0.022733528983459317,0.0973512698629459,52.137550501942634,-96.25519929585457,76.200527287817
2024-09-23 22:42:24.322860,43.92,57.59114,0.0007461703303635545,-0.022733528983459317,0.0973512698629459,52.137550501942634,-88.23529758782387,76.200527287817
2024-09-23 22:42:24.334060,43.92,57.591191,0.0003979595949556242,-0.023280723622328886,0.09675432418099966,52.137550501942634,-88.23529758782387,76.200527287817
2024-09-23 22:42:24.376713,43.92,57.591281,0.0003979595949556242,-0.023280723622328886,0.09675432418099966,48.12595698684454,-88.23529758782387,76.200527287817
2024-09-23 22:42:24.388393,43.92,57.591281,0.0010943914612681128,-0.02313149783467906,0.09675432418099966,48.12595698684454,-88.23529758782387,76.200527287817
2024-09-23 22:42:24.420471,43.92,57.591281,0.0010943914612681128,-0.02313149783467906,0.09720203344245934,48.12595698684454,-88.23529758782387,76.200527287817
2024-09-23 22:42:24.431687,43.92,57.591332,0.0009948937421727254,-0.02313149783467906,0.09720203344245934,40.106058693909645,-92.24360919585227,72.1922225099802
2024-09-23 22:42:24.474354,43.92,57.591332,0.0009948937421727254,-0.02308174982955575,0.09814718933766527,48.12595698684454,-92.24360919585227,72.1922225099802
2024-09-23 22:42:24.486110,43.92,57.591427,0.0009948937421727254,-0.02308174982955575,0.09814718933766527,48.12595698684454,-96.25519929585457,80.21211738781929
2024-09-23 22:42:24.519054,43.92,57.591427,0.0009948937421727254,-0.02308174982955575,0.09814718933766527,48.12595698684454,-96.25519929585457,80.21211738781929
2024-09-23 22:42:24.530792,43.92,57.591427,0.0009948937421727254,-0.023181236725942318,0.09745075675933246,48.12595698684454,-96.25519929585457,76.200527287817
2024-09-23 22:42:24.573225,43.92,57.591479,0.0007959191899112484,-0.023479709566915436,0.09750050628343246,44.11764879391193,-96.25519929585457,76.200527287817
2024-09-23 22:42:24.584992,43.92,57.591479,0.0007959191899112484,-0.023479709566915436,0.09750050628343246,44.11764879391193,-96.25519929585457,76.200527287817
2024-09-23 22:42:24.616574,43.92,57.591479,0.0007959191899112484,-0.023479709566915436,0.09750050628343246,44.11764879391193,-96.25519929585457,76.200527287817
2024-09-23 22:42:24.628707,43.92,57.59153,0.001044642601720419,-0.02313149783467906,0.0976994861521123,44.11764879391193,-96.25519929585457,76.200527287817
2024-09-23 22:42:24.671484,43.92,57.59158,0.00029846189959424716,-0.02308174982955575,0.0976994861521123,44.11764879391193,-96.25519929585457,72.1922225099802
2024-09-23 22:42:24.683177,43.92,57.59158,0.00029846189959424716,-0.02308174982955575,0.09779897304849887,44.11764879391193,-96.25519929585457,72.1922225099802
2024-09-23 22:42:24.715446,43.92,57.59158,0.00029846189959424716,-0.02308174982955575,0.09779897304849887,40.106058693909645,-92.24360919585227,72.1922225099802
2024-09-23 22:42:24.727195,43.92,57.591631,0.000845657606494293,-0.02303200030545576,0.09779897304849887,40.106058693909645,-92.24360919585227,72.1922225099802
2024-09-23 22:42:24.769952,44.37,57.591682,0.000845657606494293,-0.02303200030545576,0.09759999317981902,40.106058693909645,-96.25519929585457,72.1922225099802
2024-09-23 22:42:24.781600,44.37,57.591682,0.001044642601720419,-0.02303200030545576,0.09759999317981902,40.106058693909645,-96.25519929585457,72.1922225099802
2024-09-23 22:42:24.812977,44.37,57.591682,0.001044642601720419,-0.023479709566915436,0.09759999317981902,40.106058693909645,-96.25519929585457,72.1922225099802
2024-09-23 22:42:24.824522,44.37,57.591682,0.001044642601720419,-0.023479709566915436,0.09759999317981902,40.106058693909645,-96.25519929585457,76.200527287817
2024-09-23 22:42:24.908058,44.37,57.591769,0.001044642601720419,-0.023479709566915436,0.09759999317981902,40.106058693909645,-96.25519929585457,76.200527287817
2024-09-23 22:42:24.919328,44.37,57.591769,0.001044642601720419,-0.022833026512682618,0.09710254654607277,32.08287849390507,-96.25519929585457,76.200527287817
2024-09-23 22:42:24.962278,44.37,57.59182,0.0006466830067647949,-0.022982261414192504,0.09710254654607277,32.08287849390507,-96.25519929585457,76.200527287817
2024-09-23 22:42:24.974161,44.37,57.59182,0.0006466830067647949,-0.022982261414192504,0.09725178296655933,44.11764879391193,-96.25519929585457,76.200527287817
2024-09-23 22:42:25.005800,44.37,57.59182,0.0006466830067647949,-0.022982261414192504,0.09725178296655933,44.11764879391193,-96.25519929585457,76.200527287817
2024-09-23 22:42:25.017259,44.37,57.591871,0.0006466830067647949,-0.02313149783467906,0.09764974270391902,44.11764879391193,-96.25519929585457,76.200527287817
2024-09-23 22:42:25.060415,44.37,57.591922,0.0006466830067647949,-0.02313149783467906,0.09764974270391902,40.106058693909645,-92.24360919585227,72.1922225099802
2024-09-23 22:42:25.073131,44.37,57.591922,0.0009451553255896806,-0.023330473146428877,0.09764974270391902,40.106058693909645,-92.24360919585227,72.1922225099802
2024-09-23 22:42:25.105154,44.37,57.591922,0.0009451553255896806,-0.023330473146428877,0.09755024973162574,36.09446859390736,-92.24360919585227,72.1922225099802
2024-09-23 22:42:25.116246,44.37,57.591972,0.0009948937421727254,-0.023330473146428877,0.09755024973162574,36.09446859390736,-96.25519929585457,76.200527287817
2024-09-23 22:42:25.158759,44.37,57.591972,0.0009948937421727254,-0.022833026512682618,0.09774922960030558,44.11764879391193,-96.25519929585457,80.21211738781929
2024-09-23 22:42:25.170932,44.37,57.59211,0.0009948937421727254,-0.022833026512682618,0.09774922960030558,44.11764879391193,-96.25519929585457,80.21211738781929
2024-09-23 22:42:25.202717,44.37,57.59211,0.0007461703303635545,-0.02293251340906919,0.09774922960030558,44.11764879391193,-96.25519929585457,80.21211738781929
2024-09-23 22:42:25.213833,44.37,57.59211,0.0007461703303635545,-0.02293251340906919,0.0976994861521123,44.11764879391193,-92.24360919585227,72.1922225099802
2024-09-23 22:42:25.255667,44.37,57.592162,0.001044642601720419,-0.022833026512682618,0.09720203344245934,44.11764879391193,-92.24360919585227,72.1922225099802
2024-09-23 22:42:25.266801,44.37,57.592162,0.001044642601720419,-0.022833026512682618,0.09720203344245934,44.11764879391193,-92.24360919585227,72.1922225099802
2024-09-23 22:42:25.299620,44.37,57.592162,0.001044642601720419,-0.022833026512682618,0.09720203344245934,44.11764879391193,-92.24360919585227,76.200527287817
2024-09-23 22:42:25.311099,44.37,57.592212,0.0007959191899112484,-0.023230986250042305,0.09779897304849887,44.11764879391193,-92.24360919585227,76.200527287817
2024-09-23 22:42:25.353346,44.37,57.592263,0.0007959191899112484,-0.02263404056809607,0.09779897304849887,44.11764879391193,-100.26678939585686,76.200527287817
2024-09-23 22:42:25.365267,44.37,57.592263,0.0007959191899112484,-0.02263404056809607,0.09764974270391902,44.11764879391193,-100.26678939585686,76.200527287817
2024-09-23 22:42:25.397123,44.37,57.592263,0.0007959191899112484,-0.02263404056809607,0.09764974270391902,40.106058693909645,-92.24360919585227,76.200527287817
2024-09-23 22:42:25.413918,44.37,57.592314,0.0007959191899112484,-0.02263404056809607,0.09764974270391902,40.106058693909645,-92.24360919585227,80.21211738781929
2024-09-23 22:42:25.497991,44.37,57.592314,0.0009948937421727254,-0.022484804147609512,0.09750050628343246,40.106058693909645,-92.24360919585227,80.21211738781929
2024-09-23 22:42:25.509582,44.37,57.592314,0.0009948937421727254,-0.022484804147609512,0.09750050628343246,36.09446859390736,-92.24360919585227,72.1922225099802
2024-09-23 22:42:25.541829,44.37,57.592364,0.0009948937421727254,-0.022484804147609512,0.09750050628343246,36.09446859390736,-92.24360919585227,72.1922225099802
2024-09-23 22:42:25.553657,44.37,57.592364,0.00034821073540793035,-0.023230986250042305,0.09759999317981902,36.09446859390736,-92.24360919585227,72.1922225099802
2024-09-23 22:42:25.596403,44.37,57.592451,0.00034821073540793035,-0.023230986250042305,0.09759999317981902,40.106058693909645,-96.25519929585457,72.1922225099802
2024-09-23 22:42:25.607963,44.37,57.592451,0.0008954064660419869,-0.023429960042815445,0.09759999317981902,40.106058693909645,-96.25519929585457,72.1922225099802
2024-09-23 22:42:25.641752,44.37,57.592451,0.0008954064660419869,-0.023429960042815445,0.0976994861521123,44.11764879391193,-96.25519929585457,72.1922225099802
2024-09-23 22:42:25.653735,44.37,57.592503,0.0009948937421727254,-0.023429960042815445,0.0976994861521123,44.11764879391193,-96.25519929585457,72.1922225099802
2024-09-23 22:42:25.696935,44.37,57.592503,0.0009948937421727254,-0.02268379009219606,0.09764974270391902,48.12595698684454,-88.23529758782387,76.200527287817
2024-09-23 22:42:25.708377,44.37,57.592553,0.0009948937421727254,-0.02268379009219606,0.09764974270391902,48.12595698684454,-88.23529758782387,76.200527287817
2024-09-23 22:42:25.741757,44.37,57.592553,0.0005471957306340564,-0.02268379009219606,0.09755024973162574,44.11764879391193,-88.23529758782387,76.200527287817
2024-09-23 22:42:25.753166,44.37,57.592553,0.0005471957306340564,-0.02268379009219606,0.09755024973162574,44.11764879391193,-96.25519929585457,76.200527287817
2024-09-23 22:42:25.785301,44.68,57.592649,0.0005471957306340564,-0.02268379009219606,0.09755024973162574,44.11764879391193,-96.25519929585457,76.200527287817
2024-09-23 22:42:25.796791,44.68,57.592649,0.0008954064660419869,-0.02238531725122294,0.09690356060148622,36.09446859390736,-92.24360919585227,76.200527287817
2024-09-23 22:42:25.839816,44.68,57.592745,0.000845657606494293,-0.022584292562972758,0.09690356060148622,36.09446859390736,-92.24360919585227,72.1922225099802
2024-09-23 22:42:25.851755,44.68,57.592745,0.000845657606494293,-0.022584292562972758,0.09809744588947199,40.106058693909645,-92.24360919585227,72.1922225099802
2024-09-23 22:42:25.884542,44.68,57.592745,0.000845657606494293,-0.022584292562972758,0.09809744588947199,40.106058693909645,-92.24360919585227,76.200527287817
2024-09-23 22:42:25.937156,44.68,57.592796,0.0005969341946851222,-0.023330473146428877,0.0973015264147526,40.106058693909645,-92.24360919585227,76.200527287817
2024-09-23 22:42:25.949068,44.68,57.592796,0.0005969341946851222,-0.023330473146428877,0.0973015264147526,44.11764879391193,-92.24360919585227,76.200527287817
2024-09-23 22:42:25.983192,44.68,57.592847,0.0005969341946851222,-0.023330473146428877,0.0973015264147526,44.11764879391193,-92.24360919585227,80.21211738781929
2024-09-23 22:42:25.994712,44.68,57.592847,0.0006466830067647949,-0.02293251340906919,0.09755024973162574,40.106058693909645,-92.24360919585227,80.21211738781929
2024-09-23 22:42:26.038155,44.68,57.592897,0.0009948937421727254,-0.02268379009219606,0.09755024973162574,40.106058693909645,-88.23529758782387,80.21211738781929
2024-09-23 22:42:26.080985,44.68,57.592897,0.0009948937421727254,-0.02268379009219606,0.098047696365372,40.106058693909645,-88.23529758782387,80.21211738781929
2024-09-23 22:42:26.134016,44.68,57.592988,0.0006466830067647949,-0.02268379009219606,0.098047696365372,40.106058693909645,-96.25519929585457,72.1922225099802
2024-09-23 22:42:26.177345,44.68,57.592988,0.0006466830067647949,-0.022982261414192504,0.098047696365372,40.106058693909645,-96.25519929585457,72.1922225099802
2024-09-23 22:42:26.188730,44.68,57.593038,0.0006466830067647949,-0.022982261414192504,0.09745075675933246,48.12595698684454,-92.24360919585227,76.200527287817
2024-09-23 22:42:26.231679,44.68,57.593038,0.0004974468710863627,-0.0228827638849692,0.09789846602079214,44.11764879391193,-88.23529758782387,76.200527287817
2024-09-23 22:42:26.243396,44.68,57.593038,0.0004974468710863627,-0.0228827638849692,0.09789846602079214,44.11764879391193,-88.23529758782387,72.1922225099802
2024-09-23 22:42:26.275299,44.68,57.593134,0.0009451553255896806,-0.0228827638849692,0.09789846602079214,44.11764879391193,-88.23529758782387,72.1922225099802
2024-09-23 22:42:26.286819,44.68,57.593134,0.0009451553255896806,-0.02293251340906919,0.09720203344245934,40.106058693909645,-92.24360919585227,72.1922225099802
2024-09-23 22:42:26.329660,44.68,57.593185,0.001044642601720419,-0.02293251340906919,0.09755024973162574,40.106058693909645,-92.24360919585227,80.21211738781929
2024-09-23 22:42:26.341807,44.68,57.593185,0.001044642601720419,-0.02293251340906919,0.09755024973162574,44.11764879391193,-92.24360919585227,80.21211738781929
2024-09-23 22:42:26.374680,44.68,57.593281,0.001044642601720419,-0.02293251340906919,0.09755024973162574,44.11764879391193,-84.22370748782159,76.200527287817
2024-09-23 22:42:26.385847,44.68,57.593281,0.0009948937421727254,-0.022833026512682618,0.09784872257259886,44.11764879391193,-84.22370748782159,76.200527287817
2024-09-23 22:42:26.428369,44.68,57.593332,0.0010943914612681128,-0.0228827638849692,0.09784872257259886,52.137550501942634,-92.24360919585227,76.200527287817
2024-09-23 22:42:26.471081,44.68,57.593332,0.0010943914612681128,-0.0228827638849692,0.09705279702197278,44.11764879391193,-92.24360919585227,76.200527287817
2024-09-23 22:42:26.482554,44.68,57.593383,0.0006466830067647949,-0.0228827638849692,0.09705279702197278,44.11764879391193,-92.24360919585227,76.200527287817
2024-09-23 22:42:26.525725,44.68,57.593475,0.0006466830067647949,-0.02293251340906919,0.0973015264147526,36.09446859390736,-88.23529758782387,72.1922225099802
2024-09-23 22:42:26.568216,44.68,57.593475,0.0008954064660419869,-0.0228827638849692,0.0973015264147526,36.09446859390736,-88.23529758782387,72.1922225099802
2024-09-23 22:42:26.579412,44.68,57.593475,0.0008954064660419869,-0.0228827638849692,0.09784872257259886,40.106058693909645,-92.24360919585227,72.1922225099802
2024-09-23 22:42:26.622321,44.68,57.593527,0.0008954064660419869,-0.022982261414192504,0.0976994861521123,44.11764879391193,-92.24360919585227,72.1922225099802
2024-09-23 22:42:26.664891,44.68,57.593577,0.0008954064660419869,-0.022982261414192504,0.0976994861521123,44.11764879391193,-92.24360919585227,80.21211738781929
2024-09-23 22:42:26.676230,44.68,57.593577,0.0006964318663124887,-0.02303200030545576,0.09695331012558621,44.11764879391193,-92.24360919585227,80.21211738781929
2024-09-23 22:42:26.718753,44.68,57.593628,0.0006964318663124887,-0.02303200030545576,0.09695331012558621,44.11764879391193,-92.24360919585227,72.1922225099802
2024-09-23 22:42:26.762522,44.68,57.593628,0.0005969341946851222,-0.022982261414192504,0.09695331012558621,44.11764879391193,-92.24360919585227,72.1922225099802
2024-09-23 22:42:26.773889,44.68,57.593628,0.0005969341946851222,-0.022982261414192504,0.09759999317981902,40.106058693909645,-96.25519929585457,72.1922225099802
2024-09-23 22:42:26.817073,43.69,57.593679,0.000845657606494293,-0.02268379009219606,0.09774922960030558,44.11764879391193,-96.25519929585457,72.1922225099802
2024-09-23 22:42:26.828683,43.69,57.593679,0.000845657606494293,-0.02268379009219606,0.09774922960030558,44.11764879391193,-100.26678939585686,72.1922225099802
2024-09-23 22:42:26.862227,43.69,57.593729,0.0006466830067647949,-0.02268379009219606,0.09774922960030558,44.11764879391193,-100.26678939585686,72.1922225099802
2024-09-23 22:42:26.873614,43.69,57.593729,0.0006466830067647949,-0.02308174982955575,0.09779897304849887,48.12595698684454,-100.26678939585686,72.1922225099802
2024-09-23 22:42:26.916632,43.69,57.593729,0.0006466830067647949,-0.02308174982955575,0.09779897304849887,48.12595698684454,-92.24360919585227,72.1922225099802
2024-09-23 22:42:26.960354,43.69,57.593816,0.0003979595949556242,-0.02308174982955575,0.09779897304849887,48.12595698684454,-92.24360919585227,80.21211738781929
2024-09-23 22:42:26.972126,43.69,57.593816,0.0003979595949556242,-0.02293251340906919,0.098047696365372,44.11764879391193,-92.24360919585227,80.21211738781929
2024-09-23 22:42:27.004503,43.69,57.593816,0.0003979595949556242,-0.02293251340906919,0.098047696365372,44.11764879391193,-92.24360919585227,80.21211738781929
2024-09-23 22:42:27.015657,43.69,57.593867,0.0006466830067647949,-0.022833026512682618,0.09799795899308542,44.11764879391193,-92.24360919585227,76.200527287817
2024-09-23 22:42:27.058530,43.69,57.593918,0.0006466830067647949,-0.022833026512682618,0.09799795899308542,44.11764879391193,-92.24360919585227,76.200527287817
2024-09-23 22:42:27.070465,43.69,57.593918,0.0008954064660419869,-0.02268379009219606,0.09799795899308542,44.11764879391193,-92.24360919585227,76.200527287817
2024-09-23 22:42:27.104134,43.69,57.593918,0.0008954064660419869,-0.02268379009219606,0.09799795899308542,36.09446859390736,-92.24360919585227,76.200527287817
2024-09-23 22:42:27.115758,43.69,57.594011,0.001044642601720419,-0.02268379009219606,0.09799795899308542,36.09446859390736,-96.25519929585457,76.200527287817
2024-09-23 22:42:27.158460,43.69,57.594062,0.001044642601720419,-0.02303200030545576,0.09750050628343246,32.08287849390507,-92.24360919585227,80.21211738781929
2024-09-23 22:42:27.200709,43.69,57.594062,0.0009451553255896806,-0.02303200030545576,0.09750050628343246,32.08287849390507,-92.24360919585227,80.21211738781929
2024-09-23 22:42:27.212878,43.69,57.594062,0.0009451553255896806,-0.02308174982955575,0.09715228999426605,32.08287849390507,-96.25519929585457,72.1922225099802
2024-09-23 22:42:27.255151,43.69,57.594158,0.0011441298778511575,-0.022982261414192504,0.09750050628343246,40.106058693909645,-96.25519929585457,72.1922225099802
2024-09-23 22:42:27.267028,43.69,57.594158,0.0011441298778511575,-0.022982261414192504,0.09750050628343246,40.106058693909645,-96.25519929585457,72.1922225099802
2024-09-23 22:42:27.298502,43.69,57.594209,0.0011441298778511575,-0.022982261414192504,0.09750050628343246,40.106058693909645,-96.25519929585457,76.200527287817
2024-09-23 22:42:27.351035,43.69,57.594209,0.0006964318663124887,-0.02308174982955575,0.09759999317981902,48.12595698684454,-96.25519929585457,76.200527287817
2024-09-23 22:42:27.362636,43.69,57.594209,0.0006964318663124887,-0.02308174982955575,0.09759999317981902,48.12595698684454,-96.25519929585457,76.200527287817
2024-09-23 22:42:27.395610,43.69,57.59426,0.0006964318663124887,-0.02308174982955575,0.09759999317981902,48.12595698684454,-96.25519929585457,76.200527287817
2024-09-23 22:42:27.407292,43.69,57.59426,0.0007959191899112484,-0.023280723622328886,0.09720203344245934,48.12595698684454,-92.24360919585227,76.200527287817
2024-09-23 22:42:27.450538,43.69,57.594311,0.0005969341946851222,-0.02313149783467906,0.09759999317981902,48.12595698684454,-92.24360919585227,76.200527287817
2024-09-23 22:42:27.462285,43.69,57.594311,0.0005969341946851222,-0.02313149783467906,0.09759999317981902,44.11764879391193,-92.24360919585227,76.200527287817
2024-09-23 22:42:27.495810,43.69,57.594361,0.0005969341946851222,-0.02313149783467906,0.09759999317981902,44.11764879391193,-92.24360919585227,72.1922225099802
2024-09-23 22:42:27.507500,43.69,57.594361,0.00029846189959424716,-0.02303200030545576,0.09755024973162574,44.11764879391193,-92.24360919585227,72.1922225099802
2024-09-23 22:42:27.549698,43.69,57.59445,0.000845657606494293,-0.02338022115155219,0.09755024973162574,40.106058693909645,-100.26678939585686,76.200527287817
2024-09-23 22:42:27.592337,43.69,57.59445,0.000845657606494293,-0.02338022115155219,0.09755024973162574,44.11764879391193,-96.25519929585457,76.200527287817
2024-09-23 22:42:27.603766,43.69,57.594502,0.00044769805900669,-0.02338022115155219,0.09755024973162574,44.11764879391193,-96.25519929585457,72.1922225099802
2024-09-23 22:42:27.647294,43.69,57.594596,0.00044769805900669,-0.023181236725942318,0.09755024973162574,40.106058693909645,-96.25519929585457,76.200527287817
2024-09-23 22:42:27.690598,43.69,57.594596,0.000845657606494293,-0.023230986250042305,0.0973512698629459,40.106058693909645,-96.25519929585457,76.200527287817
2024-09-23 22:42:27.702064,43.69,57.594596,0.000845657606494293,-0.023230986250042305,0.0973512698629459,48.12595698684454,-92.24360919585227,80.21211738781929
2024-09-23 22:42:27.744908,43.69,57.594648,0.0004974468710863627,-0.023429960042815445,0.09779897304849887,44.11764879391193,-92.24360919585227,80.21211738781929
2024-09-23 22:42:27.788130,43.69,57.594699,0.0007959191899112484,-0.023429960042815445,0.09779897304849887,44.11764879391193,-92.24360919585227,68.18063240997792
2024-09-23 22:42:27.799818,43.69,57.594699,0.0007959191899112484,-0.023181236725942318,0.0973015264147526,40.106058693909645,-92.24360919585227,68.18063240997792
2024-09-23 22:42:27.842118,43.54,57.594749,0.0007461703303635545,-0.023181236725942318,0.09715228999426605,40.106058693909645,-96.25519929585457,72.1922225099802
2024-09-23 22:42:27.884934,43.54,57.594749,0.0007461703303635545,-0.023181236725942318,0.09715228999426605,36.09446859390736,-96.25519929585457,72.1922225099802
2024-09-23 22:42:27.896795,43.54,57.5948,0.0004974468710863627,-0.023230986250042305,0.09715228999426605,36.09446859390736,-96.25519929585457,72.1922225099802
2024-09-23 22:42:27.938941,43.54,57.5948,0.0004974468710863627,-0.023230986250042305,0.09784872257259886,40.106058693909645,-96.25519929585457,72.1922225099802
2024-09-23 22:42:27.981093,43.54,57.5948,0.0004974468710863627,-0.023230986250042305,0.09784872257259886,40.106058693909645,-96.25519929585457,84.22370748782159
2024-09-23 22:42:27.992551,43.54,57.59485,0.001044642601720419,-0.02278327698858263,0.09789846602079214,40.106058693909645,-96.25519929585457,84.22370748782159
2024-09-23 22:42:28.035178,43.54,57.594938,0.0006964318663124887,-0.02278327698858263,0.09789846602079214,44.11764879391193,-92.24360919585227,76.200527287817
2024-09-23 22:42:28.047999,43.54,57.594938,0.0006964318663124887,-0.02308174982955575,0.09789846602079214,44.11764879391193,-92.24360919585227,76.200527287817
2024-09-23 22:42:28.080428,43.54,57.594938,0.0006964318663124887,-0.02308174982955575,0.09740101331113918,44.11764879391193,-92.24360919585227,76.200527287817
2024-09-23 22:42:28.091833,43.54,57.594989,0.0009451553255896806,-0.02308174982955575,0.09740101331113918,44.11764879391193,-92.24360919585227,72.1922225099802
2024-09-23 22:42:28.134783,43.54,57.59504,0.0009451553255896806,-0.02268379009219606,0.09789846602079214,44.11764879391193,-88.23529758782387,76.200527287817
2024-09-23 22:42:28.176491,43.54,57.59504,0.0013431148730772837,-0.02278327698858263,0.09789846602079214,44.11764879391193,-88.23529758782387,76.200527287817
2024-09-23 22:42:28.187644,43.54,57.59504,0.0013431148730772837,-0.02278327698858263,0.0976994861521123,44.11764879391193,-92.24360919585227,76.200527287817
2024-09-23 22:42:28.230422,43.54,57.595133,0.0011441298778511575,-0.023230986250042305,0.09750050628343246,44.11764879391193,-92.24360919585227,76.200527287817
2024-09-23 22:42:28.242575,43.54,57.595133,0.0011441298778511575,-0.023230986250042305,0.09750050628343246,44.11764879391193,-96.25519929585457,76.200527287817
2024-09-23 22:42:28.275404,43.54,57.595184,0.0009948937421727254,-0.023230986250042305,0.09750050628343246,44.11764879391193,-96.25519929585457,76.200527287817
2024-09-23 22:42:28.286932,43.54,57.595184,0.0009948937421727254,-0.022833026512682618,0.09745075675933246,40.106058693909645,-96.25519929585457,76.200527287817
2024-09-23 22:42:28.328988,43.54,57.595235,0.0008954064660419869,-0.02268379009219606,0.09710254654607277,40.106058693909645,-96.25519929585457,76.200527287817
2024-09-23 22:42:28.372408,43.54,57.595235,0.0008954064660419869,-0.02268379009219606,0.09710254654607277,36.09446859390736,-96.25519929585457,80.21211738781929
2024-09-23 22:42:28.384482,43.54,57.595286,0.0007959191899112484,-0.02293251340906919,0.09710254654607277,36.09446859390736,-96.25519929585457,80.21211738781929
2024-09-23 22:42:28.427068,43.54,57.595336,0.0006466830067647949,-0.02293251340906919,0.09774922960030558,48.12595698684454,-104.27510100388527,72.1922225099802
2024-09-23 22:42:28.469690,43.54,57.595336,0.0006466830067647949,-0.02308174982955575,0.0973512698629459,48.12595698684454,-104.27510100388527,72.1922225099802
2024-09-23 22:42:28.480881,43.54,57.595425,0.0006466830067647949,-0.02308174982955575,0.0973512698629459,48.12595698684454,-96.25519929585457,76.200527287817
2024-09-23 22:42:28.524417,43.54,57.595425,0.0009948937421727254,-0.023330473146428877,0.09725178296655933,48.12595698684454,-100.26678939585686,80.21211738781929
2024-09-23 22:42:28.567490,43.54,57.595477,0.0005471957306340564,-0.022584292562972758,0.09725178296655933,48.12595698684454,-100.26678939585686,80.21211738781929
2024-09-23 22:42:28.579335,43.54,57.595477,0.0005471957306340564,-0.022584292562972758,0.09715228999426605,44.11764879391193,-96.25519929585457,80.21211738781929
2024-09-23 22:42:28.621888,43.54,57.595527,0.0008954064660419869,-0.022733528983459317,0.09750050628343246,48.12595698684454,-96.25519929585457,80.21211738781929
2024-09-23 22:42:28.665957,43.54,57.595578,0.0008954064660419869,-0.022733528983459317,0.09750050628343246,48.12595698684454,-92.24360919585227,80.21211738781929
2024-09-23 22:42:28.677333,43.54,57.595578,0.0008954064660419869,-0.022584292562972758,0.09814718933766527,48.12595698684454,-92.24360919585227,80.21211738781929
2024-09-23 22:42:28.719675,43.54,57.595629,0.0008954064660419869,-0.02263404056809607,0.09814718933766527,52.137550501942634,-96.25519929585457,72.1922225099802
2024-09-23 22:42:28.762634,43.54,57.595629,0.0008954064660419869,-0.02263404056809607,0.09715228999426605,60.15744537978172,-96.25519929585457,72.1922225099802
2024-09-23 22:42:28.774716,43.54,57.595679,0.0007959191899112484,-0.02263404056809607,0.09715228999426605,60.15744537978172,-96.25519929585457,72.1922225099802
2024-09-23 22:42:28.817318,43.54,57.595766,0.0007959191899112484,-0.02293251340906919,0.09740101331113918,48.12595698684454,-88.23529758782387,72.1922225099802
2024-09-23 22:42:28.859874,42.99,57.595766,0.001044642601720419,-0.023280723622328886,0.09745075675933246,48.12595698684454,-88.23529758782387,72.1922225099802
2024-09-23 22:42:28.871019,42.99,57.595766,0.001044642601720419,-0.023280723622328886,0.09745075675933246,48.12595698684454,-92.24360919585227,72.1922225099802
2024-09-23 22:42:28.914882,42.99,57.595818,0.0004974468710863627,-0.022833026512682618,0.0976994861521123,52.137550501942634,-92.24360919585227,72.1922225099802
2024-09-23 22:42:28.957119,42.99,57.595869,0.0004974468710863627,-0.022833026512682618,0.0976994861521123,52.137550501942634,-92.24360919585227,72.1922225099802
2024-09-23 22:42:29.010127,42.99,57.595869,0.0011938787373988514,-0.02268379009219606,0.0976994861521123,48.12595698684454,-92.24360919585227,72.1922225099802
2024-09-23 22:42:29.022322,42.99,57.595869,0.0011938787373988514,-0.02268379009219606,0.0976994861521123,48.12595698684454,-92.24360919585227,72.1922225099802
2024-09-23 22:42:29.054463,42.99,57.595919,0.0007461703303635545,-0.02268379009219606,0.0976994861521123,48.12595698684454,-92.24360919585227,72.1922225099802
2024-09-23 22:42:29.065881,42.99,57.595919,0.0007461703303635545,-0.02313149783467906,0.09685382322919964,48.12595698684454,-88.23529758782387,72.1922225099802
2024-09-23 22:42:29.107679,42.99,57.59597,0.000845657606494293,-0.02313149783467906,0.09740101331113918,48.12595698684454,-88.23529758782387,76.200527287817
2024-09-23 22:42:29.119758,42.99,57.59597,0.000845657606494293,-0.02313149783467906,0.09740101331113918,32.08287849390507,-88.23529758782387,76.200527287817
2024-09-23 22:42:29.152946,42.99,57.596021,0.000845657606494293,-0.02313149783467906,0.09740101331113918,32.08287849390507,-88.23529758782387,80.21211738781929
2024-09-23 22:42:29.164526,42.99,57.596021,0.0009948937421727254,-0.02313149783467906,0.09755024973162574,32.08287849390507,-88.23529758782387,80.21211738781929
2024-09-23 22:42:29.207424,42.99,57.596108,0.0007959191899112484,-0.022484804147609512,0.09755024973162574,44.11764879391193,-80.21211738781929,72.1922225099802
2024-09-23 22:42:29.250227,42.99,57.596108,0.0007959191899112484,-0.022484804147609512,0.09814718933766527,44.11764879391193,-96.25519929585457,72.1922225099802
2024-09-23 22:42:29.262350,42.99,57.596108,0.0007959191899112484,-0.022484804147609512,0.09814718933766527,44.11764879391193,-96.25519929585457,84.22370748782159
2024-09-23 22:42:29.305425,42.99,57.596159,0.0007461703303635545,-0.023280723622328886,0.09764974270391902,40.106058693909645,-88.23529758782387,84.22370748782159
2024-09-23 22:42:29.348852,42.99,57.596254,0.0007461703303635545,-0.023280723622328886,0.09764974270391902,40.106058693909645,-88.23529758782387,76.200527287817
2024-09-23 22:42:29.360198,42.99,57.596254,0.0007461703303635545,-0.022833026512682618,0.09784872257259886,36.09446859390736,-88.23529758782387,76.200527287817
2024-09-23 22:42:29.393068,42.99,57.596254,0.0007461703303635545,-0.022833026512682618,0.09784872257259886,36.09446859390736,-92.24360919585227,76.200527287817
2024-09-23 22:42:29.405222,42.99,57.596305,0.0007959191899112484,-0.022833026512682618,0.09740101331113918,36.09446859390736,-92.24360919585227,80.21211738781929
2024-09-23 22:42:29.448822,42.99,57.596356,0.0007959191899112484,-0.022833026512682618,0.09740101331113918,44.11764879391193,-100.26678939585686,72.1922225099802
2024-09-23 22:42:29.460575,42.99,57.596356,0.000845657606494293,-0.022733528983459317,0.09740101331113918,44.11764879391193,-100.26678939585686,72.1922225099802
2024-09-23 22:42:29.493771,42.99,57.596356,0.000845657606494293,-0.022733528983459317,0.09759999317981902,44.11764879391193,-100.26678939585686,72.1922225099802
2024-09-23 22:42:29.504842,42.99,57.596407,0.0006964318663124887,-0.022733528983459317,0.09759999317981902,44.11764879391193,-88.23529758782387,76.200527287817
2024-09-23 22:42:29.547769,42.99,57.596498,0.0006964318663124887,-0.02303200030545576,0.09774922960030558,48.12595698684454,-92.24360919585227,80.21211738781929
2024-09-23 22:42:29.590472,42.99,57.596498,0.0009451553255896806,-0.02233556924609963,0.09774922960030558,48.12595698684454,-92.24360919585227,80.21211738781929
2024-09-23 22:42:29.602303,42.99,57.596498,0.0009451553255896806,-0.02233556924609963,0.09789846602079214,40.106058693909645,-92.24360919585227,76.200527287817
2024-09-23 22:42:29.644915,42.99,57.596549,0.0006964318663124887,-0.02308174982955575,0.09755024973162574,44.11764879391193,-92.24360919585227,76.200527287817
2024-09-23 22:42:29.687219,42.99,57.5966,0.0006964318663124887,-0.02308174982955575,0.09755024973162574,44.11764879391193,-92.24360919585227,72.1922225099802
2024-09-23 22:42:29.698687,42.99,57.5966,0.0011938787373988514,-0.02308174982955575,0.09764974270391902,40.106058693909645,-92.24360919585227,72.1922225099802
2024-09-23 22:42:29.742407,42.99,57.59665,0.0007461703303635545,-0.023429960042815445,0.09759999317981902,40.106058693909645,-88.23529758782387,80.21211738781929
2024-09-23 22:42:29.785665,42.99,57.59665,0.0007461703303635545,-0.023429960042815445,0.09759999317981902,44.11764879391193,-88.23529758782387,80.21211738781929
2024-09-23 22:42:29.797338,42.99,57.596701,0.00034821073540793035,-0.02313149783467906,0.09759999317981902,44.11764879391193,-88.23529758782387,72.1922225099802
2024-09-23 22:42:29.839655,42.99,57.596701,0.00034821073540793035,-0.02313149783467906,0.09720203344245934,36.09446859390736,-88.23529758782387,72.1922225099802
2024-09-23 22:42:29.882760,42.86,57.596701,0.00034821073540793035,-0.02313149783467906,0.09720203344245934,36.09446859390736,-88.23529758782387,76.200527287817
2024-09-23 22:42:29.894675,42.86,57.596752,0.00044769805900669,-0.02293251340906919,0.09725178296655933,36.09446859390736,-88.23529758782387,76.200527287817
2024-09-23 22:42:29.938083,42.86,57.596839,0.0012436275969465451,-0.022982261414192504,0.09725178296655933,36.09446859390736,-96.25519929585457,80.21211738781929
2024-09-23 22:42:29.980713,42.86,57.596839,0.0012436275969465451,-0.022982261414192504,0.09710254654607277,40.106058693909645,-92.24360919585227,80.21211738781929
2024-09-23 22:42:30.035880,42.86,57.59689,0.0009451553255896806,-0.02308174982955575,0.09725178296655933,32.08287849390507,-92.24360919585227,80.21211738781929
2024-09-23 22:42:30.078019,42.86,57.59689,0.0009451553255896806,-0.02308174982955575,0.09725178296655933,32.08287849390507,-92.24360919585227,80.21211738781929
2024-09-23 22:42:30.089862,42.86,57.596941,0.0009948937421727254,-0.022584292562972758,0.09710254654607277,32.08287849390507,-92.24360919585227,80.21211738781929
2024-09-23 22:42:30.133207,42.86,57.597034,0.0007461703303635545,-0.022584292562972758,0.09710254654607277,48.12595698684454,-92.24360919585227,76.200527287817
2024-09-23 22:42:30.176049,42.86,57.597034,0.0007461703303635545,-0.022584292562972758,0.0970030596496862,40.106058693909645,-104.27510100388527,76.200527287817
2024-09-23 22:42:30.187187,42.86,57.597086,-0.00014922575204880957,-0.022584292562972758,0.0970030596496862,40.106058693909645,-104.27510100388527,68.18063240997792
2024-09-23 22:42:30.231292,42.86,57.597136,-0.00014922575204880957,-0.0228827638849692,0.09779897304849887,36.09446859390736,-92.24360919585227,80.21211738781929
2024-09-23 22:42:30.274360,42.86,57.597136,0.0009451553255896806,-0.023429960042815445,0.09809744588947199,36.09446859390736,-92.24360919585227,80.21211738781929
2024-09-23 22:42:30.286052,42.86,57.597136,0.0009451553255896806,-0.023429960042815445,0.09809744588947199,44.11764879391193,-96.25519929585457,72.1922225099802
2024-09-23 22:42:30.328311,42.86,57.597229,0.0008954064660419869,-0.02293251340906919,0.09784872257259886,48.12595698684454,-88.23529758782387,72.1922225099802
2024-09-23 22:42:30.372043,42.86,57.597281,0.0008954064660419869,-0.02293251340906919,0.09784872257259886,48.12595698684454,-88.23529758782387,72.1922225099802
2024-09-23 22:42:30.384402,42.86,57.597281,0.0008954064660419869,-0.02293251340906919,0.0973015264147526,48.12595698684454,-88.23529758782387,72.1922225099802
2024-09-23 22:42:30.416471,42.86,57.597281,0.0008954064660419869,-0.02293251340906919,0.0973015264147526,48.12595698684454,-88.23529758782387,72.1922225099802
2024-09-23 22:42:30.427631,42.86,57.597331,0.00044769805900669,-0.02268379009219606,0.09774922960030558,48.12595698684454,-88.23529758782387,76.200527287817
2024-09-23 22:42:30.470132,42.86,57.597331,0.00044769805900669,-0.02268379009219606,0.09774922960030558,44.11764879391193,-92.24360919585227,84.22370748782159
2024-09-23 22:42:30.482055,42.86,57.597382,0.001044642601720419,-0.0228827638849692,0.09774922960030558,44.11764879391193,-92.24360919585227,84.22370748782159
2024-09-23 22:42:30.514097,42.86,57.597382,0.001044642601720419,-0.0228827638849692,0.09685382322919964,44.11764879391193,-92.24360919585227,84.22370748782159
2024-09-23 22:42:30.525480,42.86,57.597433,0.0003979595949556242,-0.0228827638849692,0.09685382322919964,44.11764879391193,-92.24360919585227,76.200527287817
2024-09-23 22:42:30.567763,42.86,57.597433,0.0003979595949556242,-0.023330473146428877,0.09809744588947199,48.12595698684454,-100.26678939585686,76.200527287817
2024-09-23 22:42:30.579493,42.86,57.597521,0.0003979595949556242,-0.023330473146428877,0.09809744588947199,48.12595698684454,-100.26678939585686,76.200527287817
2024-09-23 22:42:30.611730,42.86,57.597521,0.0007461703303635545,-0.023330473146428877,0.09809744588947199,48.12595698684454,-100.26678939585686,76.200527287817
2024-09-23 22:42:30.624317,42.86,57.597521,0.0007461703303635545,-0.0228827638849692,0.0973015264147526,44.11764879391193,-96.25519929585457,72.1922225099802
2024-09-23 22:42:30.667188,42.86,57.597573,0.00044769805900669,-0.0220868459292265,0.09759999317981902,40.106058693909645,-96.25519929585457,72.1922225099802
2024-09-23 22:42:30.678892,42.86,57.597573,0.00044769805900669,-0.0220868459292265,0.09759999317981902,40.106058693909645,-96.25519929585457,72.1922225099802
2024-09-23 22:42:30.711206,42.86,57.597623,0.00044769805900669,-0.0220868459292265,0.09759999317981902,40.106058693909645,-96.25519929585457,76.200527287817
2024-09-23 22:42:30.722676,42.86,57.597623,0.0005969341946851222,-0.023181236725942318,0.0976994861521123,44.11764879391193,-96.25519929585457,76.200527287817
2024-09-23 22:42:30.765130,42.86,57.597675,0.000845657606494293,-0.023230986250042305,0.0976994861521123,44.11764879391193,-96.25519929585457,76.200527287817
2024-09-23 22:42:30.776716,42.86,57.597675,0.000845657606494293,-0.023230986250042305,0.09829641968224512,44.11764879391193,-96.25519929585457,76.200527287817
2024-09-23 22:42:30.808806,42.86,57.597675,0.000845657606494293,-0.023230986250042305,0.09829641968224512,44.11764879391193,-92.24360919585227,76.200527287817
2024-09-23 22:42:30.819966,42.86,57.597725,0.0005969341946851222,-0.023181236725942318,0.09829641968224512,44.11764879391193,-92.24360919585227,72.1922225099802
2024-09-23 22:42:30.861780,42.86,57.597725,0.0005969341946851222,-0.023181236725942318,0.09720203344245934,40.106058693909645,-84.22370748782159,76.200527287817
2024-09-23 22:42:30.873240,42.86,57.597776,0.0011938787373988514,-0.023181236725942318,0.09720203344245934,40.106058693909645,-84.22370748782159,76.200527287817
2024-09-23 22:42:30.907077,42.87,57.597776,0.0011938787373988514,-0.023280723622328886,0.09779897304849887,40.106058693909645,-84.22370748782159,76.200527287817
2024-09-23 22:42:30.918879,42.87,57.597863,0.0011938787373988514,-0.023280723622328886,0.09779897304849887,48.12595698684454,-84.22370748782159,72.1922225099802
2024-09-23 22:42:30.962345,42.87,57.597863,0.0005471957306340564,-0.022982261414192504,0.09759999317981902,52.137550501942634,-84.22370748782159,68.18063240997792
2024-09-23 22:42:31.005687,42.87,57.597914,0.0007461703303635545,-0.022982261414192504,0.09759999317981902,52.137550501942634,-84.22370748782159,68.18063240997792
2024-09-23 22:42:31.058165,42.87,57.597965,0.0007959191899112484,-0.022982261414192504,0.09745075675933246,40.106058693909645,-92.24360919585227,72.1922225099802
2024-09-23 22:42:31.100725,42.87,57.597965,0.0007959191899112484,-0.023330473146428877,0.09745075675933246,40.106058693909645,-92.24360919585227,72.1922225099802
2024-09-23 22:42:31.112724,42.87,57.598015,0.0007959191899112484,-0.023330473146428877,0.09774922960030558,36.09446859390736,-100.26678939585686,76.200527287817
2024-09-23 22:42:31.155757,42.87,57.598015,0.0006466830067647949,-0.02338022115155219,0.09774922960030558,36.09446859390736,-100.26678939585686,76.200527287817
2024-09-23 22:42:31.198721,42.87,57.598015,0.0006466830067647949,-0.02338022115155219,0.09745075675933246,36.09446859390736,-100.26678939585686,76.200527287817
2024-09-23 22:42:31.209925,42.87,57.598066,0.00044769805900669,-0.02338022115155219,0.09745075675933246,36.09446859390736,-96.25519929585457,76.200527287817
2024-09-23 22:42:31.252644,42.87,57.598066,0.00044769805900669,-0.0224350561424862,0.09759999317981902,44.11764879391193,-92.24360919585227,76.200527287817
2024-09-23 22:42:31.264611,42.87,57.598117,0.00044769805900669,-0.0224350561424862,0.09759999317981902,44.11764879391193,-92.24360919585227,76.200527287817
2024-09-23 22:42:31.297482,42.87,57.598117,0.0005471957306340564,-0.02238531725122294,0.09740101331113918,44.11764879391193,-92.24360919585227,76.200527287817
2024-09-23 22:42:31.309411,42.87,57.598117,0.0005471957306340564,-0.02238531725122294,0.09740101331113918,44.11764879391193,-84.22370748782159,80.21211738781929
2024-09-23 22:42:31.352269,42.87,57.598205,0.0007461703303635545,-0.0228827638849692,0.09750050628343246,40.106058693909645,-92.24360919585227,80.21211738781929
2024-09-23 22:42:31.395830,42.87,57.598256,0.001442602149208022,-0.0228827638849692,0.09750050628343246,40.106058693909645,-92.24360919585227,76.200527287817
2024-09-23 22:42:31.406977,42.87,57.598256,0.001442602149208022,-0.023280723622328886,0.098047696365372,48.12595698684454,-92.24360919585227,76.200527287817
2024-09-23 22:42:31.449563,42.87,57.598352,0.0005969341946851222,-0.02268379009219606,0.09720203344245934,48.12595698684454,-88.23529758782387,76.200527287817
2024-09-23 22:42:31.492870,42.87,57.598352,0.0005969341946851222,-0.02268379009219606,0.09720203344245934,52.137550501942634,-96.25519929585457,76.200527287817
2024-09-23 22:42:31.504465,42.87,57.598402,0.0007461703303635545,-0.02308174982955575,0.09720203344245934,52.137550501942634,-96.25519929585457,76.200527287817
2024-09-23 22:42:31.547334,42.87,57.598453,0.0008954064660419869,-0.02308174982955575,0.09745075675933246,44.11764879391193,-96.25519929585457,68.18063240997792
2024-09-23 22:42:31.590092,42.87,57.598453,0.0008954064660419869,-0.02313149783467906,0.09725178296655933,40.106058693909645,-96.25519929585457,68.18063240997792
2024-09-23 22:42:31.601211,42.87,57.598545,0.0008954064660419869,-0.02313149783467906,0.09725178296655933,40.106058693909645,-92.24360919585227,72.1922225099802
2024-09-23 22:42:31.644843,42.87,57.598545,0.0007461703303635545,-0.022833026512682618,0.09725178296655933,40.106058693909645,-92.24360919585227,72.1922225099802
2024-09-23 22:42:31.687645,42.87,57.598545,0.0007461703303635545,-0.022833026512682618,0.09710254654607277,40.106058693909645,-92.24360919585227,72.1922225099802
2024-09-23 22:42:31.699096,42.87,57.598597,0.0009451553255896806,-0.022833026512682618,0.09710254654607277,40.106058693909645,-92.24360919585227,80.21211738781929
2024-09-23 22:42:31.741836,42.87,57.598647,0.0009451553255896806,-0.022982261414192504,0.09725178296655933,44.11764879391193,-88.23529758782387,76.200527287817
2024-09-23 22:42:31.785608,42.87,57.598647,0.0013431148730772837,-0.023181236725942318,0.09695331012558621,44.11764879391193,-88.23529758782387,76.200527287817
2024-09-23 22:42:31.796619,42.87,57.598647,0.0013431148730772837,-0.023181236725942318,0.09695331012558621,44.11764879391193,-92.24360919585227,72.1922225099802
2024-09-23 22:42:31.839330,42.87,57.598698,0.000845657606494293,-0.023230986250042305,0.0973512698629459,40.106058693909645,-92.24360919585227,72.1922225099802
2024-09-23 22:42:31.881206,42.87,57.598749,0.000845657606494293,-0.023230986250042305,0.0973512698629459,40.106058693909645,-92.24360919585227,76.200527287817
2024-09-23 22:42:31.893443,42.87,57.598749,0.00044769805900669,-0.023230986250042305,0.0973512698629459,48.12595698684454,-92.24360919585227,76.200527287817
2024-09-23 22:42:31.937106,42.42,57.598839,0.00044769805900669,-0.0224350561424862,0.09745075675933246,48.12595698684454,-92.24360919585227,72.1922225099802
2024-09-23 22:42:31.978821,42.42,57.598839,0.00044769805900669,-0.0224350561424862,0.09745075675933246,52.137550501942634,-92.24360919585227,72.1922225099802
2024-09-23 22:42:31.989821,42.42,57.59889,0.001044642601720419,-0.023429960042815445,0.09745075675933246,52.137550501942634,-92.24360919585227,72.1922225099802
2024-09-23 22:42:32.032229,42.42,57.59889,0.001044642601720419,-0.023429960042815445,0.09759999317981902,44.11764879391193,-92.24360919585227,76.200527287817
2024-09-23 22:42:32.074031,42.42,57.598941,0.001044642601720419,-0.023429960042815445,0.09759999317981902,44.11764879391193,-92.24360919585227,76.200527287817
2024-09-23 22:42:32.085323,42.42,57.598941,0.0007461703303635545,-0.022833026512682618,0.09774922960030558,44.11764879391193,-92.24360919585227,76.200527287817
2024-09-23 22:42:32.127320,42.42,57.599033,0.0006964318663124887,-0.022833026512682618,0.09774922960030558,44.11764879391193,-92.24360919585227,72.1922225099802
2024-09-23 22:42:32.139376,42.42,57.599033,0.0006964318663124887,-0.022982261414192504,0.09710254654607277,44.11764879391193,-92.24360919585227,72.1922225099802
2024-09-23 22:42:32.171748,42.42,57.599033,0.0006964318663124887,-0.022982261414192504,0.09710254654607277,44.11764879391193,-92.24360919585227,72.1922225099802
2024-09-23 22:42:32.183085,42.42,57.599084,0.0008954064660419869,-0.02218633282561307,0.09759999317981902,44.11764879391193,-92.24360919585227,80.21211738781929
2024-09-23 22:42:32.225927,42.42,57.599135,0.0008954064660419869,-0.02218633282561307,0.09759999317981902,48.12595698684454,-96.25519929585457,76.200527287817
2024-09-23 22:42:32.237817,42.42,57.599135,0.0007959191899112484,-0.02308174982955575,0.09759999317981902,48.12595698684454,-96.25519929585457,76.200527287817
2024-09-23 22:42:32.271671,42.42,57.599135,0.0007959191899112484,-0.02308174982955575,0.09745075675933246,32.08287849390507,-96.25519929585457,76.200527287817
2024-09-23 22:42:32.283321,42.42,57.599185,0.0010943914612681128,-0.02308174982955575,0.09745075675933246,32.08287849390507,-92.24360919585227,76.200527287817
2024-09-23 22:42:32.325816,42.42,57.599185,0.0010943914612681128,-0.022833026512682618,0.09759999317981902,32.08287849390507,-92.24360919585227,76.200527287817
2024-09-23 22:42:32.368215,42.42,57.599185,0.0010943914612681128,-0.022833026512682618,0.09759999317981902,44.11764879391193,-92.24360919585227,76.200527287817
2024-09-23 22:42:32.380074,42.42,57.599276,0.0009451553255896806,-0.022733528983459317,0.09759999317981902,44.11764879391193,-88.23529758782387,80.21211738781929
2024-09-23 22:42:32.423032,42.42,57.599276,0.0009451553255896806,-0.022733528983459317,0.09750050628343246,48.12595698684454,-92.24360919585227,76.200527287817
2024-09-23 22:42:32.435996,42.42,57.599328,0.0006466830067647949,-0.022733528983459317,0.09750050628343246,48.12595698684454,-92.24360919585227,76.200527287817
2024-09-23 22:42:32.467791,42.42,57.599328,0.0006466830067647949,-0.02268379009219606,0.0973512698629459,40.106058693909645,-92.24360919585227,76.200527287817
2024-09-23 22:42:32.479552,42.42,57.599328,0.0006466830067647949,-0.02268379009219606,0.0973512698629459,40.106058693909645,-88.23529758782387,76.200527287817
2024-09-23 22:42:32.523084,42.42,57.599378,0.0005471957306340564,-0.022833026512682618,0.09745075675933246,44.11764879391193,-88.23529758782387,76.200527287817
2024-09-23 22:42:32.565358,42.42,57.599429,0.0005471957306340564,-0.022833026512682618,0.09745075675933246,44.11764879391193,-92.24360919585227,76.200527287817
2024-09-23 22:42:32.576762,42.42,57.599429,0.00029846189959424716,-0.02228583035483637,0.0973015264147526,44.11764879391193,-92.24360919585227,76.200527287817
2024-09-23 22:42:32.619784,42.42,57.599521,0.0008954064660419869,-0.023429960042815445,0.0973015264147526,44.11764879391193,-96.25519929585457,76.200527287817
2024-09-23 22:42:32.663527,42.42,57.599521,0.0008954064660419869,-0.023429960042815445,0.09755024973162574,44.11764879391193,-96.25519929585457,76.200527287817
2024-09-23 22:42:32.675150,42.42,57.599572,0.0003979595949556242,-0.023429960042815445,0.09755024973162574,44.11764879391193,-96.25519929585457,76.200527287817
2024-09-23 22:42:32.718270,42.42,57.599623,0.0003979595949556242,-0.02303200030545576,0.09710254654607277,40.106058693909645,-92.24360919585227,76.200527287817
2024-09-23 22:42:32.760179,42.42,57.599623,0.0006964318663124887,-0.02338022115155219,0.0973015264147526,40.106058693909645,-92.24360919585227,76.200527287817
2024-09-23 22:42:32.772284,42.42,57.599623,0.0006964318663124887,-0.02338022115155219,0.0973015264147526,48.12595698684454,-92.24360919585227,72.1922225099802
2024-09-23 22:42:32.815493,42.42,57.599716,0.0007959191899112484,-0.02263404056809607,0.09779897304849887,48.12595698684454,-92.24360919585227,72.1922225099802
2024-09-23 22:42:32.857670,42.42,57.599767,0.0004974468710863627,-0.02263404056809607,0.09779897304849887,48.12595698684454,-92.24360919585227,76.200527287817
2024-09-23 22:42:32.869604,42.42,57.599767,0.0004974468710863627,-0.023728432883788564,0.0976994861521123,40.106058693909645,-92.24360919585227,76.200527287817
2024-09-23 22:42:32.913545,42.42,57.599818,0.0007461703303635545,-0.023230986250042305,0.09715228999426605,40.106058693909645,-92.24360919585227,72.1922225099802
2024-09-23 22:42:32.955862,42.3,57.599818,0.0007461703303635545,-0.023230986250042305,0.09715228999426605,44.11764879391193,-96.25519929585457,72.1922225099802
2024-09-23 22:42:33.008706,42.3,57.599868,0.0006964318663124887,-0.02308174982955575,0.09740101331113918,40.106058693909645,-96.25519929585457,72.1922225099802
2024-09-23 22:42:33.053132,42.3,57.599919,0.0006964318663124887,-0.02308174982955575,0.09740101331113918,40.106058693909645,-88.23529758782387,80.21211738781929
2024-09-23 22:42:33.064930,42.3,57.599919,0.0011938787373988514,-0.02308174982955575,0.09740101331113918,40.106058693909645,-88.23529758782387,80.21211738781929
2024-09-23 22:42:33.107280,42.3,57.600008,0.0011938787373988514,-0.02278327698858263,0.0970030596496862,40.106058693909645,-96.25519929585457,76.200527287817
2024-09-23 22:42:33.149854,42.3,57.600008,0.0010943914612681128,-0.0228827638849692,0.09705279702197278,40.106058693909645,-96.25519929585457,76.200527287817
2024-09-23 22:42:33.160967,42.3,57.600008,0.0010943914612681128,-0.0228827638849692,0.09705279702197278,48.12595698684454,-88.23529758782387,80.21211738781929
2024-09-23 22:42:33.203252,42.3,57.600059,0.0006964318663124887,-0.02308174982955575,0.0973512698629459,44.11764879391193,-88.23529758782387,80.21211738781929
2024-09-23 22:42:33.246315,42.3,57.60011,0.0006964318663124887,-0.02308174982955575,0.0973512698629459,44.11764879391193,-88.23529758782387,72.1922225099802
2024-09-23 22:42:33.258268,42.3,57.60011,0.0011938787373988514,-0.022833026512682618,0.09789846602079214,40.106058693909645,-88.23529758782387,72.1922225099802
2024-09-23 22:42:33.301889,42.3,57.600203,0.0005969341946851222,-0.02278327698858263,0.09720203344245934,40.106058693909645,-92.24360919585227,76.200527287817
2024-09-23 22:42:33.344803,42.3,57.600203,0.0005969341946851222,-0.02278327698858263,0.09720203344245934,40.106058693909645,-92.24360919585227,72.1922225099802
2024-09-23 22:42:33.355816,42.3,57.600254,0.00029846189959424716,-0.02293251340906919,0.09720203344245934,40.106058693909645,-92.24360919585227,72.1922225099802
2024-09-23 22:42:33.398017,42.3,57.600305,0.00029846189959424716,-0.02293251340906919,0.09705279702197278,40.106058693909645,-84.22370748782159,72.1922225099802
2024-09-23 22:42:33.409917,42.3,57.600305,0.0007461703303635545,-0.02293251340906919,0.09705279702197278,40.106058693909645,-84.22370748782159,72.1922225099802
2024-09-23 22:42:33.442860,42.3,57.600305,0.0007461703303635545,-0.02308174982955575,0.09725178296655933,52.137550501942634,-84.22370748782159,72.1922225099802
2024-09-23 22:42:33.454473,42.3,57.600398,0.0007461703303635545,-0.02308174982955575,0.09725178296655933,52.137550501942634,-92.24360919585227,64.16903547978401
2024-09-23 22:42:33.497077,42.3,57.600398,0.0009948937421727254,-0.022733528983459317,0.09705279702197278,44.11764879391193,-96.25519929585457,76.200527287817
2024-09-23 22:42:33.540402,42.3,57.60045,0.0006466830067647949,-0.023330473146428877,0.09705279702197278,44.11764879391193,-96.25519929585457,76.200527287817
2024-09-23 22:42:33.552314,42.3,57.60045,0.0006466830067647949,-0.023330473146428877,0.09774922960030558,48.12595698684454,-100.26678939585686,76.200527287817
2024-09-23 22:42:33.594712,42.3,57.6005,0.0009948937421727254,-0.0228827638849692,0.09774922960030558,48.12595698684454,-100.26678939585686,76.200527287817
2024-09-23 22:42:33.636550,42.3,57.6005,0.0009948937421727254,-0.0228827638849692,0.0973512698629459,40.106058693909645,-100.26678939585686,76.200527287817
2024-09-23 22:42:33.647741,42.3,57.600551,0.0011441298778511575,-0.0228827638849692,0.0973512698629459,40.106058693909645,-100.26678939585686,76.200527287817
2024-09-23 22:42:33.691928,42.3,57.600602,0.0011441298778511575,-0.023280723622328886,0.0976994861521123,52.137550501942634,-100.26678939585686,68.18063240997792
2024-09-23 22:42:33.735411,42.3,57.600602,0.0006964318663124887,-0.023280723622328886,0.09725178296655933,52.137550501942634,-100.26678939585686,68.18063240997792
2024-09-23 22:42:33.746965,42.3,57.600602,0.0006964318663124887,-0.023280723622328886,0.09725178296655933,40.106058693909645,-92.24360919585227,72.1922225099802
2024-09-23 22:42:33.789723,42.3,57.600652,0.0013431148730772837,-0.02313149783467906,0.09740101331113918,40.106058693909645,-92.24360919585227,72.1922225099802
2024-09-23 22:42:33.832479,42.3,57.600739,0.0007959191899112484,-0.02313149783467906,0.09740101331113918,40.106058693909645,-92.24360919585227,76.200527287817
2024-09-23 22:42:33.843348,42.3,57.600739,0.0007959191899112484,-0.02303200030545576,0.09759999317981902,44.11764879391193,-92.24360919585227,76.200527287817
2024-09-23 22:42:33.885723,42.3,57.60079,0.0010943914612681128,-0.023429960042815445,0.09759999317981902,44.11764879391193,-96.25519929585457,76.200527287817
2024-09-23 22:42:33.897431,42.3,57.60079,0.0010943914612681128,-0.023429960042815445,0.0973512698629459,44.11764879391193,-96.25519929585457,76.200527287817
2024-09-23 22:42:33.930274,42.3,57.60079,0.0010943914612681128,-0.023429960042815445,0.0973512698629459,44.11764879391193,-88.23529758782387,80.21211738781929
2024-09-23 22:42:33.942175,42.3,57.600841,0.0007959191899112484,-0.023429960042815445,0.0973512698629459,44.11764879391193,-88.23529758782387,80.21211738781929
2024-09-23 22:42:33.984732,41.89,57.600892,0.000845657606494293,-0.023429960042815445,0.09759999317981902,44.11764879391193,-96.25519929585457,80.21211738781929
2024-09-23 22:42:34.028508,41.89,57.600892,0.000845657606494293,-0.0225345536717095,0.09715228999426605,48.12595698684454,-96.25519929585457,80.21211738781929
2024-09-23 22:42:34.040596,41.89,57.600983,0.000845657606494293,-0.0225345536717095,0.09715228999426605,48.12595698684454,-92.24360919585227,72.1922225099802
2024-09-23 22:42:34.072866,41.89,57.600983,0.0010943914612681128,-0.0225345536717095,0.09715228999426605,48.12595698684454,-92.24360919585227,72.1922225099802
2024-09-23 22:42:34.084630,41.89,57.600983,0.0010943914612681128,-0.023330473146428877,0.0976994861521123,40.106058693909645,-92.24360919585227,72.1922225099802
2024-09-23 22:42:34.127068,41.89,57.601034,0.0008954064660419869,-0.023280723622328886,0.0976994861521123,40.106058693909645,-92.24360919585227,76.200527287817
2024-09-23 22:42:34.179591,41.89,57.601085,0.0007959191899112484,-0.023280723622328886,0.09789846602079214,40.106058693909645,-92.24360919585227,76.200527287817
2024-09-23 22:42:34.222475,41.89,57.601085,0.0007959191899112484,-0.022733528983459317,0.09740101331113918,36.09446859390736,-92.24360919585227,76.200527287817
2024-09-23 22:42:34.233390,41.89,57.601135,0.0007959191899112484,-0.022733528983459317,0.09740101331113918,36.09446859390736,-84.22370748782159,80.21211738781929
2024-09-23 22:42:34.276061,41.89,57.601135,0.0006964318663124887,-0.02308174982955575,0.09750050628343246,44.11764879391193,-84.22370748782159,80.21211738781929
2024-09-23 22:42:34.319987,41.89,57.601186,0.0006964318663124887,-0.02308174982955575,0.09750050628343246,44.11764879391193,-84.22370748782159,80.21211738781929
2024-09-23 22:42:34.331895,41.89,57.601186,0.0006964318663124887,-0.02293251340906919,0.0970030596496862,44.11764879391193,-96.25519929585457,80.21211738781929
2024-09-23 22:42:34.374495,41.89,57.601237,0.0007959191899112484,-0.02313149783467906,0.09740101331113918,40.106058693909645,-96.25519929585457,80.21211738781929
2024-09-23 22:42:34.416261,41.89,57.601237,0.0007959191899112484,-0.02313149783467906,0.09740101331113918,40.106058693909645,-84.22370748782159,76.200527287817
2024-09-23 22:42:34.427891,41.89,57.601325,0.0004974468710863627,-0.02268379009219606,0.098047696365372,40.106058693909645,-84.22370748782159,76.200527287817
2024-09-23 22:42:34.470787,41.89,57.601376,0.0008954064660419869,-0.02303200030545576,0.098047696365372,44.11764879391193,-92.24360919585227,80.21211738781929
2024-09-23 22:42:34.513550,41.89,57.601376,0.0008954064660419869,-0.02303200030545576,0.09784872257259886,48.12595698684454,-92.24360919585227,80.21211738781929
2024-09-23 22:42:34.524887,41.89,57.601427,0.0008954064660419869,-0.02303200030545576,0.09784872257259886,48.12595698684454,-92.24360919585227,76.200527287817
2024-09-23 22:42:34.567521,41.89,57.601427,0.0008954064660419869,-0.0225345536717095,0.09745075675933246,44.11764879391193,-92.24360919585227,72.1922225099802
2024-09-23 22:42:34.579786,41.89,57.601519,0.0008954064660419869,-0.0225345536717095,0.09745075675933246,44.11764879391193,-92.24360919585227,72.1922225099802
2024-09-23 22:42:34.612920,41.89,57.601519,0.0007959191899112484,-0.023181236725942318,0.0973015264147526,44.11764879391193,-92.24360919585227,72.1922225099802
2024-09-23 22:42:34.624321,41.89,57.601519,0.0007959191899112484,-0.023181236725942318,0.0973015264147526,48.12595698684454,-88.23529758782387,76.200527287817
2024-09-23 22:42:34.667270,41.89,57.60157,0.0005471957306340564,-0.023479709566915436,0.09710254654607277,48.12595698684454,-96.25519929585457,76.200527287817
2024-09-23 22:42:34.709860,41.89,57.601621,0.001044642601720419,-0.023479709566915436,0.09710254654607277,48.12595698684454,-96.25519929585457,80.21211738781929
2024-09-23 22:42:34.722159,41.89,57.601621,0.001044642601720419,-0.02293251340906919,0.0973512698629459,48.12595698684454,-96.25519929585457,80.21211738781929
2024-09-23 22:42:34.764986,41.89,57.601672,0.0009451553255896806,-0.02268379009219606,0.0973015264147526,48.12595698684454,-84.22370748782159,76.200527287817
2024-09-23 22:42:34.807867,41.89,57.601672,0.0009451553255896806,-0.02268379009219606,0.0973015264147526,48.12595698684454,-88.23529758782387,72.1922225099802
2024-09-23 22:42:34.819515,41.89,57.601722,0.0010943914612681128,-0.022584292562972758,0.0973015264147526,48.12595698684454,-88.23529758782387,72.1922225099802
2024-09-23 22:42:34.862488,41.89,57.601773,0.0009451553255896806,-0.022584292562972758,0.09740101331113918,44.11764879391193,-92.24360919585227,68.18063240997792
2024-09-23 22:42:34.904726,41.89,57.601773,0.0009451553255896806,-0.023230986250042305,0.09720203344245934,44.11764879391193,-92.24360919585227,68.18063240997792
2024-09-23 22:42:34.917070,41.89,57.60186,0.0009451553255896806,-0.023230986250042305,0.09720203344245934,44.11764879391193,-100.26678939585686,76.200527287817
2024-09-23 22:42:34.959000,41.89,57.60186,0.0009948937421727254,-0.023330473146428877,0.09690356060148622,48.12595698684454,-88.23529758782387,76.200527287817
2024-09-23 22:42:35.002923,41.34,57.601912,0.0013431148730772837,-0.02278327698858263,0.09690356060148622,48.12595698684454,-88.23529758782387,76.200527287817
2024-09-23 22:42:35.014358,41.34,57.601912,0.0013431148730772837,-0.02278327698858263,0.09824668230995855,36.09446859390736,-96.25519929585457,76.200527287817
2024-09-23 22:42:35.056649,41.34,57.601962,0.0007461703303635545,-0.023479709566915436,0.09720203344245934,36.09446859390736,-96.25519929585457,76.200527287817
2024-09-23 22:42:35.098932,41.34,57.601962,0.0007461703303635545,-0.023479709566915436,0.09720203344245934,40.106058693909645,-92.24360919585227,76.200527287817
2024-09-23 22:42:35.110614,41.34,57.602013,0.00029846189959424716,-0.023479709566915436,0.09720203344245934,40.106058693909645,-92.24360919585227,76.200527287817
2024-09-23 22:42:35.154304,41.34,57.602064,0.00029846189959424716,-0.023330473146428877,0.09794820946898543,40.106058693909645,-88.23529758782387,84.22370748782159
2024-09-23 22:42:35.196175,41.34,57.602064,0.00034821073540793035,-0.022833026512682618,0.09794820946898543,40.106058693909645,-88.23529758782387,84.22370748782159
2024-09-23 22:42:35.207554,41.34,57.602064,0.00034821073540793035,-0.022833026512682618,0.09819693278585856,44.11764879391193,-88.23529758782387,80.21211738781929
2024-09-23 22:42:35.250734,41.34,57.602114,0.001044642601720419,-0.022833026512682618,0.09705279702197278,52.137550501942634,-96.25519929585457,80.21211738781929
2024-09-23 22:42:35.293291,41.34,57.602201,0.001044642601720419,-0.022833026512682618,0.09705279702197278,52.137550501942634,-96.25519929585457,68.18063240997792
2024-09-23 22:42:35.305355,41.34,57.602201,0.0011938787373988514,-0.02303200030545576,0.09750050628343246,44.11764879391193,-96.25519929585457,68.18063240997792
2024-09-23 22:42:35.347830,41.34,57.602253,0.0005471957306340564,-0.023429960042815445,0.09750050628343246,44.11764879391193,-96.25519929585457,76.200527287817
2024-09-23 22:42:35.360024,41.34,57.602253,0.0005471957306340564,-0.023429960042815445,0.09784872257259886,44.11764879391193,-96.25519929585457,76.200527287817
2024-09-23 22:42:35.392402,41.34,57.602253,0.0005471957306340564,-0.023429960042815445,0.09784872257259886,40.106058693909645,-88.23529758782387,72.1922225099802
2024-09-23 22:42:35.403413,41.34,57.602304,0.00014922575204880957,-0.022733528983459317,0.09784872257259886,40.106058693909645,-88.23529758782387,72.1922225099802
2024-09-23 22:42:35.446308,41.34,57.602354,0.0007461703303635545,-0.022733528983459317,0.0973015264147526,40.106058693909645,-92.24360919585227,80.21211738781929
2024-09-23 22:42:35.490353,41.34,57.602354,0.0007461703303635545,-0.0228827638849692,0.09740101331113918,40.106058693909645,-92.24360919585227,80.21211738781929
2024-09-23 22:42:35.544346,41.34,57.602445,0.000845657606494293,-0.02303200030545576,0.09745075675933246,40.106058693909645,-92.24360919585227,76.200527287817
2024-09-23 22:42:35.587863,41.34,57.602445,0.000845657606494293,-0.02303200030545576,0.09745075675933246,44.11764879391193,-92.24360919585227,72.1922225099802
2024-09-23 22:42:35.599467,41.34,57.602497,0.0011441298778511575,-0.023230986250042305,0.09745075675933246,44.11764879391193,-92.24360919585227,72.1922225099802
2024-09-23 22:42:35.644213,41.34,57.602547,0.0008954064660419869,-0.023230986250042305,0.09755024973162574,52.137550501942634,-92.24360919585227,76.200527287817
2024-09-23 22:42:35.686634,41.34,57.602547,0.0008954064660419869,-0.0224350561424862,0.09784872257259886,48.12595698684454,-92.24360919585227,76.200527287817
2024-09-23 22:42:35.698481,41.34,57.602598,0.0008954064660419869,-0.0224350561424862,0.09784872257259886,48.12595698684454,-92.24360919585227,76.200527287817
2024-09-23 22:42:35.731928,41.34,57.602598,0.0009948937421727254,-0.0224350561424862,0.09784872257259886,48.12595698684454,-92.24360919585227,76.200527287817
2024-09-23 22:42:35.744009,41.34,57.602598,0.0009948937421727254,-0.022982261414192504,0.09705279702197278,40.106058693909645,-92.24360919585227,76.200527287817
2024-09-23 22:42:35.787612,41.34,57.602689,0.0008954064660419869,-0.02338022115155219,0.0976994861521123,52.137550501942634,-92.24360919585227,76.200527287817
2024-09-23 22:42:35.830021,41.34,57.602741,0.0008954064660419869,-0.02338022115155219,0.0976994861521123,52.137550501942634,-92.24360919585227,76.200527287817
2024-09-23 22:42:35.841229,41.34,57.602741,0.0005969341946851222,-0.02263404056809607,0.0973015264147526,48.12595698684454,-92.24360919585227,76.200527287817
2024-09-23 22:42:35.884556,41.34,57.602791,0.0005969341946851222,-0.022833026512682618,0.0976994861521123,48.12595698684454,-80.21211738781929,80.21211738781929
2024-09-23 22:42:35.926872,41.34,57.602791,0.0005969341946851222,-0.022833026512682618,0.0976994861521123,48.12595698684454,-88.23529758782387,80.21211738781929
2024-09-23 22:42:35.938640,41.34,57.602842,0.0005969341946851222,-0.0225345536717095,0.0976994861521123,48.12595698684454,-88.23529758782387,76.200527287817
2024-09-23 22:42:35.980731,41.34,57.602893,0.0005969341946851222,-0.0225345536717095,0.09685382322919964,52.137550501942634,-88.23529758782387,72.1922225099802
2024-09-23 22:42:35.992904,41.34,57.602893,0.0012436275969465451,-0.0225345536717095,0.09685382322919964,52.137550501942634,-88.23529758782387,72.1922225099802
2024-09-23 22:42:36.077835,40.63,57.602893,0.0012436275969465451,-0.02293251340906919,0.09774922960030558,32.08287849390507,-92.24360919585227,72.1922225099802
2024-09-23 22:42:36.089369,40.63,57.602981,0.0012436275969465451,-0.02293251340906919,0.09774922960030558,32.08287849390507,-92.24360919585227,76.200527287817
2024-09-23 22:42:36.121575,40.63,57.602981,0.0011938787373988514,-0.02293251340906919,0.09774922960030558,32.08287849390507,-92.24360919585227,76.200527287817
2024-09-23 22:42:36.133125,40.63,57.602981,0.0011938787373988514,-0.02313149783467906,0.09755024973162574,44.11764879391193,-88.23529758782387,76.200527287817
2024-09-23 22:42:36.176437,40.63,57.603033,0.0005969341946851222,-0.0228827638849692,0.0973015264147526,44.11764879391193,-88.23529758782387,76.200527287817
2024-09-23 22:42:36.188750,40.63,57.603033,0.0005969341946851222,-0.0228827638849692,0.0973015264147526,44.11764879391193,-92.24360919585227,76.200527287817
2024-09-23 22:42:36.221355,40.63,57.603084,0.0005969341946851222,-0.0228827638849692,0.0973015264147526,44.11764879391193,-92.24360919585227,72.1922225099802
2024-09-23 22:42:36.233390,40.63,57.603084,0.0005969341946851222,-0.022982261414192504,0.09824668230995855,36.09446859390736,-92.24360919585227,72.1922225099802
2024-09-23 22:42:36.275946,40.63,57.603135,0.000845657606494293,-0.02278327698858263,0.09759999317981902,36.09446859390736,-92.24360919585227,72.1922225099802
2024-09-23 22:42:36.318864,40.63,57.603135,0.000845657606494293,-0.02278327698858263,0.09759999317981902,44.11764879391193,-96.25519929585457,80.21211738781929
2024-09-23 22:42:36.330240,40.63,57.603227,0.0004974468710863627,-0.02293251340906919,0.09759999317981902,44.11764879391193,-96.25519929585457,80.21211738781929
2024-09-23 22:42:36.373684,40.63,57.603278,0.0006466830067647949,-0.02293251340906919,0.0973512698629459,48.12595698684454,-88.23529758782387,80.21211738781929
2024-09-23 22:42:36.415722,40.63,57.603278,0.0006466830067647949,-0.023280723622328886,0.09764974270391902,48.12595698684454,-88.23529758782387,80.21211738781929
2024-09-23 22:42:36.427381,40.63,57.603371,0.0006466830067647949,-0.023280723622328886,0.09764974270391902,44.11764879391193,-92.24360919585227,80.21211738781929
2024-09-23 22:42:36.470184,40.63,57.603371,0.0009948937421727254,-0.0228827638849692,0.09720203344245934,44.11764879391193,-88.23529758782387,80.21211738781929
2024-09-23 22:42:36.513482,40.63,57.603423,0.001044642601720419,-0.022982261414192504,0.09720203344245934,44.11764879391193,-88.23529758782387,80.21211738781929
2024-09-23 22:42:36.525474,40.63,57.603423,0.001044642601720419,-0.022982261414192504,0.0970030596496862,40.106058693909645,-84.22370748782159,80.21211738781929
2024-09-23 22:42:36.567682,40.63,57.603474,0.0005969341946851222,-0.022833026512682618,0.09720203344245934,40.106058693909645,-84.22370748782159,80.21211738781929
2024-09-23 22:42:36.612035,40.63,57.603474,0.0005969341946851222,-0.022833026512682618,0.09720203344245934,40.106058693909645,-96.25519929585457,68.18063240997792
2024-09-23 22:42:36.623468,40.63,57.603524,0.0011938787373988514,-0.023230986250042305,0.09864464204731824,40.106058693909645,-96.25519929585457,68.18063240997792
2024-09-23 22:42:36.666376,40.63,57.603575,0.0005471957306340564,-0.0225345536717095,0.09864464204731824,40.106058693909645,-96.25519929585457,72.1922225099802
2024-09-23 22:42:36.709894,40.63,57.603575,0.0005471957306340564,-0.0225345536717095,0.09829641968224512,52.137550501942634,-96.25519929585457,72.1922225099802
2024-09-23 22:42:36.721113,40.63,57.603626,0.0007461703303635545,-0.0225345536717095,0.09829641968224512,52.137550501942634,-96.25519929585457,72.1922225099802
2024-09-23 22:42:36.764578,40.63,57.603713,0.0007461703303635545,-0.02338022115155219,0.09745075675933246,44.11764879391193,-96.25519929585457,68.18063240997792
2024-09-23 22:42:36.807815,40.63,57.603713,0.0009948937421727254,-0.023429960042815445,0.09745075675933246,48.12595698684454,-96.25519929585457,68.18063240997792
2024-09-23 22:42:36.819493,40.63,57.603713,0.0009948937421727254,-0.023429960042815445,0.09745075675933246,48.12595698684454,-92.24360919585227,68.18063240997792
2024-09-23 22:42:36.851944,40.63,57.603765,0.0009948937421727254,-0.023429960042815445,0.09745075675933246,48.12595698684454,-92.24360919585227,68.18063240997792
2024-09-23 22:42:36.864213,40.63,57.603765,0.000845657606494293,-0.02313149783467906,0.09755024973162574,48.12595698684454,-84.22370748782159,68.18063240997792
2024-09-23 22:42:36.906466,40.63,57.603815,0.0009451553255896806,-0.02308174982955575,0.09755024973162574,48.12595698684454,-84.22370748782159,68.18063240997792
2024-09-23 22:42:36.918987,40.63,57.603815,0.0009451553255896806,-0.02308174982955575,0.09715228999426605,48.12595698684454,-84.22370748782159,68.18063240997792
2024-09-23 22:42:36.951912,40.63,57.603815,0.0009451553255896806,-0.02308174982955575,0.09715228999426605,48.12595698684454,-96.25519929585457,72.1922225099802
2024-09-23 22:42:36.963218,40.63,57.603866,0.0009948937421727254,-0.023280723622328886,0.0976994861521123,48.12595698684454,-96.25519929585457,72.1922225099802
2024-09-23 22:42:37.006776,40.63,57.603917,0.0006964318663124887,-0.02313149783467906,0.0976994861521123,36.09446859390736,-92.24360919585227,76.200527287817
2024-09-23 22:42:37.100188,40.56,57.603917,0.0006964318663124887,-0.02313149783467906,0.09774922960030558,44.11764879391193,-96.25519929585457,76.200527287817
2024-09-23 22:42:37.112049,40.56,57.603967,0.00029846189959424716,-0.02313149783467906,0.09774922960030558,44.11764879391193,-96.25519929585457,76.200527287817
2024-09-23 22:42:37.145789,40.56,57.603967,0.00029846189959424716,-0.022733528983459317,0.09774922960030558,44.11764879391193,-96.25519929585457,76.200527287817
2024-09-23 22:42:37.157377,40.56,57.604054,0.00029846189959424716,-0.022733528983459317,0.0973512698629459,48.12595698684454,-88.23529758782387,76.200527287817
2024-09-23 22:42:37.199172,40.56,57.604054,0.000845657606494293,-0.02268379009219606,0.09725178296655933,48.12595698684454,-88.23529758782387,76.200527287817
2024-09-23 22:42:37.210818,40.56,57.604054,0.000845657606494293,-0.02268379009219606,0.09725178296655933,48.12595698684454,-96.25519929585457,76.200527287817
2024-09-23 22:42:37.244282,40.56,57.604105,0.000845657606494293,-0.02268379009219606,0.09725178296655933,48.12595698684454,-96.25519929585457,76.200527287817
2024-09-23 22:42:37.255915,40.56,57.604105,0.000845657606494293,-0.023181236725942318,0.09755024973162574,44.11764879391193,-96.25519929585457,76.200527287817
2024-09-23 22:42:37.298392,40.56,57.604156,0.00034821073540793035,-0.02308174982955575,0.0973512698629459,40.106058693909645,-96.25519929585457,80.21211738781929
2024-09-23 22:42:37.341033,40.56,57.604156,0.00034821073540793035,-0.02308174982955575,0.0973512698629459,40.106058693909645,-88.23529758782387,76.200527287817
2024-09-23 22:42:37.352760,40.56,57.604251,0.000845657606494293,-0.02228583035483637,0.0970030596496862,40.106058693909645,-88.23529758782387,76.200527287817
2024-09-23 22:42:37.395949,40.56,57.604301,0.0008954064660419869,-0.02228583035483637,0.0970030596496862,32.08287849390507,-88.23529758782387,76.200527287817
2024-09-23 22:42:37.407620,40.56,57.604301,0.0008954064660419869,-0.022733528983459317,0.0970030596496862,32.08287849390507,-88.23529758782387,76.200527287817
2024-09-23 22:42:37.439223,40.56,57.604301,0.0008954064660419869,-0.022733528983459317,0.09764974270391902,44.11764879391193,-88.23529758782387,76.200527287817
2024-09-23 22:42:37.450539,40.56,57.604352,0.0007461703303635545,-0.022733528983459317,0.09764974270391902,44.11764879391193,-96.25519929585457,76.200527287817
2024-09-23 22:42:37.494078,40.56,57.604444,0.0007461703303635545,-0.023728432883788564,0.09755024973162574,52.137550501942634,-92.24360919585227,76.200527287817
2024-09-23 22:42:37.537168,40.56,57.604444,0.0010943914612681128,-0.022733528983459317,0.09774922960030558,52.137550501942634,-92.24360919585227,76.200527287817
2024-09-23 22:42:37.548273,40.56,57.604444,0.0010943914612681128,-0.022733528983459317,0.09774922960030558,44.11764879391193,-96.25519929585457,76.200527287817
2024-09-23 22:42:37.590046,40.56,57.604496,0.0005969341946851222,-0.022733528983459317,0.09755024973162574,44.11764879391193,-96.25519929585457,76.200527287817
2024-09-23 22:42:37.602057,40.56,57.604496,0.0005969341946851222,-0.022733528983459317,0.09755024973162574,44.11764879391193,-88.23529758782387,76.200527287817
2024-09-23 22:42:37.635597,40.56,57.604546,0.000845657606494293,-0.022733528983459317,0.09755024973162574,44.11764879391193,-88.23529758782387,68.18063240997792
2024-09-23 22:42:37.647042,40.56,57.604546,0.000845657606494293,-0.02308174982955575,0.0973015264147526,44.11764879391193,-88.23529758782387,68.18063240997792
2024-09-23 22:42:37.682670,40.56,57.604546,0.000845657606494293,-0.02308174982955575,0.0973015264147526,44.11764879391193,-92.24360919585227,76.200527287817
2024-09-23 22:42:37.694492,40.56,57.604597,0.001044642601720419,-0.023579196463302005,0.09710254654607277,44.11764879391193,-92.24360919585227,76.200527287817
2024-09-23 22:42:37.738025,40.56,57.604648,0.000845657606494293,-0.0228827638849692,0.09710254654607277,40.106058693909645,-92.24360919585227,80.21211738781929
2024-09-23 22:42:37.779888,40.56,57.604648,0.000845657606494293,-0.0228827638849692,0.09710254654607277,40.106058693909645,-92.24360919585227,80.21211738781929
2024-09-23 22:42:37.791258,40.56,57.604698,0.0009451553255896806,-0.0228827638849692,0.09710254654607277,40.106058693909645,-88.23529758782387,84.22370748782159
2024-09-23 22:42:37.833293,40.56,57.604698,0.0009451553255896806,-0.02313149783467906,0.09759999317981902,44.11764879391193,-92.24360919585227,76.200527287817
2024-09-23 22:42:37.845570,40.56,57.604785,0.0009451553255896806,-0.02313149783467906,0.09759999317981902,44.11764879391193,-92.24360919585227,76.200527287817
2024-09-23 22:42:37.877866,40.56,57.604785,0.00034821073540793035,-0.023330473146428877,0.09759999317981902,44.11764879391193,-92.24360919585227,76.200527287817
2024-09-23 22:42:37.889129,40.56,57.604785,0.00034821073540793035,-0.023330473146428877,0.0976994861521123,44.11764879391193,-88.23529758782387,76.200527287817
2024-09-23 22:42:37.931256,40.56,57.604837,0.0007461703303635545,-0.02303200030545576,0.09705279702197278,52.137550501942634,-88.23529758782387,76.200527287817
2024-09-23 22:42:37.974865,40.56,57.604837,0.0007461703303635545,-0.02303200030545576,0.09705279702197278,52.137550501942634,-88.23529758782387,80.21211738781929
2024-09-23 22:42:37.986585,40.56,57.604887,0.0010943914612681128,-0.023230986250042305,0.09725178296655933,52.137550501942634,-88.23529758782387,80.21211738781929
2024-09-23 22:42:38.029685,40.56,57.604938,0.0006466830067647949,-0.023230986250042305,0.09725178296655933,44.11764879391193,-92.24360919585227,76.200527287817
2024-09-23 22:42:38.041335,40.56,57.604938,0.0006466830067647949,-0.023579196463302005,0.09725178296655933,44.11764879391193,-92.24360919585227,76.200527287817
2024-09-23 22:42:38.125833,40.56,57.604989,0.0006466830067647949,-0.023579196463302005,0.09764974270391902,52.137550501942634,-92.24360919585227,76.200527287817
2024-09-23 22:42:38.137880,40.56,57.604989,0.0007461703303635545,-0.023579196463302005,0.09764974270391902,52.137550501942634,-92.24360919585227,76.200527287817
2024-09-23 22:42:38.170577,40.56,57.604989,0.0007461703303635545,-0.023230986250042305,0.09695331012558621,52.137550501942634,-92.24360919585227,76.200527287817
2024-09-23 22:42:38.181854,40.56,57.605039,0.0007461703303635545,-0.023230986250042305,0.09695331012558621,52.137550501942634,-100.26678939585686,76.200527287817
2024-09-23 22:42:38.224105,40.56,57.605039,0.0007461703303635545,-0.02268379009219606,0.09715228999426605,40.106058693909645,-88.23529758782387,76.200527287817
2024-09-23 22:42:38.235986,40.56,57.605039,0.0007461703303635545,-0.02268379009219606,0.09715228999426605,40.106058693909645,-88.23529758782387,76.200527287817
2024-09-23 22:42:38.267790,40.56,57.605127,0.000845657606494293,-0.02268379009219606,0.09715228999426605,40.106058693909645,-88.23529758782387,76.200527287817
2024-09-23 22:42:38.279366,40.56,57.605127,0.000845657606494293,-0.023429960042815445,0.09745075675933246,52.137550501942634,-92.24360919585227,76.200527287817
2024-09-23 22:42:38.322455,40.56,57.605178,0.0005471957306340564,-0.02293251340906919,0.09774922960030558,44.11764879391193,-92.24360919585227,76.200527287817
2024-09-23 22:42:38.364998,40.56,57.605178,0.0005471957306340564,-0.02293251340906919,0.09774922960030558,44.11764879391193,-92.24360919585227,80.21211738781929
2024-09-23 22:42:38.381879,40.56,57.605274,0.0009451553255896806,-0.023230986250042305,0.09779897304849887,44.11764879391193,-92.24360919585227,80.21211738781929
2024-09-23 22:42:38.414070,40.56,57.605274,0.0009451553255896806,-0.023230986250042305,0.09779897304849887,44.11764879391193,-88.23529758782387,80.21211738781929
2024-09-23 22:42:38.425947,40.56,57.605325,0.001044642601720419,-0.02293251340906919,0.09779897304849887,44.11764879391193,-88.23529758782387,72.1922225099802
2024-09-23 22:42:38.468497,40.56,57.605376,0.0011938787373988514,-0.02293251340906919,0.09784872257259886,44.11764879391193,-88.23529758782387,76.200527287817
2024-09-23 22:42:38.510848,40.56,57.605376,0.0011938787373988514,-0.02268379009219606,0.09755024973162574,44.11764879391193,-88.23529758782387,76.200527287817
2024-09-23 22:42:38.522089,40.56,57.605468,0.0011938787373988514,-0.02268379009219606,0.09755024973162574,48.12595698684454,-92.24360919585227,76.200527287817
2024-09-23 22:42:38.563809,40.56,57.605468,0.0010943914612681128,-0.02278327698858263,0.09755024973162574,52.137550501942634,-92.24360919585227,76.200527287817
2024-09-23 22:42:38.575171,40.56,57.605468,0.0010943914612681128,-0.02278327698858263,0.09755024973162574,52.137550501942634,-88.23529758782387,80.21211738781929
2024-09-23 22:42:38.608055,40.56,57.605519,0.0010943914612681128,-0.02278327698858263,0.09755024973162574,52.137550501942634,-88.23529758782387,80.21211738781929
2024-09-23 22:42:38.619984,40.56,57.605519,0.0007959191899112484,-0.023280723622328886,0.09680407370509965,40.106058693909645,-96.25519929585457,80.21211738781929
2024-09-23 22:42:38.662422,40.56,57.60557,0.0009451553255896806,-0.02268379009219606,0.09680407370509965,40.106058693909645,-96.25519929585457,68.18063240997792
2024-09-23 22:42:38.674262,40.56,57.60557,0.0009451553255896806,-0.02268379009219606,0.09774922960030558,40.106058693909645,-96.25519929585457,68.18063240997792
2024-09-23 22:42:38.706442,40.56,57.60557,0.0009451553255896806,-0.02268379009219606,0.09774922960030558,40.106058693909645,-96.25519929585457,72.1922225099802
2024-09-23 22:42:38.718267,40.56,57.605621,0.0003979595949556242,-0.02367869399252531,0.09745075675933246,40.106058693909645,-96.25519929585457,72.1922225099802
2024-09-23 22:42:38.761017,40.56,57.605671,0.0016415871444341481,-0.02367869399252531,0.09745075675933246,32.08287849390507,-100.26678939585686,76.200527287817
2024-09-23 22:42:38.772732,40.56,57.605671,0.0016415871444341481,-0.0228827638849692,0.09745075675933246,32.08287849390507,-100.26678939585686,76.200527287817
2024-09-23 22:42:38.804501,40.56,57.605671,0.0016415871444341481,-0.0228827638849692,0.09710254654607277,48.12595698684454,-92.24360919585227,76.200527287817
2024-09-23 22:42:38.815938,40.56,57.605722,0.0008954064660419869,-0.0228827638849692,0.09710254654607277,48.12595698684454,-92.24360919585227,68.18063240997792
2024-09-23 22:42:38.858383,40.56,57.605809,0.0008954064660419869,-0.023230986250042305,0.098047696365372,44.11764879391193,-96.25519929585457,76.200527287817
2024-09-23 22:42:38.900337,40.56,57.605809,0.0011441298778511575,-0.02268379009219606,0.098047696365372,44.11764879391193,-96.25519929585457,76.200527287817
2024-09-23 22:42:38.912075,40.56,57.605809,0.0011441298778511575,-0.02268379009219606,0.09720203344245934,44.11764879391193,-100.26678939585686,80.21211738781929
2024-09-23 22:42:38.954187,40.56,57.60586,0.0009948937421727254,-0.02308174982955575,0.0973015264147526,40.106058693909645,-100.26678939585686,80.21211738781929
2024-09-23 22:42:38.966215,40.56,57.60586,0.0009948937421727254,-0.02308174982955575,0.0973015264147526,40.106058693909645,-92.24360919585227,80.21211738781929
2024-09-23 22:42:38.998491,40.56,57.605911,0.0009948937421727254,-0.02308174982955575,0.0973015264147526,40.106058693909645,-92.24360919585227,80.21211738781929
2024-09-23 22:42:39.009461,40.56,57.605911,0.0004974468710863627,-0.02278327698858263,0.09645586349183995,48.12595698684454,-92.24360919585227,80.21211738781929
2024-09-23 22:42:39.051489,40.56,57.605962,0.0009948937421727254,-0.02352945757203875,0.09645586349183995,48.12595698684454,-88.23529758782387,76.200527287817
2024-09-23 22:42:39.063562,40.56,57.605962,0.0009948937421727254,-0.02352945757203875,0.09799795899308542,48.12595698684454,-88.23529758782387,76.200527287817
2024-09-23 22:42:39.096613,40.56,57.605962,0.0009948937421727254,-0.02352945757203875,0.09799795899308542,44.11764879391193,-92.24360919585227,76.200527287817
2024-09-23 22:42:39.107804,40.56,57.606012,0.0006964318663124887,-0.02338022115155219,0.09799795899308542,44.11764879391193,-92.24360919585227,72.1922225099802
2024-09-23 22:42:39.149562,41.22,57.606063,0.0006964318663124887,-0.02338022115155219,0.09715228999426605,44.11764879391193,-96.25519929585457,72.1922225099802
2024-09-23 22:42:39.161250,41.22,57.606063,0.0009948937421727254,-0.02338022115155219,0.09715228999426605,44.11764879391193,-96.25519929585457,72.1922225099802
2024-09-23 22:42:39.193339,41.22,57.606063,0.0009948937421727254,-0.023280723622328886,0.09715228999426605,44.11764879391193,-96.25519929585457,72.1922225099802
2024-09-23 22:42:39.246547,41.22,57.606063,0.0009948937421727254,-0.023280723622328886,0.09720203344245934,40.106058693909645,-92.24360919585227,76.200527287817
2024-09-23 22:42:39.258039,41.22,57.60615,0.0007959191899112484,-0.023280723622328886,0.09720203344245934,40.106058693909645,-92.24360919585227,76.200527287817
2024-09-23 22:42:39.290651,41.22,57.60615,0.0007959191899112484,-0.022833026512682618,0.09720203344245934,40.106058693909645,-92.24360919585227,76.200527287817
2024-09-23 22:42:39.302405,41.22,57.606202,0.0007959191899112484,-0.022833026512682618,0.0976994861521123,40.106058693909645,-92.24360919585227,76.200527287817
2024-09-23 22:42:39.346465,41.22,57.606202,0.0008954064660419869,-0.02308174982955575,0.09779897304849887,48.12595698684454,-88.23529758782387,80.21211738781929
2024-09-23 22:42:39.389833,41.22,57.606252,0.00044769805900669,-0.022584292562972758,0.09779897304849887,48.12595698684454,-88.23529758782387,80.21211738781929
2024-09-23 22:42:39.401028,41.22,57.606252,0.00044769805900669,-0.022584292562972758,0.09779897304849887,44.11764879391193,-88.23529758782387,80.21211738781929
2024-09-23 22:42:39.444108,41.22,57.606303,0.0007959191899112484,-0.023330473146428877,0.09725178296655933,40.106058693909645,-88.23529758782387,76.200527287817
2024-09-23 22:42:39.487406,41.22,57.606396,0.0007959191899112484,-0.023330473146428877,0.09725178296655933,40.106058693909645,-88.23529758782387,76.200527287817
2024-09-23 22:42:39.498395,41.22,57.606396,0.0012933660135295898,-0.023230986250042305,0.09720203344245934,40.106058693909645,-88.23529758782387,76.200527287817
2024-09-23 22:42:39.541654,41.22,57.606446,0.0011441298778511575,-0.02278327698858263,0.09720203344245934,48.12595698684454,-92.24360919585227,76.200527287817
2024-09-23 22:42:39.584487,41.22,57.606446,0.0011441298778511575,-0.02278327698858263,0.09705279702197278,48.12595698684454,-92.24360919585227,76.200527287817
2024-09-23 22:42:39.596671,41.22,57.606497,0.0006466830067647949,-0.02278327698858263,0.09705279702197278,48.12595698684454,-96.25519929585457,76.200527287817
2024-09-23 22:42:39.639292,41.22,57.606589,0.0006466830067647949,-0.022833026512682618,0.09715228999426605,48.12595698684454,-96.25519929585457,76.200527287817
2024-09-23 22:42:39.681472,41.22,57.606589,0.0008954064660419869,-0.022733528983459317,0.09715228999426605,48.12595698684454,-96.25519929585457,76.200527287817
2024-09-23 22:42:39.693000,41.22,57.606589,0.0008954064660419869,-0.022733528983459317,0.09725178296655933,52.137550501942634,-96.25519929585457,80.21211738781929
2024-09-23 22:42:39.735752,41.22,57.60664,0.000845657606494293,-0.02308174982955575,0.09705279702197278,36.09446859390736,-88.23529758782387,80.21211738781929
2024-09-23 22:42:39.778986,41.22,57.606691,0.000845657606494293,-0.02308174982955575,0.09705279702197278,36.09446859390736,-88.23529758782387,76.200527287817
2024-09-23 22:42:39.790217,41.22,57.606691,0.0007959191899112484,-0.02268379009219606,0.0973015264147526,40.106058693909645,-88.23529758782387,76.200527287817
2024-09-23 22:42:39.832021,41.22,57.606742,0.001044642601720419,-0.023181236725942318,0.0973015264147526,40.106058693909645,-92.24360919585227,76.200527287817
2024-09-23 22:42:39.843902,41.22,57.606742,0.001044642601720419,-0.023181236725942318,0.09759999317981902,40.106058693909645,-92.24360919585227,76.200527287817
2024-09-23 22:42:39.875908,41.22,57.606742,0.001044642601720419,-0.023181236725942318,0.09759999317981902,40.106058693909645,-92.24360919585227,76.200527287817
2024-09-23 22:42:39.887537,41.22,57.606792,0.0009948937421727254,-0.0228827638849692,0.09759999317981902,40.106058693909645,-92.24360919585227,76.200527287817
2024-09-23 22:42:39.929472,41.22,57.606843,0.0009948937421727254,-0.0228827638849692,0.0973015264147526,44.11764879391193,-96.25519929585457,68.18063240997792
2024-09-23 22:42:39.941334,41.22,57.606843,0.0011441298778511575,-0.0228827638849692,0.0973015264147526,44.11764879391193,-96.25519929585457,68.18063240997792
2024-09-23 22:42:39.973804,41.22,57.606843,0.0011441298778511575,-0.02303200030545576,0.09779897304849887,44.11764879391193,-96.25519929585457,68.18063240997792
2024-09-23 22:42:39.985134,41.22,57.60693,0.0011441298778511575,-0.02303200030545576,0.09779897304849887,36.09446859390736,-96.25519929585457,76.200527287817
2024-09-23 22:42:40.028827,41.22,57.60693,0.0010943914612681128,-0.023579196463302005,0.0973512698629459,36.09446859390736,-96.25519929585457,76.200527287817
2024-09-23 22:42:40.040322,41.22,57.60693,0.0010943914612681128,-0.023579196463302005,0.0973512698629459,36.09446859390736,-96.25519929585457,80.21211738781929
2024-09-23 22:42:40.072223,41.22,57.606982,0.0012933660135295898,-0.023181236725942318,0.0973512698629459,36.09446859390736,-96.25519929585457,80.21211738781929
2024-09-23 22:42:40.084327,41.22,57.606982,0.0012933660135295898,-0.023181236725942318,0.09725178296655933,44.11764879391193,-92.24360919585227,80.21211738781929
2024-09-23 22:42:40.127401,41.22,57.607032,0.0004974468710863627,-0.02303200030545576,0.09819693278585856,40.106058693909645,-92.24360919585227,76.200527287817
2024-09-23 22:42:40.170433,41.23,57.607083,0.0004974468710863627,-0.02303200030545576,0.09819693278585856,40.106058693909645,-92.24360919585227,76.200527287817
2024-09-23 22:42:40.182085,41.23,57.607083,0.0006964318663124887,-0.02313149783467906,0.09690356060148622,40.106058693909645,-92.24360919585227,76.200527287817
2024-09-23 22:42:40.225704,41.23,57.607134,0.0011938787373988514,-0.0228827638849692,0.09690356060148622,40.106058693909645,-96.25519929585457,76.200527287817
2024-09-23 22:42:40.267743,41.23,57.607134,0.0011938787373988514,-0.0228827638849692,0.09740101331113918,40.106058693909645,-92.24360919585227,76.200527287817
2024-09-23 22:42:40.279319,41.23,57.607184,0.000845657606494293,-0.0228827638849692,0.09740101331113918,40.106058693909645,-92.24360919585227,76.200527287817
2024-09-23 22:42:40.322248,41.23,57.607272,0.000845657606494293,-0.023181236725942318,0.09774922960030558,40.106058693909645,-88.23529758782387,72.1922225099802
2024-09-23 22:42:40.365625,41.23,57.607272,0.0009948937421727254,-0.022584292562972758,0.09695331012558621,40.106058693909645,-88.23529758782387,72.1922225099802
2024-09-23 22:42:40.377076,41.23,57.607272,0.0009948937421727254,-0.022584292562972758,0.09695331012558621,44.11764879391193,-88.23529758782387,80.21211738781929
2024-09-23 22:42:40.419328,41.23,57.607323,0.0012436275969465451,-0.022584292562972758,0.09759999317981902,44.11764879391193,-92.24360919585227,80.21211738781929
2024-09-23 22:42:40.461092,41.23,57.607374,0.0012436275969465451,-0.022584292562972758,0.09759999317981902,44.11764879391193,-92.24360919585227,76.200527287817
2024-09-23 22:42:40.472616,41.23,57.607374,0.000845657606494293,-0.02268379009219606,0.09799795899308542,40.106058693909645,-92.24360919585227,76.200527287817
2024-09-23 22:42:40.515334,41.23,57.607425,0.0010943914612681128,-0.022236080830736384,0.09799795899308542,40.106058693909645,-92.24360919585227,80.21211738781929
2024-09-23 22:42:40.527242,41.23,57.607425,0.0010943914612681128,-0.022236080830736384,0.0976994861521123,40.106058693909645,-92.24360919585227,80.21211738781929
2024-09-23 22:42:40.559522,41.23,57.607425,0.0010943914612681128,-0.022236080830736384,0.0976994861521123,44.11764879391193,-96.25519929585457,80.21211738781929
2024-09-23 22:42:40.571327,41.23,57.607425,0.0010943914612681128,-0.022236080830736384,0.0976994861521123,44.11764879391193,-96.25519929585457,76.200527287817
2024-09-23 22:42:40.614577,41.23,57.607475,0.0011441298778511575,-0.02293251340906919,0.0976994861521123,36.09446859390736,-96.25519929585457,76.200527287817
2024-09-23 22:42:40.658557,41.23,57.607526,0.0009948937421727254,-0.02293251340906919,0.0976994861521123,36.09446859390736,-96.25519929585457,76.200527287817
2024-09-23 22:42:40.669948,41.23,57.607526,0.0009948937421727254,-0.02303200030545576,0.09774922960030558,48.12595698684454,-96.25519929585457,76.200527287817
2024-09-23 22:42:40.753653,41.23,57.607526,0.0009948937421727254,-0.02303200030545576,0.09774922960030558,48.12595698684454,-92.24360919585227,76.200527287817
2024-09-23 22:42:40.765958,41.23,57.607613,0.0006466830067647949,-0.02313149783467906,0.09759999317981902,48.12595698684454,-92.24360919585227,76.200527287817
2024-09-23 22:42:40.809740,41.23,57.607664,0.0012436275969465451,-0.02313149783467906,0.09759999317981902,44.11764879391193,-88.23529758782387,76.200527287817
2024-09-23 22:42:40.853096,41.23,57.607664,0.0012436275969465451,-0.02313149783467906,0.09784872257259886,44.11764879391193,-92.24360919585227,76.200527287817
2024-09-23 22:42:40.864731,41.23,57.607715,0.00024872343554318134,-0.02313149783467906,0.09784872257259886,44.11764879391193,-92.24360919585227,76.200527287817
2024-09-23 22:42:40.908065,41.23,57.607808,0.00024872343554318134,-0.02278327698858263,0.09695331012558621,32.08287849390507,-88.23529758782387,72.1922225099802
2024-09-23 22:42:40.950841,41.23,57.607808,0.0008954064660419869,-0.02308174982955575,0.09789846602079214,32.08287849390507,-88.23529758782387,72.1922225099802
2024-09-23 22:42:40.961915,41.23,57.607808,0.0008954064660419869,-0.02308174982955575,0.09789846602079214,40.106058693909645,-88.23529758782387,76.200527287817
2024-09-23 22:42:41.004564,41.23,57.607906,0.0006466830067647949,-0.0228827638849692,0.09774922960030558,48.12595698684454,-96.25519929585457,76.200527287817
2024-09-23 22:42:41.047925,41.23,57.607957,0.0006466830067647949,-0.0228827638849692,0.09774922960030558,48.12595698684454,-96.25519929585457,76.200527287817
2024-09-23 22:42:41.059206,41.23,57.607957,0.0008954064660419869,-0.023181236725942318,0.09745075675933246,40.106058693909645,-96.25519929585457,76.200527287817
2024-09-23 22:42:41.102167,41.23,57.608008,0.0008954064660419869,-0.022733528983459317,0.09755024973162574,40.106058693909645,-88.23529758782387,72.1922225099802
2024-09-23 22:42:41.147124,41.23,57.608008,0.0008954064660419869,-0.022733528983459317,0.09755024973162574,44.11764879391193,-96.25519929585457,76.200527287817
2024-09-23 22:42:41.159185,41.23,57.608058,0.0013431148730772837,-0.02313149783467906,0.09755024973162574,44.11764879391193,-96.25519929585457,76.200527287817
2024-09-23 22:42:41.191895,40.85,57.608058,0.0013431148730772837,-0.02313149783467906,0.0970030596496862,44.11764879391193,-96.25519929585457,76.200527287817
2024-09-23 22:42:41.203739,40.85,57.608109,0.0013431148730772837,-0.02313149783467906,0.0970030596496862,40.106058693909645,-96.25519929585457,72.1922225099802
2024-09-23 22:42:41.245859,40.85,57.608109,0.0006466830067647949,-0.023579196463302005,0.09745075675933246,40.106058693909645,-88.23529758782387,72.1922225099802
2024-09-23 22:42:41.257608,40.85,57.608109,0.0006466830067647949,-0.023579196463302005,0.09745075675933246,40.106058693909645,-88.23529758782387,76.200527287817
2024-09-23 22:42:41.290406,40.85,57.608198,0.0006466830067647949,-0.023579196463302005,0.09745075675933246,40.106058693909645,-88.23529758782387,76.200527287817
2024-09-23 22:42:41.301824,40.85,57.608198,0.0006466830067647949,-0.022733528983459317,0.0973512698629459,40.106058693909645,-92.24360919585227,76.200527287817
2024-09-23 22:42:41.343990,40.85,57.608249,0.0007959191899112484,-0.02263404056809607,0.0976994861521123,40.106058693909645,-92.24360919585227,76.200527287817
2024-09-23 22:42:41.356029,40.85,57.608249,0.0007959191899112484,-0.02263404056809607,0.0976994861521123,40.106058693909645,-92.24360919585227,76.200527287817
2024-09-23 22:42:41.388877,40.85,57.608249,0.0007959191899112484,-0.02263404056809607,0.0976994861521123,40.106058693909645,-88.23529758782387,76.200527287817
2024-09-23 22:42:41.400880,40.85,57.6083,0.0010943914612681128,-0.02268379009219606,0.0973015264147526,40.106058693909645,-88.23529758782387,76.200527287817
2024-09-23 22:42:41.443704,40.85,57.608351,0.0009451553255896806,-0.022982261414192504,0.0973015264147526,44.11764879391193,-88.23529758782387,72.1922225099802
2024-09-23 22:42:41.486539,40.85,57.608351,0.0009451553255896806,-0.022982261414192504,0.09720203344245934,44.11764879391193,-96.25519929585457,72.1922225099802
2024-09-23 22:42:41.497436,40.85,57.608401,0.0010943914612681128,-0.022982261414192504,0.09720203344245934,44.11764879391193,-96.25519929585457,72.1922225099802
2024-09-23 22:42:41.540710,40.85,57.60849,0.0010943914612681128,-0.022982261414192504,0.09705279702197278,48.12595698684454,-96.25519929585457,76.200527287817
2024-09-23 22:42:41.583344,40.85,57.60849,0.0007461703303635545,-0.02278327698858263,0.09740101331113918,48.12595698684454,-96.25519929585457,76.200527287817
2024-09-23 22:42:41.594356,40.85,57.60849,0.0007461703303635545,-0.02278327698858263,0.09740101331113918,48.12595698684454,-100.26678939585686,76.200527287817
2024-09-23 22:42:41.636464,40.85,57.608542,0.0009451553255896806,-0.02303200030545576,0.09794820946898543,48.12595698684454,-100.26678939585686,76.200527287817
2024-09-23 22:42:41.649226,40.85,57.608542,0.0009451553255896806,-0.02303200030545576,0.09794820946898543,48.12595698684454,-92.24360919585227,76.200527287817
2024-09-23 22:42:41.681794,40.85,57.608592,0.0006466830067647949,-0.02303200030545576,0.09794820946898543,48.12595698684454,-92.24360919585227,80.21211738781929
2024-09-23 22:42:41.693135,40.85,57.608592,0.0006466830067647949,-0.022733528983459317,0.09745075675933246,44.11764879391193,-92.24360919585227,80.21211738781929
2024-09-23 22:42:41.735772,40.85,57.608643,0.0006466830067647949,-0.02263404056809607,0.09705279702197278,44.11764879391193,-96.25519929585457,72.1922225099802
2024-09-23 22:42:41.778400,40.85,57.608643,0.0006466830067647949,-0.02263404056809607,0.09705279702197278,44.11764879391193,-96.25519929585457,72.1922225099802
2024-09-23 22:42:41.790536,40.85,57.608694,0.0004974468710863627,-0.0228827638849692,0.09705279702197278,44.11764879391193,-96.25519929585457,72.1922225099802
2024-09-23 22:42:41.833187,40.85,57.608744,0.000845657606494293,-0.0228827638849692,0.09779897304849887,40.106058693909645,-96.25519929585457,72.1922225099802
2024-09-23 22:42:41.875520,40.85,57.608744,0.000845657606494293,-0.02308174982955575,0.09779897304849887,40.106058693909645,-96.25519929585457,72.1922225099802
2024-09-23 22:42:41.928009,40.85,57.608831,0.000845657606494293,-0.02308174982955575,0.0973015264147526,44.11764879391193,-96.25519929585457,80.21211738781929
2024-09-23 22:42:41.940285,40.85,57.608831,0.0011441298778511575,-0.02308174982955575,0.0973015264147526,44.11764879391193,-96.25519929585457,80.21211738781929
2024-09-23 22:42:41.972610,40.85,57.608831,0.0011441298778511575,-0.02268379009219606,0.0973512698629459,44.11764879391193,-96.25519929585457,80.21211738781929
2024-09-23 22:42:41.983926,40.85,57.608883,0.0011441298778511575,-0.02268379009219606,0.0973512698629459,40.106058693909645,-88.23529758782387,80.21211738781929
2024-09-23 22:42:42.026323,40.85,57.608883,0.000845657606494293,-0.022833026512682618,0.0973512698629459,40.106058693909645,-88.23529758782387,80.21211738781929
2024-09-23 22:42:42.038399,40.85,57.608883,0.000845657606494293,-0.022833026512682618,0.0973512698629459,40.106058693909645,-88.23529758782387,80.21211738781929
2024-09-23 22:42:42.071856,40.85,57.608934,0.0005969341946851222,-0.022733528983459317,0.0973512698629459,40.106058693909645,-88.23529758782387,80.21211738781929
2024-09-23 22:42:42.083312,40.85,57.608934,0.0005969341946851222,-0.022733528983459317,0.09740101331113918,40.106058693909645,-92.24360919585227,80.21211738781929
2024-09-23 22:42:42.126284,40.85,57.608984,0.00034821073540793035,-0.02313149783467906,0.0970030596496862,52.137550501942634,-92.24360919585227,76.200527287817
2024-09-23 22:42:42.169695,40.85,57.609077,0.00034821073540793035,-0.02313149783467906,0.0970030596496862,52.137550501942634,-92.24360919585227,76.200527287817
2024-09-23 22:42:42.180972,40.85,57.609077,0.0007461703303635545,-0.0228827638849692,0.09710254654607277,52.137550501942634,-92.24360919585227,76.200527287817
2024-09-23 22:42:42.224478,41.23,57.609128,0.00044769805900669,-0.0228827638849692,0.09710254654607277,48.12595698684454,-92.24360919585227,72.1922225099802
2024-09-23 22:42:42.266702,41.23,57.609128,0.00044769805900669,-0.0228827638849692,0.0976994861521123,48.12595698684454,-92.24360919585227,72.1922225099802
2024-09-23 22:42:42.278101,41.23,57.609178,0.0011938787373988514,-0.0228827638849692,0.0976994861521123,48.12595698684454,-92.24360919585227,76.200527287817
2024-09-23 22:42:42.320969,41.23,57.60927,0.0011938787373988514,-0.022982261414192504,0.09705279702197278,44.11764879391193,-88.23529758782387,68.18063240997792
2024-09-23 22:42:42.364075,41.23,57.60927,0.0012436275969465451,-0.022833026512682618,0.0973015264147526,44.11764879391193,-88.23529758782387,68.18063240997792
2024-09-23 22:42:42.375922,41.23,57.60927,0.0012436275969465451,-0.022833026512682618,0.0973015264147526,36.09446859390736,-92.24360919585227,76.200527287817
2024-09-23 22:42:42.419701,41.23,57.609322,0.0006964318663124887,-0.023230986250042305,0.09789846602079214,44.11764879391193,-92.24360919585227,76.200527287817
2024-09-23 22:42:42.462617,41.23,57.609372,0.0011938787373988514,-0.023230986250042305,0.09789846602079214,44.11764879391193,-92.24360919585227,68.18063240997792
2024-09-23 22:42:42.474485,41.23,57.609372,0.0011938787373988514,-0.023330473146428877,0.0973015264147526,44.11764879391193,-92.24360919585227,68.18063240997792
2024-09-23 22:42:42.506245,41.23,57.609372,0.0011938787373988514,-0.023330473146428877,0.0973015264147526,44.11764879391193,-104.27510100388527,68.18063240997792
2024-09-23 22:42:42.558465,41.23,57.609423,0.0007959191899112484,-0.023330473146428877,0.0973015264147526,44.11764879391193,-104.27510100388527,68.18063240997792
2024-09-23 22:42:42.569884,41.23,57.609423,0.0007959191899112484,-0.02278327698858263,0.09784872257259886,40.106058693909645,-104.27510100388527,68.18063240997792
2024-09-23 22:42:42.613394,41.23,57.609474,0.0006964318663124887,-0.02268379009219606,0.09750050628343246,40.106058693909645,-100.26678939585686,64.16903547978401
2024-09-23 22:42:42.656687,41.23,57.609474,0.0006964318663124887,-0.02268379009219606,0.09750050628343246,48.12595698684454,-88.23529758782387,72.1922225099802
2024-09-23 22:42:42.668258,41.23,57.609524,0.0009451553255896806,-0.0225345536717095,0.09750050628343246,48.12595698684454,-88.23529758782387,72.1922225099802
2024-09-23 22:42:42.711770,41.23,57.609611,0.0005969341946851222,-0.0225345536717095,0.0973512698629459,44.11764879391193,-92.24360919585227,72.1922225099802
2024-09-23 22:42:42.754436,41.23,57.609611,0.0005969341946851222,-0.023181236725942318,0.0973015264147526,52.137550501942634,-92.24360919585227,72.1922225099802
2024-09-23 22:42:42.765546,41.23,57.609709,0.0005969341946851222,-0.023181236725942318,0.0973015264147526,52.137550501942634,-92.24360919585227,76.200527287817
2024-09-23 22:42:42.807682,41.23,57.609709,0.0005471957306340564,-0.022982261414192504,0.09745075675933246,44.11764879391193,-92.24360919585227,76.200527287817
2024-09-23 22:42:42.850849,41.23,57.60976,0.0007461703303635545,-0.02303200030545576,0.09745075675933246,44.11764879391193,-92.24360919585227,76.200527287817
2024-09-23 22:42:42.862026,41.23,57.60976,0.0007461703303635545,-0.02303200030545576,0.09710254654607277,40.106058693909645,-88.23529758782387,76.200527287817
2024-09-23 22:42:42.903740,41.23,57.609811,0.0007959191899112484,-0.02313149783467906,0.09764974270391902,40.106058693909645,-88.23529758782387,72.1922225099802
2024-09-23 22:42:42.915901,41.23,57.609811,0.0007959191899112484,-0.02313149783467906,0.09764974270391902,32.08287849390507,-88.23529758782387,72.1922225099802
2024-09-23 22:42:42.949606,41.23,57.609862,0.0007959191899112484,-0.02313149783467906,0.09764974270391902,32.08287849390507,-80.21211738781929,72.1922225099802
2024-09-23 22:42:42.960711,41.23,57.609862,0.0005471957306340564,-0.023181236725942318,0.09844565610273168,32.08287849390507,-80.21211738781929,72.1922225099802
2024-09-23 22:42:43.003283,41.23,57.609912,0.0007959191899112484,-0.0228827638849692,0.09844565610273168,44.11764879391193,-88.23529758782387,76.200527287817
2024-09-23 22:42:43.045228,41.23,57.609912,0.0007959191899112484,-0.0228827638849692,0.09750050628343246,52.137550501942634,-88.23529758782387,76.200527287817
2024-09-23 22:42:43.057247,41.23,57.609963,0.00044769805900669,-0.0228827638849692,0.09750050628343246,52.137550501942634,-100.26678939585686,72.1922225099802
2024-09-23 22:42:43.100451,41.23,57.61005,0.00044769805900669,-0.02313149783467906,0.09755024973162574,40.106058693909645,-100.26678939585686,80.21211738781929
2024-09-23 22:42:43.142773,41.23,57.61005,9.948729986474904e-05,-0.023429960042815445,0.09755024973162574,40.106058693909645,-100.26678939585686,80.21211738781929
2024-09-23 22:42:43.154010,41.23,57.61005,9.948729986474904e-05,-0.023429960042815445,0.09665483728461309,40.106058693909645,-92.24360919585227,76.200527287817
2024-09-23 22:42:43.196901,41.23,57.610102,0.000845657606494293,-0.02228583035483637,0.09710254654607277,40.106058693909645,-92.24360919585227,76.200527287817
2024-09-23 22:42:43.208688,41.23,57.610102,0.000845657606494293,-0.02228583035483637,0.09710254654607277,40.106058693909645,-92.24360919585227,76.200527287817
2024-09-23 22:42:43.241759,41.14,57.610152,0.0012436275969465451,-0.02228583035483637,0.09710254654607277,40.106058693909645,-92.24360919585227,80.21211738781929
2024-09-23 22:42:43.253214,41.14,57.610152,0.0012436275969465451,-0.023181236725942318,0.09784872257259886,52.137550501942634,-92.24360919585227,80.21211738781929
2024-09-23 22:42:43.295893,41.14,57.610203,0.0007461703303635545,-0.02278327698858263,0.0973015264147526,52.137550501942634,-84.22370748782159,76.200527287817
2024-09-23 22:42:43.339183,41.14,57.610203,0.0007461703303635545,-0.02278327698858263,0.0973015264147526,56.14914060194492,-84.22370748782159,76.200527287817
2024-09-23 22:42:43.350777,41.14,57.610254,0.0004974468710863627,-0.0228827638849692,0.0973015264147526,56.14914060194492,-84.22370748782159,76.200527287817
2024-09-23 22:42:43.392959,41.14,57.610304,0.0001989745997294981,-0.0228827638849692,0.0976994861521123,52.137550501942634,-96.25519929585457,72.1922225099802
2024-09-23 22:42:43.436408,41.14,57.610304,0.0001989745997294981,-0.02278327698858263,0.09814718933766527,40.106058693909645,-96.25519929585457,72.1922225099802
2024-09-23 22:42:43.449377,41.14,57.610391,0.0001989745997294981,-0.02278327698858263,0.09814718933766527,40.106058693909645,-92.24360919585227,72.1922225099802
2024-09-23 22:42:43.481261,41.14,57.610391,0.0009948937421727254,-0.02278327698858263,0.09814718933766527,40.106058693909645,-92.24360919585227,72.1922225099802
2024-09-23 22:42:43.492326,41.14,57.610391,0.0009948937421727254,-0.023280723622328886,0.0976994861521123,40.106058693909645,-92.24360919585227,72.1922225099802
2024-09-23 22:42:43.534387,41.14,57.610391,0.0009948937421727254,-0.023280723622328886,0.0976994861521123,44.11764879391193,-100.26678939585686,72.1922225099802
2024-09-23 22:42:43.546009,41.14,57.610443,0.0008954064660419869,-0.02338022115155219,0.0976994861521123,44.11764879391193,-100.26678939585686,72.1922225099802
2024-09-23 22:42:43.589803,41.14,57.610494,0.00034821073540793035,-0.02338022115155219,0.09715228999426605,40.106058693909645,-96.25519929585457,80.21211738781929
2024-09-23 22:42:43.632359,41.14,57.610494,0.00034821073540793035,-0.02352945757203875,0.09799795899308542,44.11764879391193,-92.24360919585227,80.21211738781929
2024-09-23 22:42:43.644012,41.14,57.610544,0.00034821073540793035,-0.02352945757203875,0.09799795899308542,44.11764879391193,-92.24360919585227,76.200527287817
2024-09-23 22:42:43.686943,41.14,57.610544,0.0007959191899112484,-0.022982261414192504,0.09819693278585856,36.09446859390736,-88.23529758782387,76.200527287817
2024-09-23 22:42:43.730659,41.14,57.610595,0.001044642601720419,-0.02228583035483637,0.09819693278585856,36.09446859390736,-88.23529758782387,76.200527287817
2024-09-23 22:42:43.742080,41.14,57.610595,0.001044642601720419,-0.02228583035483637,0.09755024973162574,48.12595698684454,-92.24360919585227,76.200527287817
2024-09-23 22:42:43.774467,41.14,57.610595,0.001044642601720419,-0.02228583035483637,0.09755024973162574,48.12595698684454,-92.24360919585227,72.1922225099802
2024-09-23 22:42:43.785556,41.14,57.610685,0.0009451553255896806,-0.023330473146428877,0.09720203344245934,48.12595698684454,-92.24360919585227,72.1922225099802
2024-09-23 22:42:43.827874,41.14,57.610685,0.0009451553255896806,-0.023330473146428877,0.09720203344245934,44.11764879391193,-92.24360919585227,72.1922225099802
2024-09-23 22:42:43.880884,41.14,57.610736,0.0005969341946851222,-0.02303200030545576,0.09745075675933246,44.11764879391193,-100.26678939585686,72.1922225099802
2024-09-23 22:42:43.923892,41.14,57.610736,0.0005969341946851222,-0.02303200030545576,0.09745075675933246,40.106058693909645,-100.26678939585686,72.1922225099802
2024-09-23 22:42:43.935604,41.14,57.610787,0.0013431148730772837,-0.022584292562972758,0.09745075675933246,40.106058693909645,-100.26678939585686,72.1922225099802
2024-09-23 22:42:43.979146,41.14,57.610837,0.0011938787373988514,-0.022584292562972758,0.09695331012558621,36.09446859390736,-92.24360919585227,80.21211738781929
2024-09-23 22:42:44.021606,41.14,57.610837,0.0011938787373988514,-0.02278327698858263,0.09764974270391902,44.11764879391193,-92.24360919585227,80.21211738781929
2024-09-23 22:42:44.033086,41.14,57.610928,0.0011938787373988514,-0.02278327698858263,0.09764974270391902,44.11764879391193,-96.25519929585457,72.1922225099802
2024-09-23 22:42:44.075961,41.14,57.610928,0.0010943914612681128,-0.023479709566915436,0.09740101331113918,44.11764879391193,-88.23529758782387,72.1922225099802
2024-09-23 22:42:44.119170,41.14,57.611026,0.001044642601720419,-0.023280723622328886,0.09740101331113918,44.11764879391193,-88.23529758782387,72.1922225099802
2024-09-23 22:42:44.130632,41.14,57.611026,0.001044642601720419,-0.023280723622328886,0.0970030596496862,44.11764879391193,-100.26678939585686,72.1922225099802
2024-09-23 22:42:44.173408,41.14,57.611077,0.0009451553255896806,-0.02218633282561307,0.09764974270391902,52.137550501942634,-100.26678939585686,68.18063240997792
2024-09-23 22:42:44.215454,41.14,57.611077,0.0009451553255896806,-0.02218633282561307,0.09764974270391902,52.137550501942634,-96.25519929585457,72.1922225099802
2024-09-23 22:42:44.227251,41.14,57.611128,0.0006466830067647949,-0.023479709566915436,0.09779897304849887,52.137550501942634,-96.25519929585457,72.1922225099802
2024-09-23 22:42:44.270524,41.14,57.611178,0.0003979595949556242,-0.02303200030545576,0.09779897304849887,36.09446859390736,-88.23529758782387,76.200527287817
2024-09-23 22:42:44.312683,41.14,57.611178,0.0003979595949556242,-0.02303200030545576,0.09759999317981902,44.11764879391193,-88.23529758782387,76.200527287817
2024-09-23 22:42:44.324572,41.14,57.611229,0.0004974468710863627,-0.02303200030545576,0.09759999317981902,44.11764879391193,-96.25519929585457,80.21211738781929
2024-09-23 22:42:44.368358,41.14,57.611318,0.0004974468710863627,-0.023280723622328886,0.0976994861521123,40.106058693909645,-88.23529758782387,76.200527287817
2024-09-23 22:42:44.410849,41.14,57.611318,0.0010943914612681128,-0.02313149783467906,0.0976994861521123,40.106058693909645,-88.23529758782387,76.200527287817
2024-09-23 22:42:44.422437,41.14,57.611318,0.0010943914612681128,-0.02313149783467906,0.0973015264147526,48.12595698684454,-92.24360919585227,72.1922225099802
2024-09-23 22:42:44.464688,41.14,57.611369,0.0009451553255896806,-0.02338022115155219,0.0973015264147526,48.12595698684454,-92.24360919585227,72.1922225099802
2024-09-23 22:42:44.507218,41.14,57.611369,0.0009451553255896806,-0.02338022115155219,0.0973015264147526,48.12595698684454,-92.24360919585227,72.1922225099802
2024-09-23 22:42:44.518591,41.14,57.61142,0.00029846189959424716,-0.02338022115155219,0.0973015264147526,48.12595698684454,-92.24360919585227,72.1922225099802
2024-09-23 22:42:44.560404,41.14,57.61142,0.00029846189959424716,-0.023479709566915436,0.09715228999426605,44.11764879391193,-96.25519929585457,80.21211738781929
2024-09-23 22:42:44.571955,41.14,57.611471,0.00029846189959424716,-0.023479709566915436,0.09715228999426605,44.11764879391193,-96.25519929585457,80.21211738781929
2024-09-23 22:42:44.604310,41.14,57.611471,0.0007461703303635545,-0.02228583035483637,0.09715228999426605,44.11764879391193,-96.25519929585457,80.21211738781929
2024-09-23 22:42:44.616029,41.14,57.611471,0.0007461703303635545,-0.02228583035483637,0.09705279702197278,48.12595698684454,-88.23529758782387,76.200527287817
2024-09-23 22:42:44.659232,41.14,57.611521,0.0009948937421727254,-0.02338022115155219,0.0973015264147526,48.12595698684454,-88.23529758782387,76.200527287817
2024-09-23 22:42:44.671600,41.14,57.611521,0.0009948937421727254,-0.02338022115155219,0.0973015264147526,48.12595698684454,-88.23529758782387,76.200527287817
2024-09-23 22:42:44.704270,41.14,57.611572,0.0008954064660419869,-0.02338022115155219,0.0973015264147526,48.12595698684454,-88.23529758782387,80.21211738781929
2024-09-23 22:42:44.716122,41.14,57.611572,0.0008954064660419869,-0.02293251340906919,0.09710254654607277,48.12595698684454,-88.23529758782387,80.21211738781929
2024-09-23 22:42:44.759213,41.14,57.611661,0.0006466830067647949,-0.02308174982955575,0.09799795899308542,48.12595698684454,-92.24360919585227,76.200527287817
2024-09-23 22:42:44.801323,41.14,57.611661,0.0006466830067647949,-0.02308174982955575,0.09799795899308542,44.11764879391193,-96.25519929585457,76.200527287817
2024-09-23 22:42:44.813006,41.14,57.611711,0.0005471957306340564,-0.02278327698858263,0.09799795899308542,44.11764879391193,-96.25519929585457,76.200527287817
