Ayaan's Suite
Timestamp,Sample Rate (Hz),Time,Ax,Ay,Az,Gx,Gy,Gz
2024-09-23 16:05:17.795199,0,33.764173,-0.0028852147413806935,-0.023181236725942318,0.0973015264147526,56.14914060194492,-104.27510100388527,80.21211738781929
2024-09-23 16:05:17.828416,0,33.764223,-0.0028852147413806935,-0.023181236725942318,0.0973015264147526,56.14914060194492,-104.27510100388527,80.21211738781929
2024-09-23 16:05:17.839752,0,33.764223,-0.002437506429281439,-0.022833026512682618,0.0973015264147526,40.106058693909645,-104.27510100388527,80.21211738781929
2024-09-23 16:05:17.882036,0,33.764274,-0.0027359787006383035,-0.02308174982955575,0.0973015264147526,40.106058693909645,-92.24360919585227,84.22370748782159
2024-09-23 16:05:17.893905,0,33.764274,-0.0027359787006383035,-0.02308174982955575,0.09670458680871308,40.106058693909645,-92.24360919585227,84.22370748782159
2024-09-23 16:05:17.926544,0,33.764274,-0.0027359787006383035,-0.02308174982955575,0.09670458680871308,32.08287849390507,-96.25519929585457,84.22370748782159
2024-09-23 16:05:17.938354,0,33.764325,-0.0031836870127375577,-0.02293251340906919,0.09670458680871308,32.08287849390507,-96.25519929585457,88.23529758782387
2024-09-23 16:05:17.980892,0,33.764375,-0.0032831742888682963,-0.02293251340906919,0.09705279702197278,32.08287849390507,-100.26678939585686,80.21211738781929
2024-09-23 16:05:18.023443,0,33.764375,-0.0032831742888682963,-0.02367869399252531,0.09745075675933246,32.08287849390507,-100.26678939585686,80.21211738781929
2024-09-23 16:05:18.035449,0,33.764462,-0.0032831742888682963,-0.02367869399252531,0.09745075675933246,32.08287849390507,-96.25519929585457,80.21211738781929
2024-09-23 16:05:18.078138,0,33.764462,-0.0030841997366068195,-0.022733528983459317,0.0973015264147526,36.09446859390736,-104.27510100388527,72.1922225099802
2024-09-23 16:05:18.120961,0,33.764514,-0.0029349636958644295,-0.022733528983459317,0.0973015264147526,36.09446859390736,-104.27510100388527,72.1922225099802
2024-09-23 16:05:18.132887,0,33.764514,-0.0029349636958644295,-0.02352945757203875,0.09710254654607277,36.09446859390736,-100.26678939585686,72.1922225099802
2024-09-23 16:05:18.176202,0,33.764565,-0.0031339382481259063,-0.023827930413011865,0.098047696365372,36.09446859390736,-100.26678939585686,76.200527287817
2024-09-23 16:05:18.187764,0,33.764565,-0.0031339382481259063,-0.023827930413011865,0.098047696365372,24.06297849342227,-100.26678939585686,76.200527287817
2024-09-23 16:05:18.219143,0,33.764565,-0.0031339382481259063,-0.023827930413011865,0.098047696365372,24.06297849342227,-104.27510100388527,80.21211738781929
2024-09-23 16:05:18.230446,0,33.764615,-0.0029847020175114316,-0.023330473146428877,0.09755024973162574,24.06297849342227,-104.27510100388527,80.21211738781929
2024-09-23 16:05:18.272138,0,33.764666,-0.0030344509719951677,-0.023330473146428877,0.09755024973162574,32.08287849390507,-96.25519929585457,80.21211738781929
2024-09-23 16:05:18.284443,0,33.764666,-0.0030344509719951677,-0.023181236725942318,0.09755024973162574,32.08287849390507,-96.25519929585457,80.21211738781929
2024-09-23 16:05:18.318640,0,33.764666,-0.0030344509719951677,-0.023181236725942318,0.09695331012558621,40.106058693909645,-96.25519929585457,80.21211738781929
2024-09-23 16:05:18.330102,0,33.764717,-0.0035318979854855937,-0.023181236725942318,0.09695331012558621,40.106058693909645,-96.25519929585457,76.200527287817
2024-09-23 16:05:18.363706,0,33.764717,-0.0035318979854855937,-0.023330473146428877,0.09695331012558621,40.106058693909645,-96.25519929585457,76.200527287817
2024-09-23 16:05:18.375892,0,33.764804,-0.0035318979854855937,-0.023330473146428877,0.09759999317981902,44.11764879391193,-92.24360919585227,88.23529758782387
2024-09-23 16:05:18.419023,0,33.764804,-0.0033329230534799477,-0.02278327698858263,0.09774922960030558,40.106058693909645,-100.26678939585686,76.200527287817
2024-09-23 16:05:18.461867,0,33.764856,-0.003382661564999035,-0.02278327698858263,0.09774922960030558,40.106058693909645,-100.26678939585686,76.200527287817
2024-09-23 16:05:18.473353,0,33.764856,-0.003382661564999035,-0.02303200030545576,0.09799795899308542,48.12595698684454,-92.24360919585227,76.200527287817
2024-09-23 16:05:18.516130,0,33.764906,-0.002586742470023829,-0.02338022115155219,0.0973512698629459,48.12595698684454,-92.24360919585227,76.200527287817
2024-09-23 16:05:18.528341,0,33.764906,-0.002586742470023829,-0.02338022115155219,0.0973512698629459,48.12595698684454,-92.24360919585227,76.200527287817
2024-09-23 16:05:18.561573,0,33.764957,-0.002586742470023829,-0.02338022115155219,0.0973512698629459,48.12595698684454,-88.23529758782387,80.21211738781929
2024-09-23 16:05:18.572870,0,33.764957,-0.0029847020175114316,-0.02308174982955575,0.09655535038822652,48.12595698684454,-88.23529758782387,80.21211738781929
2024-09-23 16:05:18.615960,0,33.765008,-0.0028852147413806935,-0.02308174982955575,0.09655535038822652,40.106058693909645,-96.25519929585457,80.21211738781929
2024-09-23 16:05:18.658389,0,33.765008,-0.0028852147413806935,-0.023230986250042305,0.09665483728461309,32.08287849390507,-96.25519929585457,80.21211738781929
2024-09-23 16:05:18.670501,0,33.765059,-0.0028852147413806935,-0.023230986250042305,0.09665483728461309,32.08287849390507,-96.25519929585457,76.200527287817
2024-09-23 16:05:18.713055,0,33.765059,-0.0032831742888682963,-0.023429960042815445,0.09715228999426605,32.08287849390507,-100.26678939585686,76.200527287817
2024-09-23 16:05:18.755468,0,33.765145,-0.0032831742888682963,-0.023429960042815445,0.09715228999426605,32.08287849390507,-100.26678939585686,76.200527287817
2024-09-23 16:05:18.808406,42.93,33.765145,-0.0025369937054121774,-0.02338022115155219,0.09690356060148622,40.106058693909645,-96.25519929585457,76.200527287817
2024-09-23 16:05:18.820643,42.93,33.765145,-0.0025369937054121774,-0.02338022115155219,0.09690356060148622,40.106058693909645,-96.25519929585457,76.200527287817
2024-09-23 16:05:18.854650,42.93,33.765197,-0.002785727465249955,-0.022982261414192504,0.09690356060148622,40.106058693909645,-96.25519929585457,76.200527287817
2024-09-23 16:05:18.866164,42.93,33.765197,-0.002785727465249955,-0.022982261414192504,0.09755024973162574,40.106058693909645,-92.24360919585227,76.200527287817
2024-09-23 16:05:18.908805,42.93,33.765247,-0.003382661564999035,-0.02338022115155219,0.09710254654607277,48.12595698684454,-92.24360919585227,76.200527287817
2024-09-23 16:05:18.951428,42.93,33.765298,-0.003382661564999035,-0.02338022115155219,0.09710254654607277,48.12595698684454,-96.25519929585457,80.21211738781929
2024-09-23 16:05:18.962685,42.93,33.765298,-0.002785727465249955,-0.02338022115155219,0.09695331012558621,48.12595698684454,-96.25519929585457,80.21211738781929
2024-09-23 16:05:19.004698,42.93,33.765349,-0.0029349636958644295,-0.023181236725942318,0.09695331012558621,44.11764879391193,-96.25519929585457,80.21211738781929
2024-09-23 16:05:19.046596,42.93,33.765349,-0.0029349636958644295,-0.023181236725942318,0.0970030596496862,32.08287849390507,-96.25519929585457,80.21211738781929
2024-09-23 16:05:19.058254,42.93,33.76544,-0.0025369937054121774,-0.023181236725942318,0.0970030596496862,32.08287849390507,-100.26678939585686,80.21211738781929
2024-09-23 16:05:19.100717,42.93,33.76544,-0.0025369937054121774,-0.022833026512682618,0.09690356060148622,28.07457030097246,-100.26678939585686,80.21211738781929
2024-09-23 16:05:19.112327,42.93,33.765535,-0.0025369937054121774,-0.022833026512682618,0.09690356060148622,28.07457030097246,-100.26678939585686,80.21211738781929
2024-09-23 16:05:19.144617,42.93,33.765535,-0.0029349636958644295,-0.0228827638849692,0.09690356060148622,28.07457030097246,-100.26678939585686,80.21211738781929
2024-09-23 16:05:19.156074,42.93,33.765535,-0.0029349636958644295,-0.0228827638849692,0.0973015264147526,40.106058693909645,-92.24360919585227,84.22370748782159
2024-09-23 16:05:19.198794,42.93,33.765587,-0.0032831742888682963,-0.02278327698858263,0.09740101331113918,48.12595698684454,-92.24360919585227,84.22370748782159
2024-09-23 16:05:19.210536,42.93,33.765587,-0.0032831742888682963,-0.02278327698858263,0.09740101331113918,48.12595698684454,-92.24360919585227,84.22370748782159
2024-09-23 16:05:19.294917,42.93,33.765638,-0.0029847020175114316,-0.023280723622328886,0.0973015264147526,48.12595698684454,-92.24360919585227,80.21211738781929
2024-09-23 16:05:19.306878,42.93,33.765638,-0.0029847020175114316,-0.023280723622328886,0.0973015264147526,40.106058693909645,-92.24360919585227,80.21211738781929
2024-09-23 16:05:19.338900,42.93,33.765638,-0.0029847020175114316,-0.023280723622328886,0.0973015264147526,40.106058693909645,-92.24360919585227,80.21211738781929
2024-09-23 16:05:19.349984,42.93,33.765689,-0.0027359787006383035,-0.02313149783467906,0.09725178296655933,40.106058693909645,-92.24360919585227,80.21211738781929
2024-09-23 16:05:19.393009,42.93,33.765739,-0.0031836870127375577,-0.02313149783467906,0.09725178296655933,44.11764879391193,-100.26678939585686,80.21211738781929
2024-09-23 16:05:19.405167,42.93,33.765739,-0.0031836870127375577,-0.023230986250042305,0.09725178296655933,44.11764879391193,-100.26678939585686,80.21211738781929
2024-09-23 16:05:19.438210,42.93,33.765739,-0.0031836870127375577,-0.023230986250042305,0.09610764112676684,36.09446859390736,-100.26678939585686,80.21211738781929
2024-09-23 16:05:19.449983,42.93,33.76579,-0.0028852147413806935,-0.023230986250042305,0.09610764112676684,36.09446859390736,-96.25519929585457,80.21211738781929
2024-09-23 16:05:19.492400,42.93,33.76579,-0.0028852147413806935,-0.023429960042815445,0.09705279702197278,20.05138839341998,-100.26678939585686,80.21211738781929
2024-09-23 16:05:19.503784,42.93,33.765876,-0.0028852147413806935,-0.023429960042815445,0.09705279702197278,20.05138839341998,-100.26678939585686,80.21211738781929
2024-09-23 16:05:19.535704,42.93,33.765876,-0.0034324103296106863,-0.023429960042815445,0.09685382322919964,20.05138839341998,-100.26678939585686,80.21211738781929
2024-09-23 16:05:19.547096,42.93,33.765876,-0.0034324103296106863,-0.023429960042815445,0.09685382322919964,36.09446859390736,-92.24360919585227,84.22370748782159
2024-09-23 16:05:19.590453,42.93,33.765974,-0.002387757474797703,-0.023280723622328886,0.09690356060148622,44.11764879391193,-96.25519929585457,84.22370748782159
2024-09-23 16:05:19.633904,42.93,33.766026,-0.0031836870127375577,-0.023280723622328886,0.09690356060148622,44.11764879391193,-96.25519929585457,84.22370748782159
2024-09-23 16:05:19.645588,42.93,33.766026,-0.0031836870127375577,-0.023728432883788564,0.09665483728461309,40.106058693909645,-96.25519929585457,84.22370748782159
2024-09-23 16:05:19.688260,42.93,33.766076,-0.0033329230534799477,-0.023330473146428877,0.09690356060148622,40.106058693909645,-104.27510100388527,80.21211738781929
2024-09-23 16:05:19.732878,42.93,33.766127,-0.0033329230534799477,-0.023330473146428877,0.09690356060148622,28.07457030097246,-96.25519929585457,84.22370748782159
2024-09-23 16:05:19.744749,42.93,33.766127,-0.003631395514708897,-0.02338022115155219,0.09690356060148622,28.07457030097246,-96.25519929585457,84.22370748782159
2024-09-23 16:05:19.776494,42.93,33.766127,-0.003631395514708897,-0.02338022115155219,0.09680407370509965,28.07457030097246,-96.25519929585457,84.22370748782159
2024-09-23 16:05:19.788647,42.93,33.766178,-0.0034324103296106863,-0.02338022115155219,0.09680407370509965,32.08287849390507,-92.24360919585227,80.21211738781929
2024-09-23 16:05:19.831105,43.47,33.766178,-0.0034324103296106863,-0.02303200030545576,0.09680407370509965,40.106058693909645,-96.25519929585457,76.200527287817
2024-09-23 16:05:19.873388,43.47,33.766266,-0.0034324103296106863,-0.02303200030545576,0.09680407370509965,40.106058693909645,-96.25519929585457,76.200527287817
2024-09-23 16:05:19.885465,43.47,33.766266,-0.0030344509719951677,-0.022982261414192504,0.09715228999426605,40.106058693909645,-96.25519929585457,76.200527287817
2024-09-23 16:05:19.927926,43.47,33.766318,-0.0031339382481259063,-0.023230986250042305,0.09715228999426605,40.106058693909645,-96.25519929585457,84.22370748782159
2024-09-23 16:05:19.939890,43.47,33.766318,-0.0031339382481259063,-0.023230986250042305,0.09695331012558621,40.106058693909645,-96.25519929585457,84.22370748782159
2024-09-23 16:05:19.971600,43.47,33.766318,-0.0031339382481259063,-0.023230986250042305,0.09695331012558621,32.08287849390507,-96.25519929585457,84.22370748782159
2024-09-23 16:05:19.983232,43.47,33.766369,-0.0028852147413806935,-0.023579196463302005,0.09695331012558621,32.08287849390507,-100.26678939585686,84.22370748782159
2024-09-23 16:05:20.025401,43.47,33.766369,-0.0028852147413806935,-0.023579196463302005,0.09705279702197278,24.06297849342227,-100.26678939585686,80.21211738781929
2024-09-23 16:05:20.036793,43.47,33.766419,-0.0030344509719951677,-0.023579196463302005,0.09705279702197278,24.06297849342227,-100.26678939585686,80.21211738781929
2024-09-23 16:05:20.068711,43.47,33.766419,-0.0030344509719951677,-0.023778180888911878,0.09705279702197278,24.06297849342227,-100.26678939585686,80.21211738781929
2024-09-23 16:05:20.081001,43.47,33.76647,-0.0030344509719951677,-0.023778180888911878,0.0973015264147526,40.106058693909645,-96.25519929585457,76.200527287817
2024-09-23 16:05:20.124402,43.47,33.76647,-0.0025369937054121774,-0.023429960042815445,0.09740101331113918,40.106058693909645,-100.26678939585686,76.200527287817
2024-09-23 16:05:20.136247,43.47,33.76647,-0.0025369937054121774,-0.023429960042815445,0.09740101331113918,40.106058693909645,-100.26678939585686,80.21211738781929
2024-09-23 16:05:20.168625,43.47,33.766559,-0.0032831742888682963,-0.023429960042815445,0.09740101331113918,40.106058693909645,-100.26678939585686,80.21211738781929
2024-09-23 16:05:20.180540,43.47,33.766559,-0.0032831742888682963,-0.02352945757203875,0.09715228999426605,24.06297849342227,-96.25519929585457,80.21211738781929
2024-09-23 16:05:20.223236,43.47,33.76661,-0.0030841997366068195,-0.02303200030545576,0.09750050628343246,24.06297849342227,-96.25519929585457,80.21211738781929
2024-09-23 16:05:20.235181,43.47,33.76661,-0.0030841997366068195,-0.02303200030545576,0.09750050628343246,44.11764879391193,-96.25519929585457,80.21211738781929
2024-09-23 16:05:20.267327,43.47,33.76661,-0.0030841997366068195,-0.02303200030545576,0.09750050628343246,44.11764879391193,-100.26678939585686,80.21211738781929
2024-09-23 16:05:20.278693,43.47,33.766661,-0.0029847020175114316,-0.023181236725942318,0.09715228999426605,44.11764879391193,-100.26678939585686,80.21211738781929
2024-09-23 16:05:20.321694,43.47,33.766712,-0.002785727465249955,-0.023429960042815445,0.09715228999426605,32.08287849390507,-96.25519929585457,84.22370748782159
2024-09-23 16:05:20.364263,43.47,33.766712,-0.002785727465249955,-0.023429960042815445,0.09670458680871308,44.11764879391193,-96.25519929585457,84.22370748782159
2024-09-23 16:05:20.376348,43.47,33.766762,-0.0027359787006383035,-0.023429960042815445,0.09670458680871308,44.11764879391193,-96.25519929585457,72.1922225099802
2024-09-23 16:05:20.419340,43.47,33.766851,-0.0027359787006383035,-0.02367869399252531,0.09764974270391902,52.137550501942634,-96.25519929585457,76.200527287817
2024-09-23 16:05:20.462395,43.47,33.766851,-0.0033329230534799477,-0.022982261414192504,0.0973015264147526,52.137550501942634,-96.25519929585457,76.200527287817
2024-09-23 16:05:20.473847,43.47,33.766851,-0.0033329230534799477,-0.022982261414192504,0.0973015264147526,44.11764879391193,-96.25519929585457,72.1922225099802
2024-09-23 16:05:20.516381,43.47,33.766903,-0.0029847020175114316,-0.023429960042815445,0.0973015264147526,44.11764879391193,-96.25519929585457,72.1922225099802
2024-09-23 16:05:20.558765,43.47,33.766903,-0.0029847020175114316,-0.023429960042815445,0.09715228999426605,40.106058693909645,-96.25519929585457,72.1922225099802
2024-09-23 16:05:20.570720,43.47,33.766953,-0.0028354659767690416,-0.023429960042815445,0.09715228999426605,40.106058693909645,-92.24360919585227,80.21211738781929
2024-09-23 16:05:20.613626,43.47,33.766953,-0.0028354659767690416,-0.023280723622328886,0.09680407370509965,32.08287849390507,-92.24360919585227,76.200527287817
2024-09-23 16:05:20.625092,43.47,33.767004,-0.0028354659767690416,-0.023280723622328886,0.09680407370509965,32.08287849390507,-92.24360919585227,76.200527287817
2024-09-23 16:05:20.658001,43.47,33.767004,-0.0027359787006383035,-0.023230986250042305,0.09680407370509965,32.08287849390507,-92.24360919585227,76.200527287817
2024-09-23 16:05:20.669640,43.47,33.767004,-0.0027359787006383035,-0.023230986250042305,0.0973015264147526,36.09446859390736,-92.24360919585227,80.21211738781929
2024-09-23 16:05:20.711741,43.47,33.767055,-0.0033329230534799477,-0.022982261414192504,0.09774922960030558,20.05138839341998,-92.24360919585227,80.21211738781929
2024-09-23 16:05:20.755086,43.47,33.767105,-0.0029349636958644295,-0.022982261414192504,0.09774922960030558,20.05138839341998,-92.24360919585227,80.21211738781929
2024-09-23 16:05:20.766590,43.47,33.767105,-0.0029349636958644295,-0.02308174982955575,0.0973512698629459,52.137550501942634,-92.24360919585227,80.21211738781929
2024-09-23 16:05:20.809582,43.47,33.767194,-0.0029349636958644295,-0.02303200030545576,0.09705279702197278,52.137550501942634,-100.26678939585686,68.18063240997792
2024-09-23 16:05:20.852819,43.33,33.767194,-0.0029349636958644295,-0.02303200030545576,0.09705279702197278,48.12595698684454,-100.26678939585686,68.18063240997792
2024-09-23 16:05:20.864425,43.33,33.767245,-0.002636491424507565,-0.02397715620066169,0.09705279702197278,48.12595698684454,-100.26678939585686,68.18063240997792
2024-09-23 16:05:20.908000,43.33,33.767296,-0.003482159473966507,-0.02397715620066169,0.09710254654607277,40.106058693909645,-100.26678939585686,80.21211738781929
2024-09-23 16:05:20.950823,43.33,33.767296,-0.003482159473966507,-0.023280723622328886,0.09675432418099966,28.07457030097246,-100.26678939585686,80.21211738781929
2024-09-23 16:05:20.962146,43.33,33.767388,-0.003482159473966507,-0.023280723622328886,0.09675432418099966,28.07457030097246,-108.28669110388756,80.21211738781929
2024-09-23 16:05:21.004798,43.33,33.767388,-0.0029847020175114316,-0.02338022115155219,0.09695331012558621,28.07457030097246,-108.28669110388756,80.21211738781929
2024-09-23 16:05:21.047382,43.33,33.767388,-0.0029847020175114316,-0.02338022115155219,0.09695331012558621,28.07457030097246,-100.26678939585686,80.21211738781929
2024-09-23 16:05:21.058613,43.33,33.767439,-0.0027359787006383035,-0.02313149783467906,0.09695331012558621,28.07457030097246,-100.26678939585686,80.21211738781929
2024-09-23 16:05:21.100379,43.33,33.76749,-0.0027359787006383035,-0.02313149783467906,0.09789846602079214,24.06297849342227,-96.25519929585457,80.21211738781929
2024-09-23 16:05:21.112010,43.33,33.76749,-0.002387757474797703,-0.02313149783467906,0.09789846602079214,24.06297849342227,-96.25519929585457,80.21211738781929
2024-09-23 16:05:21.144954,43.33,33.76749,-0.002387757474797703,-0.02362894446842532,0.09680407370509965,44.11764879391193,-96.25519929585457,80.21211738781929
2024-09-23 16:05:21.156551,43.33,33.76749,-0.002387757474797703,-0.02362894446842532,0.09680407370509965,44.11764879391193,-104.27510100388527,76.200527287817
2024-09-23 16:05:21.199709,43.33,33.76754,-0.002387757474797703,-0.02362894446842532,0.09680407370509965,44.11764879391193,-104.27510100388527,76.200527287817
2024-09-23 16:05:21.242027,43.33,33.76754,-0.0027359787006383035,-0.02303200030545576,0.09759999317981902,44.11764879391193,-104.27510100388527,76.200527287817
2024-09-23 16:05:21.254081,43.33,33.76754,-0.0027359787006383035,-0.02303200030545576,0.09759999317981902,52.137550501942634,-104.27510100388527,76.200527287817
2024-09-23 16:05:21.296510,43.33,33.767591,-0.0034324103296106863,-0.022982261414192504,0.0973015264147526,52.137550501942634,-104.27510100388527,76.200527287817
2024-09-23 16:05:21.338714,43.33,33.767591,-0.0034324103296106863,-0.022982261414192504,0.0973015264147526,32.08287849390507,-100.26678939585686,76.200527287817
2024-09-23 16:05:21.350517,43.33,33.767681,-0.0029349636958644295,-0.023479709566915436,0.0973015264147526,32.08287849390507,-100.26678939585686,76.200527287817
2024-09-23 16:05:21.394055,43.33,33.767732,-0.002636491424507565,-0.023479709566915436,0.09670458680871308,36.09446859390736,-96.25519929585457,80.21211738781929
2024-09-23 16:05:21.436632,43.33,33.767732,-0.002636491424507565,-0.02303200030545576,0.09764974270391902,36.09446859390736,-96.25519929585457,80.21211738781929
2024-09-23 16:05:21.447654,43.33,33.767783,-0.002636491424507565,-0.02303200030545576,0.09764974270391902,28.07457030097246,-100.26678939585686,76.200527287817
2024-09-23 16:05:21.489772,43.33,33.767783,-0.0028852147413806935,-0.02303200030545576,0.09705279702197278,28.07457030097246,-100.26678939585686,76.200527287817
2024-09-23 16:05:21.501935,43.33,33.767783,-0.0028852147413806935,-0.02303200030545576,0.09705279702197278,28.07457030097246,-100.26678939585686,80.21211738781929
2024-09-23 16:05:21.533873,43.33,33.767924,-0.002636491424507565,-0.02303200030545576,0.09705279702197278,28.07457030097246,-100.26678939585686,80.21211738781929
2024-09-23 16:05:21.545844,43.33,33.767924,-0.002636491424507565,-0.023230986250042305,0.09675432418099966,48.12595698684454,-96.25519929585457,80.21211738781929
2024-09-23 16:05:21.588145,43.33,33.767976,-0.0031339382481259063,-0.02308174982955575,0.09675432418099966,48.12595698684454,-96.25519929585457,76.200527287817
2024-09-23 16:05:21.630708,43.33,33.767976,-0.0031339382481259063,-0.02308174982955575,0.09675432418099966,48.12595698684454,-104.27510100388527,76.200527287817
2024-09-23 16:05:21.642586,43.33,33.768027,-0.0028852147413806935,-0.02313149783467906,0.09690356060148622,48.12595698684454,-104.27510100388527,76.200527287817
2024-09-23 16:05:21.686158,43.33,33.768078,-0.0031339382481259063,-0.02313149783467906,0.09690356060148622,40.106058693909645,-100.26678939585686,80.21211738781929
2024-09-23 16:05:21.697824,43.33,33.768078,-0.0031339382481259063,-0.023579196463302005,0.09690356060148622,40.106058693909645,-100.26678939585686,80.21211738781929
2024-09-23 16:05:21.730015,43.33,33.768078,-0.0031339382481259063,-0.023579196463302005,0.09715228999426605,32.08287849390507,-100.26678939585686,80.21211738781929
2024-09-23 16:05:21.741665,43.33,33.768128,-0.0028852147413806935,-0.023579196463302005,0.09715228999426605,32.08287849390507,-100.26678939585686,80.21211738781929
2024-09-23 16:05:21.784769,43.33,33.768216,-0.0028852147413806935,-0.023429960042815445,0.09685382322919964,28.07457030097246,-96.25519929585457,80.21211738781929
2024-09-23 16:05:21.827060,43.33,33.768216,-0.0031836870127375577,-0.023181236725942318,0.0973015264147526,28.07457030097246,-96.25519929585457,80.21211738781929
2024-09-23 16:05:21.837973,43.33,33.768216,-0.0031836870127375577,-0.023181236725942318,0.0973015264147526,40.106058693909645,-92.24360919585227,80.21211738781929
2024-09-23 16:05:21.882285,42.94,33.768268,-0.0031836870127375577,-0.023181236725942318,0.0973015264147526,40.106058693909645,-92.24360919585227,80.21211738781929
2024-09-23 16:05:21.925664,42.94,33.768268,-0.0031836870127375577,-0.023230986250042305,0.09690356060148622,40.106058693909645,-92.24360919585227,80.21211738781929
2024-09-23 16:05:21.937578,42.94,33.768268,-0.0031836870127375577,-0.023230986250042305,0.09690356060148622,32.08287849390507,-92.24360919585227,76.200527287817
2024-09-23 16:05:21.980300,42.94,33.768319,-0.0031836870127375577,-0.023280723622328886,0.09745075675933246,36.09446859390736,-96.25519929585457,76.200527287817
2024-09-23 16:05:22.022640,42.94,33.768369,-0.0032831742888682963,-0.023280723622328886,0.09745075675933246,36.09446859390736,-96.25519929585457,80.21211738781929
2024-09-23 16:05:22.034775,42.94,33.768369,-0.0032831742888682963,-0.023479709566915436,0.09745075675933246,36.09446859390736,-96.25519929585457,80.21211738781929
2024-09-23 16:05:22.077754,42.94,33.76842,-0.003780631555451287,-0.023479709566915436,0.0973015264147526,48.12595698684454,-92.24360919585227,76.200527287817
2024-09-23 16:05:22.121412,42.94,33.76842,-0.003780631555451287,-0.023280723622328886,0.09690356060148622,40.106058693909645,-92.24360919585227,76.200527287817
2024-09-23 16:05:22.133547,42.94,33.768471,-0.003780631555451287,-0.023280723622328886,0.09690356060148622,40.106058693909645,-100.26678939585686,76.200527287817
2024-09-23 16:05:22.166789,42.94,33.768471,-0.0036811340262279837,-0.023280723622328886,0.09690356060148622,40.106058693909645,-100.26678939585686,76.200527287817
2024-09-23 16:05:22.178469,42.94,33.768471,-0.0036811340262279837,-0.023181236725942318,0.09740101331113918,20.05138839341998,-104.27510100388527,84.22370748782159
2024-09-23 16:05:22.220284,42.94,33.76856,-0.0029847020175114316,-0.02313149783467906,0.09745075675933246,28.07457030097246,-104.27510100388527,84.22370748782159
2024-09-23 16:05:22.232283,42.94,33.76856,-0.0029847020175114316,-0.02313149783467906,0.09745075675933246,28.07457030097246,-96.25519929585457,84.22370748782159
2024-09-23 16:05:22.264386,42.94,33.768655,-0.0029847020175114316,-0.02313149783467906,0.09745075675933246,28.07457030097246,-96.25519929585457,80.21211738781929
2024-09-23 16:05:22.276071,42.94,33.768655,-0.002785727465249955,-0.023429960042815445,0.09725178296655933,36.09446859390736,-96.25519929585457,80.21211738781929
2024-09-23 16:05:22.319354,42.94,33.768707,-0.0028354659767690416,-0.023728432883788564,0.09655535038822652,36.09446859390736,-104.27510100388527,76.200527287817
2024-09-23 16:05:22.362311,42.94,33.768707,-0.0028354659767690416,-0.023728432883788564,0.09655535038822652,36.09446859390736,-100.26678939585686,76.200527287817
2024-09-23 16:05:22.373394,42.94,33.768757,-0.0026862297461545674,-0.02308174982955575,0.09655535038822652,36.09446859390736,-100.26678939585686,84.22370748782159
2024-09-23 16:05:22.457410,42.94,33.768757,-0.0026862297461545674,-0.02308174982955575,0.09725178296655933,36.09446859390736,-100.26678939585686,84.22370748782159
2024-09-23 16:05:22.468519,42.94,33.768808,-0.0030344509719951677,-0.02308174982955575,0.09725178296655933,52.137550501942634,-96.25519929585457,76.200527287817
2024-09-23 16:05:22.511900,42.94,33.768808,-0.0030344509719951677,-0.02313149783467906,0.09715228999426605,40.106058693909645,-84.22370748782159,76.200527287817
2024-09-23 16:05:22.523267,42.94,33.768899,-0.0030344509719951677,-0.02313149783467906,0.09715228999426605,40.106058693909645,-84.22370748782159,80.21211738781929
2024-09-23 16:05:22.555319,42.94,33.768899,-0.0027359787006383035,-0.02313149783467906,0.09715228999426605,40.106058693909645,-84.22370748782159,80.21211738781929
2024-09-23 16:05:22.566528,42.94,33.768899,-0.0027359787006383035,-0.023181236725942318,0.09685382322919964,24.06297849342227,-92.24360919585227,88.23529758782387
2024-09-23 16:05:22.609460,42.94,33.76895,-0.003233425524256645,-0.02303200030545576,0.09750050628343246,24.06297849342227,-92.24360919585227,88.23529758782387
2024-09-23 16:05:22.620430,42.94,33.76895,-0.003233425524256645,-0.02303200030545576,0.09750050628343246,44.11764879391193,-100.26678939585686,88.23529758782387
2024-09-23 16:05:22.652672,42.94,33.76895,-0.003233425524256645,-0.02303200030545576,0.09750050628343246,44.11764879391193,-100.26678939585686,80.21211738781929
2024-09-23 16:05:22.664316,42.94,33.769001,-0.0028354659767690416,-0.02308174982955575,0.09779897304849887,48.12595698684454,-100.26678939585686,80.21211738781929
2024-09-23 16:05:22.706861,42.94,33.769096,-0.0028852147413806935,-0.02308174982955575,0.09779897304849887,48.12595698684454,-92.24360919585227,84.22370748782159
2024-09-23 16:05:22.719689,42.94,33.769096,-0.0028852147413806935,-0.022833026512682618,0.0970030596496862,48.12595698684454,-92.24360919585227,84.22370748782159
2024-09-23 16:05:22.751675,42.94,33.769096,-0.0028852147413806935,-0.022833026512682618,0.0970030596496862,44.11764879391193,-100.26678939585686,84.22370748782159
2024-09-23 16:05:22.763119,42.94,33.769146,-0.0031339382481259063,-0.023280723622328886,0.0970030596496862,44.11764879391193,-100.26678939585686,80.21211738781929
2024-09-23 16:05:22.805383,42.94,33.769197,-0.0031339382481259063,-0.023280723622328886,0.09715228999426605,40.106058693909645,-96.25519929585457,80.21211738781929
2024-09-23 16:05:22.817418,42.94,33.769197,-0.0027359787006383035,-0.023280723622328886,0.09715228999426605,40.106058693909645,-96.25519929585457,80.21211738781929
2024-09-23 16:05:22.850472,42.94,33.769197,-0.0027359787006383035,-0.023429960042815445,0.09759999317981902,40.106058693909645,-96.25519929585457,80.21211738781929
2024-09-23 16:05:22.861814,42.94,33.769289,-0.0027359787006383035,-0.023429960042815445,0.09759999317981902,32.08287849390507,-96.25519929585457,80.21211738781929
2024-09-23 16:05:22.905696,43.15,33.769289,-0.0030841997366068195,-0.023181236725942318,0.09720203344245934,32.08287849390507,-96.25519929585457,72.1922225099802
2024-09-23 16:05:22.948341,43.15,33.76934,-0.0030344509719951677,-0.02293251340906919,0.09720203344245934,32.08287849390507,-96.25519929585457,72.1922225099802
2024-09-23 16:05:22.959405,43.15,33.76934,-0.0030344509719951677,-0.02293251340906919,0.09720203344245934,32.08287849390507,-104.27510100388527,72.1922225099802
2024-09-23 16:05:23.001962,43.15,33.769391,-0.0033329230534799477,-0.023230986250042305,0.09710254654607277,36.09446859390736,-104.27510100388527,76.200527287817
2024-09-23 16:05:23.046584,43.15,33.769442,-0.0033329230534799477,-0.023230986250042305,0.09710254654607277,36.09446859390736,-100.26678939585686,76.200527287817
2024-09-23 16:05:23.058296,43.15,33.769442,-0.0031836870127375577,-0.023230986250042305,0.09710254654607277,36.09446859390736,-100.26678939585686,76.200527287817
2024-09-23 16:05:23.100554,43.15,33.769442,-0.0031836870127375577,-0.02278327698858263,0.0966050877605131,36.09446859390736,-100.26678939585686,76.200527287817
2024-09-23 16:05:23.194562,43.15,33.769492,-0.002785727465249955,-0.023181236725942318,0.09665483728461309,36.09446859390736,-100.26678939585686,76.200527287817
2024-09-23 16:05:23.206730,43.15,33.769492,-0.002785727465249955,-0.023181236725942318,0.09665483728461309,36.09446859390736,-104.27510100388527,76.200527287817
2024-09-23 16:05:23.239505,43.15,33.769492,-0.002785727465249955,-0.023181236725942318,0.09665483728461309,36.09446859390736,-104.27510100388527,76.200527287817
2024-09-23 16:05:23.251242,43.15,33.769543,-0.0028852147413806935,-0.023330473146428877,0.09655535038822652,40.106058693909645,-104.27510100388527,76.200527287817
2024-09-23 16:05:23.293721,43.15,33.76963,-0.003233425524256645,-0.02352945757203875,0.09655535038822652,40.106058693909645,-104.27510100388527,76.200527287817
2024-09-23 16:05:23.305451,43.15,33.76963,-0.003233425524256645,-0.02352945757203875,0.09655535038822652,40.106058693909645,-104.27510100388527,76.200527287817
2024-09-23 16:05:23.338969,43.15,33.76963,-0.003233425524256645,-0.02352945757203875,0.09655535038822652,28.07457030097246,-92.24360919585227,80.21211738781929
2024-09-23 16:05:23.350700,43.15,33.769682,-0.0032831742888682963,-0.023181236725942318,0.09655535038822652,28.07457030097246,-92.24360919585227,80.21211738781929
2024-09-23 16:05:23.393841,43.15,33.769732,-0.0028354659767690416,-0.023181236725942318,0.09710254654607277,36.09446859390736,-100.26678939585686,84.22370748782159
2024-09-23 16:05:23.436014,43.15,33.769732,-0.0028354659767690416,-0.02367869399252531,0.09720203344245934,40.106058693909645,-100.26678939585686,84.22370748782159
2024-09-23 16:05:23.448151,43.15,33.769874,-0.0028354659767690416,-0.02367869399252531,0.09720203344245934,40.106058693909645,-100.26678939585686,76.200527287817
2024-09-23 16:05:23.490415,43.15,33.769874,-0.0030344509719951677,-0.02293251340906919,0.0973015264147526,36.09446859390736,-100.26678939585686,80.21211738781929
2024-09-23 16:05:23.532249,43.15,33.769925,-0.0029349636958644295,-0.02293251340906919,0.0973015264147526,36.09446859390736,-100.26678939585686,80.21211738781929
2024-09-23 16:05:23.543287,43.15,33.769925,-0.0029349636958644295,-0.023479709566915436,0.0973512698629459,36.09446859390736,-92.24360919585227,80.21211738781929
2024-09-23 16:05:23.586203,43.15,33.769976,-0.0022385316871478774,-0.023230986250042305,0.09725178296655933,36.09446859390736,-92.24360919585227,88.23529758782387
2024-09-23 16:05:23.597059,43.15,33.769976,-0.0022385316871478774,-0.023230986250042305,0.09725178296655933,44.11764879391193,-92.24360919585227,88.23529758782387
2024-09-23 16:05:23.629752,43.15,33.769976,-0.0022385316871478774,-0.023230986250042305,0.09725178296655933,44.11764879391193,-104.27510100388527,80.21211738781929
2024-09-23 16:05:23.640952,43.15,33.770027,-0.0028354659767690416,-0.022833026512682618,0.09715228999426605,44.11764879391193,-104.27510100388527,80.21211738781929
2024-09-23 16:05:23.735447,43.15,33.770077,-0.003233425524256645,-0.02313149783467906,0.09715228999426605,36.09446859390736,-104.27510100388527,84.22370748782159
2024-09-23 16:05:23.778682,43.15,33.770077,-0.003233425524256645,-0.02313149783467906,0.09680407370509965,28.07457030097246,-100.26678939585686,84.22370748782159
2024-09-23 16:05:23.790287,43.15,33.770128,-0.003631395514708897,-0.02313149783467906,0.09680407370509965,28.07457030097246,-100.26678939585686,80.21211738781929
2024-09-23 16:05:23.822775,43.15,33.770128,-0.003631395514708897,-0.02338022115155219,0.09680407370509965,28.07457030097246,-100.26678939585686,80.21211738781929
2024-09-23 16:05:23.834289,43.15,33.770215,-0.003631395514708897,-0.02338022115155219,0.09720203344245934,32.08287849390507,-100.26678939585686,80.21211738781929
2024-09-23 16:05:23.876252,43.15,33.770215,-0.0031836870127375577,-0.023330473146428877,0.09710254654607277,32.08287849390507,-100.26678939585686,80.21211738781929
2024-09-23 16:05:23.888035,43.15,33.770215,-0.0031836870127375577,-0.023330473146428877,0.09710254654607277,32.08287849390507,-96.25519929585457,80.21211738781929
2024-09-23 16:05:23.919866,42.37,33.770267,-0.0031836870127375577,-0.023330473146428877,0.09710254654607277,32.08287849390507,-96.25519929585457,80.21211738781929
2024-09-23 16:05:23.931315,42.37,33.770267,-0.0029349636958644295,-0.02293251340906919,0.0970030596496862,44.11764879391193,-88.23529758782387,80.21211738781929
2024-09-23 16:05:23.973932,42.37,33.770362,-0.003233425524256645,-0.02313149783467906,0.0970030596496862,44.11764879391193,-88.23529758782387,80.21211738781929
2024-09-23 16:05:23.985112,42.37,33.770362,-0.003233425524256645,-0.02313149783467906,0.09685382322919964,36.09446859390736,-88.23529758782387,80.21211738781929
2024-09-23 16:05:24.017702,42.37,33.770362,-0.003233425524256645,-0.02313149783467906,0.09685382322919964,36.09446859390736,-96.25519929585457,80.21211738781929
2024-09-23 16:05:24.029344,42.37,33.770414,-0.002785727465249955,-0.0228827638849692,0.09725178296655933,36.09446859390736,-96.25519929585457,84.22370748782159
2024-09-23 16:05:24.071325,42.37,33.770464,-0.002785727465249955,-0.0228827638849692,0.09725178296655933,28.07457030097246,-100.26678939585686,84.22370748782159
2024-09-23 16:05:24.082973,42.37,33.770464,-0.0026862297461545674,-0.0228827638849692,0.09725178296655933,28.07457030097246,-100.26678939585686,84.22370748782159
2024-09-23 16:05:24.114839,42.37,33.770464,-0.0026862297461545674,-0.02362894446842532,0.09725178296655933,28.07457030097246,-100.26678939585686,84.22370748782159
2024-09-23 16:05:24.126757,42.37,33.770515,-0.0026862297461545674,-0.02362894446842532,0.0970030596496862,20.05138839341998,-96.25519929585457,84.22370748782159
2024-09-23 16:05:24.169136,42.37,33.770515,-0.0031339382481259063,-0.023181236725942318,0.09745075675933246,20.05138839341998,-96.25519929585457,84.22370748782159
2024-09-23 16:05:24.180532,42.37,33.770515,-0.0031339382481259063,-0.023181236725942318,0.09745075675933246,36.09446859390736,-104.27510100388527,80.21211738781929
2024-09-23 16:05:24.212500,42.37,33.770605,-0.0031339382481259063,-0.023181236725942318,0.09745075675933246,36.09446859390736,-104.27510100388527,80.21211738781929
2024-09-23 16:05:24.224009,42.37,33.770605,-0.0029847020175114316,-0.023579196463302005,0.0970030596496862,40.106058693909645,-100.26678939585686,80.21211738781929
2024-09-23 16:05:24.266699,42.37,33.770657,-0.0029847020175114316,-0.023330473146428877,0.0970030596496862,40.106058693909645,-100.26678939585686,80.21211738781929
2024-09-23 16:05:24.278460,42.37,33.770657,-0.0029847020175114316,-0.023330473146428877,0.09705279702197278,40.106058693909645,-100.26678939585686,80.21211738781929
2024-09-23 16:05:24.310180,42.37,33.770657,-0.0029847020175114316,-0.023330473146428877,0.09705279702197278,36.09446859390736,-100.26678939585686,80.21211738781929
2024-09-23 16:05:24.321292,42.37,33.770707,-0.0031339382481259063,-0.023280723622328886,0.09705279702197278,36.09446859390736,-96.25519929585457,76.200527287817
2024-09-23 16:05:24.363957,42.37,33.770707,-0.0031339382481259063,-0.023280723622328886,0.09715228999426605,32.08287849390507,-104.27510100388527,76.200527287817
2024-09-23 16:05:24.376391,42.37,33.770758,-0.003382661564999035,-0.023280723622328886,0.09715228999426605,32.08287849390507,-104.27510100388527,80.21211738781929
2024-09-23 16:05:24.408861,42.37,33.770758,-0.003382661564999035,-0.023230986250042305,0.09715228999426605,32.08287849390507,-104.27510100388527,80.21211738781929
2024-09-23 16:05:24.420719,42.37,33.770809,-0.003382661564999035,-0.023230986250042305,0.09710254654607277,28.07457030097246,-96.25519929585457,84.22370748782159
2024-09-23 16:05:24.463002,42.37,33.770809,-0.0030841997366068195,-0.02308174982955575,0.09705279702197278,32.08287849390507,-100.26678939585686,84.22370748782159
2024-09-23 16:05:24.474645,42.37,33.770809,-0.0030841997366068195,-0.02308174982955575,0.09705279702197278,32.08287849390507,-100.26678939585686,80.21211738781929
2024-09-23 16:05:24.507523,42.37,33.770898,-0.0032831742888682963,-0.02308174982955575,0.09705279702197278,32.08287849390507,-100.26678939585686,80.21211738781929
2024-09-23 16:05:24.518809,42.37,33.770898,-0.0032831742888682963,-0.02308174982955575,0.09725178296655933,28.07457030097246,-100.26678939585686,80.21211738781929
2024-09-23 16:05:24.561167,42.37,33.770949,-0.0030841997366068195,-0.0228827638849692,0.09690356060148622,28.07457030097246,-100.26678939585686,76.200527287817
2024-09-23 16:05:24.573064,42.37,33.770949,-0.0030841997366068195,-0.0228827638849692,0.09690356060148622,36.09446859390736,-100.26678939585686,76.200527287817
2024-09-23 16:05:24.604770,42.37,33.770949,-0.0030841997366068195,-0.0228827638849692,0.09690356060148622,36.09446859390736,-100.26678939585686,80.21211738781929
2024-09-23 16:05:24.616705,42.37,33.771,-0.0028852147413806935,-0.023330473146428877,0.09720203344245934,36.09446859390736,-100.26678939585686,80.21211738781929
2024-09-23 16:05:24.659960,42.37,33.77105,-0.0031339382481259063,-0.023181236725942318,0.09720203344245934,48.12595698684454,-92.24360919585227,84.22370748782159
2024-09-23 16:05:24.702177,42.37,33.77105,-0.0031339382481259063,-0.023181236725942318,0.0973015264147526,44.11764879391193,-92.24360919585227,84.22370748782159
2024-09-23 16:05:24.713659,42.37,33.771101,-0.0030344509719951677,-0.023181236725942318,0.0973015264147526,44.11764879391193,-100.26678939585686,84.22370748782159
2024-09-23 16:05:24.757178,42.37,33.77119,-0.0030344509719951677,-0.023181236725942318,0.09695331012558621,32.08287849390507,-96.25519929585457,80.21211738781929
2024-09-23 16:05:24.799920,42.37,33.77119,-0.0030344509719951677,-0.023181236725942318,0.09695331012558621,32.08287849390507,-96.25519929585457,80.21211738781929
2024-09-23 16:05:24.811214,42.37,33.77119,-0.0030344509719951677,-0.023181236725942318,0.0970030596496862,40.106058693909645,-88.23529758782387,88.23529758782387
2024-09-23 16:05:24.853896,42.37,33.771242,-0.0030841997366068195,-0.023230986250042305,0.09755024973162574,40.106058693909645,-88.23529758782387,88.23529758782387
2024-09-23 16:05:24.947883,42.57,33.771242,-0.0030841997366068195,-0.023230986250042305,0.09755024973162574,36.09446859390736,-92.24360919585227,84.22370748782159
2024-09-23 16:05:24.958904,42.57,33.771292,-0.002586742470023829,-0.023230986250042305,0.09755024973162574,36.09446859390736,-92.24360919585227,84.22370748782159
2024-09-23 16:05:25.002846,42.57,33.771343,-0.0028354659767690416,-0.023230986250042305,0.09720203344245934,36.09446859390736,-92.24360919585227,80.21211738781929
2024-09-23 16:05:25.045266,42.57,33.771343,-0.0028354659767690416,-0.023330473146428877,0.09725178296655933,40.106058693909645,-92.24360919585227,80.21211738781929
2024-09-23 16:05:25.057756,42.57,33.771394,-0.0028354659767690416,-0.023330473146428877,0.09725178296655933,40.106058693909645,-100.26678939585686,80.21211738781929
2024-09-23 16:05:25.090135,42.57,33.771394,-0.0032831742888682963,-0.023330473146428877,0.09725178296655933,40.106058693909645,-100.26678939585686,80.21211738781929
2024-09-23 16:05:25.101831,42.57,33.771394,-0.0032831742888682963,-0.022982261414192504,0.09725178296655933,44.11764879391193,-96.25519929585457,80.21211738781929
2024-09-23 16:05:25.144193,42.57,33.771445,-0.0032831742888682963,-0.023429960042815445,0.09725178296655933,44.11764879391193,-96.25519929585457,80.21211738781929
2024-09-23 16:05:25.156098,42.57,33.771445,-0.0032831742888682963,-0.023429960042815445,0.09695331012558621,40.106058693909645,-96.25519929585457,80.21211738781929
2024-09-23 16:05:25.188219,42.57,33.771445,-0.0032831742888682963,-0.023429960042815445,0.09695331012558621,40.106058693909645,-100.26678939585686,80.21211738781929
2024-09-23 16:05:25.199837,42.57,33.771581,-0.003233425524256645,-0.023330473146428877,0.09690356060148622,40.106058693909645,-100.26678939585686,84.22370748782159
2024-09-23 16:05:25.242383,42.57,33.771632,-0.003233425524256645,-0.023330473146428877,0.09690356060148622,32.08287849390507,-100.26678939585686,84.22370748782159
2024-09-23 16:05:25.253325,42.57,33.771632,-0.0032831742888682963,-0.022733528983459317,0.09690356060148622,32.08287849390507,-100.26678939585686,84.22370748782159
2024-09-23 16:05:25.285736,42.57,33.771632,-0.0032831742888682963,-0.022733528983459317,0.09740101331113918,32.08287849390507,-100.26678939585686,84.22370748782159
2024-09-23 16:05:25.297543,42.57,33.771683,-0.0026862297461545674,-0.022733528983459317,0.09740101331113918,32.08287849390507,-100.26678939585686,76.200527287817
2024-09-23 16:05:25.340144,42.57,33.771683,-0.0026862297461545674,-0.023479709566915436,0.0973015264147526,32.08287849390507,-96.25519929585457,76.200527287817
2024-09-23 16:05:25.353677,42.57,33.771734,-0.0026862297461545674,-0.023479709566915436,0.0973015264147526,32.08287849390507,-96.25519929585457,80.21211738781929
2024-09-23 16:05:25.385894,42.57,33.771734,-0.0026862297461545674,-0.023181236725942318,0.0966050877605131,32.08287849390507,-96.25519929585457,80.21211738781929
2024-09-23 16:05:25.397167,42.57,33.771734,-0.0026862297461545674,-0.023181236725942318,0.0966050877605131,40.106058693909645,-92.24360919585227,80.21211738781929
2024-09-23 16:05:25.439551,42.57,33.771824,-0.0028852147413806935,-0.023479709566915436,0.09635636444363997,36.09446859390736,-100.26678939585686,80.21211738781929
2024-09-23 16:05:25.482383,42.57,33.771876,-0.0028852147413806935,-0.023479709566915436,0.09635636444363997,36.09446859390736,-100.26678939585686,80.21211738781929
2024-09-23 16:05:25.494219,42.57,33.771876,-0.0027359787006383035,-0.02313149783467906,0.09680407370509965,36.09446859390736,-100.26678939585686,80.21211738781929
2024-09-23 16:05:25.537673,42.57,33.771876,-0.0027359787006383035,-0.02313149783467906,0.09680407370509965,36.09446859390736,-88.23529758782387,80.21211738781929
2024-09-23 16:05:25.579652,42.57,33.771926,-0.003482159473966507,-0.02313149783467906,0.09680407370509965,36.09446859390736,-88.23529758782387,80.21211738781929
2024-09-23 16:05:25.590829,42.57,33.771926,-0.003482159473966507,-0.023330473146428877,0.09685382322919964,32.08287849390507,-88.23529758782387,80.21211738781929
2024-09-23 16:05:25.633902,42.57,33.771977,-0.0030344509719951677,-0.02303200030545576,0.09695331012558621,32.08287849390507,-88.23529758782387,84.22370748782159
2024-09-23 16:05:25.645615,42.57,33.771977,-0.0030344509719951677,-0.02303200030545576,0.09695331012558621,24.06297849342227,-88.23529758782387,84.22370748782159
2024-09-23 16:05:25.677159,42.57,33.771977,-0.0030344509719951677,-0.02303200030545576,0.09695331012558621,24.06297849342227,-92.24360919585227,84.22370748782159
2024-09-23 16:05:25.688650,42.57,33.772028,-0.0032831742888682963,-0.023429960042815445,0.09755024973162574,24.06297849342227,-92.24360919585227,84.22370748782159
2024-09-23 16:05:25.730339,42.57,33.772116,-0.0033329230534799477,-0.023429960042815445,0.09755024973162574,32.08287849390507,-96.25519929585457,76.200527287817
2024-09-23 16:05:25.742470,42.57,33.772116,-0.0033329230534799477,-0.023429960042815445,0.09755024973162574,32.08287849390507,-96.25519929585457,76.200527287817
2024-09-23 16:05:25.774337,42.57,33.772116,-0.0033329230534799477,-0.023429960042815445,0.09725178296655933,48.12595698684454,-96.25519929585457,76.200527287817
2024-09-23 16:05:25.786175,42.57,33.772167,-0.0030344509719951677,-0.023429960042815445,0.09725178296655933,48.12595698684454,-88.23529758782387,84.22370748782159
2024-09-23 16:05:25.829423,42.57,33.772167,-0.0030344509719951677,-0.02362894446842532,0.09685382322919964,48.12595698684454,-96.25519929585457,76.200527287817
2024-09-23 16:05:25.841042,42.57,33.772263,-0.0030344509719951677,-0.02362894446842532,0.09685382322919964,48.12595698684454,-96.25519929585457,76.200527287817
2024-09-23 16:05:25.873865,42.57,33.772263,-0.003482159473966507,-0.023230986250042305,0.09685382322919964,48.12595698684454,-96.25519929585457,76.200527287817
2024-09-23 16:05:25.926464,42.57,33.772314,-0.003482159473966507,-0.023230986250042305,0.0973512698629459,44.11764879391193,-100.26678939585686,76.200527287817
2024-09-23 16:05:25.938216,42.57,33.772314,-0.0029349636958644295,-0.023230986250042305,0.0973512698629459,44.11764879391193,-100.26678939585686,76.200527287817
2024-09-23 16:05:25.969816,42.87,33.772314,-0.0029349636958644295,-0.02313149783467906,0.09675432418099966,44.11764879391193,-100.26678939585686,76.200527287817
2024-09-23 16:05:25.981891,42.87,33.772365,-0.0029349636958644295,-0.02313149783467906,0.09675432418099966,24.06297849342227,-96.25519929585457,84.22370748782159
2024-09-23 16:05:26.066612,42.87,33.772365,-0.002785727465249955,-0.02313149783467906,0.09675432418099966,24.06297849342227,-96.25519929585457,84.22370748782159
2024-09-23 16:05:26.078233,42.87,33.772365,-0.002785727465249955,-0.023429960042815445,0.09764974270391902,32.08287849390507,-96.25519929585457,80.21211738781929
2024-09-23 16:05:26.162583,42.87,33.772416,-0.002785727465249955,-0.023429960042815445,0.09764974270391902,32.08287849390507,-96.25519929585457,80.21211738781929
2024-09-23 16:05:26.174359,42.87,33.772416,-0.0035816467500972456,-0.023280723622328886,0.09755024973162574,32.08287849390507,-96.25519929585457,80.21211738781929
2024-09-23 16:05:26.216960,42.87,33.772416,-0.0035816467500972456,-0.023280723622328886,0.09755024973162574,40.106058693909645,-96.25519929585457,76.200527287817
2024-09-23 16:05:26.228847,42.87,33.772466,-0.0028852147413806935,-0.02308174982955575,0.09755024973162574,40.106058693909645,-96.25519929585457,76.200527287817
2024-09-23 16:05:26.262181,42.87,33.772466,-0.0028852147413806935,-0.02308174982955575,0.09705279702197278,44.11764879391193,-96.25519929585457,76.200527287817
2024-09-23 16:05:26.273273,42.87,33.772557,-0.002785727465249955,-0.02308174982955575,0.09705279702197278,44.11764879391193,-92.24360919585227,80.21211738781929
2024-09-23 16:05:26.315341,42.87,33.772557,-0.002785727465249955,-0.023280723622328886,0.09740101331113918,36.09446859390736,-96.25519929585457,84.22370748782159
2024-09-23 16:05:26.326959,42.87,33.772608,-0.002785727465249955,-0.023280723622328886,0.09740101331113918,36.09446859390736,-96.25519929585457,84.22370748782159
2024-09-23 16:05:26.359666,42.87,33.772608,-0.0032831742888682963,-0.02308174982955575,0.09740101331113918,36.09446859390736,-96.25519929585457,84.22370748782159
2024-09-23 16:05:26.371313,42.87,33.772608,-0.0032831742888682963,-0.02308174982955575,0.09690356060148622,36.09446859390736,-92.24360919585227,80.21211738781929
2024-09-23 16:05:26.413384,42.87,33.772704,-0.0029847020175114316,-0.023330473146428877,0.09725178296655933,36.09446859390736,-92.24360919585227,80.21211738781929
2024-09-23 16:05:26.425272,42.87,33.772704,-0.0029847020175114316,-0.023330473146428877,0.09725178296655933,36.09446859390736,-96.25519929585457,80.21211738781929
2024-09-23 16:05:26.458231,42.87,33.772849,-0.0029847020175114316,-0.023330473146428877,0.09725178296655933,36.09446859390736,-96.25519929585457,80.21211738781929
2024-09-23 16:05:26.469668,42.87,33.772849,-0.0030841997366068195,-0.02308174982955575,0.0970030596496862,40.106058693909645,-96.25519929585457,80.21211738781929
2024-09-23 16:05:26.552982,42.87,33.772849,-0.0030841997366068195,-0.02308174982955575,0.0970030596496862,40.106058693909645,-100.26678939585686,80.21211738781929
2024-09-23 16:05:26.564896,42.87,33.7729,-0.0028354659767690416,-0.0228827638849692,0.09695331012558621,40.106058693909645,-100.26678939585686,80.21211738781929
2024-09-23 16:05:26.608469,42.87,33.77295,-0.0028354659767690416,-0.0228827638849692,0.09695331012558621,44.11764879391193,-92.24360919585227,76.200527287817
2024-09-23 16:05:26.621050,42.87,33.77295,-0.0029847020175114316,-0.023579196463302005,0.09695331012558621,44.11764879391193,-92.24360919585227,76.200527287817
2024-09-23 16:05:26.654001,42.87,33.77295,-0.0029847020175114316,-0.023579196463302005,0.09690356060148622,40.106058693909645,-96.25519929585457,76.200527287817
2024-09-23 16:05:26.665152,42.87,33.773001,-0.0031339382481259063,-0.023579196463302005,0.09690356060148622,40.106058693909645,-96.25519929585457,80.21211738781929
2024-09-23 16:05:26.708350,42.87,33.773091,-0.0031339382481259063,-0.022982261414192504,0.09710254654607277,28.07457030097246,-96.25519929585457,84.22370748782159
2024-09-23 16:05:26.750501,42.87,33.773091,-0.0034324103296106863,-0.023479709566915436,0.09710254654607277,28.07457030097246,-96.25519929585457,84.22370748782159
2024-09-23 16:05:26.803623,42.87,33.773189,-0.0034324103296106863,-0.023479709566915436,0.09720203344245934,32.08287849390507,-100.26678939585686,80.21211738781929
2024-09-23 16:05:26.815827,42.87,33.773189,-0.0028852147413806935,-0.023479709566915436,0.09720203344245934,32.08287849390507,-100.26678939585686,80.21211738781929
2024-09-23 16:05:26.849352,42.87,33.773189,-0.0028852147413806935,-0.02352945757203875,0.09680407370509965,40.106058693909645,-100.26678939585686,80.21211738781929
2024-09-23 16:05:26.860515,42.87,33.773241,-0.0028852147413806935,-0.02352945757203875,0.09680407370509965,40.106058693909645,-96.25519929585457,84.22370748782159
2024-09-23 16:05:26.903327,42.87,33.773241,-0.0032831742888682963,-0.02313149783467906,0.09750050628343246,36.09446859390736,-100.26678939585686,80.21211738781929
2024-09-23 16:05:26.946323,42.87,33.773291,-0.0031339382481259063,-0.023230986250042305,0.09750050628343246,36.09446859390736,-100.26678939585686,80.21211738781929
2024-09-23 16:05:26.957908,42.87,33.773291,-0.0031339382481259063,-0.023230986250042305,0.09705279702197278,36.09446859390736,-100.26678939585686,80.21211738781929
2024-09-23 16:05:27.000289,42.64,33.773342,-0.0038303700669703737,-0.023330473146428877,0.0973015264147526,44.11764879391193,-100.26678939585686,80.21211738781929
2024-09-23 16:05:27.094131,42.64,33.773434,-0.0032831742888682963,-0.023330473146428877,0.0973015264147526,44.11764879391193,-100.26678939585686,76.200527287817
2024-09-23 16:05:27.106217,42.64,33.773434,-0.0032831742888682963,-0.023429960042815445,0.09695331012558621,44.11764879391193,-100.26678939585686,76.200527287817
2024-09-23 16:05:27.138845,42.64,33.773434,-0.0032831742888682963,-0.023429960042815445,0.09695331012558621,32.08287849390507,-100.26678939585686,76.200527287817
2024-09-23 16:05:27.150376,42.64,33.773485,-0.0030841997366068195,-0.02308174982955575,0.09695331012558621,32.08287849390507,-96.25519929585457,80.21211738781929
2024-09-23 16:05:27.192130,42.64,33.773485,-0.0030841997366068195,-0.02308174982955575,0.09690356060148622,32.08287849390507,-92.24360919585227,80.21211738781929
2024-09-23 16:05:27.203786,42.64,33.773536,-0.0029847020175114316,-0.02308174982955575,0.09690356060148622,32.08287849390507,-92.24360919585227,80.21211738781929
2024-09-23 16:05:27.236416,42.64,33.773536,-0.0029847020175114316,-0.023330473146428877,0.09690356060148622,32.08287849390507,-92.24360919585227,80.21211738781929
2024-09-23 16:05:27.248378,42.64,33.773628,-0.0029847020175114316,-0.023330473146428877,0.09645586349183995,36.09446859390736,-96.25519929585457,84.22370748782159
2024-09-23 16:05:27.290462,42.64,33.773628,-0.0029847020175114316,-0.02338022115155219,0.0973015264147526,32.08287849390507,-96.25519929585457,84.22370748782159
2024-09-23 16:05:27.302041,42.64,33.773628,-0.0029847020175114316,-0.02338022115155219,0.0973015264147526,32.08287849390507,-96.25519929585457,80.21211738781929
2024-09-23 16:05:27.333681,42.64,33.773726,-0.0029847020175114316,-0.02338022115155219,0.0973015264147526,32.08287849390507,-96.25519929585457,80.21211738781929
2024-09-23 16:05:27.344951,42.64,33.773726,-0.0031836870127375577,-0.023429960042815445,0.09655535038822652,36.09446859390736,-96.25519929585457,80.21211738781929
2024-09-23 16:05:27.438524,42.64,33.773777,-0.0030841997366068195,-0.022833026512682618,0.09670458680871308,36.09446859390736,-96.25519929585457,76.200527287817
2024-09-23 16:05:27.481711,42.64,33.773777,-0.0030841997366068195,-0.022833026512682618,0.09670458680871308,36.09446859390736,-104.27510100388527,72.1922225099802
2024-09-23 16:05:27.493148,42.64,33.773828,-0.0021887829225362256,-0.023280723622328886,0.0973015264147526,36.09446859390736,-104.27510100388527,72.1922225099802
2024-09-23 16:05:27.536583,42.64,33.773878,-0.0030841997366068195,-0.023429960042815445,0.0973015264147526,24.06297849342227,-96.25519929585457,80.21211738781929
2024-09-23 16:05:27.579985,42.64,33.773878,-0.0030841997366068195,-0.023429960042815445,0.09710254654607277,32.08287849390507,-100.26678939585686,80.21211738781929
2024-09-23 16:05:27.591426,42.64,33.773929,-0.0033329230534799477,-0.023429960042815445,0.09710254654607277,32.08287849390507,-100.26678939585686,76.200527287817
2024-09-23 16:05:27.634089,42.64,33.774066,-0.0033329230534799477,-0.02362894446842532,0.09665483728461309,44.11764879391193,-96.25519929585457,80.21211738781929
2024-09-23 16:05:27.676239,42.64,33.774066,-0.003233425524256645,-0.02352945757203875,0.09665483728461309,44.11764879391193,-96.25519929585457,80.21211738781929
2024-09-23 16:05:27.687698,42.64,33.774066,-0.003233425524256645,-0.02352945757203875,0.09705279702197278,44.11764879391193,-100.26678939585686,76.200527287817
2024-09-23 16:05:27.730778,42.64,33.774118,-0.002636491424507565,-0.02308174982955575,0.09715228999426605,44.11764879391193,-96.25519929585457,76.200527287817
2024-09-23 16:05:27.773895,42.64,33.774169,-0.002636491424507565,-0.02308174982955575,0.09715228999426605,44.11764879391193,-96.25519929585457,80.21211738781929
2024-09-23 16:05:27.785825,42.64,33.774169,-0.002586742470023829,-0.024026904205785005,0.09685382322919964,28.07457030097246,-96.25519929585457,80.21211738781929
2024-09-23 16:05:27.829031,42.64,33.77422,-0.002785727465249955,-0.023827930413011865,0.09759999317981902,28.07457030097246,-100.26678939585686,84.22370748782159
2024-09-23 16:05:27.872231,42.64,33.77422,-0.002785727465249955,-0.023827930413011865,0.09759999317981902,32.08287849390507,-92.24360919585227,84.22370748782159
2024-09-23 16:05:27.883368,42.64,33.774271,-0.0030841997366068195,-0.024026904205785005,0.09759999317981902,32.08287849390507,-92.24360919585227,84.22370748782159
2024-09-23 16:05:27.925681,42.64,33.774321,-0.0028354659767690416,-0.024026904205785005,0.09705279702197278,20.05138839341998,-96.25519929585457,88.23529758782387
2024-09-23 16:05:27.968418,42.64,33.774321,-0.0028354659767690416,-0.023280723622328886,0.09725178296655933,20.05138839341998,-96.25519929585457,88.23529758782387
2024-09-23 16:05:27.980225,42.64,33.774408,-0.0028354659767690416,-0.023280723622328886,0.09725178296655933,24.06297849342227,-96.25519929585457,80.21211738781929
2024-09-23 16:05:28.022561,42.19,33.774408,-0.0031836870127375577,-0.02308174982955575,0.09710254654607277,36.09446859390736,-92.24360919585227,80.21211738781929
2024-09-23 16:05:28.034464,42.19,33.774408,-0.0031836870127375577,-0.02308174982955575,0.09710254654607277,36.09446859390736,-92.24360919585227,80.21211738781929
2024-09-23 16:05:28.121132,42.19,33.774459,-0.0030841997366068195,-0.022982261414192504,0.09759999317981902,36.09446859390736,-100.26678939585686,80.21211738781929
2024-09-23 16:05:28.166792,42.19,33.77451,-0.002636491424507565,-0.022982261414192504,0.09759999317981902,36.09446859390736,-100.26678939585686,76.200527287817
2024-09-23 16:05:28.178310,42.19,33.77451,-0.002636491424507565,-0.023579196463302005,0.09705279702197278,40.106058693909645,-100.26678939585686,76.200527287817
2024-09-23 16:05:28.210177,42.19,33.77451,-0.002636491424507565,-0.023579196463302005,0.09705279702197278,40.106058693909645,-88.23529758782387,76.200527287817
2024-09-23 16:05:28.221681,42.19,33.774561,-0.003382661564999035,-0.023479709566915436,0.09705279702197278,40.106058693909645,-88.23529758782387,88.23529758782387
2024-09-23 16:05:28.264261,42.19,33.774611,-0.003382661564999035,-0.023479709566915436,0.09705279702197278,32.08287849390507,-100.26678939585686,88.23529758782387
2024-09-23 16:05:28.275779,42.19,33.774611,-0.002636491424507565,-0.022584292562972758,0.09705279702197278,32.08287849390507,-100.26678939585686,88.23529758782387
2024-09-23 16:05:28.307515,42.19,33.774611,-0.002636491424507565,-0.022584292562972758,0.09715228999426605,32.08287849390507,-100.26678939585686,88.23529758782387
2024-09-23 16:05:28.318920,42.19,33.774662,-0.0031836870127375577,-0.022584292562972758,0.09715228999426605,32.08287849390507,-96.25519929585457,84.22370748782159
2024-09-23 16:05:28.360774,42.19,33.774662,-0.0031836870127375577,-0.023181236725942318,0.09690356060148622,44.11764879391193,-96.25519929585457,84.22370748782159
2024-09-23 16:05:28.373990,42.19,33.774799,-0.0031836870127375577,-0.023181236725942318,0.09690356060148622,44.11764879391193,-96.25519929585457,72.1922225099802
2024-09-23 16:05:28.406467,42.19,33.774799,-0.0029349636958644295,-0.023181236725942318,0.09690356060148622,44.11764879391193,-96.25519929585457,72.1922225099802
2024-09-23 16:05:28.417985,42.19,33.774799,-0.0029349636958644295,-0.022982261414192504,0.09695331012558621,44.11764879391193,-96.25519929585457,72.1922225099802
2024-09-23 16:05:28.459795,42.19,33.77485,-0.0030344509719951677,-0.0228827638849692,0.09759999317981902,44.11764879391193,-96.25519929585457,72.1922225099802
2024-09-23 16:05:28.470908,42.19,33.77485,-0.0030344509719951677,-0.0228827638849692,0.09759999317981902,48.12595698684454,-96.25519929585457,72.1922225099802
2024-09-23 16:05:28.504431,42.19,33.7749,-0.0030344509719951677,-0.0228827638849692,0.09759999317981902,48.12595698684454,-96.25519929585457,76.200527287817
2024-09-23 16:05:28.515835,42.19,33.7749,-0.0030344509719951677,-0.023181236725942318,0.09710254654607277,36.09446859390736,-96.25519929585457,76.200527287817
2024-09-23 16:05:28.557856,42.19,33.774951,-0.0031836870127375577,-0.023429960042815445,0.09710254654607277,36.09446859390736,-92.24360919585227,80.21211738781929
2024-09-23 16:05:28.569533,42.19,33.774951,-0.0031836870127375577,-0.023429960042815445,0.09745075675933246,36.09446859390736,-92.24360919585227,80.21211738781929
2024-09-23 16:05:28.601440,42.19,33.774951,-0.0031836870127375577,-0.023429960042815445,0.09745075675933246,40.106058693909645,-92.24360919585227,80.21211738781929
2024-09-23 16:05:28.613322,42.19,33.775002,-0.0026862297461545674,-0.022982261414192504,0.09745075675933246,40.106058693909645,-92.24360919585227,80.21211738781929
2024-09-23 16:05:28.656124,42.19,33.775052,-0.0026862297461545674,-0.022982261414192504,0.09695331012558621,32.08287849390507,-100.26678939585686,84.22370748782159
2024-09-23 16:05:28.668145,42.19,33.775052,-0.0035318979854855937,-0.022982261414192504,0.09695331012558621,32.08287849390507,-100.26678939585686,84.22370748782159
2024-09-23 16:05:28.699910,42.19,33.775052,-0.0035318979854855937,-0.023230986250042305,0.0970030596496862,32.08287849390507,-100.26678939585686,84.22370748782159
2024-09-23 16:05:28.711852,42.19,33.775139,-0.0035318979854855937,-0.023230986250042305,0.0970030596496862,44.11764879391193,-92.24360919585227,80.21211738781929
2024-09-23 16:05:28.755823,42.19,33.775139,-0.0028354659767690416,-0.023579196463302005,0.09690356060148622,44.11764879391193,-96.25519929585457,80.21211738781929
2024-09-23 16:05:28.798028,42.19,33.77519,-0.0031339382481259063,-0.02313149783467906,0.09690356060148622,44.11764879391193,-96.25519929585457,80.21211738781929
2024-09-23 16:05:28.809110,42.19,33.77519,-0.0031339382481259063,-0.02313149783467906,0.0970030596496862,40.106058693909645,-92.24360919585227,80.21211738781929
2024-09-23 16:05:28.851678,42.19,33.775241,-0.0030841997366068195,-0.023479709566915436,0.0970030596496862,52.137550501942634,-92.24360919585227,80.21211738781929
2024-09-23 16:05:28.894955,42.19,33.775241,-0.0030841997366068195,-0.023479709566915436,0.0970030596496862,52.137550501942634,-104.27510100388527,60.15744537978172
2024-09-23 16:05:28.906390,42.19,33.775292,-0.003382661564999035,-0.02313149783467906,0.09745075675933246,52.137550501942634,-104.27510100388527,60.15744537978172
2024-09-23 16:05:28.949274,42.19,33.775342,-0.0031836870127375577,-0.02313149783467906,0.09745075675933246,44.11764879391193,-100.26678939585686,76.200527287817
2024-09-23 16:05:28.961165,42.19,33.775342,-0.0031836870127375577,-0.023579196463302005,0.09745075675933246,44.11764879391193,-100.26678939585686,76.200527287817
2024-09-23 16:05:28.994010,42.19,33.775342,-0.0031836870127375577,-0.023579196463302005,0.09680407370509965,36.09446859390736,-100.26678939585686,76.200527287817
2024-09-23 16:05:29.005833,42.19,33.775393,-0.003382661564999035,-0.023579196463302005,0.09680407370509965,36.09446859390736,-100.26678939585686,80.21211738781929
2024-09-23 16:05:29.048040,42.28,33.775481,-0.003382661564999035,-0.023579196463302005,0.09695331012558621,28.07457030097246,-100.26678939585686,80.21211738781929
2024-09-23 16:05:29.142050,42.28,33.775481,-0.002785727465249955,-0.023579196463302005,0.09650560086412653,36.09446859390736,-100.26678939585686,80.21211738781929
2024-09-23 16:05:29.154017,42.28,33.775481,-0.002785727465249955,-0.023579196463302005,0.09650560086412653,36.09446859390736,-104.27510100388527,80.21211738781929
2024-09-23 16:05:29.186491,42.28,33.775532,-0.002785727465249955,-0.023579196463302005,0.09650560086412653,36.09446859390736,-104.27510100388527,80.21211738781929
2024-09-23 16:05:29.198391,42.28,33.775532,-0.0034324103296106863,-0.023280723622328886,0.09759999317981902,40.106058693909645,-96.25519929585457,80.21211738781929
2024-09-23 16:05:29.240192,42.28,33.775583,-0.0028354659767690416,-0.0228827638849692,0.09759999317981902,40.106058693909645,-96.25519929585457,76.200527287817
2024-09-23 16:05:29.251624,42.28,33.775583,-0.0028354659767690416,-0.0228827638849692,0.0976994861521123,44.11764879391193,-96.25519929585457,76.200527287817
2024-09-23 16:05:29.285405,42.28,33.775583,-0.0028354659767690416,-0.0228827638849692,0.0976994861521123,44.11764879391193,-100.26678939585686,84.22370748782159
2024-09-23 16:05:29.296503,42.28,33.775633,-0.0024872551938930902,-0.02278327698858263,0.09695331012558621,44.11764879391193,-100.26678939585686,84.22370748782159
2024-09-23 16:05:29.338772,42.28,33.775685,-0.0024872551938930902,-0.02278327698858263,0.09695331012558621,28.07457030097246,-96.25519929585457,76.200527287817
2024-09-23 16:05:29.350919,42.28,33.775685,-0.0034324103296106863,-0.023330473146428877,0.09695331012558621,28.07457030097246,-96.25519929585457,76.200527287817
2024-09-23 16:05:29.382308,42.28,33.775685,-0.0034324103296106863,-0.023330473146428877,0.09710254654607277,28.07457030097246,-96.25519929585457,76.200527287817
2024-09-23 16:05:29.394504,42.28,33.775775,-0.002785727465249955,-0.023330473146428877,0.09710254654607277,28.07457030097246,-100.26678939585686,80.21211738781929
2024-09-23 16:05:29.437900,42.28,33.77587,-0.002785727465249955,-0.02338022115155219,0.09745075675933246,32.08287849390507,-100.26678939585686,80.21211738781929
2024-09-23 16:05:29.480477,42.28,33.77587,-0.0028354659767690416,-0.023778180888911878,0.09745075675933246,32.08287849390507,-100.26678939585686,80.21211738781929
2024-09-23 16:05:29.492222,42.28,33.77587,-0.0028354659767690416,-0.023778180888911878,0.0973015264147526,28.07457030097246,-100.26678939585686,84.22370748782159
2024-09-23 16:05:29.535450,42.28,33.775922,-0.0030344509719951677,-0.02308174982955575,0.0973512698629459,36.09446859390736,-92.24360919585227,84.22370748782159
2024-09-23 16:05:29.578995,42.28,33.775972,-0.0030344509719951677,-0.023479709566915436,0.0973512698629459,36.09446859390736,-92.24360919585227,84.22370748782159
2024-09-23 16:05:29.590541,42.28,33.775972,-0.0030344509719951677,-0.023479709566915436,0.09710254654607277,40.106058693909645,-92.24360919585227,84.22370748782159
2024-09-23 16:05:29.632920,42.28,33.776023,-0.003233425524256645,-0.023429960042815445,0.09725178296655933,40.106058693909645,-104.27510100388527,76.200527287817
2024-09-23 16:05:29.675781,42.28,33.776023,-0.003233425524256645,-0.023429960042815445,0.09725178296655933,40.106058693909645,-100.26678939585686,84.22370748782159
2024-09-23 16:05:29.686963,42.28,33.776074,-0.0034324103296106863,-0.02367869399252531,0.09725178296655933,40.106058693909645,-100.26678939585686,84.22370748782159
2024-09-23 16:05:29.730240,42.28,33.776124,-0.0029847020175114316,-0.02367869399252531,0.09655535038822652,40.106058693909645,-100.26678939585686,88.23529758782387
2024-09-23 16:05:29.772340,42.28,33.776124,-0.0029847020175114316,-0.02313149783467906,0.09695331012558621,40.106058693909645,-100.26678939585686,88.23529758782387
2024-09-23 16:05:29.784443,42.28,33.776211,-0.0029847020175114316,-0.02313149783467906,0.09695331012558621,44.11764879391193,-104.27510100388527,76.200527287817
2024-09-23 16:05:29.827743,42.28,33.776211,-0.0034324103296106863,-0.023429960042815445,0.09755024973162574,48.12595698684454,-100.26678939585686,76.200527287817
2024-09-23 16:05:29.871253,42.28,33.776264,-0.0033329230534799477,-0.022982261414192504,0.09755024973162574,48.12595698684454,-100.26678939585686,76.200527287817
2024-09-23 16:05:29.882765,42.28,33.776264,-0.0033329230534799477,-0.022982261414192504,0.09655535038822652,44.11764879391193,-96.25519929585457,76.200527287817
2024-09-23 16:05:29.925599,42.28,33.776314,-0.0027359787006383035,-0.02263404056809607,0.09680407370509965,44.11764879391193,-96.25519929585457,76.200527287817
2024-09-23 16:05:29.967391,42.28,33.776314,-0.0027359787006383035,-0.02263404056809607,0.09680407370509965,44.11764879391193,-100.26678939585686,72.1922225099802
2024-09-23 16:05:29.978764,42.28,33.776365,-0.0030344509719951677,-0.02308174982955575,0.09685382322919964,44.11764879391193,-100.26678939585686,72.1922225099802
2024-09-23 16:05:30.020881,42.28,33.776416,-0.0030344509719951677,-0.02308174982955575,0.09685382322919964,36.09446859390736,-100.26678939585686,80.21211738781929
2024-09-23 16:05:30.032883,42.28,33.776416,-0.0026862297461545674,-0.02338022115155219,0.09685382322919964,36.09446859390736,-100.26678939585686,80.21211738781929
2024-09-23 16:05:30.066269,41.91,33.776416,-0.0026862297461545674,-0.02338022115155219,0.09670458680871308,28.07457030097246,-100.26678939585686,80.21211738781929
2024-09-23 16:05:30.078178,41.91,33.776466,-0.0024872551938930902,-0.02338022115155219,0.09670458680871308,28.07457030097246,-96.25519929585457,88.23529758782387
2024-09-23 16:05:30.162187,41.91,33.776466,-0.0024872551938930902,-0.023429960042815445,0.09690356060148622,28.07457030097246,-96.25519929585457,88.23529758782387
2024-09-23 16:05:30.174292,41.91,33.776553,-0.0024872551938930902,-0.023429960042815445,0.09690356060148622,28.07457030097246,-100.26678939585686,84.22370748782159
2024-09-23 16:05:30.217670,41.91,33.776553,-0.0031836870127375577,-0.023429960042815445,0.09680407370509965,28.07457030097246,-96.25519929585457,84.22370748782159
2024-09-23 16:05:30.229150,41.91,33.776553,-0.0031836870127375577,-0.023429960042815445,0.09680407370509965,28.07457030097246,-96.25519929585457,88.23529758782387
2024-09-23 16:05:30.260923,41.91,33.776604,-0.0031836870127375577,-0.023429960042815445,0.09680407370509965,28.07457030097246,-96.25519929585457,88.23529758782387
2024-09-23 16:05:30.272855,41.91,33.776604,-0.0031836870127375577,-0.023280723622328886,0.09720203344245934,32.08287849390507,-96.25519929585457,88.23529758782387
2024-09-23 16:05:30.316486,41.91,33.776655,-0.003233425524256645,-0.022733528983459317,0.0973512698629459,36.09446859390736,-96.25519929585457,76.200527287817
2024-09-23 16:05:30.358430,41.91,33.776706,-0.003233425524256645,-0.022733528983459317,0.0973512698629459,36.09446859390736,-96.25519929585457,76.200527287817
2024-09-23 16:05:30.370346,41.91,33.776706,-0.003382661564999035,-0.023579196463302005,0.09750050628343246,36.09446859390736,-96.25519929585457,76.200527287817
2024-09-23 16:05:30.412932,41.91,33.776799,-0.0033329230534799477,-0.02338022115155219,0.09750050628343246,44.11764879391193,-100.26678939585686,76.200527287817
2024-09-23 16:05:30.455790,41.91,33.776799,-0.0033329230534799477,-0.02338022115155219,0.09710254654607277,36.09446859390736,-100.26678939585686,76.200527287817
2024-09-23 16:05:30.467613,41.91,33.776849,-0.0030841997366068195,-0.02338022115155219,0.09710254654607277,36.09446859390736,-100.26678939585686,80.21211738781929
2024-09-23 16:05:30.509884,41.91,33.776943,-0.0030841997366068195,-0.02338022115155219,0.09710254654607277,28.07457030097246,-96.25519929585457,72.1922225099802
2024-09-23 16:05:30.552619,41.91,33.776943,-0.0033329230534799477,-0.02293251340906919,0.09710254654607277,28.07457030097246,-96.25519929585457,72.1922225099802
2024-09-23 16:05:30.564827,41.91,33.776943,-0.0033329230534799477,-0.02293251340906919,0.09774922960030558,32.08287849390507,-108.28669110388756,80.21211738781929
2024-09-23 16:05:30.607991,41.91,33.776995,-0.0033329230534799477,-0.023479709566915436,0.0970030596496862,32.08287849390507,-96.25519929585457,80.21211738781929
2024-09-23 16:05:30.649927,41.91,33.777046,-0.0033329230534799477,-0.023479709566915436,0.0970030596496862,32.08287849390507,-96.25519929585457,76.200527287817
2024-09-23 16:05:30.660846,41.91,33.777046,-0.0026862297461545674,-0.02303200030545576,0.0970030596496862,32.08287849390507,-96.25519929585457,76.200527287817
2024-09-23 16:05:30.703675,41.91,33.777096,-0.0033329230534799477,-0.02362894446842532,0.0970030596496862,32.08287849390507,-96.25519929585457,72.1922225099802
2024-09-23 16:05:30.715018,41.91,33.777096,-0.0033329230534799477,-0.02362894446842532,0.09740101331113918,32.08287849390507,-96.25519929585457,72.1922225099802
2024-09-23 16:05:30.746991,41.91,33.777096,-0.0033329230534799477,-0.02362894446842532,0.09740101331113918,36.09446859390736,-100.26678939585686,72.1922225099802
2024-09-23 16:05:30.758005,41.91,33.777147,-0.0032831742888682963,-0.02293251340906919,0.09740101331113918,36.09446859390736,-100.26678939585686,80.21211738781929
2024-09-23 16:05:30.800746,41.91,33.777147,-0.0032831742888682963,-0.02293251340906919,0.09774922960030558,36.09446859390736,-96.25519929585457,84.22370748782159
2024-09-23 16:05:30.813984,41.91,33.777198,-0.002437506429281439,-0.02293251340906919,0.09774922960030558,36.09446859390736,-96.25519929585457,84.22370748782159
2024-09-23 16:05:30.846398,41.91,33.777198,-0.002437506429281439,-0.02278327698858263,0.09755024973162574,32.08287849390507,-96.25519929585457,84.22370748782159
2024-09-23 16:05:30.857903,41.91,33.777284,-0.002437506429281439,-0.02278327698858263,0.09755024973162574,32.08287849390507,-100.26678939585686,80.21211738781929
2024-09-23 16:05:30.901375,41.91,33.777284,-0.003631395514708897,-0.023181236725942318,0.09695331012558621,24.06297849342227,-100.26678939585686,84.22370748782159
2024-09-23 16:05:30.944150,41.91,33.777336,-0.002636491424507565,-0.022584292562972758,0.09695331012558621,24.06297849342227,-100.26678939585686,84.22370748782159
2024-09-23 16:05:30.956205,41.91,33.777336,-0.002636491424507565,-0.022584292562972758,0.0970030596496862,36.09446859390736,-92.24360919585227,84.22370748782159
2024-09-23 16:05:30.988918,41.91,33.777336,-0.002636491424507565,-0.022584292562972758,0.0970030596496862,36.09446859390736,-92.24360919585227,84.22370748782159
2024-09-23 16:05:31.000518,41.91,33.777386,-0.002785727465249955,-0.023330473146428877,0.09695331012558621,32.08287849390507,-92.24360919585227,84.22370748782159
2024-09-23 16:05:31.042381,41.91,33.777437,-0.003631395514708897,-0.023330473146428877,0.09695331012558621,32.08287849390507,-100.26678939585686,80.21211738781929
2024-09-23 16:05:31.053907,41.91,33.777437,-0.003631395514708897,-0.023230986250042305,0.09705279702197278,32.08287849390507,-100.26678939585686,80.21211738781929
2024-09-23 16:05:31.086347,41.82,33.777437,-0.003631395514708897,-0.023230986250042305,0.09705279702197278,40.106058693909645,-100.26678939585686,80.21211738781929
2024-09-23 16:05:31.097805,41.82,33.777488,-0.002785727465249955,-0.02303200030545576,0.09705279702197278,40.106058693909645,-100.26678939585686,80.21211738781929
2024-09-23 16:05:31.192015,41.82,33.777538,-0.002785727465249955,-0.02303200030545576,0.09670458680871308,44.11764879391193,-96.25519929585457,88.23529758782387
2024-09-23 16:05:31.234898,41.82,33.777538,-0.002785727465249955,-0.02352945757203875,0.09745075675933246,44.11764879391193,-96.25519929585457,88.23529758782387
2024-09-23 16:05:31.246096,41.82,33.777625,-0.002785727465249955,-0.02352945757203875,0.09745075675933246,32.08287849390507,-100.26678939585686,76.200527287817
2024-09-23 16:05:31.288540,41.82,33.777625,-0.0027359787006383035,-0.023330473146428877,0.09675432418099966,28.07457030097246,-104.27510100388527,76.200527287817
2024-09-23 16:05:31.300605,41.82,33.777625,-0.0027359787006383035,-0.023330473146428877,0.09675432418099966,28.07457030097246,-104.27510100388527,76.200527287817
2024-09-23 16:05:31.333163,41.82,33.777677,-0.002437506429281439,-0.023330473146428877,0.09675432418099966,28.07457030097246,-104.27510100388527,76.200527287817
2024-09-23 16:05:31.345034,41.82,33.777677,-0.002437506429281439,-0.023479709566915436,0.09705279702197278,36.09446859390736,-96.25519929585457,76.200527287817
2024-09-23 16:05:31.386885,41.82,33.777728,-0.0038801188315820256,-0.023429960042815445,0.0976994861521123,32.08287849390507,-96.25519929585457,80.21211738781929
2024-09-23 16:05:31.429310,41.82,33.777728,-0.0038801188315820256,-0.023429960042815445,0.0976994861521123,32.08287849390507,-92.24360919585227,76.200527287817
2024-09-23 16:05:31.440670,41.82,33.777822,-0.0029847020175114316,-0.023230986250042305,0.09720203344245934,32.08287849390507,-92.24360919585227,76.200527287817
2024-09-23 16:05:31.482851,41.82,33.777873,-0.0028354659767690416,-0.023230986250042305,0.09720203344245934,44.11764879391193,-108.28669110388756,72.1922225099802
2024-09-23 16:05:31.494498,41.82,33.777873,-0.0028354659767690416,-0.023778180888911878,0.09720203344245934,44.11764879391193,-108.28669110388756,72.1922225099802
2024-09-23 16:05:31.526308,41.82,33.777873,-0.0028354659767690416,-0.023778180888911878,0.09774922960030558,44.11764879391193,-108.28669110388756,72.1922225099802
2024-09-23 16:05:31.537631,41.82,33.777923,-0.002437506429281439,-0.023778180888911878,0.09774922960030558,44.11764879391193,-100.26678939585686,80.21211738781929
2024-09-23 16:05:31.580156,41.82,33.777923,-0.002437506429281439,-0.02338022115155219,0.09710254654607277,48.12595698684454,-100.26678939585686,76.200527287817
2024-09-23 16:05:31.591819,41.82,33.778015,-0.002437506429281439,-0.02338022115155219,0.09710254654607277,48.12595698684454,-100.26678939585686,76.200527287817
2024-09-23 16:05:31.624176,41.82,33.778015,-0.002785727465249955,-0.02338022115155219,0.09710254654607277,48.12595698684454,-100.26678939585686,76.200527287817
2024-09-23 16:05:31.635643,41.82,33.778015,-0.002785727465249955,-0.02338022115155219,0.09710254654607277,20.05138839341998,-100.26678939585686,76.200527287817
2024-09-23 16:05:31.729603,41.82,33.778067,-0.0025369937054121774,-0.02338022115155219,0.09690356060148622,20.05138839341998,-104.27510100388527,76.200527287817
2024-09-23 16:05:31.773389,41.82,33.778067,-0.0025369937054121774,-0.02338022115155219,0.09690356060148622,24.06297849342227,-104.27510100388527,84.22370748782159
2024-09-23 16:05:31.784456,41.82,33.778117,-0.0028354659767690416,-0.023230986250042305,0.09690356060148622,24.06297849342227,-104.27510100388527,84.22370748782159
2024-09-23 16:05:31.827991,41.82,33.778168,-0.0031836870127375577,-0.023230986250042305,0.09740101331113918,28.07457030097246,-100.26678939585686,88.23529758782387
2024-09-23 16:05:31.870567,41.82,33.778168,-0.0031836870127375577,-0.023280723622328886,0.09745075675933246,32.08287849390507,-100.26678939585686,88.23529758782387
2024-09-23 16:05:31.882067,41.82,33.778219,-0.0031836870127375577,-0.023280723622328886,0.09745075675933246,32.08287849390507,-100.26678939585686,80.21211738781929
2024-09-23 16:05:31.925325,41.82,33.778219,-0.0031339382481259063,-0.0228827638849692,0.0973512698629459,48.12595698684454,-92.24360919585227,80.21211738781929
2024-09-23 16:05:31.967786,41.82,33.778357,-0.002586742470023829,-0.023330473146428877,0.0973512698629459,48.12595698684454,-92.24360919585227,80.21211738781929
2024-09-23 16:05:31.979370,41.82,33.778357,-0.002586742470023829,-0.023330473146428877,0.09675432418099966,28.07457030097246,-92.24360919585227,80.21211738781929
2024-09-23 16:05:32.014180,41.82,33.778357,-0.002586742470023829,-0.023330473146428877,0.09675432418099966,28.07457030097246,-92.24360919585227,84.22370748782159
2024-09-23 16:05:32.025253,41.82,33.778408,-0.002785727465249955,-0.02367869399252531,0.09685382322919964,28.07457030097246,-92.24360919585227,84.22370748782159
2024-09-23 16:05:32.067409,41.82,33.77846,-0.0031339382481259063,-0.023330473146428877,0.09685382322919964,28.07457030097246,-100.26678939585686,80.21211738781929
2024-09-23 16:05:32.079767,41.82,33.77846,-0.0031339382481259063,-0.023330473146428877,0.09705279702197278,28.07457030097246,-100.26678939585686,80.21211738781929
2024-09-23 16:05:32.111900,41.64,33.77846,-0.0031339382481259063,-0.023330473146428877,0.09705279702197278,32.08287849390507,-104.27510100388527,80.21211738781929
2024-09-23 16:05:32.123589,41.64,33.77851,-0.0033329230534799477,-0.02338022115155219,0.09705279702197278,32.08287849390507,-104.27510100388527,80.21211738781929
2024-09-23 16:05:32.217756,41.64,33.778561,-0.0031836870127375577,-0.02338022115155219,0.0973015264147526,32.08287849390507,-96.25519929585457,80.21211738781929
2024-09-23 16:05:32.260233,41.64,33.778561,-0.0031836870127375577,-0.023280723622328886,0.09705279702197278,40.106058693909645,-96.25519929585457,80.21211738781929
2024-09-23 16:05:32.271647,41.64,33.778649,-0.0031836870127375577,-0.023280723622328886,0.09705279702197278,40.106058693909645,-96.25519929585457,84.22370748782159
2024-09-23 16:05:32.314200,41.64,33.778649,-0.0030344509719951677,-0.023280723622328886,0.09680407370509965,48.12595698684454,-96.25519929585457,80.21211738781929
2024-09-23 16:05:32.358186,41.64,33.778701,-0.0026862297461545674,-0.02278327698858263,0.09680407370509965,48.12595698684454,-96.25519929585457,80.21211738781929
2024-09-23 16:05:32.370453,41.64,33.778701,-0.0026862297461545674,-0.02278327698858263,0.09670458680871308,40.106058693909645,-92.24360919585227,80.21211738781929
2024-09-23 16:05:32.403531,41.64,33.778701,-0.0026862297461545674,-0.02278327698858263,0.09670458680871308,40.106058693909645,-92.24360919585227,80.21211738781929
2024-09-23 16:05:32.415621,41.64,33.778751,-0.0032831742888682963,-0.022733528983459317,0.09705279702197278,28.07457030097246,-92.24360919585227,80.21211738781929
2024-09-23 16:05:32.458404,41.64,33.778846,-0.002586742470023829,-0.023429960042815445,0.09705279702197278,28.07457030097246,-96.25519929585457,80.21211738781929
2024-09-23 16:05:32.470609,41.64,33.778846,-0.002586742470023829,-0.023429960042815445,0.09685382322919964,28.07457030097246,-96.25519929585457,80.21211738781929
2024-09-23 16:05:32.504071,41.64,33.778846,-0.002586742470023829,-0.023429960042815445,0.09685382322919964,24.06297849342227,-100.26678939585686,76.200527287817
2024-09-23 16:05:32.515755,41.64,33.778896,-0.0031836870127375577,-0.02303200030545576,0.09685382322919964,24.06297849342227,-100.26678939585686,76.200527287817
2024-09-23 16:05:32.558196,41.64,33.778947,-0.002785727465249955,-0.02303200030545576,0.09759999317981902,28.07457030097246,-108.28669110388756,80.21211738781929
2024-09-23 16:05:32.600252,41.64,33.778947,-0.002785727465249955,-0.02293251340906919,0.09764974270391902,28.07457030097246,-108.28669110388756,80.21211738781929
2024-09-23 16:05:32.614006,41.64,33.779039,-0.002785727465249955,-0.02293251340906919,0.09764974270391902,48.12595698684454,-96.25519929585457,80.21211738781929
2024-09-23 16:05:32.646453,41.64,33.779039,-0.0031339382481259063,-0.02293251340906919,0.09764974270391902,48.12595698684454,-96.25519929585457,80.21211738781929
2024-09-23 16:05:32.657607,41.64,33.779039,-0.0031339382481259063,-0.02352945757203875,0.09750050628343246,52.137550501942634,-100.26678939585686,80.21211738781929
2024-09-23 16:05:32.699519,41.64,33.779091,-0.0028852147413806935,-0.023280723622328886,0.09720203344245934,52.137550501942634,-100.26678939585686,80.21211738781929
2024-09-23 16:05:32.710524,41.64,33.779091,-0.0028852147413806935,-0.023280723622328886,0.09720203344245934,36.09446859390736,-96.25519929585457,80.21211738781929
2024-09-23 16:05:32.754297,41.64,33.779141,-0.0026862297461545674,-0.02313149783467906,0.09740101331113918,40.106058693909645,-96.25519929585457,84.22370748782159
2024-09-23 16:05:32.796284,41.64,33.779192,-0.0026862297461545674,-0.02313149783467906,0.09740101331113918,40.106058693909645,-96.25519929585457,76.200527287817
2024-09-23 16:05:32.807798,41.64,33.779192,-0.0024872551938930902,-0.02352945757203875,0.09725178296655933,40.106058693909645,-96.25519929585457,76.200527287817
2024-09-23 16:05:32.849965,41.64,33.779243,-0.002387757474797703,-0.02352945757203875,0.09725178296655933,40.106058693909645,-100.26678939585686,80.21211738781929
2024-09-23 16:05:32.892981,41.64,33.779243,-0.002387757474797703,-0.023429960042815445,0.09725178296655933,40.106058693909645,-100.26678939585686,80.21211738781929
2024-09-23 16:05:32.945292,41.64,33.779293,-0.002387757474797703,-0.023429960042815445,0.09705279702197278,32.08287849390507,-96.25519929585457,80.21211738781929
2024-09-23 16:05:32.957075,41.64,33.779293,-0.0033329230534799477,-0.023429960042815445,0.09705279702197278,32.08287849390507,-96.25519929585457,80.21211738781929
2024-09-23 16:05:32.990302,41.64,33.779293,-0.0033329230534799477,-0.023479709566915436,0.0970030596496862,32.08287849390507,-96.25519929585457,80.21211738781929
2024-09-23 16:05:33.001311,41.64,33.77938,-0.0033329230534799477,-0.023479709566915436,0.0970030596496862,40.106058693909645,-100.26678939585686,80.21211738781929
2024-09-23 16:05:33.043545,41.64,33.77938,-0.0033329230534799477,-0.02303200030545576,0.0966050877605131,44.11764879391193,-96.25519929585457,80.21211738781929
2024-09-23 16:05:33.055592,41.64,33.77938,-0.0033329230534799477,-0.02303200030545576,0.0966050877605131,44.11764879391193,-96.25519929585457,80.21211738781929
2024-09-23 16:05:33.087868,41.64,33.779432,-0.002437506429281439,-0.02303200030545576,0.0966050877605131,44.11764879391193,-96.25519929585457,80.21211738781929
2024-09-23 16:05:33.099482,41.64,33.779432,-0.002437506429281439,-0.02308174982955575,0.09779897304849887,44.11764879391193,-96.25519929585457,80.21211738781929
2024-09-23 16:05:33.142034,41.32,33.779482,-0.0029847020175114316,-0.023728432883788564,0.09715228999426605,32.08287849390507,-96.25519929585457,76.200527287817
2024-09-23 16:05:33.235633,41.32,33.779482,-0.0029847020175114316,-0.023728432883788564,0.09715228999426605,32.08287849390507,-96.25519929585457,76.200527287817
2024-09-23 16:05:33.247810,41.32,33.779577,-0.0028354659767690416,-0.0228827638849692,0.09710254654607277,32.08287849390507,-96.25519929585457,76.200527287817
2024-09-23 16:05:33.281148,41.32,33.779577,-0.0028354659767690416,-0.0228827638849692,0.09710254654607277,28.07457030097246,-96.25519929585457,76.200527287817
2024-09-23 16:05:33.293036,41.32,33.779628,-0.002586742470023829,-0.02268379009219606,0.09710254654607277,28.07457030097246,-92.24360919585227,80.21211738781929
2024-09-23 16:05:33.336000,41.32,33.779679,-0.002586742470023829,-0.02268379009219606,0.09685382322919964,28.07457030097246,-92.24360919585227,80.21211738781929
2024-09-23 16:05:33.348209,41.32,33.779679,-0.0031339382481259063,-0.02268379009219606,0.09685382322919964,28.07457030097246,-92.24360919585227,80.21211738781929
2024-09-23 16:05:33.380601,41.32,33.779679,-0.0031339382481259063,-0.023479709566915436,0.0973512698629459,28.07457030097246,-92.24360919585227,80.21211738781929
2024-09-23 16:05:33.391880,41.32,33.77977,-0.0031339382481259063,-0.023479709566915436,0.0973512698629459,48.12595698684454,-96.25519929585457,80.21211738781929
2024-09-23 16:05:33.434347,41.32,33.77977,-0.002785727465249955,-0.023479709566915436,0.09759999317981902,40.106058693909645,-96.25519929585457,80.21211738781929
2024-09-23 16:05:33.529420,41.32,33.779868,-0.0029349636958644295,-0.023330473146428877,0.09759999317981902,40.106058693909645,-96.25519929585457,80.21211738781929
2024-09-23 16:05:33.541481,41.32,33.779868,-0.0029349636958644295,-0.023330473146428877,0.09759999317981902,32.08287849390507,-100.26678939585686,80.21211738781929
2024-09-23 16:05:33.574139,41.32,33.779868,-0.0029349636958644295,-0.023330473146428877,0.09759999317981902,32.08287849390507,-100.26678939585686,80.21211738781929
2024-09-23 16:05:33.585753,41.32,33.77992,-0.0030841997366068195,-0.02338022115155219,0.09665483728461309,28.07457030097246,-100.26678939585686,80.21211738781929
2024-09-23 16:05:33.627646,41.32,33.77997,-0.0032831742888682963,-0.022484804147609512,0.09665483728461309,28.07457030097246,-96.25519929585457,76.200527287817
2024-09-23 16:05:33.639291,41.32,33.77997,-0.0032831742888682963,-0.022484804147609512,0.09705279702197278,28.07457030097246,-96.25519929585457,76.200527287817
2024-09-23 16:05:33.671928,41.32,33.77997,-0.0032831742888682963,-0.022484804147609512,0.09705279702197278,32.08287849390507,-100.26678939585686,76.200527287817
2024-09-23 16:05:33.683541,41.32,33.780021,-0.0030841997366068195,-0.023230986250042305,0.09705279702197278,32.08287849390507,-100.26678939585686,80.21211738781929
2024-09-23 16:05:33.725250,41.32,33.780072,-0.0030841997366068195,-0.023230986250042305,0.09710254654607277,32.08287849390507,-92.24360919585227,84.22370748782159
2024-09-23 16:05:33.736965,41.32,33.780072,-0.0033329230534799477,-0.023230986250042305,0.09710254654607277,32.08287849390507,-92.24360919585227,84.22370748782159
2024-09-23 16:05:33.769366,41.32,33.780072,-0.0033329230534799477,-0.023778180888911878,0.0970030596496862,32.08287849390507,-92.24360919585227,84.22370748782159
2024-09-23 16:05:33.781012,41.32,33.780209,-0.0033329230534799477,-0.023778180888911878,0.0970030596496862,36.09446859390736,-92.24360919585227,88.23529758782387
2024-09-23 16:05:33.823629,41.32,33.780209,-0.0028852147413806935,-0.02303200030545576,0.09779897304849887,40.106058693909645,-96.25519929585457,88.23529758782387
2024-09-23 16:05:33.835399,41.32,33.780209,-0.0028852147413806935,-0.02303200030545576,0.09779897304849887,40.106058693909645,-96.25519929585457,68.18063240997792
2024-09-23 16:05:33.867775,41.32,33.780261,-0.0030344509719951677,-0.02303200030545576,0.09779897304849887,40.106058693909645,-96.25519929585457,68.18063240997792
2024-09-23 16:05:33.878838,41.32,33.780261,-0.0030344509719951677,-0.02293251340906919,0.09720203344245934,36.09446859390736,-92.24360919585227,68.18063240997792
2024-09-23 16:05:33.922302,41.32,33.780311,-0.0034324103296106863,-0.023230986250042305,0.0970030596496862,32.08287849390507,-92.24360919585227,80.21211738781929
2024-09-23 16:05:33.964742,41.32,33.780311,-0.0034324103296106863,-0.023230986250042305,0.0970030596496862,32.08287849390507,-104.27510100388527,84.22370748782159
2024-09-23 16:05:33.975898,41.32,33.780362,-0.002586742470023829,-0.023280723622328886,0.09680407370509965,32.08287849390507,-104.27510100388527,84.22370748782159
2024-09-23 16:05:34.017862,41.32,33.780413,-0.0031339382481259063,-0.023280723622328886,0.09680407370509965,32.08287849390507,-100.26678939585686,72.1922225099802
2024-09-23 16:05:34.030232,41.32,33.780413,-0.0031339382481259063,-0.02303200030545576,0.09680407370509965,32.08287849390507,-100.26678939585686,72.1922225099802
2024-09-23 16:05:34.062381,41.32,33.780413,-0.0031339382481259063,-0.02303200030545576,0.09710254654607277,32.08287849390507,-100.26678939585686,72.1922225099802
2024-09-23 16:05:34.074300,41.32,33.780464,-0.0030344509719951677,-0.02303200030545576,0.09710254654607277,32.08287849390507,-96.25519929585457,72.1922225099802
2024-09-23 16:05:34.117269,41.32,33.780464,-0.0030344509719951677,-0.02293251340906919,0.09695331012558621,24.06297849342227,-104.27510100388527,76.200527287817
2024-09-23 16:05:34.128933,41.32,33.78055,-0.0030344509719951677,-0.02293251340906919,0.09695331012558621,24.06297849342227,-104.27510100388527,76.200527287817
2024-09-23 16:05:34.162151,41.69,33.78055,-0.0026862297461545674,-0.023330473146428877,0.09675432418099966,40.106058693909645,-104.27510100388527,76.200527287817
2024-09-23 16:05:34.173714,41.69,33.78055,-0.0026862297461545674,-0.023330473146428877,0.09675432418099966,40.106058693909645,-100.26678939585686,80.21211738781929
2024-09-23 16:05:34.257409,41.69,33.780602,-0.003233425524256645,-0.023330473146428877,0.09675432418099966,40.106058693909645,-100.26678939585686,80.21211738781929
2024-09-23 16:05:34.269469,41.69,33.780602,-0.003233425524256645,-0.023579196463302005,0.09705279702197278,40.106058693909645,-104.27510100388527,80.21211738781929
2024-09-23 16:05:34.313157,41.69,33.780652,-0.0031836870127375577,-0.02338022115155219,0.09764974270391902,36.09446859390736,-104.27510100388527,84.22370748782159
2024-09-23 16:05:34.355427,41.69,33.780652,-0.0031836870127375577,-0.02338022115155219,0.09764974270391902,36.09446859390736,-100.26678939585686,76.200527287817
2024-09-23 16:05:34.367366,41.69,33.780703,-0.0030344509719951677,-0.02278327698858263,0.09715228999426605,36.09446859390736,-100.26678939585686,76.200527287817
2024-09-23 16:05:34.410435,41.69,33.780754,-0.0029847020175114316,-0.023927417309398437,0.09715228999426605,40.106058693909645,-96.25519929585457,76.200527287817
2024-09-23 16:05:34.453958,41.69,33.780754,-0.0029847020175114316,-0.023927417309398437,0.09695331012558621,36.09446859390736,-96.25519929585457,76.200527287817
2024-09-23 16:05:34.465869,41.69,33.780804,-0.003482159473966507,-0.023927417309398437,0.09695331012558621,36.09446859390736,-100.26678939585686,80.21211738781929
2024-09-23 16:05:34.509129,41.69,33.78094,-0.003482159473966507,-0.02303200030545576,0.09695331012558621,40.106058693909645,-104.27510100388527,80.21211738781929
2024-09-23 16:05:34.552473,41.69,33.78094,-0.0030344509719951677,-0.023479709566915436,0.09764974270391902,48.12595698684454,-104.27510100388527,80.21211738781929
2024-09-23 16:05:34.564070,41.69,33.78094,-0.0030344509719951677,-0.023479709566915436,0.09764974270391902,48.12595698684454,-112.29828120388984,72.1922225099802
2024-09-23 16:05:34.596029,41.69,33.780992,-0.0030344509719951677,-0.023479709566915436,0.09764974270391902,48.12595698684454,-112.29828120388984,72.1922225099802
2024-09-23 16:05:34.607552,41.69,33.780992,-0.002636491424507565,-0.023778180888911878,0.09740101331113918,44.11764879391193,-96.25519929585457,72.1922225099802
2024-09-23 16:05:34.651039,41.69,33.781043,-0.0030841997366068195,-0.0228827638849692,0.09740101331113918,44.11764879391193,-96.25519929585457,76.200527287817
2024-09-23 16:05:34.664415,41.69,33.781043,-0.0030841997366068195,-0.0228827638849692,0.09740101331113918,36.09446859390736,-96.25519929585457,76.200527287817
2024-09-23 16:05:34.696792,41.69,33.781043,-0.0030841997366068195,-0.0228827638849692,0.09740101331113918,36.09446859390736,-100.26678939585686,76.200527287817
2024-09-23 16:05:34.749729,41.69,33.781093,-0.0028354659767690416,-0.023181236725942318,0.09725178296655933,28.07457030097246,-100.26678939585686,76.200527287817
2024-09-23 16:05:34.761791,41.69,33.781093,-0.0028354659767690416,-0.023181236725942318,0.09725178296655933,28.07457030097246,-100.26678939585686,76.200527287817
2024-09-23 16:05:34.795465,41.69,33.781144,-0.0028852147413806935,-0.023181236725942318,0.09725178296655933,28.07457030097246,-100.26678939585686,84.22370748782159
2024-09-23 16:05:34.806585,41.69,33.781144,-0.0028852147413806935,-0.02367869399252531,0.0976994861521123,28.07457030097246,-100.26678939585686,84.22370748782159
2024-09-23 16:05:34.848844,41.69,33.781195,-0.002387757474797703,-0.023827930413011865,0.09695331012558621,28.07457030097246,-96.25519929585457,84.22370748782159
2024-09-23 16:05:34.892223,41.69,33.781195,-0.002387757474797703,-0.023827930413011865,0.09695331012558621,44.11764879391193,-100.26678939585686,72.1922225099802
2024-09-23 16:05:34.903930,41.69,33.781282,-0.0030841997366068195,-0.02352945757203875,0.09695331012558621,44.11764879391193,-100.26678939585686,72.1922225099802
2024-09-23 16:05:34.946196,41.69,33.781332,-0.0028354659767690416,-0.02352945757203875,0.09725178296655933,36.09446859390736,-96.25519929585457,76.200527287817
2024-09-23 16:05:34.988626,41.69,33.781332,-0.0028354659767690416,-0.02308174982955575,0.09655535038822652,36.09446859390736,-96.25519929585457,76.200527287817
2024-09-23 16:05:34.999810,41.69,33.781428,-0.0028354659767690416,-0.02308174982955575,0.09655535038822652,24.06297849342227,-100.26678939585686,80.21211738781929
2024-09-23 16:05:35.042866,41.69,33.781428,-0.002785727465249955,-0.023230986250042305,0.09670458680871308,32.08287849390507,-100.26678939585686,80.21211738781929
2024-09-23 16:05:35.054867,41.69,33.781428,-0.002785727465249955,-0.023230986250042305,0.09670458680871308,32.08287849390507,-100.26678939585686,80.21211738781929
2024-09-23 16:05:35.087937,41.69,33.781479,-0.0030841997366068195,-0.023479709566915436,0.09670458680871308,32.08287849390507,-100.26678939585686,80.21211738781929
2024-09-23 16:05:35.099081,41.69,33.781479,-0.0030841997366068195,-0.023479709566915436,0.09774922960030558,36.09446859390736,-100.26678939585686,80.21211738781929
2024-09-23 16:05:35.141799,41.69,33.78153,-0.003233425524256645,-0.023479709566915436,0.09740101331113918,20.05138839341998,-100.26678939585686,76.200527287817
2024-09-23 16:05:35.184966,41.32,33.781581,-0.003233425524256645,-0.023479709566915436,0.09740101331113918,20.05138839341998,-96.25519929585457,80.21211738781929
2024-09-23 16:05:35.196517,41.32,33.781581,-0.002785727465249955,-0.022584292562972758,0.09745075675933246,20.05138839341998,-96.25519929585457,80.21211738781929
2024-09-23 16:05:35.238739,41.32,33.781632,-0.002785727465249955,-0.022584292562972758,0.09745075675933246,32.08287849390507,-96.25519929585457,76.200527287817
2024-09-23 16:05:35.281020,41.32,33.781632,-0.0035318979854855937,-0.02352945757203875,0.09745075675933246,32.08287849390507,-96.25519929585457,76.200527287817
2024-09-23 16:05:35.293283,41.32,33.781632,-0.0035318979854855937,-0.02352945757203875,0.09720203344245934,44.11764879391193,-92.24360919585227,76.200527287817
2024-09-23 16:05:35.336801,41.32,33.781683,-0.0035318979854855937,-0.02293251340906919,0.0966050877605131,36.09446859390736,-100.26678939585686,76.200527287817
2024-09-23 16:05:35.378865,41.32,33.781769,-0.0035318979854855937,-0.02293251340906919,0.0966050877605131,36.09446859390736,-100.26678939585686,80.21211738781929
2024-09-23 16:05:35.390030,41.32,33.781769,-0.0033329230534799477,-0.022982261414192504,0.09705279702197278,36.09446859390736,-100.26678939585686,80.21211738781929
2024-09-23 16:05:35.433973,41.32,33.781821,-0.002586742470023829,-0.02338022115155219,0.0970030596496862,36.09446859390736,-96.25519929585457,84.22370748782159
2024-09-23 16:05:35.476743,41.32,33.781821,-0.002586742470023829,-0.02338022115155219,0.0970030596496862,44.11764879391193,-96.25519929585457,80.21211738781929
2024-09-23 16:05:35.487966,41.32,33.781871,-0.0028354659767690416,-0.023429960042815445,0.0970030596496862,44.11764879391193,-96.25519929585457,80.21211738781929
2024-09-23 16:05:35.530440,41.32,33.781922,-0.0029847020175114316,-0.023429960042815445,0.09680407370509965,24.06297849342227,-88.23529758782387,88.23529758782387
2024-09-23 16:05:35.573865,41.32,33.781922,-0.0029847020175114316,-0.023429960042815445,0.09759999317981902,24.06297849342227,-88.23529758782387,88.23529758782387
2024-09-23 16:05:35.585771,41.32,33.782013,-0.0029847020175114316,-0.023429960042815445,0.09759999317981902,40.106058693909645,-92.24360919585227,84.22370748782159
2024-09-23 16:05:35.630475,41.32,33.782013,-0.003382661564999035,-0.02308174982955575,0.0973512698629459,52.137550501942634,-96.25519929585457,80.21211738781929
2024-09-23 16:05:35.672559,41.32,33.782064,-0.003233425524256645,-0.02308174982955575,0.0973512698629459,52.137550501942634,-96.25519929585457,80.21211738781929
2024-09-23 16:05:35.683791,41.32,33.782064,-0.003233425524256645,-0.02308174982955575,0.09705279702197278,52.137550501942634,-96.25519929585457,80.21211738781929
2024-09-23 16:05:35.727028,41.32,33.782115,-0.0035816467500972456,-0.02338022115155219,0.09685382322919964,52.137550501942634,-96.25519929585457,80.21211738781929
2024-09-23 16:05:35.769827,41.32,33.782166,-0.0035816467500972456,-0.02338022115155219,0.09685382322919964,52.137550501942634,-92.24360919585227,80.21211738781929
2024-09-23 16:05:35.781763,41.32,33.782166,-0.0030841997366068195,-0.023429960042815445,0.0970030596496862,52.137550501942634,-92.24360919585227,80.21211738781929
2024-09-23 16:05:35.825256,41.32,33.782216,-0.002586742470023829,-0.023181236725942318,0.0970030596496862,40.106058693909645,-100.26678939585686,80.21211738781929
2024-09-23 16:05:35.868379,41.32,33.782216,-0.002586742470023829,-0.023181236725942318,0.09740101331113918,28.07457030097246,-100.26678939585686,76.200527287817
2024-09-23 16:05:35.879930,41.32,33.782267,-0.0031339382481259063,-0.023181236725942318,0.09740101331113918,28.07457030097246,-100.26678939585686,76.200527287817
2024-09-23 16:05:35.922499,41.32,33.782354,-0.0031339382481259063,-0.023479709566915436,0.09675432418099966,28.07457030097246,-100.26678939585686,80.21211738781929
2024-09-23 16:05:35.966095,41.32,33.782354,-0.0030841997366068195,-0.02313149783467906,0.09695331012558621,28.07457030097246,-100.26678939585686,80.21211738781929
2024-09-23 16:05:35.976991,41.32,33.782354,-0.0030841997366068195,-0.02313149783467906,0.09695331012558621,28.07457030097246,-96.25519929585457,80.21211738781929
2024-09-23 16:05:36.019119,41.32,33.782406,-0.0030841997366068195,-0.023579196463302005,0.09715228999426605,40.106058693909645,-104.27510100388527,80.21211738781929
2024-09-23 16:05:36.062350,41.32,33.782456,-0.0030841997366068195,-0.023579196463302005,0.09715228999426605,40.106058693909645,-104.27510100388527,80.21211738781929
2024-09-23 16:05:36.074236,41.32,33.782456,-0.0030841997366068195,-0.023330473146428877,0.09715228999426605,40.106058693909645,-104.27510100388527,80.21211738781929
2024-09-23 16:05:36.116773,41.32,33.782507,-0.0028852147413806935,-0.023330473146428877,0.09690356060148622,48.12595698684454,-96.25519929585457,80.21211738781929
2024-09-23 16:05:36.160037,41.32,33.782507,-0.0028852147413806935,-0.02338022115155219,0.0973015264147526,56.14914060194492,-96.25519929585457,80.21211738781929
2024-09-23 16:05:36.171389,41.32,33.782558,-0.0028852147413806935,-0.02338022115155219,0.0973015264147526,56.14914060194492,-96.25519929585457,76.200527287817
2024-09-23 16:05:36.214604,40.7,33.782558,-0.0028852147413806935,-0.023280723622328886,0.0970030596496862,40.106058693909645,-100.26678939585686,72.1922225099802
2024-09-23 16:05:36.257387,40.7,33.782608,-0.0030841997366068195,-0.023330473146428877,0.0970030596496862,40.106058693909645,-100.26678939585686,72.1922225099802
2024-09-23 16:05:36.269042,40.7,33.782608,-0.0030841997366068195,-0.023330473146428877,0.09695331012558621,36.09446859390736,-100.26678939585686,72.1922225099802
2024-09-23 16:05:36.311543,40.7,33.782695,-0.0033329230534799477,-0.02303200030545576,0.09710254654607277,32.08287849390507,-100.26678939585686,76.200527287817
2024-09-23 16:05:36.354236,40.7,33.782695,-0.0033329230534799477,-0.02303200030545576,0.09710254654607277,32.08287849390507,-96.25519929585457,80.21211738781929
2024-09-23 16:05:36.365235,40.7,33.782747,-0.0032831742888682963,-0.023429960042815445,0.09705279702197278,32.08287849390507,-96.25519929585457,80.21211738781929
2024-09-23 16:05:36.408177,40.7,33.782798,-0.0030344509719951677,-0.02313149783467906,0.09705279702197278,28.07457030097246,-100.26678939585686,80.21211738781929
2024-09-23 16:05:36.450367,40.7,33.782798,-0.0030344509719951677,-0.02313149783467906,0.09720203344245934,40.106058693909645,-100.26678939585686,80.21211738781929
2024-09-23 16:05:36.462447,40.7,33.782848,-0.003233425524256645,-0.02313149783467906,0.09720203344245934,40.106058693909645,-100.26678939585686,80.21211738781929
2024-09-23 16:05:36.505417,40.7,33.782939,-0.003233425524256645,-0.023181236725942318,0.09710254654607277,48.12595698684454,-96.25519929585457,76.200527287817
2024-09-23 16:05:36.547514,40.7,33.782939,-0.003780631555451287,-0.02338022115155219,0.09710254654607277,48.12595698684454,-96.25519929585457,76.200527287817
2024-09-23 16:05:36.558610,40.7,33.782939,-0.003780631555451287,-0.02338022115155219,0.09680407370509965,32.08287849390507,-100.26678939585686,80.21211738781929
2024-09-23 16:05:36.601273,40.7,33.782991,-0.0035318979854855937,-0.023479709566915436,0.09725178296655933,36.09446859390736,-100.26678939585686,80.21211738781929
2024-09-23 16:05:36.613026,40.7,33.782991,-0.0035318979854855937,-0.023479709566915436,0.09725178296655933,36.09446859390736,-100.26678939585686,80.21211738781929
2024-09-23 16:05:36.645307,40.7,33.783041,-0.0035318979854855937,-0.023479709566915436,0.09725178296655933,36.09446859390736,-100.26678939585686,84.22370748782159
2024-09-23 16:05:36.657208,40.7,33.783041,-0.0028354659767690416,-0.02303200030545576,0.09759999317981902,28.07457030097246,-100.26678939585686,84.22370748782159
2024-09-23 16:05:36.700502,40.7,33.783092,-0.0030344509719951677,-0.023330473146428877,0.09759999317981902,28.07457030097246,-104.27510100388527,84.22370748782159
2024-09-23 16:05:36.712743,40.7,33.783092,-0.0030344509719951677,-0.023330473146428877,0.09750050628343246,28.07457030097246,-104.27510100388527,84.22370748782159
2024-09-23 16:05:36.745365,40.7,33.783092,-0.0030344509719951677,-0.023330473146428877,0.09750050628343246,36.09446859390736,-100.26678939585686,80.21211738781929
2024-09-23 16:05:36.757059,40.7,33.783143,-0.0023380189632786156,-0.022982261414192504,0.09750050628343246,36.09446859390736,-100.26678939585686,80.21211738781929
2024-09-23 16:05:36.801097,40.7,33.783193,-0.003482159473966507,-0.022982261414192504,0.0973015264147526,44.11764879391193,-96.25519929585457,72.1922225099802
2024-09-23 16:05:36.843784,40.7,33.783193,-0.003482159473966507,-0.023181236725942318,0.09750050628343246,44.11764879391193,-96.25519929585457,72.1922225099802
2024-09-23 16:05:36.854992,40.7,33.78328,-0.003482159473966507,-0.023181236725942318,0.09750050628343246,44.11764879391193,-96.25519929585457,80.21211738781929
2024-09-23 16:05:36.897598,40.7,33.78328,-0.0029349636958644295,-0.023877669304275123,0.0973015264147526,40.106058693909645,-96.25519929585457,80.21211738781929
2024-09-23 16:05:36.939894,40.7,33.783332,-0.0028852147413806935,-0.023877669304275123,0.0973015264147526,40.106058693909645,-96.25519929585457,80.21211738781929
2024-09-23 16:05:36.951187,40.7,33.783332,-0.0028852147413806935,-0.02308174982955575,0.09715228999426605,48.12595698684454,-88.23529758782387,80.21211738781929
2024-09-23 16:05:36.994479,40.7,33.783383,-0.0028852147413806935,-0.02397715620066169,0.09680407370509965,32.08287849390507,-88.23529758782387,80.21211738781929
2024-09-23 16:05:37.036407,40.7,33.783383,-0.0028852147413806935,-0.02397715620066169,0.09680407370509965,32.08287849390507,-96.25519929585457,84.22370748782159
2024-09-23 16:05:37.047708,40.7,33.783433,-0.0030344509719951677,-0.0228827638849692,0.09695331012558621,32.08287849390507,-96.25519929585457,84.22370748782159
2024-09-23 16:05:37.090883,40.7,33.783484,-0.0029349636958644295,-0.0228827638849692,0.09695331012558621,32.08287849390507,-100.26678939585686,84.22370748782159
2024-09-23 16:05:37.102885,40.7,33.783484,-0.0029349636958644295,-0.023330473146428877,0.09695331012558621,32.08287849390507,-100.26678939585686,84.22370748782159
2024-09-23 16:05:37.134793,40.7,33.783484,-0.0029349636958644295,-0.023330473146428877,0.09645586349183995,32.08287849390507,-100.26678939585686,84.22370748782159
2024-09-23 16:05:37.146616,40.7,33.783535,-0.002785727465249955,-0.023330473146428877,0.09645586349183995,32.08287849390507,-88.23529758782387,80.21211738781929
2024-09-23 16:05:37.188689,40.7,33.783622,-0.002785727465249955,-0.02367869399252531,0.09764974270391902,44.11764879391193,-92.24360919585227,76.200527287817
2024-09-23 16:05:37.231285,40.76,33.783622,-0.0036811340262279837,-0.02338022115155219,0.09764974270391902,44.11764879391193,-92.24360919585227,76.200527287817
2024-09-23 16:05:37.335529,40.76,33.783673,-0.0036811340262279837,-0.02338022115155219,0.09690356060148622,44.11764879391193,-92.24360919585227,72.1922225099802
2024-09-23 16:05:37.347796,40.76,33.783673,-0.0031836870127375577,-0.02338022115155219,0.09690356060148622,44.11764879391193,-92.24360919585227,72.1922225099802
2024-09-23 16:05:37.380115,40.76,33.783673,-0.0031836870127375577,-0.02308174982955575,0.0970030596496862,48.12595698684454,-92.24360919585227,72.1922225099802
2024-09-23 16:05:37.391813,40.76,33.783724,-0.0031836870127375577,-0.02308174982955575,0.0970030596496862,48.12595698684454,-92.24360919585227,76.200527287817
2024-09-23 16:05:37.424051,40.76,33.783724,-0.0031339382481259063,-0.02308174982955575,0.0970030596496862,48.12595698684454,-92.24360919585227,76.200527287817
2024-09-23 16:05:37.435371,40.76,33.783724,-0.0031339382481259063,-0.023927417309398437,0.09655535038822652,40.106058693909645,-104.27510100388527,84.22370748782159
2024-09-23 16:05:37.477485,40.76,33.783774,-0.0029349636958644295,-0.023429960042815445,0.09710254654607277,40.106058693909645,-104.27510100388527,84.22370748782159
2024-09-23 16:05:37.489284,40.76,33.783774,-0.0029349636958644295,-0.023429960042815445,0.09710254654607277,28.07457030097246,-100.26678939585686,84.22370748782159
2024-09-23 16:05:37.521111,40.76,33.783774,-0.0029349636958644295,-0.023429960042815445,0.09710254654607277,28.07457030097246,-100.26678939585686,80.21211738781929
2024-09-23 16:05:37.532656,40.76,33.783825,-0.0032831742888682963,-0.023280723622328886,0.09710254654607277,44.11764879391193,-100.26678939585686,80.21211738781929
2024-09-23 16:05:37.574658,40.76,33.783965,-0.0032831742888682963,-0.023280723622328886,0.09710254654607277,44.11764879391193,-88.23529758782387,84.22370748782159
2024-09-23 16:05:37.586430,40.76,33.783965,-0.0032831742888682963,-0.02338022115155219,0.09745075675933246,44.11764879391193,-88.23529758782387,84.22370748782159
2024-09-23 16:05:37.618642,40.76,33.783965,-0.0032831742888682963,-0.02338022115155219,0.09745075675933246,44.11764879391193,-88.23529758782387,84.22370748782159
2024-09-23 16:05:37.629903,40.76,33.784015,-0.0031836870127375577,-0.023429960042815445,0.09745075675933246,44.11764879391193,-96.25519929585457,84.22370748782159
2024-09-23 16:05:37.672142,40.76,33.784015,-0.0031836870127375577,-0.023429960042815445,0.0973015264147526,48.12595698684454,-96.25519929585457,84.22370748782159
2024-09-23 16:05:37.684081,40.76,33.784066,-0.0028354659767690416,-0.023429960042815445,0.0973015264147526,48.12595698684454,-96.25519929585457,84.22370748782159
2024-09-23 16:05:37.717373,40.76,33.784066,-0.0028354659767690416,-0.02278327698858263,0.0973015264147526,48.12595698684454,-96.25519929585457,84.22370748782159
2024-09-23 16:05:37.729733,40.76,33.784158,-0.0028354659767690416,-0.02278327698858263,0.09650560086412653,36.09446859390736,-96.25519929585457,80.21211738781929
2024-09-23 16:05:37.772633,40.76,33.784158,-0.0031836870127375577,-0.02352945757203875,0.09764974270391902,36.09446859390736,-96.25519929585457,80.21211738781929
2024-09-23 16:05:37.784921,40.76,33.784158,-0.0031836870127375577,-0.02352945757203875,0.09764974270391902,36.09446859390736,-96.25519929585457,84.22370748782159
2024-09-23 16:05:37.816702,40.76,33.784209,-0.0031836870127375577,-0.02352945757203875,0.09764974270391902,36.09446859390736,-96.25519929585457,84.22370748782159
2024-09-23 16:05:37.869943,40.76,33.784209,-0.0029847020175114316,-0.023330473146428877,0.09720203344245934,32.08287849390507,-100.26678939585686,84.22370748782159
2024-09-23 16:05:37.882087,40.76,33.784209,-0.0029847020175114316,-0.023330473146428877,0.09720203344245934,32.08287849390507,-100.26678939585686,84.22370748782159
2024-09-23 16:05:37.915232,40.76,33.78426,-0.0031339382481259063,-0.02338022115155219,0.09720203344245934,32.08287849390507,-100.26678939585686,84.22370748782159
2024-09-23 16:05:37.926773,40.76,33.78426,-0.0031339382481259063,-0.02338022115155219,0.09745075675933246,40.106058693909645,-108.28669110388756,84.22370748782159
2024-09-23 16:05:37.970025,40.76,33.784311,-0.0027359787006383035,-0.02352945757203875,0.09725178296655933,36.09446859390736,-108.28669110388756,64.16903547978401
2024-09-23 16:05:38.012282,40.76,33.784311,-0.0027359787006383035,-0.02352945757203875,0.09725178296655933,36.09446859390736,-104.27510100388527,72.1922225099802
2024-09-23 16:05:38.023653,40.76,33.784361,-0.0034324103296106863,-0.023181236725942318,0.09789846602079214,36.09446859390736,-104.27510100388527,72.1922225099802
2024-09-23 16:05:38.066655,40.76,33.784412,-0.0035816467500972456,-0.023181236725942318,0.09789846602079214,44.11764879391193,-92.24360919585227,80.21211738781929
2024-09-23 16:05:38.108650,40.76,33.784412,-0.0035816467500972456,-0.023181236725942318,0.09710254654607277,40.106058693909645,-92.24360919585227,80.21211738781929
2024-09-23 16:05:38.119711,40.76,33.784502,-0.0030841997366068195,-0.023181236725942318,0.09710254654607277,40.106058693909645,-96.25519929585457,84.22370748782159
2024-09-23 16:05:38.163045,40.76,33.784597,-0.0030841997366068195,-0.02293251340906919,0.09690356060148622,36.09446859390736,-100.26678939585686,80.21211738781929
2024-09-23 16:05:38.205928,40.76,33.784597,-0.0029847020175114316,-0.023280723622328886,0.09690356060148622,36.09446859390736,-100.26678939585686,80.21211738781929
2024-09-23 16:05:38.217860,40.76,33.784597,-0.0029847020175114316,-0.023280723622328886,0.09695331012558621,40.106058693909645,-92.24360919585227,76.200527287817
2024-09-23 16:05:38.261544,41.02,33.784648,-0.0031339382481259063,-0.023230986250042305,0.09680407370509965,36.09446859390736,-92.24360919585227,76.200527287817
2024-09-23 16:05:38.304652,41.02,33.784699,-0.0034324103296106863,-0.023230986250042305,0.09680407370509965,36.09446859390736,-92.24360919585227,76.200527287817
2024-09-23 16:05:38.357576,41.02,33.784699,-0.0034324103296106863,-0.022982261414192504,0.09725178296655933,32.08287849390507,-100.26678939585686,80.21211738781929
2024-09-23 16:05:38.369360,41.02,33.784749,-0.0034324103296106863,-0.022982261414192504,0.09725178296655933,32.08287849390507,-100.26678939585686,80.21211738781929
2024-09-23 16:05:38.402906,41.02,33.784749,-0.0033329230534799477,-0.022833026512682618,0.09665483728461309,32.08287849390507,-100.26678939585686,80.21211738781929
2024-09-23 16:05:38.414421,41.02,33.784749,-0.0033329230534799477,-0.022833026512682618,0.09665483728461309,48.12595698684454,-100.26678939585686,76.200527287817
2024-09-23 16:05:38.456754,41.02,33.7848,-0.0032831742888682963,-0.02308174982955575,0.09655535038822652,44.11764879391193,-100.26678939585686,76.200527287817
2024-09-23 16:05:38.499824,41.02,33.784851,-0.0033329230534799477,-0.02308174982955575,0.09655535038822652,44.11764879391193,-100.26678939585686,80.21211738781929
2024-09-23 16:05:38.511559,41.02,33.784851,-0.0033329230534799477,-0.02352945757203875,0.09695331012558621,28.07457030097246,-100.26678939585686,80.21211738781929
2024-09-23 16:05:38.554479,41.02,33.784938,-0.0028852147413806935,-0.023728432883788564,0.09710254654607277,28.07457030097246,-100.26678939585686,76.200527287817
2024-09-23 16:05:38.596833,41.02,33.784938,-0.0028852147413806935,-0.023728432883788564,0.09710254654607277,32.08287849390507,-104.27510100388527,80.21211738781929
2024-09-23 16:05:38.609079,41.02,33.784989,-0.0031339382481259063,-0.023330473146428877,0.09710254654607277,32.08287849390507,-104.27510100388527,80.21211738781929
2024-09-23 16:05:38.652000,41.02,33.78504,-0.0030841997366068195,-0.023330473146428877,0.09695331012558621,32.08287849390507,-88.23529758782387,84.22370748782159
2024-09-23 16:05:38.694149,41.02,33.78504,-0.0030841997366068195,-0.02313149783467906,0.09705279702197278,52.137550501942634,-88.23529758782387,84.22370748782159
2024-09-23 16:05:38.705578,41.02,33.785133,-0.0030841997366068195,-0.02313149783467906,0.09705279702197278,52.137550501942634,-100.26678939585686,84.22370748782159
2024-09-23 16:05:38.748185,41.02,33.785133,-0.0031836870127375577,-0.02308174982955575,0.0970030596496862,48.12595698684454,-96.25519929585457,84.22370748782159
2024-09-23 16:05:38.790822,41.02,33.785184,-0.0030344509719951677,-0.02308174982955575,0.0970030596496862,48.12595698684454,-96.25519929585457,84.22370748782159
2024-09-23 16:05:38.801960,41.02,33.785184,-0.0030344509719951677,-0.02293251340906919,0.09725178296655933,36.09446859390736,-96.25519929585457,84.22370748782159
2024-09-23 16:05:38.843906,41.02,33.785235,-0.0027359787006383035,-0.023230986250042305,0.09720203344245934,36.09446859390736,-96.25519929585457,84.22370748782159
2024-09-23 16:05:38.855526,41.02,33.785235,-0.0027359787006383035,-0.023230986250042305,0.09720203344245934,36.09446859390736,-96.25519929585457,84.22370748782159
2024-09-23 16:05:38.887877,41.02,33.785235,-0.0027359787006383035,-0.023230986250042305,0.09720203344245934,36.09446859390736,-96.25519929585457,84.22370748782159
2024-09-23 16:05:38.899931,41.02,33.785286,-0.0032831742888682963,-0.02362894446842532,0.09670458680871308,36.09446859390736,-96.25519929585457,76.200527287817
2024-09-23 16:05:38.942198,41.02,33.785336,-0.0029349636958644295,-0.02362894446842532,0.09670458680871308,36.09446859390736,-96.25519929585457,80.21211738781929
2024-09-23 16:05:38.954869,41.02,33.785336,-0.0029349636958644295,-0.023330473146428877,0.09670458680871308,36.09446859390736,-96.25519929585457,80.21211738781929
2024-09-23 16:05:38.987557,41.02,33.785336,-0.0029349636958644295,-0.023330473146428877,0.09690356060148622,32.08287849390507,-92.24360919585227,80.21211738781929
2024-09-23 16:05:38.999173,41.02,33.785387,-0.0031339382481259063,-0.023330473146428877,0.09690356060148622,32.08287849390507,-92.24360919585227,84.22370748782159
2024-09-23 16:05:39.041886,41.02,33.785474,-0.0031339382481259063,-0.02308174982955575,0.0973512698629459,32.08287849390507,-96.25519929585457,84.22370748782159
2024-09-23 16:05:39.084391,41.02,33.785474,-0.0030344509719951677,-0.02308174982955575,0.0973512698629459,32.08287849390507,-96.25519929585457,84.22370748782159
2024-09-23 16:05:39.095612,41.02,33.785474,-0.0030344509719951677,-0.02308174982955575,0.09695331012558621,40.106058693909645,-96.25519929585457,80.21211738781929
2024-09-23 16:05:39.140041,41.02,33.785526,-0.0030344509719951677,-0.02308174982955575,0.09695331012558621,40.106058693909645,-96.25519929585457,80.21211738781929
2024-09-23 16:05:39.183050,41.02,33.785526,-0.0032831742888682963,-0.02303200030545576,0.09695331012558621,40.106058693909645,-96.25519929585457,80.21211738781929
2024-09-23 16:05:39.194771,41.02,33.785526,-0.0032831742888682963,-0.02303200030545576,0.09695331012558621,36.09446859390736,-92.24360919585227,80.21211738781929
2024-09-23 16:05:39.237946,41.02,33.785576,-0.0035816467500972456,-0.023181236725942318,0.098047696365372,40.106058693909645,-92.24360919585227,80.21211738781929
2024-09-23 16:05:39.281307,40.75,33.785627,-0.0029349636958644295,-0.023479709566915436,0.098047696365372,40.106058693909645,-92.24360919585227,80.21211738781929
2024-09-23 16:05:39.292802,40.75,33.785627,-0.0029349636958644295,-0.023479709566915436,0.09685382322919964,40.106058693909645,-92.24360919585227,80.21211738781929
2024-09-23 16:05:39.324798,40.75,33.785627,-0.0029349636958644295,-0.023479709566915436,0.09685382322919964,40.106058693909645,-96.25519929585457,80.21211738781929
2024-09-23 16:05:39.336104,40.75,33.785678,-0.0029847020175114316,-0.023181236725942318,0.0973015264147526,40.106058693909645,-96.25519929585457,84.22370748782159
2024-09-23 16:05:39.379264,40.75,33.785729,-0.0029847020175114316,-0.023181236725942318,0.0973015264147526,32.08287849390507,-96.25519929585457,84.22370748782159
2024-09-23 16:05:39.391166,40.75,33.785729,-0.0025369937054121774,-0.02293251340906919,0.0973015264147526,32.08287849390507,-96.25519929585457,84.22370748782159
2024-09-23 16:05:39.424040,40.75,33.785729,-0.0025369937054121774,-0.02293251340906919,0.09745075675933246,32.08287849390507,-96.25519929585457,84.22370748782159
2024-09-23 16:05:39.435920,40.75,33.785818,-0.0034324103296106863,-0.02293251340906919,0.09745075675933246,32.08287849390507,-96.25519929585457,80.21211738781929
2024-09-23 16:05:39.478415,40.75,33.785818,-0.0034324103296106863,-0.023479709566915436,0.0970030596496862,48.12595698684454,-100.26678939585686,80.21211738781929
2024-09-23 16:05:39.489701,40.75,33.785913,-0.0034324103296106863,-0.023479709566915436,0.0970030596496862,48.12595698684454,-100.26678939585686,80.21211738781929
2024-09-23 16:05:39.521946,40.75,33.785913,-0.0030344509719951677,-0.023479709566915436,0.0970030596496862,48.12595698684454,-100.26678939585686,80.21211738781929
2024-09-23 16:05:39.533039,40.75,33.785913,-0.0030344509719951677,-0.023429960042815445,0.09705279702197278,40.106058693909645,-96.25519929585457,84.22370748782159
2024-09-23 16:05:39.575764,40.75,33.785964,-0.003233425524256645,-0.022484804147609512,0.09655535038822652,40.106058693909645,-96.25519929585457,84.22370748782159
