Ayaan's Suite
Timestamp,Sample Rate (Hz),Time,Ax,Ay,Az,Gx,Gy,Gz
2024-09-23 01:30:52.309937,0,6.875287,-0.010244444270867941,0.021830479121718566,1.0117664006628877,0.3456082558686845,-1.1199610328167677,-1.3606034109167755
2024-09-23 01:30:52.342132,0,6.875287,-0.010244444270867941,0.021830479121718566,1.0152421109416312,0.3499627431454137,-1.1199610328167677,-1.3606034109167755
2024-09-23 01:30:52.353402,0,6.875338,-0.014208053655459124,0.021830479121718566,1.0152421109416312,0.3499627431454137,-1.0980740039605648,-1.3868447936475277
2024-09-23 01:30:52.396319,0,6.875338,-0.014208053655459124,0.02048899031317319,1.0138396944596255,0.3280757409696467,-1.0324703336901964,-1.4306188513599336
2024-09-23 01:30:52.408034,0,6.875425,-0.014208053655459124,0.02048899031317319,1.0138396944596255,0.3280757409696467,-1.0324703336901964,-1.4306188513599336
2024-09-23 01:30:52.439573,0,6.875425,-0.010793271809664462,0.020915799974544576,1.0138396944596255,0.3280757409696467,-1.0324703336901964,-1.4306188513599336
2024-09-23 01:30:52.450746,0,6.875425,-0.010793271809664462,0.020915799974544576,1.0099979715609768,0.3018342781975865,-1.1330817241821438,-1.4218526205908506
2024-09-23 01:30:52.492721,0,6.875476,-0.012317737308117227,0.017805912443621806,1.0165227176460165,0.3237212803733535,-1.1330817241821438,-1.4218526205908506
2024-09-23 01:30:52.504402,0,6.875476,-0.012317737308117227,0.017805912443621806,1.0165227176460165,0.3237212803733535,-1.0718325145080685,-1.4218526205908506
2024-09-23 01:30:52.536137,0,6.875527,-0.012317737308117227,0.017805912443621806,1.0165227176460165,0.3237212803733535,-1.0718325145080685,-1.4437395427253097
2024-09-23 01:30:52.549040,0,6.875527,-0.011586034850850625,0.01890346574977754,1.0117664006628877,0.3499627431454137,-1.0718325145080685,-1.4437395427253097
2024-09-23 01:30:52.592526,0,6.875578,-0.010366361136344109,0.01963527073796979,1.0117664006628877,0.3499627431454137,-1.0805987452771515,-1.448094003321603
2024-09-23 01:30:52.635830,0,6.875578,-0.010366361136344109,0.01963527073796979,1.0152421109416312,0.3324875378228724,-1.1068402347296475,-1.448094003321603
2024-09-23 01:30:52.647311,0,6.875628,-0.012134760618209839,0.01963527073796979,1.0152421109416312,0.3324875378228724,-1.1068402347296475,-1.404320052330941
2024-09-23 01:30:52.690079,0,6.875679,-0.012134760618209839,0.01975718684395762,1.0132908213515286,0.3543172304221429,-1.1462025222692638,-1.4874562908612192
2024-09-23 01:30:52.733800,0,6.875679,-0.010732313756670548,0.01975718684395762,1.0134127283436565,0.3543172304221429,-1.1462025222692638,-1.4874562908612192
2024-09-23 01:30:52.745073,0,6.875679,-0.010732313756670548,0.01975718684395762,1.0134127283436565,0.37620423259790986,-1.1068402347296475,-1.509343212995678
2024-09-23 01:30:52.788105,0,6.875766,-0.009817635368984895,0.02189143717471248,1.0134127283436565,0.3280757409696467,-1.1987427040290088,-1.509343212995678
2024-09-23 01:30:52.830741,0,6.875817,-0.012073802565215924,0.02189143717471248,1.0134127283436565,0.3280757409696467,-1.1987427040290088,-1.426207081187144
2024-09-23 01:30:52.842131,0,6.875817,-0.012073802565215924,0.021037716080532405,1.0148152420401695,0.3018342781975865,-1.1987427040290088,-1.426207081187144
2024-09-23 01:30:52.885157,0,6.875868,-0.011037206552565765,0.01926931735815501,1.0130469101527657,0.3018342781975865,-1.0849533125951887,-1.3911993609655648
2024-09-23 01:30:52.929160,0,6.875868,-0.011037206552565765,0.01926931735815501,1.0130469101527657,0.38061600277069957,-1.1111946953259408,-1.3562488435987383
2024-09-23 01:30:52.940986,0,6.875919,-0.013537308491698099,0.021037716080532405,1.0130469101527657,0.38061600277069957,-1.1111946953259408,-1.3562488435987383
2024-09-23 01:30:52.973612,0,6.875919,-0.013537308491698099,0.021037716080532405,1.012620041251304,0.38061600277069957,-1.1111946953259408,-1.3562488435987383
2024-09-23 01:30:52.985598,0,6.875969,-0.014574005516297226,0.021037716080532405,1.012620041251304,0.39373674749694765,-1.1330817241821438,-1.3999655917346479
2024-09-23 01:30:53.028310,0,6.875969,-0.014574005516297226,0.020610907938137694,1.012742045457939,0.3411964856958948,-1.1330817241821438,-1.3649578715130686
2024-09-23 01:30:53.040027,0,6.876058,-0.014574005516297226,0.020610907938137694,1.012742045457939,0.3411964856958948,-1.1330817241821438,-1.3649578715130686
2024-09-23 01:30:53.072813,0,6.876058,-0.012927522899907663,0.0187205915907958,1.012742045457939,0.3411964856958948,-1.1330817241821438,-1.3649578715130686
2024-09-23 01:30:53.084212,0,6.876058,-0.012927522899907663,0.0187205915907958,1.012802998954003,0.3543172304221429,-1.0543573625463993,-1.469981032177806
2024-09-23 01:30:53.127070,0,6.87611,-0.014269113479890346,0.022562284109910815,1.0105467474545664,0.48999367739260197,-1.0543573625463993,-1.469981032177806
2024-09-23 01:30:53.138816,0,6.87611,-0.014269113479890346,0.022562284109910815,1.0105467474545664,0.48999367739260197,-1.1418479549512268,-1.469981032177806
2024-09-23 01:30:53.170713,0,6.876161,-0.014269113479890346,0.022562284109910815,1.0105467474545664,0.48999367739260197,-1.1418479549512268,-1.3868447936475277
2024-09-23 01:30:53.181825,0,6.876161,-0.015122834574070423,0.020245056329760223,1.0139616014517532,0.41997821026900783,-1.1418479549512268,-1.3868447936475277
2024-09-23 01:30:53.225826,0,6.876211,-0.011403058160943235,0.019879204721382753,1.0149982969573756,0.41997821026900783,-1.0849533125951887,-1.3737241022821516
2024-09-23 01:30:53.268913,0,6.876211,-0.011403058160943235,0.019879204721382753,1.0149982969573756,0.3630834878716618,-1.1418479549512268,-1.4874562908612192
2024-09-23 01:30:53.280796,0,6.876262,-0.012744546969488612,0.017744852619190586,1.0149982969573756,0.3630834878716618,-1.1418479549512268,-1.4874562908612192
2024-09-23 01:30:53.323233,43.78,6.876313,-0.013537308491698099,0.017744852619190586,1.01542506864433,0.3543172304221429,-1.1506142924420535,-1.3606034109167755
2024-09-23 01:30:53.365860,43.78,6.876313,-0.013537308491698099,0.021586543619328925,1.01737645544894,0.3543172304221429,-1.1506142924420535,-1.3606034109167755
2024-09-23 01:30:53.377090,43.78,6.876399,-0.013537308491698099,0.021586543619328925,1.01737645544894,0.3149550229238346,-1.1287272635858505,-1.4218526205908506
2024-09-23 01:30:53.419212,43.78,6.876399,-0.014269113479890346,0.018171764051999276,1.0116442992417454,0.3018342781975865,-1.1987427040290088,-1.4218526205908506
2024-09-23 01:30:53.431245,43.78,6.876399,-0.014269113479890346,0.018171764051999276,1.0116442992417454,0.3018342781975865,-1.1987427040290088,-1.43932777255252
2024-09-23 01:30:53.464118,43.78,6.876451,-0.011951885699739756,0.01963527073796979,1.0116442992417454,0.3018342781975865,-1.1987427040290088,-1.43932777255252
2024-09-23 01:30:53.475144,43.78,6.876451,-0.011951885699739756,0.01963527073796979,1.0120712653577144,0.4155664400962181,-1.0674780539117754,-1.43932777255252
2024-09-23 01:30:53.517115,43.78,6.876502,-0.009329765883182288,0.019330377182586234,1.0151811574455674,0.40685746554275976,-1.0674780539117754,-1.5574717313043773
2024-09-23 01:30:53.560511,43.78,6.876502,-0.009329765883182288,0.019330377182586234,1.0151811574455674,0.40685746554275976,-1.1899764732599258,-1.504988752399385
2024-09-23 01:30:53.572406,43.78,6.876553,-0.013354434332716355,0.020306014382754138,1.0181691425412924,0.40685746554275976,-1.1899764732599258,-1.504988752399385
2024-09-23 01:30:53.614510,43.78,6.876603,-0.013842202047081654,0.020306014382754138,1.0181691425412924,0.3368419984191656,-1.15932321363464,-1.413086283100024
2024-09-23 01:30:53.626018,43.78,6.876603,-0.013842202047081654,0.01811080599900536,1.0181691425412924,0.3368419984191656,-1.15932321363464,-1.413086283100024
2024-09-23 01:30:53.658161,43.78,6.876603,-0.013842202047081654,0.01811080599900536,1.0118883076550156,0.27123832814879717,-1.15932321363464,-1.413086283100024
2024-09-23 01:30:53.669209,43.78,6.876654,-0.010488379013769245,0.01811080599900536,1.0118883076550156,0.27123832814879717,-1.0105833048339934,-1.2862334031555802
2024-09-23 01:30:53.712765,43.78,6.876654,-0.010488379013769245,0.02122069352992813,1.0109736163560281,0.29747979092085736,-1.216217962712422,-1.2862334031555802
2024-09-23 01:30:53.725087,43.78,6.876741,-0.010488379013769245,0.02122069352992813,1.0109736163560281,0.29747979092085736,-1.216217962712422,-1.3737241022821516
2024-09-23 01:30:53.757804,43.78,6.876741,-0.01378124399408774,0.020915799974544576,1.0136566395424191,0.2274643237972632,-1.216217962712422,-1.3737241022821516
2024-09-23 01:30:53.769041,43.78,6.876741,-0.01378124399408774,0.020915799974544576,1.0136566395424191,0.2274643237972632,-1.1418479549512268,-1.3212411233771593
2024-09-23 01:30:53.811355,43.78,6.876792,-0.015549642716465131,0.018049744655597465,1.0149372462468045,0.3543172304221429,-1.0718325145080685,-1.3212411233771593
2024-09-23 01:30:53.854360,43.78,6.876843,-0.014634963569291141,0.018049744655597465,1.0149372462468045,0.3543172304221429,-1.0718325145080685,-1.3387163820605725
2024-09-23 01:30:53.866178,43.78,6.876843,-0.014634963569291141,0.01713506550842347,1.01231507934197,0.3324875378228724,-1.0718325145080685,-1.3387163820605725
2024-09-23 01:30:53.908682,43.78,6.876894,-0.014634963569291141,0.01926931735815501,1.0168886330514144,0.3324875378228724,-1.15932321363464,-1.448094003321603
2024-09-23 01:30:53.950640,43.78,6.876894,-0.014634963569291141,0.01926931735815501,1.0168886330514144,0.3849704900474288,-1.2205724233087152,-1.448094003321603
2024-09-23 01:30:53.961812,43.78,6.876945,-0.014634963569291141,0.021037716080532405,1.0168886330514144,0.3849704900474288,-1.2205724233087152,-1.483101830264926
2024-09-23 01:30:54.004454,43.78,6.876995,-0.014634963569291141,0.021037716080532405,1.0137175930384832,0.29747979092085736,-1.207451731943339,-1.4655692620050162
2024-09-23 01:30:54.016037,43.78,6.876995,-0.012744546969488612,0.021037716080532405,1.0137175930384832,0.29747979092085736,-1.207451731943339,-1.4655692620050162
2024-09-23 01:30:54.048392,43.78,6.876995,-0.012744546969488612,0.016342405757651293,1.0132298678554648,0.29747979092085736,-1.207451731943339,-1.4655692620050162
2024-09-23 01:30:54.059559,43.78,6.877082,-0.012744546969488612,0.016342405757651293,1.0132298678554648,0.3543172304221429,-1.1156065722204744,-1.4524485706396402
2024-09-23 01:30:54.103401,43.78,6.877082,-0.012317737308117227,0.019330377182586234,1.0170715907541132,0.27994727602181957,-1.1462025222692638,-1.461214801408723
2024-09-23 01:30:54.145612,43.78,6.877134,-0.011342100107949322,0.019330377182586234,1.0170715907541132,0.27994727602181957,-1.1462025222692638,-1.461214801408723
2024-09-23 01:30:54.157329,43.78,6.877134,-0.011342100107949322,0.01853761414140007,1.0133517748475924,0.3149550229238346,-1.1987427040290088,-1.461214801408723
2024-09-23 01:30:54.199064,43.78,6.877184,-0.014025177977500705,0.022196330730096036,1.0137175930384832,0.3149550229238346,-1.1987427040290088,-1.3737241022821516
2024-09-23 01:30:54.211113,43.78,6.877184,-0.014025177977500705,0.022196330730096036,1.0137175930384832,0.39809120809324083,-1.1987427040290088,-1.3737241022821516
2024-09-23 01:30:54.243571,43.78,6.877184,-0.014025177977500705,0.022196330730096036,1.0137175930384832,0.39809120809324083,-1.1199610328167677,-1.5005769822265953
2024-09-23 01:30:54.254844,43.78,6.877235,-0.012805606793919833,0.023720795469060463,1.0107906586533293,0.39809120809324083,-1.1199610328167677,-1.5005769822265953
2024-09-23 01:30:54.297322,43.78,6.877286,-0.011524974266931064,0.01890346574977754,1.0107906586533293,0.38932495064372197,-1.0937195433642715,-1.3824903330512346
2024-09-23 01:30:54.391946,42.47,6.877286,-0.011524974266931064,0.01890346574977754,1.0118273541589518,0.3368419984191656,-1.0412365644592791,-1.3824903330512346
2024-09-23 01:30:54.404214,42.47,6.877336,-0.013476350438704184,0.01890346574977754,1.0118273541589518,0.3368419984191656,-1.0412365644592791,-1.3343619214642792
2024-09-23 01:30:54.436937,42.47,6.877336,-0.013476350438704184,0.020793883868556746,1.0118273541589518,0.3368419984191656,-1.0412365644592791,-1.3343619214642792
2024-09-23 01:30:54.448684,42.47,6.877424,-0.013476350438704184,0.020793883868556746,1.0112784810508548,0.29747979092085736,-1.1724439050000162,-1.469981032177806
2024-09-23 01:30:54.491852,42.47,6.877424,-0.011951885699739756,0.02176952106872465,1.0143883731387076,0.3543172304221429,-1.1768557818945498,-1.469981032177806
2024-09-23 01:30:54.504129,42.47,6.877424,-0.011951885699739756,0.02176952106872465,1.0143883731387076,0.3543172304221429,-1.1768557818945498,-1.3824903330512346
2024-09-23 01:30:54.537143,42.47,6.877475,-0.012622630104012445,0.02207441310513153,1.0143883731387076,0.3543172304221429,-1.1768557818945498,-1.3824903330512346
2024-09-23 01:30:54.548679,42.47,6.877475,-0.012622630104012445,0.02207441310513153,1.0162788064472537,0.3280757409696467,-1.0980740039605648,-1.3824903330512346
2024-09-23 01:30:54.591050,42.47,6.877526,-0.01573262016586086,0.021464627513341095,1.0121322188537785,0.31060053564710544,-1.0980740039605648,-1.413086283100024
2024-09-23 01:30:54.633777,42.47,6.87762,-0.01573262016586086,0.021464627513341095,1.0121322188537785,0.31060053564710544,-1.1243154934130608,-1.3868447936475277
2024-09-23 01:30:54.646194,42.47,6.87762,-0.01042742096077533,0.018842507696783625,1.018534960732183,0.31060053564710544,-1.1243154934130608,-1.3868447936475277
2024-09-23 01:30:54.689615,42.47,6.877671,-0.014756881194255646,0.020001120827370582,1.018534960732183,0.2668265312955715,-1.0718325145080685,-1.3999655917346479
2024-09-23 01:30:54.732423,42.47,6.877671,-0.014756881194255646,0.020001120827370582,1.0134736818397203,0.3411964856958948,-1.238104991568625,-1.3999655917346479
2024-09-23 01:30:54.743517,42.47,6.877721,-0.010610295879245411,0.020001120827370582,1.0134736818397203,0.3411964856958948,-1.238104991568625,-1.426207081187144
2024-09-23 01:30:54.787389,42.47,6.877814,-0.010610295879245411,0.021098777423940302,1.0131688171448936,0.3280757409696467,-1.1506142924420535,-1.461214801408723
2024-09-23 01:30:54.830036,42.47,6.877814,-0.012500713238536278,0.019330377182586234,1.014144559154452,0.3280757409696467,-1.1506142924420535,-1.461214801408723
2024-09-23 01:30:54.841896,42.47,6.877814,-0.012500713238536278,0.019330377182586234,1.014144559154452,0.28871353347133843,-1.0718325145080685,-1.491868061034009
2024-09-23 01:30:54.874144,42.47,6.877865,-0.012500713238536278,0.019330377182586234,1.014144559154452,0.28871353347133843,-1.0718325145080685,-1.491868061034009
2024-09-23 01:30:54.885712,42.47,6.877865,-0.01146401621393715,0.01811080599900536,1.0146933350480416,0.3280757409696467,-1.0893650827679784,-1.491868061034009
2024-09-23 01:30:54.927914,42.47,6.877916,-0.010122528164880112,0.021586543619328925,1.0146933350480416,0.3280757409696467,-1.0893650827679784,-1.4306188513599336
2024-09-23 01:30:54.939583,42.47,6.877916,-0.010122528164880112,0.021586543619328925,1.0163397599433175,0.40685746554275976,-1.0893650827679784,-1.4306188513599336
2024-09-23 01:30:54.971875,42.47,6.877916,-0.010122528164880112,0.021586543619328925,1.0163397599433175,0.40685746554275976,-1.1068402347296475,-1.4306188513599336
2024-09-23 01:30:54.983506,42.47,6.877966,-0.013110498830326714,0.020062078880364497,1.018534960732183,0.40685746554275976,-1.1068402347296475,-1.448094003321603
2024-09-23 01:30:55.026440,42.47,6.878017,-0.013110498830326714,0.020062078880364497,1.018534960732183,0.3149550229238346,-1.1287272635858505,-1.43932777255252
2024-09-23 01:30:55.038380,42.47,6.878017,-0.01146401621393715,0.01963527073796979,1.018534960732183,0.3149550229238346,-1.1287272635858505,-1.43932777255252
2024-09-23 01:30:55.071515,42.47,6.878017,-0.01146401621393715,0.01963527073796979,1.0111565740587272,0.3630834878716618,-1.1287272635858505,-1.43932777255252
2024-09-23 01:30:55.082966,42.47,6.878068,-0.01433007153288426,0.01963527073796979,1.0111565740587272,0.3630834878716618,-1.1287272635858505,-1.469981032177806
2024-09-23 01:30:55.125181,42.47,6.878068,-0.01433007153288426,0.02140366946034718,1.0134736818397203,0.31060053564710544,-1.1243154934130608,-1.448094003321603
2024-09-23 01:30:55.137765,42.47,6.878154,-0.01433007153288426,0.02140366946034718,1.0134736818397203,0.31060053564710544,-1.1243154934130608,-1.448094003321603
2024-09-23 01:30:55.171041,42.47,6.878154,-0.013537308491698099,0.020427930488741967,1.0151202039495033,0.31060053564710544,-1.1243154934130608,-1.448094003321603
2024-09-23 01:30:55.182856,42.47,6.878154,-0.013537308491698099,0.020427930488741967,1.0151202039495033,0.27123832814879717,-1.1506142924420535,-1.4568603408124299
2024-09-23 01:30:55.225798,42.47,6.878206,-0.014391029585878175,0.019818144896951533,1.0153031616522024,0.3499627431454137,-1.1506142924420535,-1.4568603408124299
2024-09-23 01:30:55.268639,42.47,6.878257,-0.011524974266931064,0.019818144896951533,1.0153031616522024,0.3499627431454137,-1.1506142924420535,-1.3649578715130686
2024-09-23 01:30:55.280183,42.47,6.878257,-0.011524974266931064,0.01963527073796979,1.0115223922496177,0.3018342781975865,-1.1506142924420535,-1.3649578715130686
2024-09-23 01:30:55.322638,42.47,6.878308,-0.014695923141261731,0.023720795469060463,1.015973941752427,0.3018342781975865,-1.1024857741333545,-1.3562488435987383
2024-09-23 01:30:55.364857,42.47,6.878308,-0.014695923141261731,0.023720795469060463,1.015973941752427,0.27994727602181957,-1.1111946953259408,-1.3693696416858583
2024-09-23 01:30:55.376594,42.47,6.878358,-0.014574005516297226,0.02012303845233509,1.015973941752427,0.27994727602181957,-1.1111946953259408,-1.3693696416858583
2024-09-23 01:30:55.419853,43.23,6.878409,-0.015122834574070423,0.02012303845233509,1.0125589905407328,0.3543172304221429,-1.1987427040290088,-1.3956111311383546
2024-09-23 01:30:55.461894,43.23,6.878409,-0.015122834574070423,0.019513251341567978,1.0104247432479314,0.3543172304221429,-1.1987427040290088,-1.3956111311383546
2024-09-23 01:30:55.473776,43.23,6.878496,-0.015122834574070423,0.019513251341567978,1.0104247432479314,0.3324875378228724,-1.1287272635858505,-1.3824903330512346
2024-09-23 01:30:55.516079,43.23,6.878496,-0.012927522899907663,0.020915799974544576,1.0107906586533293,0.3456082558686845,-1.0718325145080685,-1.3693696416858583
2024-09-23 01:30:55.559186,43.23,6.878547,-0.010122528164880112,0.020915799974544576,1.0107906586533293,0.3456082558686845,-1.0718325145080685,-1.3693696416858583
2024-09-23 01:30:55.570459,43.23,6.878547,-0.010122528164880112,0.02439164088528212,1.015486022140394,0.37620423259790986,-1.2993542012427002,-1.3693696416858583
2024-09-23 01:30:55.612684,43.23,6.878598,-0.011037206552565765,0.02048899031317319,1.0138396944596255,0.37620423259790986,-1.2993542012427002,-1.4437395427253097
2024-09-23 01:30:55.624420,43.23,6.878598,-0.011037206552565765,0.02048899031317319,1.0138396944596255,0.3324875378228724,-1.2993542012427002,-1.4437395427253097
2024-09-23 01:30:55.657169,43.23,6.878598,-0.011037206552565765,0.02048899031317319,1.0138396944596255,0.3324875378228724,-1.1506142924420535,-1.4437395427253097
2024-09-23 01:30:55.710137,43.23,6.878649,-0.014208053655459124,0.020732824044125523,1.0138396944596255,0.3324875378228724,-1.1506142924420535,-1.4437395427253097
2024-09-23 01:30:55.721994,43.23,6.878649,-0.014208053655459124,0.020732824044125523,1.0132298678554648,0.3280757409696467,-1.1506142924420535,-1.4437395427253097
2024-09-23 01:30:55.754209,43.23,6.878649,-0.014208053655459124,0.020732824044125523,1.0132298678554648,0.3280757409696467,-1.1199610328167677,-1.4655692620050162
2024-09-23 01:30:55.765817,43.23,6.8787,-0.015122834574070423,0.018964423802771455,1.0109736163560281,0.3280757409696467,-1.1199610328167677,-1.4655692620050162
2024-09-23 01:30:55.808754,43.23,6.87875,-0.010549337066763158,0.01914740125216718,1.0109736163560281,0.27559278874509036,-1.1068402347296475,-1.4087318225037306
2024-09-23 01:30:55.851055,43.23,6.87875,-0.010549337066763158,0.01914740125216718,1.014022554947817,0.41121195281948897,-1.1068402347296475,-1.4087318225037306
2024-09-23 01:30:55.862454,43.23,6.878837,-0.01146401621393715,0.01914740125216718,1.014022554947817,0.41121195281948897,-1.15932321363464,-1.491868061034009
2024-09-23 01:30:55.905569,43.23,6.878837,-0.01146401621393715,0.023050050305299438,1.015668979843093,0.3499627431454137,-1.1724439050000162,-1.539996472620964
2024-09-23 01:30:55.917393,43.23,6.878888,-0.01146401621393715,0.023050050305299438,1.015668979843093,0.3499627431454137,-1.1724439050000162,-1.539996472620964
2024-09-23 01:30:55.949209,43.23,6.878888,-0.012866564846913748,0.020062078880364497,1.015668979843093,0.3499627431454137,-1.1724439050000162,-1.539996472620964
2024-09-23 01:30:55.960397,43.23,6.878888,-0.012866564846913748,0.020062078880364497,1.0192667915429787,0.2537058132497594,-1.1680894444037229,-1.4218526205908506
2024-09-23 01:30:56.002467,43.23,6.878984,-0.012744546969488612,0.019574312684975875,1.012742045457939,0.3368419984191656,-1.1680894444037229,-1.4218526205908506
2024-09-23 01:30:56.014514,43.23,6.878984,-0.012744546969488612,0.019574312684975875,1.012742045457939,0.3368419984191656,-1.1287272635858505,-1.4218526205908506
2024-09-23 01:30:56.046716,43.23,6.879035,-0.012744546969488612,0.019574312684975875,1.012742045457939,0.3368419984191656,-1.1287272635858505,-1.413086283100024
2024-09-23 01:30:56.058306,43.23,6.879035,-0.014634963569291141,0.022501222766502915,1.013778546534547,0.37184974532118065,-1.1287272635858505,-1.413086283100024
2024-09-23 01:30:56.100927,43.23,6.879086,-0.014695923141261731,0.02311100987727003,1.0134127283436565,0.37184974532118065,-1.0893650827679784,-1.448094003321603
2024-09-23 01:30:56.144242,43.23,6.879086,-0.014695923141261731,0.02311100987727003,1.0134127283436565,0.2668265312955715,-1.1549687530383468,-1.448094003321603
2024-09-23 01:30:56.155459,43.23,6.879137,-0.012256778495634975,0.017561976941232165,1.0134127283436565,0.2668265312955715,-1.1549687530383468,-1.474335492774099
2024-09-23 01:30:56.198535,43.23,6.879187,-0.014208053655459124,0.017561976941232165,1.0179251341280222,0.3324875378228724,-1.0937195433642715,-1.474335492774099
2024-09-23 01:30:56.241939,43.23,6.879187,-0.014208053655459124,0.02140366946034718,1.015486022140394,0.3324875378228724,-1.0937195433642715,-1.474335492774099
2024-09-23 01:30:56.252965,43.23,6.879276,-0.014208053655459124,0.02140366946034718,1.015486022140394,0.3456082558686845,-1.1680894444037229,-1.504988752399385
2024-09-23 01:30:56.296288,43.23,6.879276,-0.013842202047081654,0.020366972435748053,1.015668979843093,0.29747979092085736,-1.1156065722204744,-1.3037086618389935
2024-09-23 01:30:56.338491,43.23,6.879327,-0.012256778495634975,0.020366972435748053,1.015668979843093,0.29747979092085736,-1.1156065722204744,-1.3037086618389935
2024-09-23 01:30:56.350066,43.23,6.879327,-0.012256778495634975,0.019025483627202678,1.0131688171448936,0.37620423259790986,-1.1330817241821438,-1.3037086618389935
2024-09-23 01:30:56.391982,43.23,6.879378,-0.012866564846913748,0.020001120827370582,1.0131688171448936,0.37620423259790986,-1.1330817241821438,-1.3474826128296553
2024-09-23 01:30:56.403753,43.23,6.879378,-0.012866564846913748,0.020001120827370582,1.0119492611510794,0.3018342781975865,-1.1330817241821438,-1.3474826128296553
2024-09-23 01:30:56.436527,43.0,6.879378,-0.012866564846913748,0.020001120827370582,1.0119492611510794,0.3018342781975865,-1.1987427040290088,-1.504988752399385
2024-09-23 01:30:56.447709,43.0,6.879429,-0.010061467580960552,0.02152558556633501,1.0104856967439952,0.3018342781975865,-1.1987427040290088,-1.504988752399385
2024-09-23 01:30:56.490198,43.0,6.87948,-0.010244444270867941,0.02152558556633501,1.0104856967439952,0.31060053564710544,-1.2687009416174144,-1.4218526205908506
2024-09-23 01:30:56.502133,43.0,6.87948,-0.010244444270867941,0.019025483627202678,1.0104856967439952,0.31060053564710544,-1.2687009416174144,-1.4218526205908506
2024-09-23 01:30:56.534334,43.0,6.87948,-0.010244444270867941,0.019025483627202678,1.0169495865474782,0.3368419984191656,-1.2687009416174144,-1.4218526205908506
2024-09-23 01:30:56.545431,43.0,6.87953,-0.013598266544692013,0.019025483627202678,1.0169495865474782,0.3368419984191656,-1.0587118231426924,-1.4568603408124299
2024-09-23 01:30:56.587180,43.0,6.87953,-0.013598266544692013,0.019025483627202678,1.0104856967439952,0.3237212803733535,-1.1768557818945498,-1.3649578715130686
2024-09-23 01:30:56.599141,43.0,6.879617,-0.013598266544692013,0.019025483627202678,1.0104856967439952,0.3237212803733535,-1.1768557818945498,-1.3649578715130686
2024-09-23 01:30:56.632289,43.0,6.879617,-0.012622630104012445,0.020062078880364497,1.0104856967439952,0.3237212803733535,-1.1768557818945498,-1.3649578715130686
2024-09-23 01:30:56.643604,43.0,6.879617,-0.012622630104012445,0.020062078880364497,1.0144494238492787,0.3674952580444515,-1.0499454856518655,-1.4218526205908506
2024-09-23 01:30:56.686355,43.0,6.879669,-0.012622630104012445,0.020062078880364497,1.0144494238492787,0.3674952580444515,-1.0499454856518655,-1.4218526205908506
2024-09-23 01:30:56.729204,43.0,6.879669,-0.016342405757651293,0.02048899031317319,1.0144494238492787,0.3674952580444515,-1.0499454856518655,-1.4218526205908506
2024-09-23 01:30:56.740540,43.0,6.879669,-0.016342405757651293,0.02048899031317319,1.0120712653577144,0.27123832814879717,-1.0543573625463993,-1.4218526205908506
2024-09-23 01:30:56.783305,43.0,6.879719,-0.014512945691866003,0.019208359305161096,1.015546975636458,0.27123832814879717,-1.0543573625463993,-1.43932777255252
2024-09-23 01:30:56.795364,43.0,6.879719,-0.014512945691866003,0.019208359305161096,1.015546975636458,0.29747979092085736,-1.0543573625463993,-1.43932777255252
2024-09-23 01:30:56.828118,43.0,6.87977,-0.014512945691866003,0.019208359305161096,1.015546975636458,0.29747979092085736,-1.1330817241821438,-1.4218526205908506
2024-09-23 01:30:56.839551,43.0,6.87977,-0.014208053655459124,0.019818144896951533,1.0143883731387076,0.29747979092085736,-1.1330817241821438,-1.4218526205908506
2024-09-23 01:30:56.881750,43.0,6.879821,-0.014208053655459124,0.019818144896951533,1.0143883731387076,0.223109849860752,-1.216217962712422,-1.496222521630302
2024-09-23 01:30:56.924207,43.0,6.879821,-0.015244750680058252,0.019574312684975875,1.0143883731387076,0.223109849860752,-1.216217962712422,-1.496222521630302
2024-09-23 01:30:56.935543,43.0,6.879821,-0.015244750680058252,0.019574312684975875,1.0146322843374704,0.3674952580444515,-1.1724439050000162,-1.3693696416858583
2024-09-23 01:30:56.978101,43.0,6.879871,-0.015305708733052167,0.021464627513341095,1.0134127283436565,0.3018342781975865,-1.1724439050000162,-1.3693696416858583
2024-09-23 01:30:56.990379,43.0,6.879871,-0.015305708733052167,0.021464627513341095,1.0134127283436565,0.3018342781975865,-1.0630662837389857,-1.3693696416858583
2024-09-23 01:30:57.075149,43.0,6.879961,-0.012927522899907663,0.01823272210499319,1.0134127283436565,0.3018342781975865,-1.0630662837389857,-1.3606034109167755
2024-09-23 01:30:57.086660,43.0,6.879961,-0.012927522899907663,0.01823272210499319,1.0137175930384832,0.38932495064372197,-1.0630662837389857,-1.3606034109167755
2024-09-23 01:30:57.118994,43.0,6.879961,-0.012927522899907663,0.01823272210499319,1.0137175930384832,0.38932495064372197,-1.1243154934130608,-1.3518370734259486
2024-09-23 01:30:57.131090,43.0,6.880057,-0.012988480952901577,0.018049744655597465,1.0131688171448936,0.38932495064372197,-1.1243154934130608,-1.3518370734259486
2024-09-23 01:30:57.173980,43.0,6.880107,-0.012500713238536278,0.018049744655597465,1.0131688171448936,0.29306802074806765,-1.1156065722204744,-1.4874562908612192
2024-09-23 01:30:57.185844,43.0,6.880107,-0.012500713238536278,0.02097675802753849,1.0131688171448936,0.29306802074806765,-1.1156065722204744,-1.4874562908612192
2024-09-23 01:30:57.218516,43.0,6.880107,-0.012500713238536278,0.02097675802753849,1.0099369208504057,0.3630834878716618,-1.1637349838074296,-1.4874562908612192
2024-09-23 01:30:57.229811,43.0,6.880158,-0.01713506550842347,0.02097675802753849,1.0099369208504057,0.3630834878716618,-1.1637349838074296,-1.426207081187144
2024-09-23 01:30:57.272896,43.0,6.880158,-0.01713506550842347,0.01835463821098102,1.0121322188537785,0.35872900059493257,-1.1637349838074296,-1.426207081187144
2024-09-23 01:30:57.315234,43.0,6.8803,-0.01713506550842347,0.01835463821098102,1.0121322188537785,0.35872900059493257,-1.1637349838074296,-1.4787472629468887
2024-09-23 01:30:57.326598,43.0,6.8803,-0.010244444270867941,0.020427930488741967,1.0122541258459061,0.3193667930966243,-1.1637349838074296,-1.4787472629468887
2024-09-23 01:30:57.369818,43.0,6.880351,-0.01408613603049462,0.01750101888823825,1.015608026347029,0.3193667930966243,-1.1374934943549335,-1.4787472629468887
2024-09-23 01:30:57.413050,43.0,6.880351,-0.01408613603049462,0.01750101888823825,1.015608026347029,0.3062460483703762,-1.15932321363464,-1.4874562908612192
2024-09-23 01:30:57.424663,43.0,6.880402,-0.012988480952901577,0.02311100987727003,1.015608026347029,0.3062460483703762,-1.15932321363464,-1.4874562908612192
2024-09-23 01:30:57.467515,42.93,6.880453,-0.01365932788809991,0.02311100987727003,1.0126809947473678,0.3237212803733535,-1.1418479549512268,-1.4174980532728136
2024-09-23 01:30:57.510172,42.93,6.880453,-0.01365932788809991,0.020366972435748053,1.0135956860463553,0.3018342781975865,-1.1418479549512268,-1.4174980532728136
2024-09-23 01:30:57.521755,42.93,6.880503,-0.01365932788809991,0.020366972435748053,1.0135956860463553,0.3018342781975865,-1.1287272635858505,-1.3911993609655648
2024-09-23 01:30:57.566048,42.93,6.880503,-0.012500713238536278,0.019513251341567978,1.015546975636458,0.3149550229238346,-1.1462025222692638,-1.3956111311383546
2024-09-23 01:30:57.608320,42.93,6.880593,-0.009390723936176203,0.02067186599113161,1.015546975636458,0.3149550229238346,-1.1462025222692638,-1.3956111311383546
2024-09-23 01:30:57.620053,42.93,6.880593,-0.009390723936176203,0.02067186599113161,1.0151202039495033,0.3062460483703762,-1.1243154934130608,-1.3956111311383546
2024-09-23 01:30:57.652877,42.93,6.880593,-0.009390723936176203,0.02067186599113161,1.0151202039495033,0.3062460483703762,-1.1243154934130608,-1.3518370734259486
2024-09-23 01:30:57.664720,42.93,6.880644,-0.012317737308117227,0.021830479121718566,1.0148152420401695,0.3543172304221429,-1.1243154934130608,-1.3518370734259486
2024-09-23 01:30:57.707263,42.93,6.880695,-0.012622630104012445,0.021830479121718566,1.0148152420401695,0.3543172304221429,-1.1418479549512268,-1.4306188513599336
2024-09-23 01:30:57.718386,42.93,6.880695,-0.012622630104012445,0.02225739055452726,1.0135347325502915,0.3543172304221429,-1.1418479549512268,-1.4306188513599336
2024-09-23 01:30:57.750473,42.93,6.880695,-0.012622630104012445,0.02225739055452726,1.0135347325502915,0.28871353347133843,-1.1418479549512268,-1.4306188513599336
2024-09-23 01:30:57.761791,42.93,6.880745,-0.012622630104012445,0.02225739055452726,1.0135347325502915,0.28871353347133843,-1.1987427040290088,-1.4218526205908506
2024-09-23 01:30:57.805747,42.93,6.880745,-0.012744546969488612,0.02189143717471248,1.0079246777642392,0.3237212803733535,-1.1987427040290088,-1.4218526205908506
2024-09-23 01:30:57.817192,42.93,6.880745,-0.012744546969488612,0.02189143717471248,1.0079246777642392,0.3237212803733535,-1.1330817241821438,-1.4655692620050162
2024-09-23 01:30:57.849123,42.93,6.880796,-0.012744546969488612,0.02189143717471248,1.0079246777642392,0.3237212803733535,-1.1330817241821438,-1.4655692620050162
2024-09-23 01:30:57.860745,42.93,6.880796,-0.012317737308117227,0.017805912443621806,1.0132908213515286,0.3849704900474288,-1.1111946953259408,-1.4655692620050162
2024-09-23 01:30:57.904639,42.93,6.880884,-0.015122834574070423,0.020732824044125523,1.013778546534547,0.3849704900474288,-1.1111946953259408,-1.426207081187144
2024-09-23 01:30:57.915927,42.93,6.880884,-0.015122834574070423,0.020732824044125523,1.013778546534547,0.41997821026900783,-1.1111946953259408,-1.426207081187144
2024-09-23 01:30:57.947575,42.93,6.880884,-0.015122834574070423,0.020732824044125523,1.013778546534547,0.41997821026900783,-1.1506142924420535,-1.4437395427253097
2024-09-23 01:30:57.958741,42.93,6.880936,-0.015488684663471218,0.02067186599113161,1.015668979843093,0.41997821026900783,-1.1506142924420535,-1.4437395427253097
2024-09-23 01:30:58.000820,42.93,6.880987,-0.011159123418041933,0.02067186599113161,1.015668979843093,0.31060053564710544,-1.1199610328167677,-1.3999655917346479
2024-09-23 01:30:58.013278,42.93,6.880987,-0.011159123418041933,0.020915799974544576,1.015668979843093,0.31060053564710544,-1.1199610328167677,-1.3999655917346479
2024-09-23 01:30:58.098007,42.93,6.880987,-0.011159123418041933,0.020915799974544576,1.009815013858278,0.35872900059493257,-1.2687009416174144,-1.469981032177806
2024-09-23 01:30:58.109577,42.93,6.881038,-0.011524974266931064,0.020915799974544576,1.009815013858278,0.35872900059493257,-1.2687009416174144,-1.469981032177806
2024-09-23 01:30:58.142057,42.93,6.881038,-0.011524974266931064,0.019574312684975875,1.009815013858278,0.35872900059493257,-1.2687009416174144,-1.469981032177806
2024-09-23 01:30:58.153127,42.93,6.881129,-0.011524974266931064,0.019574312684975875,1.010668654446694,0.3324875378228724,-1.0893650827679784,-1.461214801408723
2024-09-23 01:30:58.194988,42.93,6.881129,-0.016464321863639123,0.017927828549609635,1.0108517093639005,0.3280757409696467,-1.0893650827679784,-1.461214801408723
2024-09-23 01:30:58.206435,42.93,6.881129,-0.016464321863639123,0.017927828549609635,1.0108517093639005,0.3280757409696467,-1.1068402347296475,-1.4218526205908506
2024-09-23 01:30:58.238697,42.93,6.88118,-0.016464321863639123,0.017927828549609635,1.0108517093639005,0.3280757409696467,-1.1068402347296475,-1.4218526205908506
2024-09-23 01:30:58.251104,42.93,6.88118,-0.015000815177668611,0.018781549643789714,1.012742045457939,0.3018342781975865,-1.1680894444037229,-1.4218526205908506
2024-09-23 01:30:58.294173,42.93,6.881231,-0.014147094083488534,0.02018409827676631,1.0151811574455674,0.3018342781975865,-1.1680894444037229,-1.518109550486505
2024-09-23 01:30:58.306280,42.93,6.881231,-0.014147094083488534,0.02018409827676631,1.0151811574455674,0.3237212803733535,-1.1680894444037229,-1.518109550486505
2024-09-23 01:30:58.337862,42.93,6.881231,-0.014147094083488534,0.02018409827676631,1.0151811574455674,0.3237212803733535,-1.1243154934130608,-1.4568603408124299
2024-09-23 01:30:58.348974,42.93,6.881325,-0.012622630104012445,0.020306014382754138,1.0169495865474782,0.3237212803733535,-1.1243154934130608,-1.4568603408124299
2024-09-23 01:30:58.392067,42.93,6.881376,-0.014574005516297226,0.020245056329760223,1.0169495865474782,0.24935132597303017,-1.1156065722204744,-1.461214801408723
2024-09-23 01:30:58.434426,42.93,6.881376,-0.014574005516297226,0.020245056329760223,1.0145103773453428,0.2362305812467821,-1.1156065722204744,-1.461214801408723
2024-09-23 01:30:58.445706,42.93,6.881426,-0.015488684663471218,0.020245056329760223,1.0145103773453428,0.2362305812467821,-1.1506142924420535,-1.43932777255252
2024-09-23 01:30:58.489251,43.12,6.881426,-0.015488684663471218,0.02048899031317319,1.0144494238492787,0.40685746554275976,-1.2424594521649182,-1.3999655917346479
2024-09-23 01:30:58.501483,43.12,6.881518,-0.015488684663471218,0.02048899031317319,1.0144494238492787,0.40685746554275976,-1.2424594521649182,-1.3999655917346479
2024-09-23 01:30:58.534472,43.12,6.881518,-0.011768909009832369,0.018659531766364576,1.0153031616522024,0.40685746554275976,-1.2424594521649182,-1.3999655917346479
2024-09-23 01:30:58.546281,43.12,6.881518,-0.011768909009832369,0.018659531766364576,1.0153031616522024,0.3062460483703762,-1.0718325145080685,-1.4087318225037306
2024-09-23 01:30:58.589414,43.12,6.88157,-0.013232416455291218,0.020366972435748053,1.0107297051572652,0.27559278874509036,-1.1549687530383468,-1.4087318225037306
2024-09-23 01:30:58.631625,43.12,6.881621,-0.013232416455291218,0.020366972435748053,1.0107297051572652,0.27559278874509036,-1.1549687530383468,-1.3999655917346479
2024-09-23 01:30:58.642841,43.12,6.881621,-0.013842202047081654,0.018781549643789714,1.0160958487445546,0.2186980663477443,-1.1549687530383468,-1.3999655917346479
2024-09-23 01:30:58.685888,43.12,6.881671,-0.01536666678604608,0.018476656088406155,1.0131078636488298,0.2186980663477443,-1.15932321363464,-1.3999655917346479
2024-09-23 01:30:58.729095,43.12,6.881671,-0.01536666678604608,0.018476656088406155,1.0131078636488298,0.37184974532118065,-1.1024857741333545,-1.3212411233771593
2024-09-23 01:30:58.740835,43.12,6.881722,-0.011098165365048018,0.019330377182586234,1.0131078636488298,0.37184974532118065,-1.1024857741333545,-1.3212411233771593
2024-09-23 01:30:58.783358,43.12,6.881722,-0.011098165365048018,0.019330377182586234,1.0102418827597397,0.3193667930966243,-1.0937195433642715,-1.3212411233771593
2024-09-23 01:30:58.826772,43.12,6.881773,-0.010244444270867941,0.019330377182586234,1.0102418827597397,0.3193667930966243,-1.0937195433642715,-1.3430708426568656
2024-09-23 01:30:58.838405,43.12,6.881773,-0.010244444270867941,0.01914740125216718,1.0121931723498423,0.38061600277069957,-1.0937195433642715,-1.3430708426568656
2024-09-23 01:30:58.881180,43.12,6.881859,-0.011707950956838454,0.018476656088406155,1.0176813201437667,0.38061600277069957,-1.1111946953259408,-1.3343619214642792
2024-09-23 01:30:58.924532,43.12,6.881859,-0.011707950956838454,0.018476656088406155,1.0176813201437667,0.3324875378228724,-1.1768557818945498,-1.3824903330512346
2024-09-23 01:30:58.936107,43.12,6.881911,-0.013232416455291218,0.021952496999143704,1.0176813201437667,0.3324875378228724,-1.1768557818945498,-1.3824903330512346
2024-09-23 01:30:58.979058,43.12,6.881962,-0.015061773230662524,0.021952496999143704,1.0129859566567019,0.3456082558686845,-1.1330817241821438,-1.3212411233771593
2024-09-23 01:30:59.021341,43.12,6.881962,-0.015061773230662524,0.019086441680196593,1.0132298678554648,0.3456082558686845,-1.1330817241821438,-1.3212411233771593
2024-09-23 01:30:59.032696,43.12,6.881962,-0.015061773230662524,0.019086441680196593,1.0132298678554648,0.37620423259790986,-1.1111946953259408,-1.3212411233771593
2024-09-23 01:30:59.075121,43.12,6.882013,-0.015610600769459046,0.020793883868556746,1.014144559154452,0.3280757409696467,-1.1111946953259408,-1.4874562908612192
2024-09-23 01:30:59.117999,43.12,6.882013,-0.015610600769459046,0.020793883868556746,1.014144559154452,0.3280757409696467,-1.1812102424908428,-1.404320052330941
2024-09-23 01:30:59.129687,43.12,6.882104,-0.011524974266931064,0.01835463821098102,1.0131688171448936,0.3280757409696467,-1.1812102424908428,-1.404320052330941
2024-09-23 01:30:59.172442,43.12,6.882155,-0.011281142054955407,0.021281651582922046,1.0131688171448936,0.29747979092085736,-1.2205724233087152,-1.3693696416858583
2024-09-23 01:30:59.214655,43.12,6.882155,-0.011281142054955407,0.021281651582922046,1.0160958487445546,0.29306802074806765,-1.2205724233087152,-1.3693696416858583
2024-09-23 01:30:59.226456,43.12,6.882206,-0.013110498830326714,0.021281651582922046,1.0160958487445546,0.29306802074806765,-1.1549687530383468,-1.4306188513599336
2024-09-23 01:30:59.268594,43.12,6.882206,-0.013110498830326714,0.02012303845233509,1.0162178529511898,0.29747979092085736,-1.2818216329827905,-1.413086283100024
2024-09-23 01:30:59.280984,43.12,6.882257,-0.013110498830326714,0.02012303845233509,1.0162178529511898,0.29747979092085736,-1.2818216329827905,-1.413086283100024
2024-09-23 01:30:59.312776,43.12,6.882257,-0.014391029585878175,0.020915799974544576,1.0162178529511898,0.29747979092085736,-1.2818216329827905,-1.413086283100024
2024-09-23 01:30:59.324019,43.12,6.882257,-0.014391029585878175,0.020915799974544576,1.0157908868352208,0.3193667930966243,-1.1330817241821438,-1.4087318225037306
2024-09-23 01:30:59.366530,43.12,6.882348,-0.015915494324842603,0.022501222766502915,1.0143883731387076,0.3456082558686845,-1.1330817241821438,-1.4087318225037306
2024-09-23 01:30:59.378686,43.12,6.882348,-0.015915494324842603,0.022501222766502915,1.0143883731387076,0.3456082558686845,-1.0368247942864894,-1.4087318225037306
2024-09-23 01:30:59.411779,43.12,6.882399,-0.014208053655459124,0.022501222766502915,1.0143883731387076,0.3456082558686845,-1.0368247942864894,-1.4524485706396402
2024-09-23 01:30:59.422780,43.12,6.882399,-0.014208053655459124,0.018415698035412244,1.0153031616522024,0.31060053564710544,-1.0368247942864894,-1.4524485706396402
2024-09-23 01:30:59.465150,43.12,6.88245,-0.012317737308117227,0.017196025080394063,1.0146933350480416,0.31060053564710544,-1.1243154934130608,-1.4568603408124299
2024-09-23 01:30:59.507431,42.85,6.88245,-0.012317737308117227,0.017196025080394063,1.0146933350480416,0.3280757409696467,-1.1243154934130608,-1.4568603408124299
2024-09-23 01:30:59.518901,42.85,6.8825,-0.015549642716465131,0.01713506550842347,1.0146933350480416,0.3280757409696467,-1.1418479549512268,-1.4087318225037306
2024-09-23 01:30:59.562253,42.85,6.882551,-0.014269113479890346,0.01713506550842347,1.0125589905407328,0.3674952580444515,-1.1768557818945498,-1.4174980532728136
2024-09-23 01:30:59.604384,42.85,6.882551,-0.014269113479890346,0.020306014382754138,1.0125589905407328,0.3674952580444515,-1.1768557818945498,-1.4174980532728136
2024-09-23 01:30:59.615571,42.85,6.882639,-0.014269113479890346,0.020306014382754138,1.014144559154452,0.37184974532118065,-1.1111946953259408,-1.531230241851881
2024-09-23 01:30:59.658937,42.85,6.882639,-0.01396421992450679,0.02280611632188647,1.0118273541589518,0.27994727602181957,-1.0805987452771515,-1.531230241851881
2024-09-23 01:30:59.671286,42.85,6.882639,-0.01396421992450679,0.02280611632188647,1.0118273541589518,0.27994727602181957,-1.0805987452771515,-1.474335492774099
2024-09-23 01:30:59.702799,42.85,6.882691,-0.010244444270867941,0.02280611632188647,1.0118273541589518,0.27994727602181957,-1.0805987452771515,-1.474335492774099
2024-09-23 01:30:59.714057,42.85,6.882691,-0.010244444270867941,0.01914740125216718,1.0130469101527657,0.3674952580444515,-1.0587118231426924,-1.474335492774099
2024-09-23 01:30:59.756485,42.85,6.882742,-0.013537308491698099,0.019330377182586234,1.017132544250177,0.3674952580444515,-1.0587118231426924,-1.448094003321603
2024-09-23 01:30:59.768823,42.85,6.882742,-0.013537308491698099,0.019330377182586234,1.017132544250177,0.3499627431454137,-1.0587118231426924,-1.448094003321603
2024-09-23 01:30:59.801477,42.85,6.882793,-0.013537308491698099,0.019330377182586234,1.017132544250177,0.3499627431454137,-1.0674780539117754,-1.4568603408124299
2024-09-23 01:30:59.813169,42.85,6.882793,-0.013049540777332799,0.019330377182586234,1.017132544250177,0.3499627431454137,-1.0674780539117754,-1.4568603408124299
2024-09-23 01:30:59.855886,42.85,6.882843,-0.013049540777332799,0.01835463821098102,1.012620041251304,0.29747979092085736,-0.993108152872324,-1.4787472629468887
2024-09-23 01:30:59.898894,42.85,6.882843,-0.012317737308117227,0.019818144896951533,1.0164616669354454,0.29747979092085736,-0.993108152872324,-1.4787472629468887
2024-09-23 01:30:59.910767,42.85,6.882843,-0.012317737308117227,0.019818144896951533,1.0164616669354454,0.3630834878716618,-1.1024857741333545,-1.5005769822265953
2024-09-23 01:30:59.945743,42.85,6.882894,-0.012317737308117227,0.019818144896951533,1.0164616669354454,0.3630834878716618,-1.1024857741333545,-1.5005769822265953
2024-09-23 01:30:59.957761,42.85,6.882894,-0.014756881194255646,0.021037716080532405,1.0157908868352208,0.3193667930966243,-1.1812102424908428,-1.5005769822265953
2024-09-23 01:31:00.000067,42.85,6.882981,-0.01408613603049462,0.021952496999143704,1.0090832802619896,0.3193667930966243,-1.1812102424908428,-1.4568603408124299
2024-09-23 01:31:00.012181,42.85,6.882981,-0.01408613603049462,0.021952496999143704,1.0090832802619896,0.3411964856958948,-1.1812102424908428,-1.4568603408124299
2024-09-23 01:31:00.044708,42.85,6.883032,-0.01408613603049462,0.021952496999143704,1.0090832802619896,0.3411964856958948,-1.1812102424908428,-1.483101830264926
2024-09-23 01:31:00.055800,42.85,6.883032,-0.017561976941232165,0.019452293288574063,1.0120102146471432,0.3411964856958948,-1.1812102424908428,-1.483101830264926
2024-09-23 01:31:00.098884,42.85,6.883083,-0.012805606793919833,0.01914740125216718,1.0120102146471432,0.35872900059493257,-1.0937195433642715,-1.4306188513599336
2024-09-23 01:31:00.141730,42.85,6.883083,-0.012805606793919833,0.01914740125216718,1.011095523348156,0.35872900059493257,-1.0937195433642715,-1.4306188513599336
2024-09-23 01:31:00.153941,42.85,6.883134,-0.014269113479890346,0.01914740125216718,1.011095523348156,0.35872900059493257,-1.0937195433642715,-1.4218526205908506
2024-09-23 01:31:00.197460,42.85,6.883225,-0.014269113479890346,0.018781549643789714,1.0118883076550156,0.35872900059493257,-1.1418479549512268,-1.3824903330512346
2024-09-23 01:31:00.239493,42.85,6.883225,-0.011768909009832369,0.018781549643789714,1.0118883076550156,0.35872900059493257,-1.1418479549512268,-1.3824903330512346
2024-09-23 01:31:00.291893,42.85,6.883225,-0.011768909009832369,0.023476961738108128,1.0118883076550156,0.35872900059493257,-1.1418479549512268,-1.3824903330512346
2024-09-23 01:31:00.335659,42.85,6.883225,-0.011768909009832369,0.023476961738108128,1.0104247432479314,0.35872900059493257,-1.1418479549512268,-1.3824903330512346
2024-09-23 01:31:00.347527,42.85,6.883276,-0.01365932788809991,0.023476961738108128,1.0104247432479314,0.40685746554275976,-1.0980740039605648,-1.3649578715130686
2024-09-23 01:31:00.390253,42.85,6.883276,-0.01365932788809991,0.021281651582922046,1.0115223922496177,0.3149550229238346,-1.0762442846808582,-1.426207081187144
2024-09-23 01:31:00.402504,42.85,6.883327,-0.01365932788809991,0.021281651582922046,1.0115223922496177,0.3149550229238346,-1.0762442846808582,-1.426207081187144
2024-09-23 01:31:00.435045,42.85,6.883327,-0.015122834574070423,0.019330377182586234,1.009815013858278,0.3149550229238346,-1.0762442846808582,-1.426207081187144
2024-09-23 01:31:00.446135,42.85,6.883327,-0.015122834574070423,0.019330377182586234,1.009815013858278,0.3062460483703762,-1.0980740039605648,-1.404320052330941
2024-09-23 01:31:00.489207,42.85,6.883378,-0.01378124399408774,0.017805912443621806,1.0158518403312846,0.31060053564710544,-1.0980740039605648,-1.404320052330941
2024-09-23 01:31:00.500511,42.85,6.883378,-0.01378124399408774,0.017805912443621806,1.0158518403312846,0.31060053564710544,-1.1287272635858505,-1.404320052330941
2024-09-23 01:31:00.532323,42.86,6.883428,-0.013232416455291218,0.017805912443621806,1.0158518403312846,0.31060053564710544,-1.1287272635858505,-1.3780785628784449
2024-09-23 01:31:00.544411,42.86,6.883428,-0.013232416455291218,0.019818144896951533,1.0114003880429827,0.31060053564710544,-1.1287272635858505,-1.3780785628784449
2024-09-23 01:31:00.587072,42.86,6.883567,-0.011951885699739756,0.01750101888823825,1.0103028362558035,0.31060053564710544,-1.1156065722204744,-1.4087318225037306
2024-09-23 01:31:00.630234,42.86,6.883567,-0.011951885699739756,0.01750101888823825,1.0103028362558035,0.39373674749694765,-1.0937195433642715,-1.531230241851881
2024-09-23 01:31:00.683464,42.86,6.883618,-0.013171458402297304,0.020062078880364497,1.0162178529511898,0.31060053564710544,-1.0937195433642715,-1.531230241851881
2024-09-23 01:31:00.695560,42.86,6.883618,-0.013171458402297304,0.020062078880364497,1.0162178529511898,0.31060053564710544,-1.0762442846808582,-1.531230241851881
2024-09-23 01:31:00.727513,42.86,6.883669,-0.013171458402297304,0.020062078880364497,1.0162178529511898,0.31060053564710544,-1.0762442846808582,-1.434973311956227
2024-09-23 01:31:00.738590,42.86,6.883669,-0.012500713238536278,0.020793883868556746,1.0148152420401695,0.35872900059493257,-1.0762442846808582,-1.434973311956227
2024-09-23 01:31:00.781678,42.86,6.883761,-0.013354434332716355,0.02207441310513153,1.0145103773453428,0.35872900059493257,-1.0893650827679784,-1.3824903330512346
2024-09-23 01:31:00.823922,42.86,6.883761,-0.013354434332716355,0.02207441310513153,1.0145103773453428,0.35872900059493257,-1.203097164625302,-1.3824903330512346
2024-09-23 01:31:00.837817,42.86,6.883761,-0.013354434332716355,0.02207441310513153,1.0145103773453428,0.35872900059493257,-1.203097164625302,-1.43932777255252
2024-09-23 01:31:00.870755,42.86,6.883812,-0.013354434332716355,0.02207441310513153,1.0145103773453428,0.35872900059493257,-1.203097164625302,-1.43932777255252
2024-09-23 01:31:00.882289,42.86,6.883812,-0.01146401621393715,0.017744852619190586,1.0123761300525411,0.3499627431454137,-1.1549687530383468,-1.43932777255252
2024-09-23 01:31:00.924649,42.86,6.883863,-0.011403058160943235,0.016891131525010507,1.0123761300525411,0.3499627431454137,-1.1549687530383468,-1.4568603408124299
2024-09-23 01:31:00.936855,42.86,6.883863,-0.011403058160943235,0.016891131525010507,1.0147542885441054,0.3324875378228724,-1.1549687530383468,-1.4568603408124299
2024-09-23 01:31:00.970166,42.86,6.883863,-0.011403058160943235,0.016891131525010507,1.0147542885441054,0.3324875378228724,-1.0980740039605648,-1.3780785628784449
2024-09-23 01:31:00.981261,42.86,6.883956,-0.015549642716465131,0.02012303845233509,1.0146322843374704,0.3324875378228724,-1.0980740039605648,-1.3780785628784449
2024-09-23 01:31:01.023828,42.86,6.884007,-0.015549642716465131,0.02012303845233509,1.0146322843374704,0.3368419984191656,-1.0893650827679784,-1.4787472629468887
2024-09-23 01:31:01.035580,42.86,6.884007,-0.015000815177668611,0.020732824044125523,1.0146322843374704,0.3368419984191656,-1.0893650827679784,-1.4787472629468887
2024-09-23 01:31:01.067289,42.86,6.884007,-0.015000815177668611,0.020732824044125523,1.0133517748475924,0.3499627431454137,-1.0893650827679784,-1.4787472629468887
2024-09-23 01:31:01.078855,42.86,6.884058,-0.014695923141261731,0.020732824044125523,1.0133517748475924,0.3499627431454137,-1.1506142924420535,-1.413086283100024
2024-09-23 01:31:01.120842,42.86,6.884058,-0.014695923141261731,0.018598572194393984,1.0143883731387076,0.3411964856958948,-1.0805987452771515,-1.3824903330512346
2024-09-23 01:31:01.132555,42.86,6.884151,-0.014695923141261731,0.018598572194393984,1.0143883731387076,0.3411964856958948,-1.0805987452771515,-1.3824903330512346
2024-09-23 01:31:01.164709,42.86,6.884151,-0.013720285941093825,0.02207441310513153,1.0143883731387076,0.3411964856958948,-1.0805987452771515,-1.3824903330512346
2024-09-23 01:31:01.176145,42.86,6.884151,-0.013720285941093825,0.02207441310513153,1.013778546534547,0.3411964856958948,-1.1024857741333545,-1.2687009416174144
2024-09-23 01:31:01.219719,42.86,6.884202,-0.012073802565215924,0.02317206970170125,1.0140835084438808,0.3193667930966243,-1.1111946953259408,-1.2687009416174144
2024-09-23 01:31:01.262804,42.86,6.884202,-0.012073802565215924,0.02317206970170125,1.0140835084438808,0.3193667930966243,-1.1111946953259408,-1.413086283100024
2024-09-23 01:31:01.274686,42.86,6.884253,-0.013903160100075569,0.019818144896951533,1.0174983624410678,0.3193667930966243,-1.1111946953259408,-1.413086283100024
2024-09-23 01:31:01.316749,42.86,6.884304,-0.013049540777332799,0.017074107455429557,1.0174983624410678,0.3193667930966243,-1.15932321363464,-1.4568603408124299
2024-09-23 01:31:01.329593,42.86,6.884304,-0.013049540777332799,0.017074107455429557,1.01426646614658,0.3193667930966243,-1.15932321363464,-1.4568603408124299
2024-09-23 01:31:01.361994,42.86,6.884304,-0.013049540777332799,0.017074107455429557,1.01426646614658,0.3456082558686845,-1.1418479549512268,-1.404320052330941
2024-09-23 01:31:01.373399,42.86,6.884355,-0.012988480952901577,0.021281651582922046,1.01426646614658,0.3456082558686845,-1.1418479549512268,-1.404320052330941
2024-09-23 01:31:01.415996,42.86,6.884405,-0.01365932788809991,0.021281651582922046,1.0144494238492787,0.38932495064372197,-1.1506142924420535,-1.5005769822265953
2024-09-23 01:31:01.459368,42.86,6.884405,-0.01365932788809991,0.01975718684395762,1.011095523348156,0.27559278874509036,-1.1506142924420535,-1.5005769822265953
2024-09-23 01:31:01.470955,42.86,6.884492,-0.01365932788809991,0.01975718684395762,1.011095523348156,0.27559278874509036,-1.0587118231426924,-1.3518370734259486
2024-09-23 01:31:01.513632,42.86,6.884492,-0.01219582044264106,0.02140366946034718,1.0150592504534395,0.37620423259790986,-1.1287272635858505,-1.43932777255252
2024-09-23 01:31:01.557171,42.87,6.884544,-0.014025177977500705,0.018598572194393984,1.0150592504534395,0.37620423259790986,-1.1287272635858505,-1.43932777255252
2024-09-23 01:31:01.568272,42.87,6.884544,-0.014025177977500705,0.018598572194393984,1.014022554947817,0.3018342781975865,-1.1024857741333545,-1.43932777255252
2024-09-23 01:31:01.612373,42.87,6.884594,-0.012622630104012445,0.02097675802753849,1.0089612760553544,0.2405850685235113,-1.1024857741333545,-1.4087318225037306
2024-09-23 01:31:01.655341,42.87,6.884645,-0.013476350438704184,0.02097675802753849,1.0089612760553544,0.2405850685235113,-1.0762442846808582,-1.4087318225037306
2024-09-23 01:31:01.666904,42.87,6.884645,-0.013476350438704184,0.02012303845233509,1.0129859566567019,0.2405850685235113,-1.0762442846808582,-1.4087318225037306
2024-09-23 01:31:01.698996,42.87,6.884645,-0.013476350438704184,0.02012303845233509,1.0129859566567019,0.3018342781975865,-1.0762442846808582,-1.4087318225037306
2024-09-23 01:31:01.711894,42.87,6.884696,-0.014269113479890346,0.020245056329760223,1.0129859566567019,0.3018342781975865,-1.224984193481505,-1.3299501512914895
2024-09-23 01:31:01.754264,42.87,6.884696,-0.014269113479890346,0.020245056329760223,1.01426646614658,0.27123832814879717,-1.1506142924420535,-1.3080631224352866
2024-09-23 01:31:01.765694,42.87,6.884746,-0.013537308491698099,0.020245056329760223,1.01426646614658,0.27123832814879717,-1.1506142924420535,-1.3080631224352866
2024-09-23 01:31:01.798049,42.87,6.884746,-0.013537308491698099,0.01835463821098102,1.01426646614658,0.27123832814879717,-1.1506142924420535,-1.3080631224352866
2024-09-23 01:31:01.809424,42.87,6.884834,-0.013537308491698099,0.01835463821098102,1.0150592504534395,0.38061600277069957,-1.15932321363464,-1.3430708426568656
2024-09-23 01:31:01.852687,42.87,6.884834,-0.015183792627064338,0.020366972435748053,1.0150592504534395,0.38061600277069957,-1.15932321363464,-1.3430708426568656
2024-09-23 01:31:01.896164,42.87,6.884834,-0.015183792627064338,0.020366972435748053,1.0132908213515286,0.37184974532118065,-1.15932321363464,-1.3430708426568656
2024-09-23 01:31:01.907315,42.87,6.884885,-0.01811080599900536,0.020366972435748053,1.0132908213515286,0.37184974532118065,-1.15932321363464,-1.4087318225037306
2024-09-23 01:31:01.949853,42.87,6.884885,-0.01811080599900536,0.02237930666051509,1.0145103773453428,0.3149550229238346,-1.1680894444037229,-1.4568603408124299
2024-09-23 01:31:01.962137,42.87,6.884936,-0.01811080599900536,0.02237930666051509,1.0145103773453428,0.3149550229238346,-1.1680894444037229,-1.4568603408124299
2024-09-23 01:31:01.993999,42.87,6.884936,-0.011281142054955407,0.02225739055452726,1.0145103773453428,0.3149550229238346,-1.1680894444037229,-1.4568603408124299
2024-09-23 01:31:02.005394,42.87,6.884936,-0.011281142054955407,0.02225739055452726,1.0109126628599643,0.3324875378228724,-1.1637349838074296,-1.4524485706396402
2024-09-23 01:31:02.047502,42.87,6.884986,-0.010549337066763158,0.021281651582922046,1.013778546534547,0.3193667930966243,-1.1637349838074296,-1.4524485706396402
2024-09-23 01:31:02.059365,42.87,6.884986,-0.010549337066763158,0.021281651582922046,1.013778546534547,0.3193667930966243,-1.1506142924420535,-1.4524485706396402
2024-09-23 01:31:02.092874,42.87,6.885037,-0.01481783924724956,0.021281651582922046,1.013778546534547,0.3193667930966243,-1.1506142924420535,-1.426207081187144
2024-09-23 01:31:02.104727,42.87,6.885037,-0.01481783924724956,0.021952496999143704,1.0133517748475924,0.35872900059493257,-1.1506142924420535,-1.426207081187144
2024-09-23 01:31:02.146631,42.87,6.885128,-0.013293374508285133,0.020062078880364497,1.009266140750181,0.35872900059493257,-1.203097164625302,-1.5224640110827983
2024-09-23 01:31:02.188767,42.87,6.885128,-0.013293374508285133,0.020062078880364497,1.009266140750181,0.28871353347133843,-1.0980740039605648,-1.5224640110827983
2024-09-23 01:31:02.200039,42.87,6.885178,-0.014269113479890346,0.02140366946034718,1.009266140750181,0.28871353347133843,-1.0980740039605648,-1.469981032177806
2024-09-23 01:31:02.242474,42.87,6.885229,-0.014269113479890346,0.02140366946034718,1.0138396944596255,0.38061600277069957,-1.0499454856518655,-1.4218526205908506
2024-09-23 01:31:02.254444,42.87,6.885229,-0.01378124399408774,0.02140366946034718,1.0138396944596255,0.38061600277069957,-1.0499454856518655,-1.4218526205908506
2024-09-23 01:31:02.288087,42.87,6.885229,-0.01378124399408774,0.019330377182586234,1.0145713308414066,0.3324875378228724,-1.0499454856518655,-1.4218526205908506
2024-09-23 01:31:02.299440,42.87,6.885321,-0.01378124399408774,0.019330377182586234,1.0145713308414066,0.3324875378228724,-1.0324703336901964,-1.4655692620050162
2024-09-23 01:31:02.342957,42.87,6.885321,-0.01341539238571027,0.022440264713509,1.0123761300525411,0.39809120809324083,-1.1287272635858505,-1.4568603408124299
2024-09-23 01:31:02.385464,42.87,6.885372,-0.01408613603049462,0.01768389456619667,1.0123761300525411,0.39809120809324083,-1.1287272635858505,-1.4568603408124299
2024-09-23 01:31:02.397170,42.87,6.885372,-0.01408613603049462,0.01768389456619667,1.0101198785531047,0.3456082558686845,-1.0324703336901964,-1.4568603408124299
2024-09-23 01:31:02.439629,42.87,6.885423,-0.015183792627064338,0.019513251341567978,1.0174374089450038,0.2405850685235113,-1.0324703336901964,-1.3737241022821516
2024-09-23 01:31:02.482762,42.87,6.885474,-0.015183792627064338,0.019513251341567978,1.0174374089450038,0.2405850685235113,-1.1506142924420535,-1.448094003321603
2024-09-23 01:31:02.494441,42.87,6.885474,-0.011951885699739756,0.022928134199311608,1.0126809947473678,0.2405850685235113,-1.1506142924420535,-1.448094003321603
2024-09-23 01:31:02.537126,42.87,6.885524,-0.012256778495634975,0.02018409827676631,1.0126809947473678,0.38061600277069957,-1.1462025222692638,-1.3255955839734523
2024-09-23 01:31:02.631271,42.68,6.885524,-0.012256778495634975,0.02018409827676631,1.0121322188537785,0.3018342781975865,-1.1243154934130608,-1.3956111311383546
2024-09-23 01:31:02.642662,42.68,6.885575,-0.010488379013769245,0.02018409827676631,1.0121322188537785,0.3018342781975865,-1.1243154934130608,-1.3956111311383546
2024-09-23 01:31:02.674839,42.68,6.885575,-0.010488379013769245,0.018293680157987106,1.0121322188537785,0.3018342781975865,-1.1243154934130608,-1.3956111311383546
2024-09-23 01:31:02.686722,42.68,6.885662,-0.010488379013769245,0.018293680157987106,1.015486022140394,0.29306802074806765,-1.0237041029211134,-1.3999655917346479
2024-09-23 01:31:02.729371,42.68,6.885662,-0.012439653414105056,0.020245056329760223,1.0139616014517532,0.29747979092085736,-1.0237041029211134,-1.3999655917346479
2024-09-23 01:31:02.742400,42.68,6.885662,-0.012439653414105056,0.020245056329760223,1.0139616014517532,0.29747979092085736,-1.0805987452771515,-1.426207081187144
2024-09-23 01:31:02.775535,42.68,6.885714,-0.01341539238571027,0.020245056329760223,1.0139616014517532,0.29747979092085736,-1.0805987452771515,-1.426207081187144
2024-09-23 01:31:02.786564,42.68,6.885714,-0.01341539238571027,0.02201345505213762,1.0117053499523165,0.3237212803733535,-1.0980740039605648,-1.426207081187144
2024-09-23 01:31:02.830150,42.68,6.885764,-0.011220081471035847,0.019452293288574063,1.0105467474545664,0.3149550229238346,-1.0980740039605648,-1.5005769822265953
2024-09-23 01:31:02.872200,42.68,6.885764,-0.011220081471035847,0.019452293288574063,1.0105467474545664,0.3149550229238346,-1.1506142924420535,-1.5005769822265953
2024-09-23 01:31:02.924866,42.68,6.885859,-0.011342100107949322,0.020427930488741967,1.0148762927507406,0.3149550229238346,-1.1506142924420535,-1.3430708426568656
2024-09-23 01:31:02.935806,42.68,6.885859,-0.011342100107949322,0.020427930488741967,1.0148762927507406,0.3411964856958948,-1.1506142924420535,-1.3430708426568656
2024-09-23 01:31:02.968830,42.68,6.885859,-0.011342100107949322,0.020427930488741967,1.0148762927507406,0.3411964856958948,-1.0980740039605648,-1.434973311956227
2024-09-23 01:31:02.980123,42.68,6.885909,-0.010366361136344109,0.020366972435748053,1.0150592504534395,0.3411964856958948,-1.0980740039605648,-1.434973311956227
2024-09-23 01:31:03.023070,42.68,6.88596,-0.01219582044264106,0.020366972435748053,1.0150592504534395,0.26247207069927825,-1.0412365644592791,-1.3430708426568656
2024-09-23 01:31:03.034738,42.68,6.88596,-0.01219582044264106,0.019330377182586234,1.0150592504534395,0.26247207069927825,-1.0412365644592791,-1.3430708426568656
2024-09-23 01:31:03.066395,42.68,6.88596,-0.01219582044264106,0.019330377182586234,1.0116442992417454,0.3411964856958948,-1.0412365644592791,-1.3430708426568656
2024-09-23 01:31:03.078294,42.68,6.886052,-0.010183486217874026,0.019330377182586234,1.0116442992417454,0.3411964856958948,-1.0849533125951887,-1.4174980532728136
2024-09-23 01:31:03.121101,42.68,6.886103,-0.010183486217874026,0.021830479121718566,1.0149982969573756,0.3368419984191656,-1.1724439050000162,-1.4174980532728136
2024-09-23 01:31:03.163651,42.68,6.886103,-0.010915188675140628,0.017439959063807027,1.0149982969573756,0.3368419984191656,-1.1724439050000162,-1.4174980532728136
2024-09-23 01:31:03.175135,42.68,6.886103,-0.010915188675140628,0.017439959063807027,1.0117053499523165,0.2537058132497594,-1.1549687530383468,-1.3780785628784449
2024-09-23 01:31:03.216855,42.68,6.886199,-0.016098470255261652,0.01823272210499319,1.012620041251304,0.3280757409696467,-1.1549687530383468,-1.3780785628784449
2024-09-23 01:31:03.229129,42.68,6.886199,-0.016098470255261652,0.01823272210499319,1.012620041251304,0.3280757409696467,-1.2336931146740913,-1.3780785628784449
2024-09-23 01:31:03.261673,42.68,6.88625,-0.016098470255261652,0.01823272210499319,1.012620041251304,0.3280757409696467,-1.2336931146740913,-1.469981032177806
2024-09-23 01:31:03.273281,42.68,6.88625,-0.011524974266931064,0.01975718684395762,1.0145103773453428,0.3324875378228724,-1.2336931146740913,-1.469981032177806
2024-09-23 01:31:03.357776,42.68,6.88625,-0.011524974266931064,0.01975718684395762,1.0145103773453428,0.3324875378228724,-1.224984193481505,-1.469981032177806
2024-09-23 01:31:03.369749,42.68,6.886301,-0.010976248499571852,0.02122069352992813,1.0162788064472537,0.3324875378228724,-1.224984193481505,-1.3999655917346479
2024-09-23 01:31:03.412807,42.68,6.886352,-0.012012843752733671,0.02122069352992813,1.0162788064472537,0.3849704900474288,-1.1855647030871361,-1.504988752399385
2024-09-23 01:31:03.425069,42.68,6.886352,-0.012012843752733671,0.019696228790963704,1.0162788064472537,0.3849704900474288,-1.1855647030871361,-1.504988752399385
2024-09-23 01:31:03.457116,42.68,6.886352,-0.012012843752733671,0.019696228790963704,1.0162788064472537,0.37620423259790986,-1.1855647030871361,-1.504988752399385
2024-09-23 01:31:03.468431,42.68,6.886402,-0.015549642716465131,0.019696228790963704,1.0162788064472537,0.37620423259790986,-1.1506142924420535,-1.3824903330512346
2024-09-23 01:31:03.511121,42.68,6.886491,-0.015549642716465131,0.023354943860682993,1.011034569852092,0.3630834878716618,-1.1156065722204744,-1.4087318225037306
2024-09-23 01:31:03.552886,42.68,6.886491,-0.013232416455291218,0.021586543619328925,1.011034569852092,0.3630834878716618,-1.1156065722204744,-1.4087318225037306
2024-09-23 01:31:03.656545,42.3,6.886589,-0.013232416455291218,0.021586543619328925,1.0096319589410718,0.40244569536997005,-1.1199610328167677,-1.461214801408723
2024-09-23 01:31:03.668850,42.3,6.886589,-0.01585453627184869,0.021586543619328925,1.0096319589410718,0.40244569536997005,-1.1199610328167677,-1.461214801408723
2024-09-23 01:31:03.701575,42.3,6.886589,-0.01585453627184869,0.018842507696783625,1.0121931723498423,0.31060053564710544,-1.1199610328167677,-1.461214801408723
2024-09-23 01:31:03.713166,42.3,6.88664,-0.01585453627184869,0.018842507696783625,1.0121931723498423,0.31060053564710544,-1.203097164625302,-1.3518370734259486
2024-09-23 01:31:03.755936,42.3,6.88664,-0.013049540777332799,0.015976452377836518,1.0135956860463553,0.31060053564710544,-1.207451731943339,-1.426207081187144
2024-09-23 01:31:03.800611,42.3,6.886691,-0.016037512202267738,0.02164760496273682,1.0135956860463553,0.31060053564710544,-1.207451731943339,-1.426207081187144
2024-09-23 01:31:03.812751,42.3,6.886691,-0.016037512202267738,0.02164760496273682,1.0137175930384832,0.3062460483703762,-1.1637349838074296,-1.426207081187144
2024-09-23 01:31:03.845904,42.3,6.886691,-0.016037512202267738,0.02164760496273682,1.0137175930384832,0.3062460483703762,-1.1637349838074296,-1.5618261919006706
2024-09-23 01:31:03.857845,42.3,6.886742,-0.014695923141261731,0.02012303845233509,1.01231507934197,0.29306802074806765,-1.1637349838074296,-1.5618261919006706
2024-09-23 01:31:03.900833,42.3,6.886742,-0.014695923141261731,0.02012303845233509,1.01231507934197,0.29306802074806765,-1.0762442846808582,-1.5618261919006706
2024-09-23 01:31:03.945055,42.3,6.886883,-0.014695923141261731,0.02012303845233509,1.01231507934197,0.29306802074806765,-1.0762442846808582,-1.461214801408723
2024-09-23 01:31:03.957203,42.3,6.886883,-0.01268358815700636,0.019940162774376668,1.0123761300525411,0.29306802074806765,-1.0762442846808582,-1.461214801408723
2024-09-23 01:31:03.999833,42.3,6.886933,-0.009329765883182288,0.01798878660260355,1.0123761300525411,0.31060053564710544,-1.1199610328167677,-1.4874562908612192
2024-09-23 01:31:04.043331,42.3,6.886933,-0.009329765883182288,0.01798878660260355,1.0149982969573756,0.40244569536997005,-1.1506142924420535,-1.4874562908612192
2024-09-23 01:31:04.054823,42.3,6.886984,-0.011098165365048018,0.01798878660260355,1.0149982969573756,0.40244569536997005,-1.1506142924420535,-1.3824903330512346
2024-09-23 01:31:04.098601,42.3,6.887076,-0.011098165365048018,0.01823272210499319,1.0149372462468045,0.3193667930966243,-1.028115873093903,-1.4306188513599336
2024-09-23 01:31:04.141042,42.3,6.887076,-0.013354434332716355,0.01975718684395762,1.0167666288447792,0.3193667930966243,-1.028115873093903,-1.4306188513599336
2024-09-23 01:31:04.152784,42.3,6.887076,-0.013354434332716355,0.01975718684395762,1.0167666288447792,0.3849704900474288,-1.0543573625463993,-1.4306188513599336
2024-09-23 01:31:04.184748,42.3,6.887127,-0.013354434332716355,0.01975718684395762,1.0167666288447792,0.3849704900474288,-1.0543573625463993,-1.4306188513599336
2024-09-23 01:31:04.196555,42.3,6.887127,-0.01378124399408774,0.022989092252305523,1.012498037044669,0.38061600277069957,-1.1243154934130608,-1.4306188513599336
2024-09-23 01:31:04.239074,42.3,6.887223,-0.01378124399408774,0.021281651582922046,1.012498037044669,0.38061600277069957,-1.1243154934130608,-1.3606034109167755
2024-09-23 01:31:04.250594,42.3,6.887223,-0.01378124399408774,0.021281651582922046,1.0128639524500669,0.40685746554275976,-1.1243154934130608,-1.3606034109167755
2024-09-23 01:31:04.282563,42.3,6.887223,-0.01378124399408774,0.021281651582922046,1.0128639524500669,0.40685746554275976,-1.0937195433642715,-1.3606034109167755
2024-09-23 01:31:04.294334,42.3,6.887274,-0.013476350438704184,0.020427930488741967,1.015668979843093,0.40685746554275976,-1.0937195433642715,-1.4218526205908506
2024-09-23 01:31:04.337753,42.3,6.887325,-0.013476350438704184,0.020427930488741967,1.015668979843093,0.29306802074806765,-1.1987427040290088,-1.461214801408723
2024-09-23 01:31:04.349637,42.3,6.887325,-0.015305708733052167,0.02085484192155066,1.015668979843093,0.29306802074806765,-1.1987427040290088,-1.461214801408723
2024-09-23 01:31:04.382540,42.3,6.887325,-0.015305708733052167,0.02085484192155066,1.011095523348156,0.2668265312955715,-1.1987427040290088,-1.461214801408723
2024-09-23 01:31:04.393972,42.3,6.887376,-0.013293374508285133,0.02085484192155066,1.011095523348156,0.2668265312955715,-1.1855647030871361,-1.469981032177806
2024-09-23 01:31:04.435884,42.3,6.887376,-0.013293374508285133,0.017013149402435646,1.0159129882563631,0.40244569536997005,-1.0893650827679784,-1.3868447936475277
2024-09-23 01:31:04.447765,42.3,6.887466,-0.013293374508285133,0.017013149402435646,1.0159129882563631,0.40244569536997005,-1.0893650827679784,-1.3868447936475277
2024-09-23 01:31:04.481086,42.3,6.887466,-0.011586034850850625,0.022867176146317694,1.0146933350480416,0.40244569536997005,-1.0893650827679784,-1.3868447936475277
2024-09-23 01:31:04.492169,42.3,6.887466,-0.011586034850850625,0.022867176146317694,1.0146933350480416,0.3368419984191656,-1.0937195433642715,-1.43932777255252
2024-09-23 01:31:04.534929,42.3,6.887517,-0.01256167205101853,0.022196330730096036,1.0171934977462411,0.3280757409696467,-1.1374934943549335,-1.43932777255252
2024-09-23 01:31:04.576984,42.3,6.887568,-0.01256167205101853,0.022196330730096036,1.0171934977462411,0.3280757409696467,-1.1374934943549335,-1.413086283100024
2024-09-23 01:31:04.589561,42.3,6.887568,-0.011768909009832369,0.020306014382754138,1.0149982969573756,0.38932495064372197,-1.1374934943549335,-1.413086283100024
2024-09-23 01:31:04.632346,42.3,6.887619,-0.01164699290384454,0.020306014382754138,1.0149982969573756,0.38932495064372197,-1.1462025222692638,-1.3124748926080763
2024-09-23 01:31:04.726325,42.3,6.887619,-0.01164699290384454,0.02018409827676631,1.011034569852092,0.37620423259790986,-1.1462025222692638,-1.3124748926080763
2024-09-23 01:31:04.738636,42.3,6.88767,-0.01164699290384454,0.02018409827676631,1.011034569852092,0.37620423259790986,-1.0937195433642715,-1.4087318225037306
2024-09-23 01:31:04.770554,42.3,6.88767,-0.011586034850850625,0.02018409827676631,1.011034569852092,0.37620423259790986,-1.0937195433642715,-1.4087318225037306
2024-09-23 01:31:04.781719,42.3,6.88767,-0.011586034850850625,0.023233027754695164,1.0125589905407328,0.3499627431454137,-1.1287272635858505,-1.3737241022821516
2024-09-23 01:31:04.824422,42.3,6.88772,-0.01536666678604608,0.019696228790963704,1.0125589905407328,0.3499627431454137,-1.1287272635858505,-1.3737241022821516
2024-09-23 01:31:04.835720,42.3,6.88772,-0.01536666678604608,0.019696228790963704,1.0176202694331955,0.2668265312955715,-1.1156065722204744,-1.3737241022821516
2024-09-23 01:31:04.869239,42.3,6.88772,-0.01536666678604608,0.019696228790963704,1.0176202694331955,0.2668265312955715,-1.1156065722204744,-1.4655692620050162
2024-09-23 01:31:04.880559,42.3,6.887807,-0.012256778495634975,0.01811080599900536,1.0145713308414066,0.3237212803733535,-1.1156065722204744,-1.4655692620050162
2024-09-23 01:31:04.923905,42.3,6.887858,-0.01365932788809991,0.020610907938137694,1.0145713308414066,0.3237212803733535,-1.15932321363464,-1.413086283100024
2024-09-23 01:31:04.935285,42.3,6.887858,-0.01365932788809991,0.020610907938137694,1.0158518403312846,0.3237212803733535,-1.15932321363464,-1.413086283100024
2024-09-23 01:31:04.967315,42.3,6.887858,-0.01365932788809991,0.020610907938137694,1.0158518403312846,0.3456082558686845,-1.1637349838074296,-1.413086283100024
2024-09-23 01:31:04.979407,42.3,6.887956,-0.013842202047081654,0.019818144896951533,1.0158518403312846,0.3456082558686845,-1.1637349838074296,-1.5005769822265953
2024-09-23 01:31:05.022090,42.3,6.888006,-0.010305402323861856,0.019818144896951533,1.0114003880429827,0.3280757409696467,-1.1768557818945498,-1.3562488435987383
2024-09-23 01:31:05.064797,42.3,6.888006,-0.010305402323861856,0.01835463821098102,1.012620041251304,0.3280757409696467,-1.1768557818945498,-1.3562488435987383
2024-09-23 01:31:05.076152,42.3,6.8881,-0.010305402323861856,0.01835463821098102,1.012620041251304,0.28871353347133843,-1.0980740039605648,-1.4087318225037306
2024-09-23 01:31:05.118560,42.3,6.8881,-0.01481783924724956,0.019208359305161096,1.0133517748475924,0.40244569536997005,-1.207451731943339,-1.4087318225037306
2024-09-23 01:31:05.130084,42.3,6.8881,-0.01481783924724956,0.019208359305161096,1.0133517748475924,0.40244569536997005,-1.207451731943339,-1.553117270708084
2024-09-23 01:31:05.162605,42.3,6.888151,-0.015976452377836518,0.019208359305161096,1.0133517748475924,0.40244569536997005,-1.207451731943339,-1.553117270708084
2024-09-23 01:31:05.173646,42.3,6.888151,-0.015976452377836518,0.019879204721382753,1.0157299333391567,0.3368419984191656,-1.0805987452771515,-1.553117270708084
2024-09-23 01:31:05.215911,42.3,6.888202,-0.01378124399408774,0.019452293288574063,1.0139006479556893,0.3368419984191656,-1.0805987452771515,-1.4174980532728136
2024-09-23 01:31:05.228109,42.3,6.888202,-0.01378124399408774,0.019452293288574063,1.0139006479556893,0.35872900059493257,-1.0805987452771515,-1.4174980532728136
2024-09-23 01:31:05.260601,42.3,6.888202,-0.01378124399408774,0.019452293288574063,1.0139006479556893,0.35872900059493257,-1.1111946953259408,-1.3343619214642792
2024-09-23 01:31:05.271907,42.3,6.888253,-0.011403058160943235,0.0187205915907958,1.0160348952484908,0.35872900059493257,-1.1111946953259408,-1.3343619214642792
2024-09-23 01:31:05.315559,42.3,6.888303,-0.01164699290384454,0.0187205915907958,1.0160348952484908,0.3674952580444515,-1.1855647030871361,-1.4087318225037306
2024-09-23 01:31:05.327023,42.3,6.888303,-0.01164699290384454,0.02018409827676631,1.0160348952484908,0.3674952580444515,-1.1855647030871361,-1.4087318225037306
2024-09-23 01:31:05.359194,42.3,6.888303,-0.01164699290384454,0.02018409827676631,1.0147542885441054,0.3543172304221429,-0.993108152872324,-1.4087318225037306
2024-09-23 01:31:05.370418,42.3,6.888354,-0.01182986782231462,0.02018409827676631,1.0147542885441054,0.3543172304221429,-0.993108152872324,-1.426207081187144
2024-09-23 01:31:05.412944,42.3,6.888441,-0.01182986782231462,0.02262324216290473,1.0101198785531047,0.2537058132497594,-1.1243154934130608,-1.4568603408124299
2024-09-23 01:31:05.455372,42.3,6.888441,-0.01408613603049462,0.019086441680196593,1.0101198785531047,0.2537058132497594,-1.1243154934130608,-1.4568603408124299
2024-09-23 01:31:05.467577,42.3,6.888441,-0.01408613603049462,0.019086441680196593,1.0119492611510794,0.26247207069927825,-1.1156065722204744,-1.4218526205908506
2024-09-23 01:31:05.510881,42.3,6.888492,-0.012744546969488612,0.02018409827676631,1.0137175930384832,0.39373674749694765,-1.1374934943549335,-1.4218526205908506
2024-09-23 01:31:05.554214,42.3,6.888543,-0.012500713238536278,0.02018409827676631,1.0137175930384832,0.39373674749694765,-1.1374934943549335,-1.4874562908612192
2024-09-23 01:31:05.565898,42.3,6.888543,-0.012500713238536278,0.019452293288574063,1.0114614387535539,0.3456082558686845,-1.1374934943549335,-1.4874562908612192
2024-09-23 01:31:05.609571,42.3,6.888594,-0.014512945691866003,0.019879204721382753,1.0103028362558035,0.3456082558686845,-1.1374934943549335,-1.4874562908612192
2024-09-23 01:31:05.651441,42.3,6.888594,-0.014512945691866003,0.019879204721382753,1.0103028362558035,0.29306802074806765,-1.1812102424908428,-1.483101830264926
2024-09-23 01:31:05.662645,42.3,6.888645,-0.014756881194255646,0.020549948366167105,1.0103028362558035,0.29306802074806765,-1.1812102424908428,-1.483101830264926
2024-09-23 01:31:05.705845,42.3,6.888695,-0.013476350438704184,0.020549948366167105,1.0148762927507406,0.37184974532118065,-1.0368247942864894,-1.404320052330941
2024-09-23 01:31:05.750135,42.31,6.888695,-0.013476350438704184,0.020245056329760223,1.0111565740587272,0.3368419984191656,-1.0368247942864894,-1.404320052330941
2024-09-23 01:31:05.761864,42.31,6.888782,-0.013476350438704184,0.020245056329760223,1.0111565740587272,0.3368419984191656,-1.0368247942864894,-1.4874562908612192
2024-09-23 01:31:05.794713,42.31,6.888782,-0.010671253932239326,0.020245056329760223,1.0111565740587272,0.3368419984191656,-1.0368247942864894,-1.4874562908612192
2024-09-23 01:31:05.805814,42.31,6.888782,-0.010671253932239326,0.02085484192155066,1.014022554947817,0.3674952580444515,-1.0324703336901964,-1.3693696416858583
2024-09-23 01:31:05.848434,42.31,6.888834,-0.015305708733052167,0.020549948366167105,1.012620041251304,0.3674952580444515,-1.0324703336901964,-1.3693696416858583
2024-09-23 01:31:05.859759,42.31,6.888834,-0.015305708733052167,0.020549948366167105,1.012620041251304,0.3674952580444515,-1.1462025222692638,-1.3693696416858583
2024-09-23 01:31:05.891423,42.31,6.888834,-0.015305708733052167,0.020549948366167105,1.012620041251304,0.3674952580444515,-1.1462025222692638,-1.3911993609655648
2024-09-23 01:31:05.903539,42.31,6.888884,-0.01182986782231462,0.017257084904825287,1.0162788064472537,0.37184974532118065,-1.1462025222692638,-1.3911993609655648
2024-09-23 01:31:05.945575,42.31,6.888935,-0.013720285941093825,0.017257084904825287,1.0162788064472537,0.37184974532118065,-1.1680894444037229,-1.3911993609655648
2024-09-23 01:31:05.956877,42.31,6.888935,-0.013720285941093825,0.019818144896951533,1.0157908868352208,0.37184974532118065,-1.1680894444037229,-1.3911993609655648
2024-09-23 01:31:05.988875,42.31,6.888935,-0.013720285941093825,0.019818144896951533,1.0157908868352208,0.35872900059493257,-1.1680894444037229,-1.3911993609655648
2024-09-23 01:31:06.000192,42.31,6.888986,-0.013720285941093825,0.019818144896951533,1.0157908868352208,0.35872900059493257,-1.2205724233087152,-1.3824903330512346
2024-09-23 01:31:06.043736,42.31,6.888986,-0.012927522899907663,0.019879204721382753,1.0120712653577144,0.35872900059493257,-1.2205724233087152,-1.3824903330512346
2024-09-23 01:31:06.055143,42.31,6.888986,-0.012927522899907663,0.019879204721382753,1.0120712653577144,0.2186980663477443,-1.0499454856518655,-1.3387163820605725
2024-09-23 01:31:06.087074,42.31,6.889037,-0.012927522899907663,0.019879204721382753,1.0120712653577144,0.2186980663477443,-1.0499454856518655,-1.3387163820605725
2024-09-23 01:31:06.098912,42.31,6.889037,-0.012500713238536278,0.020062078880364497,1.0146322843374704,0.35872900059493257,-1.0543573625463993,-1.3387163820605725
2024-09-23 01:31:06.141148,42.31,6.889123,-0.010976248499571852,0.02189143717471248,1.0146322843374704,0.35872900059493257,-1.0543573625463993,-1.3824903330512346
2024-09-23 01:31:06.152945,42.31,6.889123,-0.010976248499571852,0.02189143717471248,1.0103637897518674,0.3280757409696467,-1.0543573625463993,-1.3824903330512346
2024-09-23 01:31:06.185788,42.31,6.889123,-0.010976248499571852,0.02189143717471248,1.0103637897518674,0.3280757409696467,-1.0412365644592791,-1.4524485706396402
2024-09-23 01:31:06.197613,42.31,6.889175,-0.011159123418041933,0.02207441310513153,1.0121322188537785,0.3280757409696467,-1.0412365644592791,-1.4524485706396402
2024-09-23 01:31:06.240600,42.31,6.889226,-0.011159123418041933,0.02207441310513153,1.0121322188537785,0.3062460483703762,-1.0762442846808582,-1.3956111311383546
2024-09-23 01:31:06.252026,42.31,6.889226,-0.012500713238536278,0.019696228790963704,1.0121322188537785,0.3062460483703762,-1.0762442846808582,-1.3956111311383546
2024-09-23 01:31:06.284270,42.31,6.889226,-0.012500713238536278,0.019696228790963704,1.0157299333391567,0.3149550229238346,-1.0849533125951887,-1.3956111311383546
2024-09-23 01:31:06.295976,42.31,6.889276,-0.01396421992450679,0.019696228790963704,1.0157299333391567,0.3149550229238346,-1.0849533125951887,-1.3387163820605725
2024-09-23 01:31:06.338038,42.31,6.889367,-0.01396421992450679,0.01926931735815501,1.0145103773453428,0.3324875378228724,-1.1680894444037229,-1.434973311956227
2024-09-23 01:31:06.381547,42.31,6.889367,-0.014147094083488534,0.01926931735815501,1.0145103773453428,0.3324875378228724,-1.1680894444037229,-1.434973311956227
2024-09-23 01:31:06.393225,42.31,6.889367,-0.014147094083488534,0.01768389456619667,1.0122541258459061,0.3499627431454137,-1.1330817241821438,-1.3911993609655648
2024-09-23 01:31:06.437133,42.31,6.889419,-0.01481783924724956,0.01939133523558015,1.008229542459066,0.27559278874509036,-1.0499454856518655,-1.3911993609655648
2024-09-23 01:31:06.480129,42.31,6.889469,-0.013232416455291218,0.01939133523558015,1.008229542459066,0.27559278874509036,-1.0499454856518655,-1.3737241022821516
2024-09-23 01:31:06.492017,42.31,6.889469,-0.013232416455291218,0.02097675802753849,1.0144494238492787,0.3193667930966243,-1.0499454856518655,-1.3737241022821516
2024-09-23 01:31:06.536255,42.31,6.88952,-0.014939857124674697,0.0187205915907958,1.0133517748475924,0.3193667930966243,-1.216217962712422,-1.3693696416858583
2024-09-23 01:31:06.579085,42.31,6.889571,-0.014939857124674697,0.0187205915907958,1.0133517748475924,0.2843590461946093,-1.1987427040290088,-1.4655692620050162
2024-09-23 01:31:06.590568,42.31,6.889571,-0.01268358815700636,0.021281651582922046,1.0133517748475924,0.2843590461946093,-1.1987427040290088,-1.4655692620050162
2024-09-23 01:31:06.623032,42.31,6.889571,-0.01268358815700636,0.021281651582922046,1.0136566395424191,0.2843590461946093,-1.1987427040290088,-1.4655692620050162
2024-09-23 01:31:06.634085,42.31,6.889622,-0.01573262016586086,0.021281651582922046,1.0136566395424191,0.29747979092085736,-1.1287272635858505,-1.496222521630302
2024-09-23 01:31:06.677280,42.31,6.889622,-0.01573262016586086,0.019940162774376668,1.0101198785531047,0.3411964856958948,-1.1199610328167677,-1.496222521630302
2024-09-23 01:31:06.689189,42.31,6.889709,-0.01573262016586086,0.019940162774376668,1.0101198785531047,0.3411964856958948,-1.1199610328167677,-1.413086283100024
2024-09-23 01:31:06.722718,42.31,6.889709,-0.015244750680058252,0.01853761414140007,1.0101198785531047,0.3411964856958948,-1.1199610328167677,-1.413086283100024
2024-09-23 01:31:06.734809,42.31,6.889709,-0.015244750680058252,0.01853761414140007,1.0122541258459061,0.3193667930966243,-0.9755755846124142,-1.4437395427253097
2024-09-23 01:31:06.778202,42.66,6.88976,-0.009329765883182288,0.02329398580768908,1.0134127283436565,0.3411964856958948,-1.1724439050000162,-1.4437395427253097
2024-09-23 01:31:06.822847,42.66,6.889811,-0.011037206552565765,0.02329398580768908,1.0134127283436565,0.3411964856958948,-1.1724439050000162,-1.469981032177806
2024-09-23 01:31:06.833916,42.66,6.889811,-0.011037206552565765,0.020245056329760223,1.0133517748475924,0.3062460483703762,-1.1724439050000162,-1.469981032177806
2024-09-23 01:31:06.866672,42.66,6.889811,-0.011037206552565765,0.020245056329760223,1.0133517748475924,0.3062460483703762,-1.1506142924420535,-1.469981032177806
2024-09-23 01:31:06.878567,42.66,6.889861,-0.015488684663471218,0.019574312684975875,1.01231507934197,0.3062460483703762,-1.1506142924420535,-1.3868447936475277
2024-09-23 01:31:06.921722,42.66,6.889912,-0.015488684663471218,0.019574312684975875,1.01231507934197,0.38061600277069957,-0.9886962759777903,-1.461214801408723
2024-09-23 01:31:06.933214,42.66,6.889912,-0.01396421992450679,0.018171764051999276,1.01231507934197,0.38061600277069957,-0.9886962759777903,-1.461214801408723
2024-09-23 01:31:06.966125,42.66,6.889912,-0.01396421992450679,0.018171764051999276,1.0109126628599643,0.38061600277069957,-0.9886962759777903,-1.461214801408723
2024-09-23 01:31:06.977464,42.66,6.889963,-0.01182986782231462,0.018171764051999276,1.0109126628599643,0.3368419984191656,-1.0324703336901964,-1.496222521630302
2024-09-23 01:31:07.019975,42.66,6.889963,-0.01182986782231462,0.019940162774376668,1.0099979715609768,0.2318188110739924,-1.0324703336901964,-1.496222521630302
2024-09-23 01:31:07.062561,42.66,6.889963,-0.01182986782231462,0.019940162774376668,1.0099979715609768,0.2318188110739924,-1.1024857741333545,-1.496222521630302
2024-09-23 01:31:07.073823,42.66,6.89005,-0.012134760618209839,0.018476656088406155,1.0134736818397203,0.2318188110739924,-1.1024857741333545,-1.3693696416858583
2024-09-23 01:31:07.117716,42.66,6.890101,-0.01585453627184869,0.018476656088406155,1.0134736818397203,0.3324875378228724,-1.1199610328167677,-1.5005769822265953
2024-09-23 01:31:07.129811,42.66,6.890101,-0.01585453627184869,0.019025483627202678,1.0134736818397203,0.3324875378228724,-1.1199610328167677,-1.5005769822265953
2024-09-23 01:31:07.161357,42.66,6.890101,-0.01585453627184869,0.019025483627202678,1.0130469101527657,0.3324875378228724,-1.1199610328167677,-1.5005769822265953
2024-09-23 01:31:07.172639,42.66,6.890152,-0.00969561673207142,0.019025483627202678,1.0130469101527657,0.3324875378228724,-1.15932321363464,-1.469981032177806
2024-09-23 01:31:07.214543,42.66,6.890152,-0.00969561673207142,0.020732824044125523,1.0120712653577144,0.2537058132497594,-1.0980740039605648,-1.4437395427253097
2024-09-23 01:31:07.226404,42.66,6.890203,-0.00969561673207142,0.020732824044125523,1.0120712653577144,0.2537058132497594,-1.0980740039605648,-1.4437395427253097
2024-09-23 01:31:07.259156,42.66,6.890203,-0.011951885699739756,0.02274515826889256,1.0120712653577144,0.2537058132497594,-1.0980740039605648,-1.4437395427253097
2024-09-23 01:31:07.270667,42.66,6.890203,-0.011951885699739756,0.02274515826889256,1.0123761300525411,0.3324875378228724,-1.1287272635858505,-1.504988752399385
2024-09-23 01:31:07.313179,42.66,6.890294,-0.01573262016586086,0.01768389456619667,1.0113394345469187,0.3149550229238346,-1.1287272635858505,-1.504988752399385
2024-09-23 01:31:07.325362,42.66,6.890294,-0.01573262016586086,0.01768389456619667,1.0113394345469187,0.3149550229238346,-1.0980740039605648,-1.504988752399385
2024-09-23 01:31:07.358459,42.66,6.890345,-0.013903160100075569,0.01768389456619667,1.0113394345469187,0.3149550229238346,-1.0980740039605648,-1.3999655917346479
2024-09-23 01:31:07.369992,42.66,6.890345,-0.013903160100075569,0.019452293288574063,1.012498037044669,0.40244569536997005,-1.0980740039605648,-1.3999655917346479
2024-09-23 01:31:07.412325,42.66,6.890396,-0.011586034850850625,0.020732824044125523,1.0143883731387076,0.40244569536997005,-1.0980740039605648,-1.4174980532728136
2024-09-23 01:31:07.454114,42.66,6.890396,-0.011586034850850625,0.020732824044125523,1.0143883731387076,0.3499627431454137,-1.1024857741333545,-1.4174980532728136
2024-09-23 01:31:07.465633,42.66,6.890447,-0.008476044789002211,0.02402578927690465,1.0143883731387076,0.3499627431454137,-1.1024857741333545,-1.2774671723864972
2024-09-23 01:31:07.507898,42.66,6.890498,-0.008476044789002211,0.02402578927690465,1.0120102146471432,0.3411964856958948,-1.0805987452771515,-1.4437395427253097
2024-09-23 01:31:07.519860,42.66,6.890498,-0.011707950956838454,0.02402578927690465,1.0120102146471432,0.3411964856958948,-1.0805987452771515,-1.4437395427253097
2024-09-23 01:31:07.551702,42.66,6.890498,-0.011707950956838454,0.021098777423940302,1.0131688171448936,0.3411964856958948,-1.0805987452771515,-1.4437395427253097
2024-09-23 01:31:07.563615,42.66,6.890586,-0.011707950956838454,0.021098777423940302,1.0131688171448936,0.3280757409696467,-1.1680894444037229,-1.5355847024481744
2024-09-23 01:31:07.607052,42.66,6.890586,-0.014025177977500705,0.023903771399479513,1.01231507934197,0.3018342781975865,-1.1111946953259408,-1.4306188513599336
2024-09-23 01:31:07.649861,42.66,6.890638,-0.011342100107949322,0.019574312684975875,1.01231507934197,0.3018342781975865,-1.1111946953259408,-1.4306188513599336
2024-09-23 01:31:07.660946,42.66,6.890638,-0.011342100107949322,0.019574312684975875,1.0160348952484908,0.3674952580444515,-1.2293386540777982,-1.4306188513599336
2024-09-23 01:31:07.704502,42.66,6.890688,-0.012378695361111141,0.019818144896951533,1.0139006479556893,0.3849704900474288,-1.2293386540777982,-1.5487055005352943
2024-09-23 01:31:07.748372,42.66,6.890739,-0.012378695361111141,0.019818144896951533,1.0139006479556893,0.3849704900474288,-1.1768557818945498,-1.43932777255252
2024-09-23 01:31:07.759411,42.66,6.890739,-0.01481783924724956,0.01975718684395762,1.0153031616522024,0.3849704900474288,-1.1768557818945498,-1.43932777255252
2024-09-23 01:31:07.802162,42.78,6.89079,-0.012927522899907663,0.01890346574977754,1.0153031616522024,0.3456082558686845,-1.1506142924420535,-1.5136977803137153
2024-09-23 01:31:07.844866,42.78,6.89079,-0.012927522899907663,0.01890346574977754,1.0116442992417454,0.38932495064372197,-1.1506142924420535,-1.5136977803137153
2024-09-23 01:31:07.858001,42.78,6.89084,-0.01433007153288426,0.01890346574977754,1.0116442992417454,0.38932495064372197,-1.1330817241821438,-1.496222521630302
2024-09-23 01:31:07.892500,42.78,6.89084,-0.01433007153288426,0.018476656088406155,1.014205512650516,0.38932495064372197,-1.1330817241821438,-1.496222521630302
2024-09-23 01:31:07.904019,42.78,6.890927,-0.01433007153288426,0.018476656088406155,1.014205512650516,0.31060053564710544,-1.0543573625463993,-1.3562488435987383
2024-09-23 01:31:07.947293,42.78,6.890927,-0.014878899071680782,0.020306014382754138,1.0121931723498423,0.3499627431454137,-1.0105833048339934,-1.43932777255252
2024-09-23 01:31:08.041668,42.78,6.890979,-0.01408613603049462,0.020306014382754138,1.0121931723498423,0.3499627431454137,-1.0105833048339934,-1.43932777255252
2024-09-23 01:31:08.094823,42.78,6.89103,-0.01408613603049462,0.020610907938137694,1.0096319589410718,0.40244569536997005,-1.1111946953259408,-1.461214801408723
2024-09-23 01:31:08.138135,42.78,6.89103,-0.015061773230662524,0.02122069352992813,1.015546975636458,0.40244569536997005,-1.1111946953259408,-1.461214801408723
2024-09-23 01:31:08.149783,42.78,6.89103,-0.015061773230662524,0.02122069352992813,1.015546975636458,0.3411964856958948,-1.15932321363464,-1.3649578715130686
2024-09-23 01:31:08.193279,42.78,6.89108,-0.012622630104012445,0.01963527073796979,1.0152421109416312,0.3062460483703762,-1.0849533125951887,-1.3649578715130686
2024-09-23 01:31:08.236338,42.78,6.891131,-0.01219582044264106,0.02085484192155066,1.0152421109416312,0.3062460483703762,-1.0849533125951887,-1.504988752399385
2024-09-23 01:31:08.247969,42.78,6.891131,-0.01219582044264106,0.02085484192155066,1.0135956860463553,0.29306802074806765,-1.0849533125951887,-1.504988752399385
2024-09-23 01:31:08.280079,42.78,6.891131,-0.01219582044264106,0.02085484192155066,1.0135956860463553,0.29306802074806765,-1.1111946953259408,-1.504988752399385
2024-09-23 01:31:08.291762,42.78,6.891182,-0.013720285941093825,0.019208359305161096,1.0163397599433175,0.29306802074806765,-1.1111946953259408,-1.3999655917346479
2024-09-23 01:31:08.334523,42.78,6.891319,-0.013720285941093825,0.019208359305161096,1.0163397599433175,0.3237212803733535,-1.1111946953259408,-1.4655692620050162
2024-09-23 01:31:08.346387,42.78,6.891319,-0.008780937584897428,0.019086441680196593,1.0163397599433175,0.3237212803733535,-1.1111946953259408,-1.4655692620050162
2024-09-23 01:31:08.379423,42.78,6.891319,-0.008780937584897428,0.019086441680196593,1.0111565740587272,0.3237212803733535,-1.1111946953259408,-1.4655692620050162
2024-09-23 01:31:08.391353,42.78,6.89137,-0.015244750680058252,0.019086441680196593,1.0111565740587272,0.3368419984191656,-1.1418479549512268,-1.448094003321603
2024-09-23 01:31:08.434060,42.78,6.89137,-0.015244750680058252,0.01823272210499319,1.015486022140394,0.3062460483703762,-1.0805987452771515,-1.491868061034009
2024-09-23 01:31:08.446165,42.78,6.891463,-0.015244750680058252,0.01823272210499319,1.015486022140394,0.3062460483703762,-1.0805987452771515,-1.491868061034009
2024-09-23 01:31:08.478005,42.78,6.891463,-0.013354434332716355,0.02225739055452726,1.015486022140394,0.3062460483703762,-1.0805987452771515,-1.491868061034009
2024-09-23 01:31:08.489928,42.78,6.891463,-0.013354434332716355,0.02225739055452726,1.0157299333391567,0.31060053564710544,-1.1287272635858505,-1.496222521630302
2024-09-23 01:31:08.533323,42.78,6.891515,-0.013293374508285133,0.022318348607521174,1.0121322188537785,0.3018342781975865,-1.1330817241821438,-1.496222521630302
2024-09-23 01:31:08.575407,42.78,6.891566,-0.013293374508285133,0.022318348607521174,1.0121322188537785,0.3018342781975865,-1.1330817241821438,-1.3999655917346479
2024-09-23 01:31:08.586482,42.78,6.891566,-0.011951885699739756,0.021281651582922046,1.01542506864433,0.3324875378228724,-1.1330817241821438,-1.3999655917346479
2024-09-23 01:31:08.629236,42.78,6.891617,-0.012622630104012445,0.021464627513341095,1.01542506864433,0.3324875378228724,-1.1637349838074296,-1.4087318225037306
2024-09-23 01:31:08.641316,42.78,6.891617,-0.012622630104012445,0.021464627513341095,1.014205512650516,0.3324875378228724,-1.1637349838074296,-1.4087318225037306
2024-09-23 01:31:08.672879,42.78,6.891617,-0.012622630104012445,0.021464627513341095,1.014205512650516,0.3411964856958948,-1.1243154934130608,-1.4087318225037306
2024-09-23 01:31:08.684025,42.78,6.891667,-0.012317737308117227,0.0187205915907958,1.014205512650516,0.3411964856958948,-1.1243154934130608,-1.5443510399390012
2024-09-23 01:31:08.726604,42.78,6.891718,-0.012317737308117227,0.0187205915907958,1.0146322843374704,0.24499683869630098,-1.0499454856518655,-1.413086283100024
2024-09-23 01:31:08.738815,42.78,6.891718,-0.012378695361111141,0.0187205915907958,1.0146322843374704,0.24499683869630098,-1.0499454856518655,-1.413086283100024
2024-09-23 01:31:08.770882,42.78,6.891718,-0.012378695361111141,0.020001120827370582,1.01426646614658,0.24499683869630098,-1.0499454856518655,-1.413086283100024
2024-09-23 01:31:08.782267,42.78,6.891805,-0.012378695361111141,0.020001120827370582,1.01426646614658,0.3411964856958948,-1.1199610328167677,-1.4787472629468887
2024-09-23 01:31:08.824786,42.49,6.891805,-0.015122834574070423,0.02018409827676631,1.012620041251304,0.3849704900474288,-1.0674780539117754,-1.4437395427253097
2024-09-23 01:31:08.867004,42.49,6.891856,-0.011768909009832369,0.02018409827676631,1.012620041251304,0.3849704900474288,-1.0674780539117754,-1.4437395427253097
2024-09-23 01:31:08.878645,42.49,6.891856,-0.011768909009832369,0.01914740125216718,1.014022554947817,0.3368419984191656,-1.1462025222692638,-1.4437395427253097
2024-09-23 01:31:08.920719,42.49,6.891907,-0.013232416455291218,0.018781549643789714,1.014144559154452,0.3368419984191656,-1.1462025222692638,-1.3255955839734523
2024-09-23 01:31:08.932464,42.49,6.891907,-0.013232416455291218,0.018781549643789714,1.014144559154452,0.3324875378228724,-1.1462025222692638,-1.3255955839734523
2024-09-23 01:31:08.965279,42.49,6.891907,-0.013232416455291218,0.018781549643789714,1.014144559154452,0.3324875378228724,-1.1418479549512268,-1.4524485706396402
2024-09-23 01:31:08.977132,42.49,6.891958,-0.01445198763887209,0.017439959063807027,1.012620041251304,0.3324875378228724,-1.1418479549512268,-1.4524485706396402
2024-09-23 01:31:09.019949,42.49,6.892008,-0.011951885699739756,0.019574312684975875,1.012620041251304,0.3674952580444515,-1.1549687530383468,-1.3911993609655648
2024-09-23 01:31:09.062144,42.49,6.892008,-0.011951885699739756,0.019574312684975875,1.0115223922496177,0.3193667930966243,-1.1549687530383468,-1.3911993609655648
2024-09-23 01:31:09.073435,42.49,6.892059,-0.014695923141261731,0.019574312684975875,1.0115223922496177,0.3193667930966243,-1.0849533125951887,-1.3606034109167755
2024-09-23 01:31:09.115619,42.49,6.892059,-0.014695923141261731,0.019452293288574063,1.0149982969573756,0.38061600277069957,-1.1768557818945498,-1.4524485706396402
2024-09-23 01:31:09.127812,42.49,6.892146,-0.014695923141261731,0.019452293288574063,1.0149982969573756,0.38061600277069957,-1.1768557818945498,-1.4524485706396402
2024-09-23 01:31:09.160309,42.49,6.892146,-0.01433007153288426,0.021098777423940302,1.0149982969573756,0.38061600277069957,-1.1768557818945498,-1.4524485706396402
2024-09-23 01:31:09.171626,42.49,6.892146,-0.01433007153288426,0.021098777423940302,1.0134127283436565,0.3149550229238346,-1.1855647030871361,-1.4568603408124299
2024-09-23 01:31:09.214068,42.49,6.892198,-0.01378124399408774,0.01798878660260355,1.0119492611510794,0.3324875378228724,-1.1855647030871361,-1.4568603408124299
2024-09-23 01:31:09.225982,42.49,6.892198,-0.01378124399408774,0.01798878660260355,1.0119492611510794,0.3324875378228724,-1.0980740039605648,-1.4568603408124299
2024-09-23 01:31:09.258676,42.49,6.892248,-0.014147094083488534,0.01798878660260355,1.0119492611510794,0.3324875378228724,-1.0980740039605648,-1.3606034109167755
2024-09-23 01:31:09.269891,42.49,6.892248,-0.014147094083488534,0.018781549643789714,1.0101198785531047,0.3149550229238346,-1.0980740039605648,-1.3606034109167755
2024-09-23 01:31:09.312598,42.49,6.892299,-0.01341539238571027,0.021037716080532405,1.0116442992417454,0.3149550229238346,-1.1111946953259408,-1.461214801408723
2024-09-23 01:31:09.355202,42.49,6.892299,-0.01341539238571027,0.021037716080532405,1.0116442992417454,0.40244569536997005,-1.1418479549512268,-1.461214801408723
2024-09-23 01:31:09.366874,42.49,6.89235,-0.012744546969488612,0.019940162774376668,1.0116442992417454,0.40244569536997005,-1.1418479549512268,-1.3999655917346479
2024-09-23 01:31:09.409180,42.49,6.8924,-0.012744546969488612,0.019940162774376668,1.015546975636458,0.3237212803733535,-1.0718325145080685,-1.3780785628784449
2024-09-23 01:31:09.420987,42.49,6.8924,-0.01365932788809991,0.019940162774376668,1.015546975636458,0.3237212803733535,-1.0718325145080685,-1.3780785628784449
2024-09-23 01:31:09.454058,42.49,6.8924,-0.01365932788809991,0.018659531766364576,1.0106077981651376,0.4287444677185267,-1.0718325145080685,-1.3780785628784449
2024-09-23 01:31:09.464950,42.49,6.892488,-0.01365932788809991,0.018659531766364576,1.0106077981651376,0.4287444677185267,-1.1330817241821438,-1.426207081187144
2024-09-23 01:31:09.508744,42.49,6.892488,-0.012439653414105056,0.020549948366167105,1.0139006479556893,0.3630834878716618,-1.0499454856518655,-1.4306188513599336
2024-09-23 01:31:09.551876,42.49,6.892539,-0.01445198763887209,0.020001120827370582,1.0139006479556893,0.3630834878716618,-1.0499454856518655,-1.4306188513599336
2024-09-23 01:31:09.563251,42.49,6.892539,-0.01445198763887209,0.020001120827370582,1.0165227176460165,0.37184974532118065,-1.0893650827679784,-1.4306188513599336
2024-09-23 01:31:09.605988,42.49,6.89259,-0.01378124399408774,0.020306014382754138,1.0087784155671629,0.3280757409696467,-1.0893650827679784,-1.4787472629468887
2024-09-23 01:31:09.649192,42.49,6.89264,-0.01378124399408774,0.020306014382754138,1.0087784155671629,0.3280757409696467,-1.0762442846808582,-1.3518370734259486
2024-09-23 01:31:09.660741,42.49,6.89264,-0.011159123418041933,0.02140366946034718,1.014205512650516,0.3280757409696467,-1.0762442846808582,-1.3518370734259486
2024-09-23 01:31:09.703424,42.49,6.892691,-0.011159123418041933,0.01811080599900536,1.014205512650516,0.37184974532118065,-0.9755755846124142,-1.413086283100024
2024-09-23 01:31:09.745876,42.49,6.892691,-0.011159123418041933,0.01811080599900536,1.0183521002439913,0.35872900059493257,-0.9755755846124142,-1.413086283100024
2024-09-23 01:31:09.757708,42.49,6.892742,-0.012988480952901577,0.01811080599900536,1.0183521002439913,0.35872900059493257,-1.0674780539117754,-1.3430708426568656
2024-09-23 01:31:09.800945,42.49,6.892829,-0.012988480952901577,0.020306014382754138,1.0157299333391567,0.37620423259790986,-1.203097164625302,-1.43932777255252
2024-09-23 01:31:09.843232,42.58,6.892829,-0.01365932788809991,0.02207441310513153,1.0157299333391567,0.37620423259790986,-1.203097164625302,-1.43932777255252
2024-09-23 01:31:09.854473,42.58,6.892829,-0.01365932788809991,0.02207441310513153,1.012742045457939,0.39373674749694765,-1.1506142924420535,-1.426207081187144
2024-09-23 01:31:09.897460,42.58,6.89288,-0.012622630104012445,0.018293680157987106,1.018474007236119,0.3674952580444515,-1.1243154934130608,-1.426207081187144
2024-09-23 01:31:09.939589,42.58,6.892931,-0.012622630104012445,0.018293680157987106,1.018474007236119,0.3674952580444515,-1.1243154934130608,-1.469981032177806
2024-09-23 01:31:09.951510,42.58,6.892931,-0.01622038788022616,0.02152558556633501,1.008107538252431,0.3280757409696467,-1.1243154934130608,-1.469981032177806
2024-09-23 01:31:09.993436,42.58,6.892931,-0.01622038788022616,0.02152558556633501,1.008107538252431,0.3280757409696467,-1.1374934943549335,-1.469981032177806
2024-09-23 01:31:10.036436,42.58,6.892931,-0.01622038788022616,0.02152558556633501,1.008107538252431,0.3280757409696467,-1.1374934943549335,-1.483101830264926
2024-09-23 01:31:10.047852,42.58,6.892982,-0.01256167205101853,0.021464627513341095,1.0107297051572652,0.28871353347133843,-1.1374934943549335,-1.483101830264926
2024-09-23 01:31:10.090054,42.58,6.892982,-0.01256167205101853,0.021464627513341095,1.0107297051572652,0.28871353347133843,-1.0937195433642715,-1.483101830264926
2024-09-23 01:31:10.132718,42.58,6.892982,-0.01256167205101853,0.021464627513341095,1.0107297051572652,0.28871353347133843,-1.0937195433642715,-1.3780785628784449
2024-09-23 01:31:10.145986,42.58,6.893032,-0.01481783924724956,0.02018409827676631,1.0125589905407328,0.28871353347133843,-1.0937195433642715,-1.3780785628784449
2024-09-23 01:31:10.188241,42.58,6.893083,-0.016525279916633037,0.02018409827676631,1.0125589905407328,0.3456082558686845,-1.1462025222692638,-1.3606034109167755
2024-09-23 01:31:10.200146,42.58,6.893083,-0.016525279916633037,0.020062078880364497,1.0125589905407328,0.3456082558686845,-1.1462025222692638,-1.3606034109167755
2024-09-23 01:31:10.231981,42.58,6.893083,-0.016525279916633037,0.020062078880364497,1.0099979715609768,0.3456082558686845,-1.1462025222692638,-1.3606034109167755
2024-09-23 01:31:10.243805,42.58,6.89317,-0.011524974266931064,0.020062078880364497,1.0099979715609768,0.3499627431454137,-1.2118635021161288,-1.4306188513599336
2024-09-23 01:31:10.287662,42.58,6.89317,-0.011524974266931064,0.020427930488741967,1.0118273541589518,0.3543172304221429,-1.1812102424908428,-1.434973311956227
2024-09-23 01:31:10.330272,42.58,6.89322,-0.012744546969488612,0.020427930488741967,1.0118273541589518,0.3543172304221429,-1.1812102424908428,-1.434973311956227
2024-09-23 01:31:10.341566,42.58,6.89322,-0.012744546969488612,0.020306014382754138,1.0134127283436565,0.3368419984191656,-1.1024857741333545,-1.434973311956227
2024-09-23 01:31:10.384218,42.58,6.893317,-0.013049540777332799,0.019452293288574063,1.0104247432479314,0.3368419984191656,-1.1024857741333545,-1.3255955839734523
2024-09-23 01:31:10.396458,42.58,6.893317,-0.013049540777332799,0.019452293288574063,1.0104247432479314,0.24935132597303017,-1.1024857741333545,-1.3255955839734523
2024-09-23 01:31:10.429345,42.58,6.893415,-0.013049540777332799,0.019452293288574063,1.0104247432479314,0.24935132597303017,-1.0893650827679784,-1.3824903330512346
2024-09-23 01:31:10.440495,42.58,6.893415,-0.009634658679077505,0.02189143717471248,1.0147542885441054,0.24935132597303017,-1.0893650827679784,-1.3824903330512346
2024-09-23 01:31:10.483572,42.58,6.893466,-0.014574005516297226,0.017561976941232165,1.0147542885441054,0.29747979092085736,-1.1812102424908428,-1.3824903330512346
2024-09-23 01:31:10.526016,42.58,6.893466,-0.014574005516297226,0.017561976941232165,1.0117664006628877,0.31060053564710544,-1.1812102424908428,-1.3824903330512346
2024-09-23 01:31:10.538307,42.58,6.893516,-0.013232416455291218,0.017561976941232165,1.0117664006628877,0.31060053564710544,-1.1768557818945498,-1.3299501512914895
2024-09-23 01:31:10.580993,42.58,6.893609,-0.013232416455291218,0.021464627513341095,1.01542506864433,0.29747979092085736,-1.1549687530383468,-1.4218526205908506
2024-09-23 01:31:10.623164,42.58,6.893609,-0.012500713238536278,0.019025483627202678,1.01542506864433,0.29747979092085736,-1.1549687530383468,-1.4218526205908506
2024-09-23 01:31:10.634460,42.58,6.893609,-0.012500713238536278,0.019025483627202678,1.0143883731387076,0.26247207069927825,-1.1287272635858505,-1.4787472629468887
2024-09-23 01:31:10.677793,42.58,6.89366,-0.014025177977500705,0.017561976941232165,1.0126809947473678,0.3456082558686845,-1.1374934943549335,-1.4787472629468887
2024-09-23 01:31:10.719713,42.58,6.893711,-0.014025177977500705,0.017561976941232165,1.0126809947473678,0.3456082558686845,-1.1374934943549335,-1.43932777255252
2024-09-23 01:31:10.731604,42.58,6.893711,-0.01365932788809991,0.01975718684395762,1.0134127283436565,0.3849704900474288,-1.1374934943549335,-1.43932777255252
2024-09-23 01:31:10.774597,42.58,6.893762,-0.013720285941093825,0.020306014382754138,1.0146933350480416,0.3849704900474288,-1.1506142924420535,-1.469981032177806
2024-09-23 01:31:10.817242,42.58,6.893762,-0.013720285941093825,0.020306014382754138,1.0146933350480416,0.28871353347133843,-1.0762442846808582,-1.469981032177806
2024-09-23 01:31:10.828890,42.58,6.893812,-0.01182986782231462,0.01926931735815501,1.0146933350480416,0.28871353347133843,-1.0762442846808582,-1.461214801408723
2024-09-23 01:31:10.870638,42.38,6.893863,-0.01182986782231462,0.01926931735815501,1.0134736818397203,0.3280757409696467,-1.1024857741333545,-1.4874562908612192
2024-09-23 01:31:10.882348,42.38,6.893863,-0.01268358815700636,0.01926931735815501,1.0134736818397203,0.3280757409696467,-1.1024857741333545,-1.4874562908612192
2024-09-23 01:31:10.915115,42.38,6.893863,-0.01268358815700636,0.021952496999143704,1.0164007134393813,0.3280757409696467,-1.1024857741333545,-1.4874562908612192
2024-09-23 01:31:10.926609,42.38,6.89395,-0.01268358815700636,0.021952496999143704,1.0164007134393813,0.39373674749694765,-1.1724439050000162,-1.491868061034009
2024-09-23 01:31:10.969426,42.38,6.89395,-0.010122528164880112,0.020001120827370582,1.0150592504534395,0.3456082558686845,-1.0718325145080685,-1.474335492774099
2024-09-23 01:31:11.012147,42.38,6.894001,-0.01164699290384454,0.020001120827370582,1.0150592504534395,0.3456082558686845,-1.0718325145080685,-1.474335492774099
2024-09-23 01:31:11.023757,42.38,6.894001,-0.01164699290384454,0.020793883868556746,1.0111565740587272,0.3280757409696467,-1.1637349838074296,-1.474335492774099
2024-09-23 01:31:11.066832,42.38,6.894052,-0.01365932788809991,0.020245056329760223,1.0115833457456815,0.3543172304221429,-1.1637349838074296,-1.483101830264926
2024-09-23 01:31:11.109864,42.38,6.894052,-0.01365932788809991,0.020245056329760223,1.0115833457456815,0.3543172304221429,-0.9799873547852039,-1.483101830264926
2024-09-23 01:31:11.162357,42.38,6.894103,-0.01268358815700636,0.01975718684395762,1.0115833457456815,0.3543172304221429,-0.9799873547852039,-1.461214801408723
2024-09-23 01:31:11.174186,42.38,6.894103,-0.01268358815700636,0.01975718684395762,1.0150592504534395,0.28871353347133843,-0.9799873547852039,-1.461214801408723
2024-09-23 01:31:11.209225,42.38,6.894154,-0.01268358815700636,0.01975718684395762,1.0150592504534395,0.28871353347133843,-1.0674780539117754,-1.4306188513599336
2024-09-23 01:31:11.220937,42.38,6.894154,-0.015244750680058252,0.01798878660260355,1.0177422736398305,0.28871353347133843,-1.0674780539117754,-1.4306188513599336
2024-09-23 01:31:11.263475,42.38,6.894204,-0.011220081471035847,0.02122069352992813,1.0177422736398305,0.3411964856958948,-1.0455910250555724,-1.448094003321603
2024-09-23 01:31:11.306413,42.38,6.894204,-0.011220081471035847,0.02122069352992813,1.0119492611510794,0.3499627431454137,-1.216217962712422,-1.448094003321603
2024-09-23 01:31:11.317383,42.38,6.894291,-0.011707950956838454,0.02122069352992813,1.0119492611510794,0.3499627431454137,-1.216217962712422,-1.4437395427253097
2024-09-23 01:31:11.360039,42.38,6.894389,-0.011707950956838454,0.019940162774376668,1.0168275823408433,0.3499627431454137,-1.0674780539117754,-1.4087318225037306
2024-09-23 01:31:11.404357,42.38,6.894389,-0.014574005516297226,0.019879204721382753,1.0162788064472537,0.3499627431454137,-1.0674780539117754,-1.4087318225037306
2024-09-23 01:31:11.415818,42.38,6.894389,-0.014574005516297226,0.019879204721382753,1.0162788064472537,0.2843590461946093,-1.203097164625302,-1.3999655917346479
2024-09-23 01:31:11.458280,42.38,6.89444,-0.012439653414105056,0.02012303845233509,1.0143274196426437,0.27123832814879717,-1.1199610328167677,-1.3999655917346479
2024-09-23 01:31:11.500689,42.38,6.894491,-0.012439653414105056,0.02012303845233509,1.0143274196426437,0.27123832814879717,-1.1199610328167677,-1.4087318225037306
2024-09-23 01:31:11.512144,42.38,6.894491,-0.014878899071680782,0.01975718684395762,1.015608026347029,0.3456082558686845,-1.1199610328167677,-1.4087318225037306
2024-09-23 01:31:11.555981,42.38,6.894542,-0.011524974266931064,0.021708563015730736,1.009510051948944,0.3456082558686845,-1.1724439050000162,-1.474335492774099
2024-09-23 01:31:11.600573,42.38,6.894542,-0.011524974266931064,0.021708563015730736,1.009510051948944,0.3018342781975865,-1.0324703336901964,-1.3868447936475277
2024-09-23 01:31:11.612260,42.38,6.894592,-0.012012843752733671,0.02134260963591596,1.009510051948944,0.3018342781975865,-1.0324703336901964,-1.3868447936475277
2024-09-23 01:31:11.645560,42.38,6.894592,-0.012012843752733671,0.02134260963591596,1.0073758046561425,0.3018342781975865,-1.0324703336901964,-1.3868447936475277
2024-09-23 01:31:11.658451,42.38,6.894643,-0.012744546969488612,0.02134260963591596,1.0073758046561425,0.2362305812467821,-1.0543573625463993,-1.3956111311383546
2024-09-23 01:31:11.701072,42.38,6.89473,-0.012744546969488612,0.018171764051999276,1.0131078636488298,0.3324875378228724,-1.014995075006783,-1.3430708426568656
2024-09-23 01:31:11.743597,42.38,6.89473,-0.014269113479890346,0.02140366946034718,1.0131078636488298,0.3324875378228724,-1.014995075006783,-1.3430708426568656
2024-09-23 01:31:11.754795,42.38,6.89473,-0.014269113479890346,0.02140366946034718,1.0113394345469187,0.3018342781975865,-1.1680894444037229,-1.3649578715130686
2024-09-23 01:31:11.797237,42.38,6.894781,-0.012317737308117227,0.020366972435748053,1.0136566395424191,0.3149550229238346,-1.1680894444037229,-1.3649578715130686
2024-09-23 01:31:11.808933,42.38,6.894781,-0.012317737308117227,0.020366972435748053,1.0136566395424191,0.3149550229238346,-1.1024857741333545,-1.3649578715130686
2024-09-23 01:31:11.840888,42.38,6.894832,-0.012317737308117227,0.020366972435748053,1.0136566395424191,0.3149550229238346,-1.1024857741333545,-1.504988752399385
2024-09-23 01:31:11.853395,42.38,6.894832,-0.014512945691866003,0.01768389456619667,1.014144559154452,0.3368419984191656,-1.1024857741333545,-1.504988752399385
2024-09-23 01:31:11.895520,42.18,6.894883,-0.01164699290384454,0.019940162774376668,1.014144559154452,0.3368419984191656,-1.1111946953259408,-1.4437395427253097
2024-09-23 01:31:11.907731,42.18,6.894883,-0.01164699290384454,0.019940162774376668,1.011095523348156,0.3368419984191656,-1.1111946953259408,-1.4437395427253097
2024-09-23 01:31:11.941261,42.18,6.894883,-0.01164699290384454,0.019940162774376668,1.011095523348156,0.31060053564710544,-1.1506142924420535,-1.4437395427253097
2024-09-23 01:31:11.952553,42.18,6.894934,-0.00792721725020569,0.02067186599113161,1.011095523348156,0.31060053564710544,-1.1506142924420535,-1.4437395427253097
2024-09-23 01:31:11.995484,42.18,6.894984,-0.015549642716465131,0.02067186599113161,1.0135956860463553,0.31060053564710544,-1.1287272635858505,-1.3649578715130686
2024-09-23 01:31:12.037084,42.18,6.894984,-0.015549642716465131,0.01890346574977754,1.0131688171448936,0.29306802074806765,-1.1287272635858505,-1.3649578715130686
2024-09-23 01:31:12.049141,42.18,6.894984,-0.015549642716465131,0.01890346574977754,1.0131688171448936,0.29306802074806765,-1.207451731943339,-1.3649578715130686
2024-09-23 01:31:12.091414,42.18,6.895071,-0.014878899071680782,0.02365983741606655,1.00969310686615,0.3018342781975865,-1.207451731943339,-1.3518370734259486
2024-09-23 01:31:12.185046,42.18,6.895123,-0.014878899071680782,0.02365983741606655,1.00969310686615,0.3018342781975865,-1.1855647030871361,-1.469981032177806
2024-09-23 01:31:12.196693,42.18,6.895123,-0.00987859342197881,0.021708563015730736,1.0104856967439952,0.3018342781975865,-1.1855647030871361,-1.469981032177806
2024-09-23 01:31:12.229372,42.18,6.895123,-0.00987859342197881,0.021708563015730736,1.0104856967439952,0.39373674749694765,-1.1855647030871361,-1.469981032177806
2024-09-23 01:31:12.240682,42.18,6.895174,-0.01396421992450679,0.021098777423940302,1.0104856967439952,0.39373674749694765,-1.1943309338562191,-1.3824903330512346
2024-09-23 01:31:12.284612,42.18,6.895174,-0.01396421992450679,0.021098777423940302,1.01426646614658,0.3456082558686845,-1.1330817241821438,-1.3562488435987383
2024-09-23 01:31:12.297119,42.18,6.895224,-0.013598266544692013,0.021098777423940302,1.01426646614658,0.3456082558686845,-1.1330817241821438,-1.3562488435987383
2024-09-23 01:31:12.329990,42.18,6.895224,-0.013598266544692013,0.020001120827370582,1.014144559154452,0.40685746554275976,-1.1330817241821438,-1.3562488435987383
2024-09-23 01:31:12.341066,42.18,6.895275,-0.013598266544692013,0.020001120827370582,1.014144559154452,0.40685746554275976,-1.1287272635858505,-1.3911993609655648
2024-09-23 01:31:12.384061,42.18,6.895275,-0.011586034850850625,0.02012303845233509,1.0103637897518674,0.31060053564710544,-1.0412365644592791,-1.3649578715130686
2024-09-23 01:31:12.426396,42.18,6.895413,-0.011586034850850625,0.02012303845233509,1.0103637897518674,0.31060053564710544,-1.0412365644592791,-1.3649578715130686
2024-09-23 01:31:12.438227,42.18,6.895413,-0.012805606793919833,0.021464627513341095,1.0140835084438808,0.3062460483703762,-1.0630662837389857,-1.3649578715130686
2024-09-23 01:31:12.480460,42.18,6.895464,-0.013171458402297304,0.02176952106872465,1.0149372462468045,0.3062460483703762,-1.0630662837389857,-1.43932777255252
2024-09-23 01:31:12.492250,42.18,6.895464,-0.013171458402297304,0.02176952106872465,1.0149372462468045,0.37620423259790986,-1.0630662837389857,-1.43932777255252
2024-09-23 01:31:12.523841,42.18,6.895464,-0.013171458402297304,0.02176952106872465,1.0149372462468045,0.37620423259790986,-1.0674780539117754,-1.461214801408723
2024-09-23 01:31:12.535137,42.18,6.895515,-0.013232416455291218,0.020427930488741967,1.0114003880429827,0.37620423259790986,-1.0674780539117754,-1.461214801408723
2024-09-23 01:31:12.579708,42.18,6.895566,-0.013903160100075569,0.01768389456619667,1.0114003880429827,0.2843590461946093,-1.1549687530383468,-1.5224640110827983
2024-09-23 01:31:12.622479,42.18,6.895566,-0.013903160100075569,0.01768389456619667,1.0157908868352208,0.29747979092085736,-1.0762442846808582,-1.5224640110827983
2024-09-23 01:31:12.633806,42.18,6.895616,-0.009939551474972724,0.01768389456619667,1.0157908868352208,0.29747979092085736,-1.0762442846808582,-1.426207081187144
2024-09-23 01:31:12.676074,42.18,6.895705,-0.009939551474972724,0.020793883868556746,1.0153031616522024,0.3456082558686845,-1.1637349838074296,-1.404320052330941
2024-09-23 01:31:12.718696,42.18,6.895705,-0.014025177977500705,0.018171764051999276,1.0153031616522024,0.3456082558686845,-1.1637349838074296,-1.404320052330941
2024-09-23 01:31:12.730060,42.18,6.895705,-0.014025177977500705,0.018171764051999276,1.012498037044669,0.3149550229238346,-1.1506142924420535,-1.3780785628784449
2024-09-23 01:31:12.773622,42.18,6.895756,-0.012378695361111141,0.01914740125216718,1.0115833457456815,0.3368419984191656,-1.1506142924420535,-1.3780785628784449
2024-09-23 01:31:12.785287,42.18,6.895756,-0.012378695361111141,0.01914740125216718,1.0115833457456815,0.3368419984191656,-1.1462025222692638,-1.3780785628784449
2024-09-23 01:31:12.817756,42.18,6.895807,-0.011586034850850625,0.01914740125216718,1.0115833457456815,0.3368419984191656,-1.1462025222692638,-1.3649578715130686
2024-09-23 01:31:12.829596,42.18,6.895807,-0.011586034850850625,0.02018409827676631,1.0167666288447792,0.2843590461946093,-1.1462025222692638,-1.3649578715130686
2024-09-23 01:31:12.872940,42.18,6.895858,-0.011951885699739756,0.02140366946034718,1.0107297051572652,0.2843590461946093,-1.1199610328167677,-1.4568603408124299
2024-09-23 01:31:12.914805,42.21,6.895858,-0.011951885699739756,0.02140366946034718,1.0107297051572652,0.2668265312955715,-1.0849533125951887,-1.4437395427253097
2024-09-23 01:31:12.926205,42.21,6.895909,-0.012744546969488612,0.020915799974544576,1.0107297051572652,0.2668265312955715,-1.0849533125951887,-1.4437395427253097
2024-09-23 01:31:12.969403,42.21,6.895959,-0.012012843752733671,0.020915799974544576,1.014205512650516,0.3543172304221429,-1.1506142924420535,-1.448094003321603
2024-09-23 01:31:13.011908,42.21,6.895959,-0.012012843752733671,0.018781549643789714,1.0167666288447792,0.3543172304221429,-1.1506142924420535,-1.448094003321603
2024-09-23 01:31:13.022923,42.21,6.896046,-0.012012843752733671,0.018781549643789714,1.0167666288447792,0.3149550229238346,-1.216217962712422,-1.434973311956227
2024-09-23 01:31:13.065357,42.21,6.896046,-0.013537308491698099,0.02189143717471248,1.0131078636488298,0.3456082558686845,-1.207451731943339,-1.434973311956227
2024-09-23 01:31:13.077082,42.21,6.896046,-0.013537308491698099,0.02189143717471248,1.0131078636488298,0.3456082558686845,-1.207451731943339,-1.3693696416858583
2024-09-23 01:31:13.108684,42.21,6.896098,-0.01396421992450679,0.02189143717471248,1.0131078636488298,0.3456082558686845,-1.207451731943339,-1.3693696416858583
2024-09-23 01:31:13.120460,42.21,6.896098,-0.01396421992450679,0.02122069352992813,1.0148762927507406,0.40685746554275976,-1.15932321363464,-1.3693696416858583
2024-09-23 01:31:13.204133,42.21,6.896098,-0.01396421992450679,0.02122069352992813,1.0148762927507406,0.40685746554275976,-1.15932321363464,-1.448094003321603
2024-09-23 01:31:13.215727,42.21,6.896148,-0.012500713238536278,0.019513251341567978,1.015486022140394,0.3062460483703762,-1.15932321363464,-1.448094003321603
2024-09-23 01:31:13.258600,42.21,6.896199,-0.012622630104012445,0.019513251341567978,1.015486022140394,0.3062460483703762,-1.1156065722204744,-1.483101830264926
2024-09-23 01:31:13.269653,42.21,6.896199,-0.012622630104012445,0.02085484192155066,1.0165836711420804,0.3062460483703762,-1.1156065722204744,-1.483101830264926
2024-09-23 01:31:13.301617,42.21,6.896199,-0.012622630104012445,0.02085484192155066,1.0165836711420804,0.3062460483703762,-1.1156065722204744,-1.483101830264926
2024-09-23 01:31:13.313069,42.21,6.89625,-0.00987859342197881,0.01975718684395762,1.0165836711420804,0.3062460483703762,-1.0587118231426924,-1.3518370734259486
2024-09-23 01:31:13.355680,42.21,6.89625,-0.00987859342197881,0.01975718684395762,1.010668654446694,0.3543172304221429,-1.1287272635858505,-1.3255955839734523
2024-09-23 01:31:13.367644,42.21,6.8963,-0.014756881194255646,0.01975718684395762,1.010668654446694,0.3543172304221429,-1.1287272635858505,-1.3255955839734523
2024-09-23 01:31:13.401108,42.21,6.8963,-0.014756881194255646,0.01939133523558015,1.0148152420401695,0.3543172304221429,-1.1287272635858505,-1.3255955839734523
2024-09-23 01:31:13.412308,42.21,6.896436,-0.014756881194255646,0.01939133523558015,1.0148152420401695,0.3456082558686845,-1.0499454856518655,-1.426207081187144
2024-09-23 01:31:13.455690,42.21,6.896436,-0.014574005516297226,0.020245056329760223,1.0145713308414066,0.35872900059493257,-1.1111946953259408,-1.426207081187144
2024-09-23 01:31:13.467865,42.21,6.896436,-0.014574005516297226,0.020245056329760223,1.0145713308414066,0.35872900059493257,-1.1111946953259408,-1.5224640110827983
2024-09-23 01:31:13.552637,42.21,6.896488,-0.015427726610477303,0.02152558556633501,1.0121322188537785,0.35872900059493257,-1.1111946953259408,-1.5224640110827983
2024-09-23 01:31:13.564220,42.21,6.896488,-0.015427726610477303,0.02152558556633501,1.0121322188537785,0.3499627431454137,-1.1111946953259408,-1.5224640110827983
2024-09-23 01:31:13.596820,42.21,6.896538,-0.015427726610477303,0.02152558556633501,1.0121322188537785,0.3499627431454137,-1.1111946953259408,-1.4174980532728136
2024-09-23 01:31:13.608705,42.21,6.896538,-0.012317737308117227,0.017439959063807027,1.012620041251304,0.3368419984191656,-1.1111946953259408,-1.4174980532728136
