Ayaan's Suite
Timestamp,Sample Rate (Hz),Time,Ax,Ay,Az,Gx,Gy,Gz
2024-09-23 08:52:12.067643,0,7.777829,-0.0029349636958644295,-0.023877669304275123,0.09715228999426605,32.08287849390507,-100.26678939585686,80.21211738781929
2024-09-23 08:52:12.102672,0,7.777829,-0.0029349636958644295,-0.023877669304275123,0.09715228999426605,32.08287849390507,-104.27510100388527,80.21211738781929
2024-09-23 08:52:12.114178,0,7.77788,-0.0028852147413806935,-0.023728432883788564,0.09670458680871308,32.08287849390507,-104.27510100388527,80.21211738781929
2024-09-23 08:52:12.156974,0,7.777967,-0.003382661564999035,-0.023728432883788564,0.09670458680871308,36.09446859390736,-104.27510100388527,76.200527287817
2024-09-23 08:52:12.168710,0,7.777967,-0.003382661564999035,-0.023330473146428877,0.09670458680871308,36.09446859390736,-104.27510100388527,76.200527287817
2024-09-23 08:52:12.200982,0,7.777967,-0.003382661564999035,-0.023330473146428877,0.0973015264147526,40.106058693909645,-104.27510100388527,76.200527287817
2024-09-23 08:52:12.212417,0,7.778018,-0.0033329230534799477,-0.023330473146428877,0.0973015264147526,40.106058693909645,-96.25519929585457,84.22370748782159
2024-09-23 08:52:12.255412,0,7.778018,-0.0033329230534799477,-0.023479709566915436,0.09705279702197278,40.106058693909645,-100.26678939585686,76.200527287817
2024-09-23 08:52:12.267104,0,7.778113,-0.0033329230534799477,-0.023479709566915436,0.09705279702197278,40.106058693909645,-100.26678939585686,76.200527287817
2024-09-23 08:52:12.299116,0,7.778113,-0.0035318979854855937,-0.02397715620066169,0.09705279702197278,40.106058693909645,-100.26678939585686,76.200527287817
2024-09-23 08:52:12.310089,0,7.778113,-0.0035318979854855937,-0.02397715620066169,0.09665483728461309,36.09446859390736,-92.24360919585227,80.21211738781929
2024-09-23 08:52:12.351822,0,7.778165,-0.0027359787006383035,-0.024225890150371555,0.09725178296655933,40.106058693909645,-92.24360919585227,80.21211738781929
2024-09-23 08:52:12.364073,0,7.778165,-0.0027359787006383035,-0.024225890150371555,0.09725178296655933,40.106058693909645,-92.24360919585227,80.21211738781929
2024-09-23 08:52:12.396470,0,7.778215,-0.0027359787006383035,-0.024225890150371555,0.09725178296655933,40.106058693909645,-92.24360919585227,80.21211738781929
2024-09-23 08:52:12.407826,0,7.778215,-0.0030344509719951677,-0.024026904205785005,0.09720203344245934,40.106058693909645,-92.24360919585227,80.21211738781929
2024-09-23 08:52:12.451041,0,7.778266,-0.0033329230534799477,-0.023778180888911878,0.0966050877605131,40.106058693909645,-92.24360919585227,76.200527287817
2024-09-23 08:52:12.493233,0,7.778266,-0.0033329230534799477,-0.023778180888911878,0.0966050877605131,36.09446859390736,-96.25519929585457,76.200527287817
2024-09-23 08:52:12.504495,0,7.778317,-0.0033329230534799477,-0.023778180888911878,0.0966050877605131,36.09446859390736,-96.25519929585457,80.21211738781929
2024-09-23 08:52:12.547578,0,7.778317,-0.003482159473966507,-0.023579196463302005,0.09695331012558621,40.106058693909645,-96.25519929585457,80.21211738781929
2024-09-23 08:52:12.559117,0,7.778317,-0.003482159473966507,-0.023579196463302005,0.09695331012558621,40.106058693909645,-96.25519929585457,76.200527287817
2024-09-23 08:52:12.591472,0,7.778367,-0.0029847020175114316,-0.023579196463302005,0.09695331012558621,40.106058693909645,-96.25519929585457,76.200527287817
2024-09-23 08:52:12.602952,0,7.778367,-0.0029847020175114316,-0.02313149783467906,0.09690356060148622,36.09446859390736,-100.26678939585686,76.200527287817
2024-09-23 08:52:12.645089,0,7.778455,-0.0026862297461545674,-0.024076653729884996,0.09710254654607277,36.09446859390736,-100.26678939585686,76.200527287817
2024-09-23 08:52:12.658044,0,7.778455,-0.0026862297461545674,-0.024076653729884996,0.09710254654607277,32.08287849390507,-100.26678939585686,76.200527287817
2024-09-23 08:52:12.690750,0,7.778506,-0.0026862297461545674,-0.024076653729884996,0.09710254654607277,32.08287849390507,-92.24360919585227,80.21211738781929
2024-09-23 08:52:12.701810,0,7.778506,-0.0029847020175114316,-0.023728432883788564,0.09725178296655933,32.08287849390507,-92.24360919585227,80.21211738781929
2024-09-23 08:52:12.744746,0,7.778557,-0.003233425524256645,-0.023479709566915436,0.09725178296655933,36.09446859390736,-100.26678939585686,80.21211738781929
2024-09-23 08:52:12.786946,0,7.778557,-0.003233425524256645,-0.023479709566915436,0.09740101331113918,40.106058693909645,-100.26678939585686,80.21211738781929
2024-09-23 08:52:12.798609,0,7.778607,-0.003631395514708897,-0.023479709566915436,0.09740101331113918,40.106058693909645,-92.24360919585227,84.22370748782159
2024-09-23 08:52:12.841801,0,7.778698,-0.003631395514708897,-0.023479709566915436,0.09705279702197278,36.09446859390736,-96.25519929585457,80.21211738781929
2024-09-23 08:52:12.884082,0,7.778698,-0.0031339382481259063,-0.023429960042815445,0.09705279702197278,36.09446859390736,-96.25519929585457,80.21211738781929
2024-09-23 08:52:12.895131,0,7.778698,-0.0031339382481259063,-0.023429960042815445,0.0970030596496862,40.106058693909645,-96.25519929585457,80.21211738781929
2024-09-23 08:52:12.938346,0,7.77875,-0.0031339382481259063,-0.02397715620066169,0.09705279702197278,40.106058693909645,-96.25519929585457,80.21211738781929
2024-09-23 08:52:12.949996,0,7.77875,-0.0031339382481259063,-0.02397715620066169,0.09705279702197278,40.106058693909645,-96.25519929585457,80.21211738781929
2024-09-23 08:52:12.981467,0,7.7788,-0.0031339382481259063,-0.02397715620066169,0.09705279702197278,40.106058693909645,-96.25519929585457,80.21211738781929
2024-09-23 08:52:12.992642,0,7.7788,-0.003233425524256645,-0.02412639262114825,0.0970030596496862,32.08287849390507,-96.25519929585457,80.21211738781929
2024-09-23 08:52:13.035100,0,7.778851,-0.003482159473966507,-0.024026904205785005,0.0970030596496862,32.08287849390507,-100.26678939585686,76.200527287817
2024-09-23 08:52:13.047190,0,7.778851,-0.003482159473966507,-0.024026904205785005,0.09675432418099966,32.08287849390507,-100.26678939585686,76.200527287817
2024-09-23 08:52:13.080277,45.89,7.778851,-0.003482159473966507,-0.024026904205785005,0.09675432418099966,44.11764879391193,-96.25519929585457,72.1922225099802
2024-09-23 08:52:13.091889,45.89,7.778902,-0.003233425524256645,-0.02362894446842532,0.09675432418099966,44.11764879391193,-96.25519929585457,72.1922225099802
2024-09-23 08:52:13.134631,45.89,7.778952,-0.003482159473966507,-0.02362894446842532,0.09630662707135339,44.11764879391193,-92.24360919585227,72.1922225099802
2024-09-23 08:52:13.176333,45.89,7.778952,-0.003482159473966507,-0.023579196463302005,0.0973512698629459,44.11764879391193,-92.24360919585227,72.1922225099802
2024-09-23 08:52:13.187765,45.89,7.77904,-0.003482159473966507,-0.023579196463302005,0.0973512698629459,36.09446859390736,-96.25519929585457,80.21211738781929
2024-09-23 08:52:13.230220,45.89,7.77904,-0.0031339382481259063,-0.023579196463302005,0.09665483728461309,36.09446859390736,-96.25519929585457,80.21211738781929
2024-09-23 08:52:13.242291,45.89,7.77904,-0.0031339382481259063,-0.023579196463302005,0.09665483728461309,36.09446859390736,-96.25519929585457,76.200527287817
2024-09-23 08:52:13.275504,45.89,7.779091,-0.0035816467500972456,-0.024375126570858115,0.09665483728461309,36.09446859390736,-96.25519929585457,76.200527287817
2024-09-23 08:52:13.286638,45.89,7.779091,-0.0035816467500972456,-0.024375126570858115,0.09680407370509965,32.08287849390507,-92.24360919585227,76.200527287817
2024-09-23 08:52:13.329472,45.89,7.779142,-0.003382661564999035,-0.024026904205785005,0.09740101331113918,40.106058693909645,-92.24360919585227,76.200527287817
2024-09-23 08:52:13.372423,45.89,7.779192,-0.003382661564999035,-0.024026904205785005,0.09740101331113918,40.106058693909645,-100.26678939585686,76.200527287817
2024-09-23 08:52:13.383491,45.89,7.779192,-0.0031339382481259063,-0.02352945757203875,0.09680407370509965,40.106058693909645,-100.26678939585686,76.200527287817
2024-09-23 08:52:13.425779,45.89,7.779243,-0.0033329230534799477,-0.02367869399252531,0.09680407370509965,32.08287849390507,-100.26678939585686,76.200527287817
2024-09-23 08:52:13.470037,45.89,7.779243,-0.0033329230534799477,-0.02367869399252531,0.09675432418099966,40.106058693909645,-100.26678939585686,76.200527287817
2024-09-23 08:52:13.482123,45.89,7.779294,-0.002586742470023829,-0.02367869399252531,0.09675432418099966,40.106058693909645,-100.26678939585686,80.21211738781929
2024-09-23 08:52:13.525215,45.89,7.779381,-0.002586742470023829,-0.02367869399252531,0.09675432418099966,32.08287849390507,-92.24360919585227,76.200527287817
2024-09-23 08:52:13.567577,45.89,7.779381,-0.0030841997366068195,-0.023827930413011865,0.09685382322919964,32.08287849390507,-92.24360919585227,76.200527287817
2024-09-23 08:52:13.579081,45.89,7.779381,-0.0030841997366068195,-0.023827930413011865,0.09685382322919964,36.09446859390736,-96.25519929585457,80.21211738781929
2024-09-23 08:52:13.624354,45.89,7.779432,-0.0032831742888682963,-0.024076653729884996,0.09755024973162574,36.09446859390736,-96.25519929585457,80.21211738781929
2024-09-23 08:52:13.666981,45.89,7.779484,-0.0032831742888682963,-0.024076653729884996,0.09755024973162574,40.106058693909645,-104.27510100388527,80.21211738781929
2024-09-23 08:52:13.678227,45.89,7.779484,-0.0030841997366068195,-0.023827930413011865,0.09755024973162574,40.106058693909645,-104.27510100388527,80.21211738781929
2024-09-23 08:52:13.712016,45.89,7.779484,-0.0030841997366068195,-0.023827930413011865,0.09615739065086683,40.106058693909645,-104.27510100388527,80.21211738781929
2024-09-23 08:52:13.723096,45.89,7.779534,-0.0031339382481259063,-0.023827930413011865,0.09615739065086683,40.106058693909645,-100.26678939585686,80.21211738781929
2024-09-23 08:52:13.764976,45.89,7.779534,-0.0031339382481259063,-0.02362894446842532,0.09645586349183995,40.106058693909645,-104.27510100388527,80.21211738781929
2024-09-23 08:52:13.776639,45.89,7.779585,-0.0031339382481259063,-0.02362894446842532,0.09645586349183995,40.106058693909645,-104.27510100388527,76.200527287817
2024-09-23 08:52:13.809784,45.89,7.779585,-0.0028354659767690416,-0.023728432883788564,0.09645586349183995,40.106058693909645,-104.27510100388527,76.200527287817
2024-09-23 08:52:13.821214,45.89,7.779585,-0.0028354659767690416,-0.023728432883788564,0.09665483728461309,36.09446859390736,-96.25519929585457,84.22370748782159
2024-09-23 08:52:13.863556,45.89,7.779636,-0.0031836870127375577,-0.023728432883788564,0.09695331012558621,40.106058693909645,-96.25519929585457,84.22370748782159
2024-09-23 08:52:13.875182,45.89,7.779636,-0.0031836870127375577,-0.023728432883788564,0.09695331012558621,40.106058693909645,-96.25519929585457,84.22370748782159
2024-09-23 08:52:13.908006,45.89,7.779723,-0.0031836870127375577,-0.023728432883788564,0.09695331012558621,40.106058693909645,-96.25519929585457,84.22370748782159
2024-09-23 08:52:13.919428,45.89,7.779723,-0.0026862297461545674,-0.02352945757203875,0.09725178296655933,36.09446859390736,-96.25519929585457,84.22370748782159
2024-09-23 08:52:13.963137,45.89,7.779774,-0.0035816467500972456,-0.023877669304275123,0.09725178296655933,36.09446859390736,-100.26678939585686,80.21211738781929
2024-09-23 08:52:13.974707,45.89,7.779774,-0.0035816467500972456,-0.023877669304275123,0.09630662707135339,36.09446859390736,-100.26678939585686,80.21211738781929
2024-09-23 08:52:14.007391,45.89,7.779774,-0.0035816467500972456,-0.023877669304275123,0.09630662707135339,44.11764879391193,-100.26678939585686,76.200527287817
2024-09-23 08:52:14.018889,45.89,7.779825,-0.0026862297461545674,-0.02412639262114825,0.09630662707135339,44.11764879391193,-100.26678939585686,76.200527287817
2024-09-23 08:52:14.061268,45.89,7.779876,-0.003233425524256645,-0.02412639262114825,0.09685382322919964,40.106058693909645,-92.24360919585227,80.21211738781929
2024-09-23 08:52:14.104172,44.43,7.779876,-0.003233425524256645,-0.023927417309398437,0.09655535038822652,32.08287849390507,-92.24360919585227,80.21211738781929
2024-09-23 08:52:14.116211,44.43,7.779966,-0.003233425524256645,-0.023927417309398437,0.09655535038822652,32.08287849390507,-104.27510100388527,72.1922225099802
2024-09-23 08:52:14.158307,44.43,7.779966,-0.003482159473966507,-0.023579196463302005,0.09710254654607277,48.12595698684454,-92.24360919585227,80.21211738781929
2024-09-23 08:52:14.201575,44.43,7.780017,-0.0026862297461545674,-0.02367869399252531,0.09710254654607277,48.12595698684454,-92.24360919585227,80.21211738781929
2024-09-23 08:52:14.213433,44.43,7.780017,-0.0026862297461545674,-0.02367869399252531,0.09680407370509965,32.08287849390507,-96.25519929585457,80.21211738781929
2024-09-23 08:52:14.256860,44.43,7.780068,-0.0031339382481259063,-0.023728432883788564,0.09725178296655933,36.09446859390736,-96.25519929585457,76.200527287817
2024-09-23 08:52:14.299049,44.43,7.780068,-0.0031339382481259063,-0.023728432883788564,0.09725178296655933,36.09446859390736,-96.25519929585457,80.21211738781929
2024-09-23 08:52:14.310723,44.43,7.780119,-0.0035318979854855937,-0.023877669304275123,0.09750050628343246,36.09446859390736,-96.25519929585457,80.21211738781929
2024-09-23 08:52:14.354379,44.43,7.780169,-0.0033329230534799477,-0.02412639262114825,0.09750050628343246,36.09446859390736,-100.26678939585686,76.200527287817
2024-09-23 08:52:14.396991,44.43,7.780169,-0.0033329230534799477,-0.02412639262114825,0.09710254654607277,32.08287849390507,-96.25519929585457,76.200527287817
2024-09-23 08:52:14.408624,44.43,7.78022,-0.0031339382481259063,-0.02412639262114825,0.09710254654607277,32.08287849390507,-96.25519929585457,76.200527287817
2024-09-23 08:52:14.450977,44.43,7.780307,-0.0031339382481259063,-0.023927417309398437,0.0973015264147526,36.09446859390736,-100.26678939585686,80.21211738781929
2024-09-23 08:52:14.494325,44.43,7.780307,-0.0033329230534799477,-0.02397715620066169,0.09670458680871308,36.09446859390736,-100.26678939585686,80.21211738781929
2024-09-23 08:52:14.505917,44.43,7.780307,-0.0033329230534799477,-0.02397715620066169,0.09670458680871308,36.09446859390736,-88.23529758782387,88.23529758782387
2024-09-23 08:52:14.549703,44.43,7.780359,-0.0031836870127375577,-0.023479709566915436,0.09705279702197278,28.07457030097246,-96.25519929585457,88.23529758782387
2024-09-23 08:52:14.592842,44.43,7.780409,-0.0031339382481259063,-0.023579196463302005,0.09705279702197278,28.07457030097246,-96.25519929585457,84.22370748782159
2024-09-23 08:52:14.605022,44.43,7.780409,-0.0031339382481259063,-0.023579196463302005,0.09620712802315341,28.07457030097246,-96.25519929585457,84.22370748782159
2024-09-23 08:52:14.638042,44.43,7.780409,-0.0031339382481259063,-0.023579196463302005,0.09620712802315341,28.07457030097246,-100.26678939585686,84.22370748782159
2024-09-23 08:52:14.649298,44.43,7.78046,-0.0031339382481259063,-0.024076653729884996,0.09764974270391902,28.07457030097246,-100.26678939585686,76.200527287817
2024-09-23 08:52:14.691507,44.43,7.780511,-0.0031339382481259063,-0.024076653729884996,0.09764974270391902,32.08287849390507,-92.24360919585227,80.21211738781929
2024-09-23 08:52:14.703950,44.43,7.780511,-0.0028852147413806935,-0.024076653729884996,0.09764974270391902,32.08287849390507,-92.24360919585227,80.21211738781929
2024-09-23 08:52:14.736316,44.43,7.780511,-0.0028852147413806935,-0.023728432883788564,0.09725178296655933,32.08287849390507,-92.24360919585227,80.21211738781929
2024-09-23 08:52:14.747536,44.43,7.780561,-0.0028852147413806935,-0.023728432883788564,0.09725178296655933,40.106058693909645,-96.25519929585457,80.21211738781929
2024-09-23 08:52:14.789660,44.43,7.780561,-0.0032831742888682963,-0.024524361472367997,0.0970030596496862,44.11764879391193,-100.26678939585686,80.21211738781929
2024-09-23 08:52:14.801278,44.43,7.780561,-0.0032831742888682963,-0.024524361472367997,0.0970030596496862,44.11764879391193,-100.26678939585686,84.22370748782159
2024-09-23 08:52:14.833444,44.43,7.780648,-0.0035816467500972456,-0.024524361472367997,0.0970030596496862,44.11764879391193,-100.26678939585686,84.22370748782159
2024-09-23 08:52:14.845203,44.43,7.780648,-0.0035816467500972456,-0.02397715620066169,0.09715228999426605,32.08287849390507,-96.25519929585457,84.22370748782159
2024-09-23 08:52:14.887515,44.43,7.7807,-0.0036811340262279837,-0.023579196463302005,0.09740101331113918,32.08287849390507,-96.25519929585457,84.22370748782159
2024-09-23 08:52:14.899664,44.43,7.7807,-0.0036811340262279837,-0.023579196463302005,0.09740101331113918,48.12595698684454,-96.25519929585457,84.22370748782159
2024-09-23 08:52:14.932011,44.43,7.7807,-0.0036811340262279837,-0.023579196463302005,0.09740101331113918,48.12595698684454,-100.26678939585686,80.21211738781929
2024-09-23 08:52:14.943264,44.43,7.780751,-0.0032831742888682963,-0.024076653729884996,0.09635636444363997,48.12595698684454,-100.26678939585686,80.21211738781929
2024-09-23 08:52:14.986976,44.43,7.780801,-0.0035816467500972456,-0.023778180888911878,0.09635636444363997,36.09446859390736,-92.24360919585227,80.21211738781929
2024-09-23 08:52:15.030236,44.43,7.780801,-0.0035816467500972456,-0.023778180888911878,0.09680407370509965,36.09446859390736,-100.26678939585686,80.21211738781929
2024-09-23 08:52:15.041870,44.43,7.780852,-0.0030344509719951677,-0.023778180888911878,0.09680407370509965,36.09446859390736,-100.26678939585686,84.22370748782159
2024-09-23 08:52:15.084619,44.43,7.780941,-0.0030344509719951677,-0.02352945757203875,0.09655535038822652,40.106058693909645,-96.25519929585457,84.22370748782159
2024-09-23 08:52:15.128064,43.62,7.780941,-0.0035318979854855937,-0.023230986250042305,0.09755024973162574,40.106058693909645,-96.25519929585457,84.22370748782159
2024-09-23 08:52:15.139667,43.62,7.780941,-0.0035318979854855937,-0.023230986250042305,0.09755024973162574,28.07457030097246,-100.26678939585686,84.22370748782159
2024-09-23 08:52:15.182352,43.62,7.780992,-0.0030841997366068195,-0.023330473146428877,0.09710254654607277,28.07457030097246,-104.27510100388527,84.22370748782159
2024-09-23 08:52:15.224675,43.62,7.780992,-0.0030841997366068195,-0.023330473146428877,0.09710254654607277,28.07457030097246,-104.27510100388527,84.22370748782159
2024-09-23 08:52:15.277951,43.62,7.781043,-0.0028852147413806935,-0.02338022115155219,0.09630662707135339,36.09446859390736,-104.27510100388527,84.22370748782159
2024-09-23 08:52:15.289976,43.62,7.781043,-0.0028852147413806935,-0.02338022115155219,0.09630662707135339,36.09446859390736,-92.24360919585227,84.22370748782159
2024-09-23 08:52:15.322914,43.62,7.781094,-0.0035318979854855937,-0.02338022115155219,0.09630662707135339,36.09446859390736,-92.24360919585227,72.1922225099802
2024-09-23 08:52:15.334490,43.62,7.781094,-0.0035318979854855937,-0.02362894446842532,0.09665483728461309,40.106058693909645,-92.24360919585227,72.1922225099802
2024-09-23 08:52:15.378074,43.62,7.781144,-0.003482159473966507,-0.023827930413011865,0.09665483728461309,40.106058693909645,-100.26678939585686,76.200527287817
2024-09-23 08:52:15.390029,43.62,7.781144,-0.003482159473966507,-0.023827930413011865,0.09764974270391902,40.106058693909645,-100.26678939585686,76.200527287817
2024-09-23 08:52:15.422255,43.62,7.781144,-0.003482159473966507,-0.023827930413011865,0.09764974270391902,36.09446859390736,-100.26678939585686,80.21211738781929
2024-09-23 08:52:15.434024,43.62,7.781195,-0.003979606107712764,-0.023280723622328886,0.09764974270391902,36.09446859390736,-100.26678939585686,80.21211738781929
2024-09-23 08:52:15.467886,43.62,7.781195,-0.003979606107712764,-0.023280723622328886,0.09755024973162574,36.09446859390736,-100.26678939585686,80.21211738781929
2024-09-23 08:52:15.479699,43.62,7.781282,-0.0030841997366068195,-0.023280723622328886,0.09755024973162574,36.09446859390736,-108.28669110388756,64.16903547978401
2024-09-23 08:52:15.522364,43.62,7.78138,-0.0030841997366068195,-0.024375126570858115,0.09720203344245934,36.09446859390736,-96.25519929585457,84.22370748782159
2024-09-23 08:52:15.564853,43.62,7.78138,-0.002586742470023829,-0.023778180888911878,0.09720203344245934,36.09446859390736,-96.25519929585457,84.22370748782159
2024-09-23 08:52:15.576384,43.62,7.78138,-0.002586742470023829,-0.023778180888911878,0.09670458680871308,32.08287849390507,-108.28669110388756,84.22370748782159
2024-09-23 08:52:15.619609,43.62,7.781431,-0.0029349636958644295,-0.02397715620066169,0.09655535038822652,36.09446859390736,-100.26678939585686,84.22370748782159
2024-09-23 08:52:15.662290,43.62,7.781482,-0.0029349636958644295,-0.02397715620066169,0.09655535038822652,36.09446859390736,-100.26678939585686,80.21211738781929
2024-09-23 08:52:15.673919,43.62,7.781482,-0.0030841997366068195,-0.023778180888911878,0.09725178296655933,44.11764879391193,-100.26678939585686,80.21211738781929
2024-09-23 08:52:15.716438,43.62,7.781532,-0.002586742470023829,-0.023330473146428877,0.09725178296655933,44.11764879391193,-96.25519929585457,80.21211738781929
2024-09-23 08:52:15.728449,43.62,7.781532,-0.002586742470023829,-0.023330473146428877,0.0973512698629459,44.11764879391193,-96.25519929585457,80.21211738781929
2024-09-23 08:52:15.761474,43.62,7.781532,-0.002586742470023829,-0.023330473146428877,0.0973512698629459,40.106058693909645,-92.24360919585227,76.200527287817
2024-09-23 08:52:15.814655,43.62,7.781583,-0.003780631555451287,-0.02352945757203875,0.09710254654607277,44.11764879391193,-92.24360919585227,76.200527287817
2024-09-23 08:52:15.826436,43.62,7.781583,-0.003780631555451287,-0.02352945757203875,0.09710254654607277,44.11764879391193,-100.26678939585686,76.200527287817
2024-09-23 08:52:15.858897,43.62,7.781634,-0.003780631555451287,-0.02352945757203875,0.09710254654607277,44.11764879391193,-100.26678939585686,80.21211738781929
2024-09-23 08:52:15.870243,43.62,7.781634,-0.003482159473966507,-0.023827930413011865,0.09725178296655933,40.106058693909645,-100.26678939585686,80.21211738781929
2024-09-23 08:52:15.913424,43.62,7.781721,-0.0031836870127375577,-0.02362894446842532,0.09715228999426605,40.106058693909645,-100.26678939585686,76.200527287817
2024-09-23 08:52:15.956064,43.62,7.781721,-0.0031836870127375577,-0.02362894446842532,0.09715228999426605,40.106058693909645,-100.26678939585686,80.21211738781929
2024-09-23 08:52:15.967472,43.62,7.781772,-0.0034324103296106863,-0.02367869399252531,0.09715228999426605,40.106058693909645,-100.26678939585686,80.21211738781929
2024-09-23 08:52:16.009693,43.62,7.781823,-0.0033329230534799477,-0.02367869399252531,0.09755024973162574,32.08287849390507,-100.26678939585686,76.200527287817
2024-09-23 08:52:16.052461,43.62,7.781823,-0.0033329230534799477,-0.023778180888911878,0.09740101331113918,32.08287849390507,-100.26678939585686,76.200527287817
2024-09-23 08:52:16.063880,43.62,7.781916,-0.0033329230534799477,-0.023778180888911878,0.09740101331113918,40.106058693909645,-104.27510100388527,80.21211738781929
2024-09-23 08:52:16.107175,43.62,7.781916,-0.0030841997366068195,-0.02367869399252531,0.09685382322919964,36.09446859390736,-96.25519929585457,80.21211738781929
2024-09-23 08:52:16.119867,43.62,7.781916,-0.0030841997366068195,-0.02367869399252531,0.09685382322919964,36.09446859390736,-96.25519929585457,80.21211738781929
2024-09-23 08:52:16.152920,43.2,7.781967,-0.0034324103296106863,-0.023181236725942318,0.09710254654607277,36.09446859390736,-96.25519929585457,80.21211738781929
2024-09-23 08:52:16.165921,43.2,7.781967,-0.0034324103296106863,-0.023181236725942318,0.09710254654607277,40.106058693909645,-96.25519929585457,80.21211738781929
2024-09-23 08:52:16.199449,43.2,7.782018,-0.0034324103296106863,-0.023181236725942318,0.09710254654607277,40.106058693909645,-96.25519929585457,84.22370748782159
2024-09-23 08:52:16.210686,43.2,7.782018,-0.0029349636958644295,-0.02412639262114825,0.09740101331113918,32.08287849390507,-96.25519929585457,84.22370748782159
2024-09-23 08:52:16.253980,43.2,7.782069,-0.0030841997366068195,-0.023728432883788564,0.0970030596496862,32.08287849390507,-100.26678939585686,84.22370748782159
2024-09-23 08:52:16.296130,43.2,7.782069,-0.0030841997366068195,-0.023728432883788564,0.0970030596496862,36.09446859390736,-100.26678939585686,84.22370748782159
2024-09-23 08:52:16.349979,43.2,7.782119,-0.0030344509719951677,-0.023728432883788564,0.0970030596496862,36.09446859390736,-100.26678939585686,80.21211738781929
2024-09-23 08:52:16.393342,43.2,7.782119,-0.0030344509719951677,-0.023728432883788564,0.09645586349183995,36.09446859390736,-100.26678939585686,80.21211738781929
2024-09-23 08:52:16.405410,43.2,7.78217,-0.0030841997366068195,-0.023728432883788564,0.09645586349183995,40.106058693909645,-96.25519929585457,84.22370748782159
2024-09-23 08:52:16.449760,43.2,7.78217,-0.0030841997366068195,-0.02362894446842532,0.09695331012558621,40.106058693909645,-100.26678939585686,76.200527287817
2024-09-23 08:52:16.461392,43.2,7.782257,-0.0030841997366068195,-0.02362894446842532,0.09695331012558621,40.106058693909645,-100.26678939585686,76.200527287817
2024-09-23 08:52:16.492964,43.2,7.782257,-0.0028852147413806935,-0.02293251340906919,0.09695331012558621,40.106058693909645,-100.26678939585686,76.200527287817
2024-09-23 08:52:16.504596,43.2,7.782257,-0.0028852147413806935,-0.02293251340906919,0.09695331012558621,40.106058693909645,-100.26678939585686,80.21211738781929
2024-09-23 08:52:16.547316,43.2,7.782309,-0.003382661564999035,-0.023877669304275123,0.0970030596496862,36.09446859390736,-96.25519929585457,80.21211738781929
2024-09-23 08:52:16.590742,43.2,7.782404,-0.0035318979854855937,-0.023877669304275123,0.0970030596496862,36.09446859390736,-96.25519929585457,80.21211738781929
2024-09-23 08:52:16.602239,43.2,7.782404,-0.0035318979854855937,-0.023827930413011865,0.0973015264147526,32.08287849390507,-96.25519929585457,80.21211738781929
2024-09-23 08:52:16.645254,43.2,7.782455,-0.0029847020175114316,-0.023778180888911878,0.09670458680871308,32.08287849390507,-92.24360919585227,80.21211738781929
2024-09-23 08:52:16.687222,43.2,7.782455,-0.0029847020175114316,-0.023778180888911878,0.09670458680871308,48.12595698684454,-92.24360919585227,80.21211738781929
2024-09-23 08:52:16.699496,43.2,7.782506,-0.0032831742888682963,-0.023429960042815445,0.09670458680871308,48.12595698684454,-92.24360919585227,80.21211738781929
2024-09-23 08:52:16.742218,43.2,7.782557,-0.0031339382481259063,-0.023429960042815445,0.09675432418099966,36.09446859390736,-92.24360919585227,76.200527287817
2024-09-23 08:52:16.785681,43.2,7.782557,-0.0031339382481259063,-0.023778180888911878,0.09695331012558621,36.09446859390736,-92.24360919585227,76.200527287817
2024-09-23 08:52:16.796720,43.2,7.782647,-0.0031339382481259063,-0.023778180888911878,0.09695331012558621,36.09446859390736,-104.27510100388527,80.21211738781929
2024-09-23 08:52:16.839511,43.2,7.782647,-0.0032831742888682963,-0.02352945757203875,0.0973015264147526,44.11764879391193,-108.28669110388756,80.21211738781929
2024-09-23 08:52:16.881710,43.2,7.782699,-0.0032831742888682963,-0.02352945757203875,0.0973015264147526,44.11764879391193,-108.28669110388756,80.21211738781929
2024-09-23 08:52:16.892844,43.2,7.782699,-0.0032831742888682963,-0.024176140626271565,0.09675432418099966,32.08287849390507,-104.27510100388527,80.21211738781929
2024-09-23 08:52:16.935241,43.2,7.782749,-0.0033329230534799477,-0.02352945757203875,0.09690356060148622,32.08287849390507,-104.27510100388527,84.22370748782159
2024-09-23 08:52:16.947533,43.2,7.782749,-0.0033329230534799477,-0.02352945757203875,0.09690356060148622,36.09446859390736,-104.27510100388527,84.22370748782159
2024-09-23 08:52:16.979252,43.2,7.782749,-0.0033329230534799477,-0.02352945757203875,0.09690356060148622,36.09446859390736,-100.26678939585686,80.21211738781929
2024-09-23 08:52:16.990249,43.2,7.7828,-0.0028852147413806935,-0.023728432883788564,0.09675432418099966,36.09446859390736,-100.26678939585686,80.21211738781929
2024-09-23 08:52:17.032111,43.2,7.782851,-0.0027359787006383035,-0.023728432883788564,0.09675432418099966,36.09446859390736,-96.25519929585457,80.21211738781929
2024-09-23 08:52:17.043921,43.2,7.782851,-0.0027359787006383035,-0.023579196463302005,0.09675432418099966,36.09446859390736,-96.25519929585457,80.21211738781929
2024-09-23 08:52:17.076621,43.2,7.782851,-0.0027359787006383035,-0.023579196463302005,0.0973512698629459,24.06297849342227,-96.25519929585457,80.21211738781929
2024-09-23 08:52:17.087925,43.2,7.782902,-0.0035816467500972456,-0.023579196463302005,0.0973512698629459,24.06297849342227,-100.26678939585686,76.200527287817
2024-09-23 08:52:17.130093,43.2,7.782902,-0.0035816467500972456,-0.02362894446842532,0.09695331012558621,44.11764879391193,-96.25519929585457,84.22370748782159
2024-09-23 08:52:17.142270,43.2,7.782988,-0.0035816467500972456,-0.02362894446842532,0.09695331012558621,44.11764879391193,-96.25519929585457,84.22370748782159
2024-09-23 08:52:17.174412,42.98,7.782988,-0.0030841997366068195,-0.024275627522658133,0.09695331012558621,44.11764879391193,-96.25519929585457,84.22370748782159
2024-09-23 08:52:17.186502,42.98,7.782988,-0.0030841997366068195,-0.024275627522658133,0.0973512698629459,40.106058693909645,-96.25519929585457,80.21211738781929
2024-09-23 08:52:17.229864,42.98,7.78304,-0.0037308827908396356,-0.023778180888911878,0.09720203344245934,36.09446859390736,-96.25519929585457,80.21211738781929
2024-09-23 08:52:17.273144,42.98,7.783091,-0.0037308827908396356,-0.023778180888911878,0.09720203344245934,36.09446859390736,-96.25519929585457,80.21211738781929
2024-09-23 08:52:17.284998,42.98,7.783091,-0.0037308827908396356,-0.024275627522658133,0.09685382322919964,32.08287849390507,-96.25519929585457,80.21211738781929
2024-09-23 08:52:17.318149,42.98,7.783091,-0.0037308827908396356,-0.024275627522658133,0.09685382322919964,32.08287849390507,-96.25519929585457,80.21211738781929
2024-09-23 08:52:17.330309,42.98,7.783141,-0.0034324103296106863,-0.023230986250042305,0.09670458680871308,32.08287849390507,-96.25519929585457,80.21211738781929
2024-09-23 08:52:17.372980,42.98,7.783192,-0.002586742470023829,-0.023230986250042305,0.09670458680871308,36.09446859390736,-96.25519929585457,84.22370748782159
2024-09-23 08:52:17.384724,42.98,7.783192,-0.002586742470023829,-0.02362894446842532,0.09670458680871308,36.09446859390736,-96.25519929585457,84.22370748782159
2024-09-23 08:52:17.467949,42.98,7.783192,-0.002586742470023829,-0.02362894446842532,0.0970030596496862,32.08287849390507,-108.28669110388756,84.22370748782159
2024-09-23 08:52:17.479730,42.98,7.783243,-0.0028852147413806935,-0.02362894446842532,0.0970030596496862,32.08287849390507,-108.28669110388756,80.21211738781929
2024-09-23 08:52:17.523235,42.98,7.78333,-0.0028852147413806935,-0.023579196463302005,0.09675432418099966,36.09446859390736,-100.26678939585686,80.21211738781929
2024-09-23 08:52:17.565899,42.98,7.78333,-0.002785727465249955,-0.023877669304275123,0.09715228999426605,36.09446859390736,-100.26678939585686,80.21211738781929
2024-09-23 08:52:17.577735,42.98,7.78333,-0.002785727465249955,-0.023877669304275123,0.09715228999426605,44.11764879391193,-96.25519929585457,80.21211738781929
2024-09-23 08:52:17.610720,42.98,7.783381,-0.002785727465249955,-0.023877669304275123,0.09715228999426605,44.11764879391193,-96.25519929585457,80.21211738781929
2024-09-23 08:52:17.621903,42.98,7.783381,-0.0031836870127375577,-0.023479709566915436,0.0970030596496862,36.09446859390736,-100.26678939585686,80.21211738781929
2024-09-23 08:52:17.664138,42.98,7.783432,-0.003233425524256645,-0.02362894446842532,0.0970030596496862,36.09446859390736,-100.26678939585686,80.21211738781929
2024-09-23 08:52:17.675651,42.98,7.783432,-0.003233425524256645,-0.02362894446842532,0.09640611396773996,44.11764879391193,-100.26678939585686,80.21211738781929
2024-09-23 08:52:17.707559,42.98,7.783432,-0.003233425524256645,-0.02362894446842532,0.09640611396773996,44.11764879391193,-96.25519929585457,80.21211738781929
2024-09-23 08:52:17.719232,42.98,7.783526,-0.002586742470023829,-0.02338022115155219,0.09720203344245934,44.11764879391193,-96.25519929585457,80.21211738781929
2024-09-23 08:52:17.762459,42.98,7.783577,-0.002586742470023829,-0.02338022115155219,0.09720203344245934,44.11764879391193,-96.25519929585457,80.21211738781929
2024-09-23 08:52:17.775180,42.98,7.783577,-0.0029349636958644295,-0.023728432883788564,0.09720203344245934,44.11764879391193,-96.25519929585457,80.21211738781929
2024-09-23 08:52:17.807639,42.98,7.783577,-0.0029349636958644295,-0.023728432883788564,0.09705279702197278,44.11764879391193,-96.25519929585457,80.21211738781929
2024-09-23 08:52:17.819485,42.98,7.783628,-0.0031339382481259063,-0.023728432883788564,0.09705279702197278,44.11764879391193,-92.24360919585227,76.200527287817
2024-09-23 08:52:17.862421,42.98,7.78372,-0.0031339382481259063,-0.02352945757203875,0.09670458680871308,40.106058693909645,-100.26678939585686,80.21211738781929
2024-09-23 08:52:17.904651,42.98,7.78372,-0.0031339382481259063,-0.02367869399252531,0.09670458680871308,40.106058693909645,-100.26678939585686,80.21211738781929
2024-09-23 08:52:17.916435,42.98,7.78372,-0.0031339382481259063,-0.02367869399252531,0.09655535038822652,40.106058693909645,-96.25519929585457,80.21211738781929
2024-09-23 08:52:17.959584,42.98,7.783771,-0.0033329230534799477,-0.02362894446842532,0.09655535038822652,40.106058693909645,-96.25519929585457,80.21211738781929
2024-09-23 08:52:18.001802,42.98,7.783771,-0.0033329230534799477,-0.02362894446842532,0.0973512698629459,40.106058693909645,-96.25519929585457,80.21211738781929
2024-09-23 08:52:18.013082,42.98,7.783822,-0.0028852147413806935,-0.02362894446842532,0.0973512698629459,32.08287849390507,-104.27510100388527,80.21211738781929
2024-09-23 08:52:18.054913,42.98,7.783822,-0.0028852147413806935,-0.024026904205785005,0.09695331012558621,32.08287849390507,-104.27510100388527,80.21211738781929
2024-09-23 08:52:18.066815,42.98,7.783873,-0.0028852147413806935,-0.024026904205785005,0.09695331012558621,32.08287849390507,-104.27510100388527,76.200527287817
2024-09-23 08:52:18.100117,42.98,7.783873,-0.003233425524256645,-0.02367869399252531,0.09695331012558621,32.08287849390507,-104.27510100388527,76.200527287817
2024-09-23 08:52:18.111110,42.98,7.783873,-0.003233425524256645,-0.02367869399252531,0.09710254654607277,36.09446859390736,-100.26678939585686,80.21211738781929
2024-09-23 08:52:18.153075,42.98,7.783923,-0.0038303700669703737,-0.023330473146428877,0.09705279702197278,28.07457030097246,-100.26678939585686,80.21211738781929
2024-09-23 08:52:18.164835,42.98,7.783923,-0.0038303700669703737,-0.023330473146428877,0.09705279702197278,28.07457030097246,-100.26678939585686,80.21211738781929
2024-09-23 08:52:18.198052,43.15,7.783923,-0.0038303700669703737,-0.023330473146428877,0.09705279702197278,28.07457030097246,-100.26678939585686,72.1922225099802
2024-09-23 08:52:18.209601,43.15,7.783974,-0.003233425524256645,-0.023778180888911878,0.09725178296655933,28.07457030097246,-100.26678939585686,72.1922225099802
2024-09-23 08:52:18.251634,43.15,7.784063,-0.0029847020175114316,-0.02367869399252531,0.09725178296655933,28.07457030097246,-104.27510100388527,76.200527287817
2024-09-23 08:52:18.264204,43.15,7.784063,-0.0029847020175114316,-0.02367869399252531,0.09655535038822652,28.07457030097246,-104.27510100388527,76.200527287817
2024-09-23 08:52:18.296635,43.15,7.784063,-0.0029847020175114316,-0.02367869399252531,0.09655535038822652,36.09446859390736,-96.25519929585457,80.21211738781929
2024-09-23 08:52:18.308826,43.15,7.784113,-0.0033329230534799477,-0.02308174982955575,0.09655535038822652,36.09446859390736,-96.25519929585457,80.21211738781929
2024-09-23 08:52:18.352091,43.15,7.784164,-0.003233425524256645,-0.02308174982955575,0.09725178296655933,32.08287849390507,-96.25519929585457,72.1922225099802
2024-09-23 08:52:18.394372,43.15,7.784164,-0.003233425524256645,-0.024026904205785005,0.09710254654607277,44.11764879391193,-96.25519929585457,72.1922225099802
2024-09-23 08:52:18.406088,43.15,7.784256,-0.003233425524256645,-0.024026904205785005,0.09710254654607277,44.11764879391193,-92.24360919585227,76.200527287817
2024-09-23 08:52:18.449256,43.15,7.784256,-0.0029847020175114316,-0.023579196463302005,0.09705279702197278,36.09446859390736,-96.25519929585457,76.200527287817
2024-09-23 08:52:18.491082,43.15,7.784308,-0.0033329230534799477,-0.023877669304275123,0.09705279702197278,36.09446859390736,-96.25519929585457,76.200527287817
2024-09-23 08:52:18.502209,43.15,7.784308,-0.0033329230534799477,-0.023877669304275123,0.09710254654607277,36.09446859390736,-100.26678939585686,76.200527287817
2024-09-23 08:52:18.544771,43.15,7.784358,-0.0031339382481259063,-0.02338022115155219,0.09710254654607277,32.08287849390507,-100.26678939585686,76.200527287817
2024-09-23 08:52:18.587291,43.15,7.784358,-0.0031339382481259063,-0.02338022115155219,0.09710254654607277,32.08287849390507,-80.21211738781929,96.25519929585457
2024-09-23 08:52:18.598840,43.15,7.784409,-0.0030344509719951677,-0.023579196463302005,0.09720203344245934,32.08287849390507,-80.21211738781929,96.25519929585457
2024-09-23 08:52:18.641070,43.15,7.78446,-0.0027359787006383035,-0.023579196463302005,0.09720203344245934,36.09446859390736,-96.25519929585457,84.22370748782159
2024-09-23 08:52:18.652835,43.15,7.78446,-0.0027359787006383035,-0.024026904205785005,0.09720203344245934,36.09446859390736,-96.25519929585457,84.22370748782159
2024-09-23 08:52:18.685146,43.15,7.78446,-0.0027359787006383035,-0.024026904205785005,0.09685382322919964,44.11764879391193,-96.25519929585457,84.22370748782159
2024-09-23 08:52:18.696635,43.15,7.78451,-0.0029349636958644295,-0.024026904205785005,0.09685382322919964,44.11764879391193,-100.26678939585686,80.21211738781929
2024-09-23 08:52:18.739031,43.15,7.78451,-0.0029349636958644295,-0.02352945757203875,0.09680407370509965,36.09446859390736,-100.26678939585686,80.21211738781929
2024-09-23 08:52:18.750432,43.15,7.784597,-0.0029349636958644295,-0.02352945757203875,0.09680407370509965,36.09446859390736,-100.26678939585686,80.21211738781929
2024-09-23 08:52:18.782746,43.15,7.784597,-0.0035816467500972456,-0.023778180888911878,0.09680407370509965,36.09446859390736,-100.26678939585686,80.21211738781929
2024-09-23 08:52:18.794950,43.15,7.784597,-0.0035816467500972456,-0.023778180888911878,0.09740101331113918,36.09446859390736,-100.26678939585686,80.21211738781929
2024-09-23 08:52:18.838557,43.15,7.784649,-0.0028852147413806935,-0.023728432883788564,0.0966050877605131,36.09446859390736,-100.26678939585686,80.21211738781929
2024-09-23 08:52:18.881920,43.15,7.7847,-0.0026862297461545674,-0.023728432883788564,0.0966050877605131,36.09446859390736,-100.26678939585686,80.21211738781929
2024-09-23 08:52:18.893386,43.15,7.7847,-0.0026862297461545674,-0.023827930413011865,0.09779897304849887,28.07457030097246,-100.26678939585686,80.21211738781929
2024-09-23 08:52:18.936165,43.15,7.784751,-0.0030841997366068195,-0.023579196463302005,0.09695331012558621,28.07457030097246,-96.25519929585457,84.22370748782159
2024-09-23 08:52:18.978875,43.15,7.784751,-0.0030841997366068195,-0.023579196463302005,0.09695331012558621,32.08287849390507,-100.26678939585686,72.1922225099802
2024-09-23 08:52:18.990028,43.15,7.784802,-0.0031836870127375577,-0.023877669304275123,0.09695331012558621,32.08287849390507,-100.26678939585686,72.1922225099802
2024-09-23 08:52:19.033365,43.15,7.784852,-0.0037308827908396356,-0.023877669304275123,0.09710254654607277,28.07457030097246,-100.26678939585686,84.22370748782159
2024-09-23 08:52:19.078519,43.15,7.784852,-0.0037308827908396356,-0.02338022115155219,0.09725178296655933,36.09446859390736,-100.26678939585686,84.22370748782159
2024-09-23 08:52:19.090133,43.15,7.784939,-0.0037308827908396356,-0.02338022115155219,0.09725178296655933,36.09446859390736,-100.26678939585686,80.21211738781929
2024-09-23 08:52:19.121891,43.15,7.784939,-0.0035816467500972456,-0.02338022115155219,0.09725178296655933,36.09446859390736,-100.26678939585686,80.21211738781929
2024-09-23 08:52:19.133847,43.15,7.784939,-0.0035816467500972456,-0.02352945757203875,0.09670458680871308,40.106058693909645,-88.23529758782387,84.22370748782159
2024-09-23 08:52:19.177822,43.15,7.78499,-0.0035816467500972456,-0.023429960042815445,0.09685382322919964,32.08287849390507,-88.23529758782387,84.22370748782159
2024-09-23 08:52:19.189873,43.15,7.78499,-0.0035816467500972456,-0.023429960042815445,0.09685382322919964,32.08287849390507,-96.25519929585457,84.22370748782159
2024-09-23 08:52:19.221698,43.12,7.785041,-0.0035816467500972456,-0.023429960042815445,0.09685382322919964,32.08287849390507,-96.25519929585457,80.21211738781929
2024-09-23 08:52:19.234048,43.12,7.785041,-0.0031339382481259063,-0.023877669304275123,0.09685382322919964,36.09446859390736,-96.25519929585457,80.21211738781929
2024-09-23 08:52:19.277046,43.12,7.785091,-0.0029349636958644295,-0.02367869399252531,0.09710254654607277,36.09446859390736,-100.26678939585686,80.21211738781929
2024-09-23 08:52:19.319686,43.12,7.785091,-0.0029349636958644295,-0.02367869399252531,0.09710254654607277,36.09446859390736,-104.27510100388527,64.16903547978401
2024-09-23 08:52:19.330898,43.12,7.785142,-0.002586742470023829,-0.02362894446842532,0.09710254654607277,36.09446859390736,-104.27510100388527,64.16903547978401
2024-09-23 08:52:19.373694,43.12,7.785193,-0.0038303700669703737,-0.02362894446842532,0.09645586349183995,36.09446859390736,-104.27510100388527,68.18063240997792
2024-09-23 08:52:19.416453,43.12,7.785193,-0.0038303700669703737,-0.023927417309398437,0.09675432418099966,36.09446859390736,-104.27510100388527,68.18063240997792
2024-09-23 08:52:19.428690,43.12,7.78528,-0.0038303700669703737,-0.023927417309398437,0.09675432418099966,36.09446859390736,-100.26678939585686,80.21211738781929
2024-09-23 08:52:19.471894,43.12,7.78528,-0.0031339382481259063,-0.023778180888911878,0.0970030596496862,36.09446859390736,-100.26678939585686,88.23529758782387
2024-09-23 08:52:19.514114,43.12,7.785331,-0.0034324103296106863,-0.023778180888911878,0.0970030596496862,36.09446859390736,-100.26678939585686,88.23529758782387
2024-09-23 08:52:19.525182,43.12,7.785331,-0.0034324103296106863,-0.02352945757203875,0.0973512698629459,44.11764879391193,-104.27510100388527,88.23529758782387
2024-09-23 08:52:19.568146,43.12,7.785382,-0.0033329230534799477,-0.023479709566915436,0.09755024973162574,44.11764879391193,-104.27510100388527,84.22370748782159
2024-09-23 08:52:19.580339,43.12,7.785382,-0.0033329230534799477,-0.023479709566915436,0.09755024973162574,36.09446859390736,-104.27510100388527,84.22370748782159
2024-09-23 08:52:19.613626,43.12,7.785433,-0.0033329230534799477,-0.023479709566915436,0.09755024973162574,36.09446859390736,-100.26678939585686,76.200527287817
2024-09-23 08:52:19.625014,43.12,7.785433,-0.0035318979854855937,-0.023778180888911878,0.0970030596496862,36.09446859390736,-100.26678939585686,76.200527287817
2024-09-23 08:52:19.667922,43.12,7.785483,-0.0032831742888682963,-0.023827930413011865,0.0970030596496862,40.106058693909645,-92.24360919585227,80.21211738781929
2024-09-23 08:52:19.711817,43.12,7.785483,-0.0032831742888682963,-0.023827930413011865,0.09680407370509965,36.09446859390736,-88.23529758782387,80.21211738781929
2024-09-23 08:52:19.723466,43.12,7.785535,-0.0031339382481259063,-0.023827930413011865,0.09680407370509965,36.09446859390736,-88.23529758782387,80.21211738781929
2024-09-23 08:52:19.755247,43.12,7.785535,-0.0031339382481259063,-0.02367869399252531,0.09680407370509965,36.09446859390736,-88.23529758782387,80.21211738781929
2024-09-23 08:52:19.766294,43.12,7.785621,-0.0031339382481259063,-0.02367869399252531,0.09705279702197278,32.08287849390507,-104.27510100388527,76.200527287817
2024-09-23 08:52:19.808570,43.12,7.785621,-0.0033329230534799477,-0.023181236725942318,0.09670458680871308,32.08287849390507,-104.27510100388527,76.200527287817
2024-09-23 08:52:19.820259,43.12,7.785621,-0.0033329230534799477,-0.023181236725942318,0.09670458680871308,36.09446859390736,-100.26678939585686,80.21211738781929
2024-09-23 08:52:19.852836,43.12,7.785673,-0.0033329230534799477,-0.023181236725942318,0.09670458680871308,36.09446859390736,-100.26678939585686,80.21211738781929
2024-09-23 08:52:19.864105,43.12,7.785673,-0.0028354659767690416,-0.023330473146428877,0.09645586349183995,32.08287849390507,-96.25519929585457,80.21211738781929
2024-09-23 08:52:19.906020,43.12,7.785723,-0.0035318979854855937,-0.023330473146428877,0.09645586349183995,32.08287849390507,-96.25519929585457,84.22370748782159
2024-09-23 08:52:19.917549,43.12,7.785723,-0.0035318979854855937,-0.023579196463302005,0.09695331012558621,36.09446859390736,-96.25519929585457,84.22370748782159
2024-09-23 08:52:19.960912,43.12,7.785774,-0.0038801188315820256,-0.023579196463302005,0.09725178296655933,36.09446859390736,-92.24360919585227,80.21211738781929
2024-09-23 08:52:20.003859,43.12,7.785825,-0.0038801188315820256,-0.023579196463302005,0.09725178296655933,32.08287849390507,-96.25519929585457,76.200527287817
2024-09-23 08:52:20.015677,43.12,7.785825,-0.0029349636958644295,-0.023728432883788564,0.09725178296655933,32.08287849390507,-96.25519929585457,76.200527287817
2024-09-23 08:52:20.058442,43.12,7.785875,-0.0031836870127375577,-0.023728432883788564,0.09635636444363997,48.12595698684454,-96.25519929585457,80.21211738781929
2024-09-23 08:52:20.152887,43.12,7.785875,-0.0031836870127375577,-0.02362894446842532,0.09695331012558621,36.09446859390736,-96.25519929585457,80.21211738781929
2024-09-23 08:52:20.165270,43.12,7.785962,-0.0031836870127375577,-0.02362894446842532,0.09695331012558621,36.09446859390736,-96.25519929585457,80.21211738781929
2024-09-23 08:52:20.249179,42.6,7.785962,-0.0030841997366068195,-0.02338022115155219,0.09720203344245934,40.106058693909645,-96.25519929585457,80.21211738781929
2024-09-23 08:52:20.260527,42.6,7.785962,-0.0030841997366068195,-0.02338022115155219,0.09720203344245934,40.106058693909645,-104.27510100388527,80.21211738781929
2024-09-23 08:52:20.294203,42.6,7.786014,-0.002785727465249955,-0.02338022115155219,0.09720203344245934,40.106058693909645,-104.27510100388527,80.21211738781929
2024-09-23 08:52:20.306230,42.6,7.786014,-0.002785727465249955,-0.02352945757203875,0.0973015264147526,28.07457030097246,-104.27510100388527,80.21211738781929
2024-09-23 08:52:20.349114,42.6,7.786065,-0.0035816467500972456,-0.023429960042815445,0.09645586349183995,28.07457030097246,-104.27510100388527,80.21211738781929
2024-09-23 08:52:20.360683,42.6,7.786065,-0.0035816467500972456,-0.023429960042815445,0.09645586349183995,36.09446859390736,-104.27510100388527,80.21211738781929
2024-09-23 08:52:20.394752,42.6,7.786115,-0.0035816467500972456,-0.023429960042815445,0.09645586349183995,36.09446859390736,-96.25519929585457,76.200527287817
2024-09-23 08:52:20.406698,42.6,7.786115,-0.003382661564999035,-0.02412639262114825,0.09740101331113918,36.09446859390736,-96.25519929585457,76.200527287817
2024-09-23 08:52:20.440230,42.6,7.786115,-0.003382661564999035,-0.02412639262114825,0.09740101331113918,40.106058693909645,-96.25519929585457,76.200527287817
2024-09-23 08:52:20.451515,42.6,7.786208,-0.0034324103296106863,-0.023280723622328886,0.09740101331113918,40.106058693909645,-96.25519929585457,80.21211738781929
2024-09-23 08:52:20.494335,42.6,7.786306,-0.003482159473966507,-0.023280723622328886,0.09695331012558621,40.106058693909645,-100.26678939585686,76.200527287817
2024-09-23 08:52:20.536881,42.6,7.786306,-0.003482159473966507,-0.023579196463302005,0.09695331012558621,40.106058693909645,-100.26678939585686,76.200527287817
2024-09-23 08:52:20.548936,42.6,7.786401,-0.003482159473966507,-0.023579196463302005,0.09715228999426605,36.09446859390736,-100.26678939585686,76.200527287817
2024-09-23 08:52:20.591706,42.6,7.786401,-0.0030344509719951677,-0.024225890150371555,0.09720203344245934,32.08287849390507,-100.26678939585686,76.200527287817
2024-09-23 08:52:20.603721,42.6,7.786401,-0.0030344509719951677,-0.024225890150371555,0.09720203344245934,32.08287849390507,-100.26678939585686,80.21211738781929
2024-09-23 08:52:20.635459,42.6,7.786453,-0.0032831742888682963,-0.024225890150371555,0.09720203344245934,32.08287849390507,-100.26678939585686,80.21211738781929
2024-09-23 08:52:20.647165,42.6,7.786453,-0.0032831742888682963,-0.023877669304275123,0.09705279702197278,36.09446859390736,-92.24360919585227,80.21211738781929
2024-09-23 08:52:20.690032,42.6,7.786503,-0.0026862297461545674,-0.024076653729884996,0.09705279702197278,36.09446859390736,-92.24360919585227,80.21211738781929
2024-09-23 08:52:20.732254,42.6,7.786503,-0.0026862297461545674,-0.024076653729884996,0.09745075675933246,32.08287849390507,-92.24360919585227,80.21211738781929
2024-09-23 08:52:20.744239,42.6,7.786554,-0.002636491424507565,-0.024076653729884996,0.09745075675933246,32.08287849390507,-88.23529758782387,80.21211738781929
2024-09-23 08:52:20.786903,42.6,7.786554,-0.002636491424507565,-0.02362894446842532,0.09680407370509965,40.106058693909645,-104.27510100388527,80.21211738781929
2024-09-23 08:52:20.830732,42.6,7.786605,-0.002636491424507565,-0.02362894446842532,0.09680407370509965,40.106058693909645,-104.27510100388527,80.21211738781929
2024-09-23 08:52:20.841812,42.6,7.786605,-0.0031339382481259063,-0.024026904205785005,0.09690356060148622,32.08287849390507,-104.27510100388527,80.21211738781929
2024-09-23 08:52:20.884538,42.6,7.786655,-0.0032831742888682963,-0.02352945757203875,0.09690356060148622,32.08287849390507,-100.26678939585686,80.21211738781929
2024-09-23 08:52:20.896233,42.6,7.786655,-0.0032831742888682963,-0.02352945757203875,0.0973015264147526,32.08287849390507,-100.26678939585686,80.21211738781929
2024-09-23 08:52:20.929645,42.6,7.786655,-0.0032831742888682963,-0.02352945757203875,0.0973015264147526,36.09446859390736,-96.25519929585457,84.22370748782159
2024-09-23 08:52:20.941183,42.6,7.786742,-0.003482159473966507,-0.023479709566915436,0.0973015264147526,36.09446859390736,-96.25519929585457,84.22370748782159
2024-09-23 08:52:20.983713,42.6,7.786794,-0.0032831742888682963,-0.023479709566915436,0.09725178296655933,32.08287849390507,-96.25519929585457,88.23529758782387
2024-09-23 08:52:21.026562,42.6,7.786794,-0.0032831742888682963,-0.02367869399252531,0.09755024973162574,32.08287849390507,-96.25519929585457,88.23529758782387
2024-09-23 08:52:21.037913,42.6,7.786845,-0.0032831742888682963,-0.02367869399252531,0.09755024973162574,32.08287849390507,-96.25519929585457,80.21211738781929
2024-09-23 08:52:21.081139,42.6,7.786845,-0.0030344509719951677,-0.024076653729884996,0.09710254654607277,28.07457030097246,-100.26678939585686,80.21211738781929
2024-09-23 08:52:21.123240,42.6,7.786938,-0.0029847020175114316,-0.024076653729884996,0.09710254654607277,28.07457030097246,-100.26678939585686,80.21211738781929
2024-09-23 08:52:21.134446,42.6,7.786938,-0.0029847020175114316,-0.02352945757203875,0.09720203344245934,40.106058693909645,-92.24360919585227,80.21211738781929
2024-09-23 08:52:21.177730,42.6,7.786989,-0.002586742470023829,-0.024275627522658133,0.09670458680871308,32.08287849390507,-92.24360919585227,80.21211738781929
2024-09-23 08:52:21.221188,42.6,7.78704,-0.002586742470023829,-0.024275627522658133,0.09670458680871308,32.08287849390507,-96.25519929585457,80.21211738781929
2024-09-23 08:52:21.232511,42.6,7.78704,-0.0034324103296106863,-0.023728432883788564,0.09764974270391902,32.08287849390507,-96.25519929585457,80.21211738781929
2024-09-23 08:52:21.275761,42.63,7.787091,-0.002785727465249955,-0.02367869399252531,0.09764974270391902,36.09446859390736,-96.25519929585457,76.200527287817
2024-09-23 08:52:21.319359,42.63,7.787091,-0.002785727465249955,-0.02367869399252531,0.0973015264147526,40.106058693909645,-100.26678939585686,76.200527287817
2024-09-23 08:52:21.330931,42.63,7.787141,-0.003233425524256645,-0.02367869399252531,0.0973015264147526,40.106058693909645,-100.26678939585686,84.22370748782159
2024-09-23 08:52:21.373769,42.63,7.787231,-0.003233425524256645,-0.02397715620066169,0.0970030596496862,40.106058693909645,-100.26678939585686,72.1922225099802
2024-09-23 08:52:21.416204,42.63,7.787231,-0.0032831742888682963,-0.023827930413011865,0.09695331012558621,40.106058693909645,-100.26678939585686,72.1922225099802
2024-09-23 08:52:21.428354,42.63,7.787231,-0.0032831742888682963,-0.023827930413011865,0.09695331012558621,40.106058693909645,-96.25519929585457,80.21211738781929
2024-09-23 08:52:21.470949,42.63,7.787282,-0.0034324103296106863,-0.023479709566915436,0.09695331012558621,40.106058693909645,-100.26678939585686,80.21211738781929
2024-09-23 08:52:21.514213,42.63,7.787333,-0.0030841997366068195,-0.023479709566915436,0.09695331012558621,40.106058693909645,-100.26678939585686,84.22370748782159
2024-09-23 08:52:21.525829,42.63,7.787333,-0.0030841997366068195,-0.023479709566915436,0.09705279702197278,36.09446859390736,-100.26678939585686,84.22370748782159
2024-09-23 08:52:21.569324,42.63,7.787383,-0.0030344509719951677,-0.023280723622328886,0.0976994861521123,36.09446859390736,-96.25519929585457,80.21211738781929
2024-09-23 08:52:21.611794,42.63,7.787383,-0.0030344509719951677,-0.023280723622328886,0.0976994861521123,40.106058693909645,-96.25519929585457,80.21211738781929
2024-09-23 08:52:21.623747,42.63,7.787434,-0.0027359787006383035,-0.023230986250042305,0.0976994861521123,40.106058693909645,-96.25519929585457,84.22370748782159
2024-09-23 08:52:21.666656,42.63,7.787484,-0.0032831742888682963,-0.023230986250042305,0.09640611396773996,44.11764879391193,-100.26678939585686,76.200527287817
2024-09-23 08:52:21.710190,42.63,7.787484,-0.0032831742888682963,-0.023330473146428877,0.0973512698629459,40.106058693909645,-100.26678939585686,76.200527287817
2024-09-23 08:52:21.721942,42.63,7.787571,-0.0032831742888682963,-0.023330473146428877,0.0973512698629459,40.106058693909645,-104.27510100388527,76.200527287817
2024-09-23 08:52:21.754100,42.63,7.787571,-0.0034324103296106863,-0.023330473146428877,0.0973512698629459,40.106058693909645,-104.27510100388527,76.200527287817
2024-09-23 08:52:21.765671,42.63,7.787571,-0.0034324103296106863,-0.023927417309398437,0.09745075675933246,36.09446859390736,-104.27510100388527,80.21211738781929
2024-09-23 08:52:21.808218,42.63,7.787623,-0.0032831742888682963,-0.02362894446842532,0.09695331012558621,36.09446859390736,-104.27510100388527,80.21211738781929
2024-09-23 08:52:21.820302,42.63,7.787623,-0.0032831742888682963,-0.02362894446842532,0.09695331012558621,32.08287849390507,-104.27510100388527,80.21211738781929
2024-09-23 08:52:21.853059,42.63,7.787623,-0.0032831742888682963,-0.02362894446842532,0.09695331012558621,32.08287849390507,-96.25519929585457,80.21211738781929
2024-09-23 08:52:21.865122,42.63,7.787673,-0.003631395514708897,-0.02338022115155219,0.09690356060148622,32.08287849390507,-96.25519929585457,80.21211738781929
2024-09-23 08:52:21.907377,42.63,7.787724,-0.003631395514708897,-0.02338022115155219,0.09690356060148622,36.09446859390736,-80.21211738781929,84.22370748782159
2024-09-23 08:52:21.919213,42.63,7.787724,-0.0030344509719951677,-0.02367869399252531,0.09690356060148622,36.09446859390736,-80.21211738781929,84.22370748782159
2024-09-23 08:52:21.951666,42.63,7.787724,-0.0030344509719951677,-0.02367869399252531,0.09670458680871308,32.08287849390507,-80.21211738781929,84.22370748782159
2024-09-23 08:52:21.963015,42.63,7.787775,-0.003382661564999035,-0.02367869399252531,0.09670458680871308,32.08287849390507,-92.24360919585227,88.23529758782387
2024-09-23 08:52:22.005696,42.63,7.787775,-0.003382661564999035,-0.02352945757203875,0.09695331012558621,40.106058693909645,-100.26678939585686,76.200527287817
2024-09-23 08:52:22.017429,42.63,7.787825,-0.003382661564999035,-0.02352945757203875,0.09695331012558621,40.106058693909645,-100.26678939585686,76.200527287817
2024-09-23 08:52:22.048883,42.63,7.787825,-0.0036811340262279837,-0.023877669304275123,0.09695331012558621,40.106058693909645,-100.26678939585686,76.200527287817
2024-09-23 08:52:22.060420,42.63,7.787825,-0.0036811340262279837,-0.023877669304275123,0.09720203344245934,40.106058693909645,-100.26678939585686,80.21211738781929
2024-09-23 08:52:22.105347,42.63,7.787913,-0.0028852147413806935,-0.023877669304275123,0.09710254654607277,36.09446859390736,-96.25519929585457,80.21211738781929
2024-09-23 08:52:22.148641,42.63,7.787964,-0.0028852147413806935,-0.023877669304275123,0.09710254654607277,36.09446859390736,-96.25519929585457,80.21211738781929
2024-09-23 08:52:22.159670,42.63,7.787964,-0.0028852147413806935,-0.023827930413011865,0.09640611396773996,36.09446859390736,-96.25519929585457,80.21211738781929
2024-09-23 08:52:22.204408,42.63,7.788015,-0.0034324103296106863,-0.024026904205785005,0.09670458680871308,36.09446859390736,-96.25519929585457,76.200527287817
2024-09-23 08:52:22.246909,42.63,7.788066,-0.0034324103296106863,-0.024026904205785005,0.09670458680871308,48.12595698684454,-100.26678939585686,80.21211738781929
2024-09-23 08:52:22.258233,42.63,7.788066,-0.0028852147413806935,-0.024325377046758124,0.09670458680871308,48.12595698684454,-100.26678939585686,80.21211738781929
2024-09-23 08:52:22.290467,42.6,7.788066,-0.0028852147413806935,-0.024325377046758124,0.09705279702197278,48.12595698684454,-100.26678939585686,80.21211738781929
2024-09-23 08:52:22.302254,42.6,7.788117,-0.0028852147413806935,-0.024325377046758124,0.09705279702197278,36.09446859390736,-96.25519929585457,80.21211738781929
2024-09-23 08:52:22.345254,42.6,7.788117,-0.0028852147413806935,-0.023877669304275123,0.09665483728461309,28.07457030097246,-104.27510100388527,80.21211738781929
2024-09-23 08:52:22.357158,42.6,7.788205,-0.0028852147413806935,-0.023877669304275123,0.09665483728461309,28.07457030097246,-104.27510100388527,80.21211738781929
2024-09-23 08:52:22.389033,42.6,7.788205,-0.0031339382481259063,-0.023877669304275123,0.09665483728461309,28.07457030097246,-104.27510100388527,80.21211738781929
2024-09-23 08:52:22.400997,42.6,7.788205,-0.0031339382481259063,-0.023479709566915436,0.09690356060148622,32.08287849390507,-100.26678939585686,84.22370748782159
2024-09-23 08:52:22.443715,42.6,7.788256,-0.0030344509719951677,-0.023728432883788564,0.09690356060148622,32.08287849390507,-100.26678939585686,84.22370748782159
2024-09-23 08:52:22.487372,42.6,7.788256,-0.0030344509719951677,-0.023728432883788564,0.09715228999426605,36.09446859390736,-100.26678939585686,84.22370748782159
2024-09-23 08:52:22.499097,42.6,7.788307,-0.0032831742888682963,-0.023728432883788564,0.09715228999426605,36.09446859390736,-100.26678939585686,76.200527287817
2024-09-23 08:52:22.540777,42.6,7.788307,-0.0032831742888682963,-0.02362894446842532,0.0970030596496862,44.11764879391193,-104.27510100388527,72.1922225099802
2024-09-23 08:52:22.552836,42.6,7.788358,-0.0032831742888682963,-0.02362894446842532,0.0970030596496862,44.11764879391193,-104.27510100388527,72.1922225099802
2024-09-23 08:52:22.584695,42.6,7.788358,-0.0032831742888682963,-0.024225890150371555,0.0970030596496862,44.11764879391193,-104.27510100388527,72.1922225099802
2024-09-23 08:52:22.595869,42.6,7.788358,-0.0032831742888682963,-0.024225890150371555,0.09710254654607277,32.08287849390507,-104.27510100388527,76.200527287817
2024-09-23 08:52:22.638141,42.6,7.788408,-0.0030344509719951677,-0.023877669304275123,0.09750050628343246,32.08287849390507,-104.27510100388527,76.200527287817
2024-09-23 08:52:22.650037,42.6,7.788408,-0.0030344509719951677,-0.023877669304275123,0.09750050628343246,44.11764879391193,-100.26678939585686,76.200527287817
2024-09-23 08:52:22.683053,42.6,7.788459,-0.0030344509719951677,-0.023877669304275123,0.09750050628343246,44.11764879391193,-100.26678939585686,76.200527287817
2024-09-23 08:52:22.694252,42.6,7.788459,-0.003631395514708897,-0.024076653729884996,0.09720203344245934,44.11764879391193,-100.26678939585686,76.200527287817
2024-09-23 08:52:22.736816,42.6,7.788548,-0.0029847020175114316,-0.023479709566915436,0.09725178296655933,44.11764879391193,-100.26678939585686,80.21211738781929
2024-09-23 08:52:22.779575,42.6,7.788548,-0.0029847020175114316,-0.023479709566915436,0.09725178296655933,40.106058693909645,-88.23529758782387,80.21211738781929
2024-09-23 08:52:22.791511,42.6,7.788599,-0.0029847020175114316,-0.023181236725942318,0.09725178296655933,40.106058693909645,-88.23529758782387,80.21211738781929
2024-09-23 08:52:22.834243,42.6,7.788649,-0.0029847020175114316,-0.023181236725942318,0.0970030596496862,40.106058693909645,-100.26678939585686,72.1922225099802
2024-09-23 08:52:22.846236,42.6,7.788649,-0.0033329230534799477,-0.023181236725942318,0.0970030596496862,40.106058693909645,-100.26678939585686,72.1922225099802
2024-09-23 08:52:22.878137,42.6,7.788649,-0.0033329230534799477,-0.02397715620066169,0.09680407370509965,40.106058693909645,-100.26678939585686,72.1922225099802
2024-09-23 08:52:22.889148,42.6,7.788741,-0.0033329230534799477,-0.02397715620066169,0.09680407370509965,32.08287849390507,-104.27510100388527,84.22370748782159
2024-09-23 08:52:22.932575,42.6,7.788741,-0.0029847020175114316,-0.02313149783467906,0.09670458680871308,40.106058693909645,-96.25519929585457,84.22370748782159
2024-09-23 08:52:22.975366,42.6,7.788793,-0.003382661564999035,-0.02313149783467906,0.09670458680871308,40.106058693909645,-96.25519929585457,84.22370748782159
2024-09-23 08:52:22.986673,42.6,7.788793,-0.003382661564999035,-0.023778180888911878,0.09720203344245934,40.106058693909645,-100.26678939585686,84.22370748782159
2024-09-23 08:52:23.028642,42.6,7.788843,-0.0029349636958644295,-0.023728432883788564,0.09720203344245934,40.106058693909645,-100.26678939585686,80.21211738781929
2024-09-23 08:52:23.042101,42.6,7.788843,-0.0029349636958644295,-0.023728432883788564,0.09685382322919964,28.07457030097246,-100.26678939585686,80.21211738781929
2024-09-23 08:52:23.074862,42.6,7.788894,-0.0029349636958644295,-0.023728432883788564,0.09685382322919964,28.07457030097246,-96.25519929585457,80.21211738781929
2024-09-23 08:52:23.086072,42.6,7.788894,-0.0028354659767690416,-0.024026904205785005,0.09740101331113918,28.07457030097246,-96.25519929585457,80.21211738781929
2024-09-23 08:52:23.129070,42.6,7.788945,-0.0031339382481259063,-0.02352945757203875,0.09740101331113918,40.106058693909645,-96.25519929585457,80.21211738781929
2024-09-23 08:52:23.171536,42.6,7.788945,-0.0031339382481259063,-0.02352945757203875,0.09705279702197278,36.09446859390736,-96.25519929585457,80.21211738781929
2024-09-23 08:52:23.183003,42.6,7.788995,-0.003482159473966507,-0.02352945757203875,0.09705279702197278,36.09446859390736,-92.24360919585227,80.21211738781929
2024-09-23 08:52:23.217966,42.6,7.788995,-0.003482159473966507,-0.023429960042815445,0.09705279702197278,36.09446859390736,-92.24360919585227,80.21211738781929
2024-09-23 08:52:23.229054,42.6,7.789082,-0.003482159473966507,-0.023429960042815445,0.09705279702197278,36.09446859390736,-100.26678939585686,76.200527287817
2024-09-23 08:52:23.271413,42.6,7.789082,-0.0029349636958644295,-0.024225890150371555,0.0970030596496862,36.09446859390736,-100.26678939585686,76.200527287817
2024-09-23 08:52:23.282951,42.6,7.789082,-0.0029349636958644295,-0.024225890150371555,0.0970030596496862,36.09446859390736,-96.25519929585457,80.21211738781929
2024-09-23 08:52:23.316756,42.59,7.789134,-0.002785727465249955,-0.024225890150371555,0.0970030596496862,36.09446859390736,-96.25519929585457,80.21211738781929
2024-09-23 08:52:23.328685,42.59,7.789134,-0.002785727465249955,-0.023778180888911878,0.09725178296655933,36.09446859390736,-96.25519929585457,80.21211738781929
2024-09-23 08:52:23.370759,42.59,7.789185,-0.0030841997366068195,-0.02367869399252531,0.09740101331113918,36.09446859390736,-96.25519929585457,84.22370748782159
2024-09-23 08:52:23.382802,42.59,7.789185,-0.0030841997366068195,-0.02367869399252531,0.09740101331113918,40.106058693909645,-96.25519929585457,84.22370748782159
2024-09-23 08:52:23.415882,42.59,7.789235,-0.0030841997366068195,-0.02367869399252531,0.09740101331113918,40.106058693909645,-100.26678939585686,84.22370748782159
2024-09-23 08:52:23.427495,42.59,7.789235,-0.003233425524256645,-0.022982261414192504,0.09740101331113918,40.106058693909645,-100.26678939585686,84.22370748782159
2024-09-23 08:52:23.470837,42.59,7.789286,-0.002636491424507565,-0.023479709566915436,0.09740101331113918,40.106058693909645,-100.26678939585686,76.200527287817
2024-09-23 08:52:23.512720,42.59,7.789286,-0.002636491424507565,-0.023479709566915436,0.0970030596496862,36.09446859390736,-100.26678939585686,76.200527287817
2024-09-23 08:52:23.564685,42.59,7.789337,-0.002636491424507565,-0.023877669304275123,0.09645586349183995,36.09446859390736,-100.26678939585686,72.1922225099802
2024-09-23 08:52:23.576783,42.59,7.789337,-0.002636491424507565,-0.023877669304275123,0.09645586349183995,32.08287849390507,-100.26678939585686,72.1922225099802
2024-09-23 08:52:23.608827,42.59,7.789337,-0.002636491424507565,-0.023877669304275123,0.09645586349183995,32.08287849390507,-100.26678939585686,76.200527287817
2024-09-23 08:52:23.619982,42.59,7.789424,-0.0034324103296106863,-0.023579196463302005,0.09695331012558621,32.08287849390507,-100.26678939585686,76.200527287817
2024-09-23 08:52:23.663128,42.59,7.789475,-0.0032831742888682963,-0.023579196463302005,0.09695331012558621,36.09446859390736,-96.25519929585457,80.21211738781929
2024-09-23 08:52:23.675244,42.59,7.789475,-0.0032831742888682963,-0.024076653729884996,0.09695331012558621,36.09446859390736,-96.25519929585457,80.21211738781929
2024-09-23 08:52:23.708501,42.59,7.789475,-0.0032831742888682963,-0.024076653729884996,0.09685382322919964,28.07457030097246,-96.25519929585457,80.21211738781929
2024-09-23 08:52:23.720171,42.59,7.789526,-0.003631395514708897,-0.024076653729884996,0.09685382322919964,28.07457030097246,-96.25519929585457,80.21211738781929
2024-09-23 08:52:23.762161,42.59,7.789577,-0.003631395514708897,-0.02338022115155219,0.09725178296655933,36.09446859390736,-100.26678939585686,76.200527287817
2024-09-23 08:52:23.804622,42.59,7.789577,-0.0031836870127375577,-0.02338022115155219,0.0973512698629459,36.09446859390736,-100.26678939585686,76.200527287817
2024-09-23 08:52:23.817880,42.59,7.789577,-0.0031836870127375577,-0.02338022115155219,0.0973512698629459,32.08287849390507,-96.25519929585457,80.21211738781929
2024-09-23 08:52:23.861185,42.59,7.789668,-0.0029847020175114316,-0.023728432883788564,0.0970030596496862,36.09446859390736,-100.26678939585686,80.21211738781929
2024-09-23 08:52:23.903963,42.59,7.789719,-0.003382661564999035,-0.023728432883788564,0.0970030596496862,36.09446859390736,-100.26678939585686,80.21211738781929
2024-09-23 08:52:23.915601,42.59,7.789719,-0.003382661564999035,-0.023728432883788564,0.09680407370509965,40.106058693909645,-100.26678939585686,80.21211738781929
2024-09-23 08:52:23.948546,42.59,7.789719,-0.003382661564999035,-0.023728432883788564,0.09680407370509965,40.106058693909645,-100.26678939585686,80.21211738781929
2024-09-23 08:52:23.960547,42.59,7.78977,-0.0030841997366068195,-0.023927417309398437,0.09705279702197278,40.106058693909645,-100.26678939585686,80.21211738781929
2024-09-23 08:52:24.002338,42.59,7.789821,-0.0030841997366068195,-0.023927417309398437,0.09705279702197278,44.11764879391193,-96.25519929585457,88.23529758782387
2024-09-23 08:52:24.013324,42.59,7.789821,-0.0033329230534799477,-0.023579196463302005,0.09705279702197278,44.11764879391193,-96.25519929585457,88.23529758782387
2024-09-23 08:52:24.045630,42.59,7.789821,-0.0033329230534799477,-0.023579196463302005,0.09715228999426605,44.11764879391193,-96.25519929585457,88.23529758782387
2024-09-23 08:52:24.057955,42.59,7.789871,-0.0033329230534799477,-0.023579196463302005,0.09715228999426605,36.09446859390736,-100.26678939585686,84.22370748782159
2024-09-23 08:52:24.100317,42.59,7.789871,-0.0033329230534799477,-0.023927417309398437,0.09715228999426605,36.09446859390736,-100.26678939585686,84.22370748782159
2024-09-23 08:52:24.152753,42.59,7.78996,-0.0033329230534799477,-0.023927417309398437,0.09685382322919964,36.09446859390736,-96.25519929585457,76.200527287817
2024-09-23 08:52:24.195832,42.59,7.78996,-0.0028852147413806935,-0.02367869399252531,0.09695331012558621,36.09446859390736,-96.25519929585457,76.200527287817
2024-09-23 08:52:24.207352,42.59,7.78996,-0.0028852147413806935,-0.02367869399252531,0.09695331012558621,40.106058693909645,-96.25519929585457,80.21211738781929
2024-09-23 08:52:24.250033,42.59,7.790012,-0.0032831742888682963,-0.023280723622328886,0.09725178296655933,28.07457030097246,-96.25519929585457,80.21211738781929
2024-09-23 08:52:24.291870,42.59,7.790062,-0.0032831742888682963,-0.023280723622328886,0.09725178296655933,28.07457030097246,-96.25519929585457,80.21211738781929
2024-09-23 08:52:24.303939,42.59,7.790062,-0.0034324103296106863,-0.023827930413011865,0.09715228999426605,48.12595698684454,-96.25519929585457,80.21211738781929
2024-09-23 08:52:24.346655,42.47,7.790113,-0.0027359787006383035,-0.023827930413011865,0.09715228999426605,48.12595698684454,-92.24360919585227,80.21211738781929
2024-09-23 08:52:24.358112,42.47,7.790113,-0.0027359787006383035,-0.023827930413011865,0.09720203344245934,48.12595698684454,-92.24360919585227,80.21211738781929
2024-09-23 08:52:24.391058,42.47,7.790113,-0.0027359787006383035,-0.023827930413011865,0.09720203344245934,44.11764879391193,-92.24360919585227,80.21211738781929
2024-09-23 08:52:24.402140,42.47,7.790205,-0.0034324103296106863,-0.024026904205785005,0.09720203344245934,44.11764879391193,-92.24360919585227,80.21211738781929
2024-09-23 08:52:24.444883,42.47,7.790256,-0.0028354659767690416,-0.024026904205785005,0.09720203344245934,32.08287849390507,-100.26678939585686,76.200527287817
2024-09-23 08:52:24.488248,42.47,7.790256,-0.0028354659767690416,-0.023877669304275123,0.09670458680871308,36.09446859390736,-100.26678939585686,76.200527287817
2024-09-23 08:52:24.499780,42.47,7.79035,-0.0028354659767690416,-0.023877669304275123,0.09670458680871308,36.09446859390736,-92.24360919585227,80.21211738781929
2024-09-23 08:52:24.542307,42.47,7.79035,-0.0032831742888682963,-0.02338022115155219,0.09720203344245934,40.106058693909645,-92.24360919585227,80.21211738781929
2024-09-23 08:52:24.585412,42.47,7.790402,-0.002785727465249955,-0.02338022115155219,0.09720203344245934,40.106058693909645,-92.24360919585227,80.21211738781929
2024-09-23 08:52:24.597371,42.47,7.790402,-0.002785727465249955,-0.02367869399252531,0.09645586349183995,28.07457030097246,-104.27510100388527,80.21211738781929
2024-09-23 08:52:24.640290,42.47,7.790452,-0.0030344509719951677,-0.023827930413011865,0.09705279702197278,32.08287849390507,-104.27510100388527,80.21211738781929
2024-09-23 08:52:24.683138,42.47,7.790503,-0.0030344509719951677,-0.023827930413011865,0.09705279702197278,32.08287849390507,-92.24360919585227,80.21211738781929
2024-09-23 08:52:24.694895,42.47,7.790503,-0.003233425524256645,-0.02397715620066169,0.09675432418099966,32.08287849390507,-92.24360919585227,80.21211738781929
2024-09-23 08:52:24.738274,42.47,7.790554,-0.0038801188315820256,-0.023330473146428877,0.09675432418099966,32.08287849390507,-104.27510100388527,80.21211738781929
2024-09-23 08:52:24.780611,42.47,7.790554,-0.0038801188315820256,-0.023330473146428877,0.09720203344245934,36.09446859390736,-104.27510100388527,80.21211738781929
2024-09-23 08:52:24.792052,42.47,7.790604,-0.0034324103296106863,-0.023330473146428877,0.09720203344245934,36.09446859390736,-104.27510100388527,80.21211738781929
2024-09-23 08:52:24.835318,42.47,7.790691,-0.0034324103296106863,-0.02352945757203875,0.09655535038822652,36.09446859390736,-100.26678939585686,76.200527287817
2024-09-23 08:52:24.877359,42.47,7.790691,-0.0029847020175114316,-0.024026904205785005,0.09655535038822652,36.09446859390736,-100.26678939585686,76.200527287817
2024-09-23 08:52:24.889102,42.47,7.790691,-0.0029847020175114316,-0.024026904205785005,0.09710254654607277,44.11764879391193,-100.26678939585686,76.200527287817
2024-09-23 08:52:24.932686,42.47,7.790743,-0.0033329230534799477,-0.02412639262114825,0.09715228999426605,40.106058693909645,-104.27510100388527,76.200527287817
2024-09-23 08:52:24.975419,42.47,7.790794,-0.0033329230534799477,-0.02412639262114825,0.09715228999426605,40.106058693909645,-104.27510100388527,80.21211738781929
2024-09-23 08:52:24.987236,42.47,7.790794,-0.003780631555451287,-0.024225890150371555,0.0973512698629459,40.106058693909645,-104.27510100388527,80.21211738781929
2024-09-23 08:52:25.031160,42.47,7.790844,-0.0032831742888682963,-0.02397715620066169,0.09675432418099966,40.106058693909645,-100.26678939585686,76.200527287817
2024-09-23 08:52:25.073690,42.47,7.790844,-0.0032831742888682963,-0.02397715620066169,0.09675432418099966,40.106058693909645,-96.25519929585457,80.21211738781929
2024-09-23 08:52:25.085949,42.47,7.790895,-0.0035318979854855937,-0.02338022115155219,0.09675432418099966,40.106058693909645,-96.25519929585457,80.21211738781929
2024-09-23 08:52:25.118744,42.47,7.790895,-0.0035318979854855937,-0.02338022115155219,0.09685382322919964,40.106058693909645,-96.25519929585457,80.21211738781929
2024-09-23 08:52:25.130095,42.47,7.790945,-0.0029349636958644295,-0.02338022115155219,0.09685382322919964,40.106058693909645,-108.28669110388756,84.22370748782159
2024-09-23 08:52:25.172221,42.47,7.790945,-0.0029349636958644295,-0.02362894446842532,0.09680407370509965,32.08287849390507,-96.25519929585457,84.22370748782159
2024-09-23 08:52:25.183996,42.47,7.791033,-0.0029349636958644295,-0.02362894446842532,0.09680407370509965,32.08287849390507,-96.25519929585457,68.18063240997792
2024-09-23 08:52:25.219082,42.47,7.791033,-0.0033329230534799477,-0.02397715620066169,0.09680407370509965,32.08287849390507,-96.25519929585457,68.18063240997792
2024-09-23 08:52:25.230814,42.47,7.791033,-0.0033329230534799477,-0.02397715620066169,0.0966050877605131,44.11764879391193,-108.28669110388756,76.200527287817
2024-09-23 08:52:25.273391,42.47,7.791085,-0.003482159473966507,-0.02352945757203875,0.0970030596496862,48.12595698684454,-100.26678939585686,76.200527287817
2024-09-23 08:52:25.315386,42.47,7.791135,-0.003482159473966507,-0.02352945757203875,0.0970030596496862,48.12595698684454,-100.26678939585686,76.200527287817
2024-09-23 08:52:25.327049,42.47,7.791135,-0.002785727465249955,-0.02367869399252531,0.09685382322919964,32.08287849390507,-100.26678939585686,76.200527287817
2024-09-23 08:52:25.370908,42.37,7.791186,-0.0030344509719951677,-0.023429960042815445,0.0973512698629459,32.08287849390507,-100.26678939585686,76.200527287817
2024-09-23 08:52:25.413018,42.37,7.791186,-0.0030344509719951677,-0.023429960042815445,0.0973512698629459,40.106058693909645,-104.27510100388527,76.200527287817
2024-09-23 08:52:25.425008,42.37,7.791237,-0.0034324103296106863,-0.023479709566915436,0.0973512698629459,40.106058693909645,-104.27510100388527,76.200527287817
2024-09-23 08:52:25.468509,42.37,7.791287,-0.0031836870127375577,-0.023479709566915436,0.09779897304849887,36.09446859390736,-100.26678939585686,80.21211738781929
2024-09-23 08:52:25.510625,42.37,7.791287,-0.0031836870127375577,-0.024176140626271565,0.09655535038822652,36.09446859390736,-100.26678939585686,80.21211738781929
2024-09-23 08:52:25.521626,42.37,7.791374,-0.0031836870127375577,-0.024176140626271565,0.09655535038822652,32.08287849390507,-88.23529758782387,80.21211738781929
2024-09-23 08:52:25.565644,42.37,7.791374,-0.0031339382481259063,-0.02338022115155219,0.09710254654607277,40.106058693909645,-96.25519929585457,80.21211738781929
2024-09-23 08:52:25.577310,42.37,7.791374,-0.0031339382481259063,-0.02338022115155219,0.09710254654607277,40.106058693909645,-96.25519929585457,80.21211738781929
2024-09-23 08:52:25.610149,42.37,7.791425,-0.0031339382481259063,-0.02412639262114825,0.09710254654607277,40.106058693909645,-96.25519929585457,80.21211738781929
2024-09-23 08:52:25.621685,42.37,7.791425,-0.0031339382481259063,-0.02412639262114825,0.0966050877605131,44.11764879391193,-96.25519929585457,80.21211738781929
2024-09-23 08:52:25.664121,42.37,7.791476,-0.0033329230534799477,-0.02362894446842532,0.0970030596496862,36.09446859390736,-96.25519929585457,80.21211738781929
2024-09-23 08:52:25.706579,42.37,7.791527,-0.0033329230534799477,-0.02362894446842532,0.0970030596496862,36.09446859390736,-104.27510100388527,76.200527287817
2024-09-23 08:52:25.718490,42.37,7.791527,-0.0031339382481259063,-0.02367869399252531,0.09750050628343246,36.09446859390736,-104.27510100388527,76.200527287817
2024-09-23 08:52:25.761016,42.37,7.791577,-0.0034324103296106863,-0.02352945757203875,0.09750050628343246,32.08287849390507,-96.25519929585457,80.21211738781929
2024-09-23 08:52:25.803763,42.37,7.791577,-0.0034324103296106863,-0.02352945757203875,0.09715228999426605,36.09446859390736,-96.25519929585457,80.21211738781929
2024-09-23 08:52:25.814802,42.37,7.791628,-0.0028354659767690416,-0.02352945757203875,0.09715228999426605,36.09446859390736,-96.25519929585457,80.21211738781929
2024-09-23 08:52:25.857753,42.37,7.791715,-0.0028354659767690416,-0.02362894446842532,0.09680407370509965,28.07457030097246,-112.29828120388984,72.1922225099802
2024-09-23 08:52:25.900046,42.37,7.791715,-0.0034324103296106863,-0.023927417309398437,0.09680407370509965,28.07457030097246,-112.29828120388984,72.1922225099802
2024-09-23 08:52:25.911582,42.37,7.791715,-0.0034324103296106863,-0.023927417309398437,0.09685382322919964,24.06297849342227,-88.23529758782387,88.23529758782387
2024-09-23 08:52:25.953201,42.37,7.791767,-0.0030841997366068195,-0.02352945757203875,0.09755024973162574,32.08287849390507,-88.23529758782387,88.23529758782387
2024-09-23 08:52:25.965289,42.37,7.791767,-0.0030841997366068195,-0.02352945757203875,0.09755024973162574,32.08287849390507,-88.23529758782387,88.23529758782387
2024-09-23 08:52:25.997419,42.37,7.791817,-0.0030841997366068195,-0.02352945757203875,0.09755024973162574,32.08287849390507,-88.23529758782387,80.21211738781929
2024-09-23 08:52:26.009047,42.37,7.791817,-0.0030344509719951677,-0.02397715620066169,0.09720203344245934,40.106058693909645,-88.23529758782387,80.21211738781929
2024-09-23 08:52:26.051951,42.37,7.791868,-0.003482159473966507,-0.023877669304275123,0.09720203344245934,40.106058693909645,-100.26678939585686,80.21211738781929
2024-09-23 08:52:26.063625,42.37,7.791868,-0.003482159473966507,-0.023877669304275123,0.09665483728461309,40.106058693909645,-100.26678939585686,80.21211738781929
2024-09-23 08:52:26.095572,42.37,7.791868,-0.003482159473966507,-0.023877669304275123,0.09665483728461309,32.08287849390507,-100.26678939585686,80.21211738781929
2024-09-23 08:52:26.107200,42.37,7.791919,-0.002785727465249955,-0.02367869399252531,0.09665483728461309,32.08287849390507,-100.26678939585686,88.23529758782387
2024-09-23 08:52:26.150174,42.37,7.791969,-0.0029847020175114316,-0.02367869399252531,0.09705279702197278,32.08287849390507,-96.25519929585457,84.22370748782159
2024-09-23 08:52:26.192807,42.37,7.791969,-0.0029847020175114316,-0.023479709566915436,0.09680407370509965,32.08287849390507,-96.25519929585457,84.22370748782159
2024-09-23 08:52:26.204998,42.37,7.792056,-0.0029847020175114316,-0.023479709566915436,0.09680407370509965,40.106058693909645,-96.25519929585457,88.23529758782387
2024-09-23 08:52:26.248504,42.37,7.792056,-0.003929857343101113,-0.024026904205785005,0.0970030596496862,40.106058693909645,-96.25519929585457,76.200527287817
2024-09-23 08:52:26.291080,42.37,7.792108,-0.0028354659767690416,-0.023579196463302005,0.0970030596496862,40.106058693909645,-96.25519929585457,76.200527287817
2024-09-23 08:52:26.303303,42.37,7.792108,-0.0028354659767690416,-0.023579196463302005,0.09710254654607277,40.106058693909645,-100.26678939585686,76.200527287817
2024-09-23 08:52:26.346112,42.37,7.792158,-0.0033329230534799477,-0.023479709566915436,0.09675432418099966,44.11764879391193,-100.26678939585686,80.21211738781929
2024-09-23 08:52:26.388742,42.3,7.792158,-0.0033329230534799477,-0.023479709566915436,0.09675432418099966,44.11764879391193,-100.26678939585686,76.200527287817
2024-09-23 08:52:26.400479,42.3,7.792209,-0.0031836870127375577,-0.02397715620066169,0.09695331012558621,44.11764879391193,-100.26678939585686,76.200527287817
2024-09-23 08:52:26.442618,42.3,7.79226,-0.0035318979854855937,-0.02397715620066169,0.09695331012558621,44.11764879391193,-100.26678939585686,80.21211738781929
2024-09-23 08:52:26.485738,42.3,7.79226,-0.0035318979854855937,-0.02397715620066169,0.09665483728461309,28.07457030097246,-100.26678939585686,80.21211738781929
2024-09-23 08:52:26.497548,42.3,7.79231,-0.003482159473966507,-0.02397715620066169,0.09665483728461309,28.07457030097246,-96.25519929585457,80.21211738781929
2024-09-23 08:52:26.540391,42.3,7.79231,-0.003482159473966507,-0.024026904205785005,0.09720203344245934,36.09446859390736,-100.26678939585686,84.22370748782159
2024-09-23 08:52:26.551936,42.3,7.792398,-0.003482159473966507,-0.024026904205785005,0.09720203344245934,36.09446859390736,-100.26678939585686,84.22370748782159
2024-09-23 08:52:26.584905,42.3,7.792398,-0.0034324103296106863,-0.023479709566915436,0.0970030596496862,36.09446859390736,-100.26678939585686,84.22370748782159
2024-09-23 08:52:26.596119,42.3,7.792398,-0.0034324103296106863,-0.023479709566915436,0.0970030596496862,40.106058693909645,-108.28669110388756,88.23529758782387
2024-09-23 08:52:26.638029,42.3,7.792449,-0.003482159473966507,-0.023579196463302005,0.09725178296655933,44.11764879391193,-100.26678939585686,88.23529758782387
2024-09-23 08:52:26.681315,42.3,7.7925,-0.003482159473966507,-0.023579196463302005,0.09725178296655933,44.11764879391193,-100.26678939585686,72.1922225099802
2024-09-23 08:52:26.693948,42.3,7.7925,-0.0031339382481259063,-0.024275627522658133,0.09740101331113918,40.106058693909645,-100.26678939585686,72.1922225099802
2024-09-23 08:52:26.736941,42.3,7.79255,-0.0033329230534799477,-0.0228827638849692,0.09705279702197278,40.106058693909645,-104.27510100388527,76.200527287817
2024-09-23 08:52:26.779265,42.3,7.79255,-0.0033329230534799477,-0.0228827638849692,0.09705279702197278,36.09446859390736,-100.26678939585686,80.21211738781929
2024-09-23 08:52:26.790384,42.3,7.792601,-0.0038303700669703737,-0.02338022115155219,0.09705279702197278,36.09446859390736,-100.26678939585686,80.21211738781929
2024-09-23 08:52:26.832781,42.3,7.792652,-0.0028852147413806935,-0.02338022115155219,0.09720203344245934,32.08287849390507,-96.25519929585457,80.21211738781929
2024-09-23 08:52:26.874908,42.3,7.792652,-0.0028852147413806935,-0.023827930413011865,0.0970030596496862,32.08287849390507,-96.25519929585457,80.21211738781929
2024-09-23 08:52:26.886433,42.3,7.792739,-0.0028852147413806935,-0.023827930413011865,0.0970030596496862,36.09446859390736,-100.26678939585686,84.22370748782159
2024-09-23 08:52:26.928431,42.3,7.792739,-0.0031836870127375577,-0.023429960042815445,0.0966050877605131,40.106058693909645,-100.26678939585686,84.22370748782159
2024-09-23 08:52:26.940496,42.3,7.792739,-0.0031836870127375577,-0.023429960042815445,0.0966050877605131,40.106058693909645,-100.26678939585686,84.22370748782159
2024-09-23 08:52:26.972765,42.3,7.79279,-0.0033329230534799477,-0.023429960042815445,0.0966050877605131,40.106058693909645,-100.26678939585686,84.22370748782159
2024-09-23 08:52:26.983972,42.3,7.79279,-0.0033329230534799477,-0.024176140626271565,0.09710254654607277,36.09446859390736,-96.25519929585457,84.22370748782159
2024-09-23 08:52:27.026565,42.3,7.792841,-0.003233425524256645,-0.024026904205785005,0.09665483728461309,36.09446859390736,-96.25519929585457,80.21211738781929
2024-09-23 08:52:27.038203,42.3,7.792841,-0.003233425524256645,-0.024026904205785005,0.09665483728461309,36.09446859390736,-96.25519929585457,80.21211738781929
2024-09-23 08:52:27.070760,42.3,7.792841,-0.003233425524256645,-0.024026904205785005,0.09665483728461309,36.09446859390736,-100.26678939585686,80.21211738781929
2024-09-23 08:52:27.081978,42.3,7.792892,-0.0025369937054121774,-0.023827930413011865,0.09745075675933246,36.09446859390736,-100.26678939585686,80.21211738781929
2024-09-23 08:52:27.124615,42.3,7.792942,-0.003382661564999035,-0.023877669304275123,0.09745075675933246,44.11764879391193,-92.24360919585227,84.22370748782159
2024-09-23 08:52:27.167530,42.3,7.792942,-0.003382661564999035,-0.023877669304275123,0.09705279702197278,36.09446859390736,-92.24360919585227,84.22370748782159
2024-09-23 08:52:27.179087,42.3,7.792993,-0.003482159473966507,-0.023877669304275123,0.09705279702197278,36.09446859390736,-100.26678939585686,76.200527287817
2024-09-23 08:52:27.221954,42.3,7.792993,-0.003482159473966507,-0.023827930413011865,0.09690356060148622,40.106058693909645,-92.24360919585227,76.200527287817
2024-09-23 08:52:27.233686,42.3,7.79308,-0.003482159473966507,-0.023827930413011865,0.09690356060148622,40.106058693909645,-92.24360919585227,76.200527287817
2024-09-23 08:52:27.265875,42.3,7.79308,-0.003382661564999035,-0.02362894446842532,0.09690356060148622,40.106058693909645,-92.24360919585227,76.200527287817
2024-09-23 08:52:27.277381,42.3,7.79308,-0.003382661564999035,-0.02362894446842532,0.09710254654607277,36.09446859390736,-100.26678939585686,76.200527287817
2024-09-23 08:52:27.321651,42.3,7.793132,-0.003780631555451287,-0.023728432883788564,0.0973512698629459,36.09446859390736,-96.25519929585457,76.200527287817
2024-09-23 08:52:27.364517,42.3,7.793182,-0.0028852147413806935,-0.023728432883788564,0.0973512698629459,36.09446859390736,-96.25519929585457,84.22370748782159
2024-09-23 08:52:27.375981,42.3,7.793182,-0.0028852147413806935,-0.02338022115155219,0.09670458680871308,40.106058693909645,-96.25519929585457,84.22370748782159
2024-09-23 08:52:27.418491,42.37,7.793233,-0.0030841997366068195,-0.023778180888911878,0.09710254654607277,40.106058693909645,-96.25519929585457,84.22370748782159
2024-09-23 08:52:27.461806,42.37,7.793233,-0.0030841997366068195,-0.023778180888911878,0.09710254654607277,44.11764879391193,-96.25519929585457,84.22370748782159
2024-09-23 08:52:27.473422,42.37,7.793283,-0.0030841997366068195,-0.02352945757203875,0.09710254654607277,44.11764879391193,-96.25519929585457,84.22370748782159
2024-09-23 08:52:27.516146,42.37,7.793334,-0.0031836870127375577,-0.02352945757203875,0.09755024973162574,32.08287849390507,-96.25519929585457,84.22370748782159
2024-09-23 08:52:27.558770,42.37,7.793334,-0.0031836870127375577,-0.023280723622328886,0.09750050628343246,32.08287849390507,-96.25519929585457,84.22370748782159
2024-09-23 08:52:27.571046,42.37,7.793421,-0.0031836870127375577,-0.023280723622328886,0.09750050628343246,32.08287849390507,-100.26678939585686,76.200527287817
2024-09-23 08:52:27.614349,42.37,7.793421,-0.0033329230534799477,-0.023479709566915436,0.09705279702197278,36.09446859390736,-96.25519929585457,84.22370748782159
2024-09-23 08:52:27.656670,42.37,7.793473,-0.0032831742888682963,-0.023927417309398437,0.09705279702197278,36.09446859390736,-96.25519929585457,84.22370748782159
2024-09-23 08:52:27.668355,42.37,7.793473,-0.0032831742888682963,-0.023927417309398437,0.09645586349183995,40.106058693909645,-96.25519929585457,84.22370748782159
2024-09-23 08:52:27.711333,42.37,7.793524,-0.0029349636958644295,-0.024076653729884996,0.09670458680871308,36.09446859390736,-96.25519929585457,80.21211738781929
2024-09-23 08:52:27.753774,42.37,7.793574,-0.0029349636958644295,-0.024076653729884996,0.09670458680871308,36.09446859390736,-100.26678939585686,84.22370748782159
2024-09-23 08:52:27.765193,42.37,7.793574,-0.0030841997366068195,-0.02338022115155219,0.09720203344245934,36.09446859390736,-100.26678939585686,84.22370748782159
2024-09-23 08:52:27.807151,42.37,7.793625,-0.0032831742888682963,-0.02338022115155219,0.09720203344245934,32.08287849390507,-100.26678939585686,84.22370748782159
2024-09-23 08:52:27.819732,42.37,7.793625,-0.0032831742888682963,-0.02352945757203875,0.09720203344245934,32.08287849390507,-100.26678939585686,84.22370748782159
2024-09-23 08:52:27.852169,42.37,7.793625,-0.0032831742888682963,-0.02352945757203875,0.09670458680871308,44.11764879391193,-96.25519929585457,84.22370748782159
2024-09-23 08:52:27.863368,42.37,7.793676,-0.0032831742888682963,-0.02352945757203875,0.09670458680871308,44.11764879391193,-96.25519929585457,80.21211738781929
2024-09-23 08:52:27.905928,42.37,7.793762,-0.0032831742888682963,-0.023429960042815445,0.09690356060148622,36.09446859390736,-100.26678939585686,80.21211738781929
2024-09-23 08:52:27.948521,42.37,7.793762,-0.0031836870127375577,-0.02352945757203875,0.09710254654607277,36.09446859390736,-100.26678939585686,80.21211738781929
2024-09-23 08:52:27.960773,42.37,7.793762,-0.0031836870127375577,-0.02352945757203875,0.09710254654607277,40.106058693909645,-96.25519929585457,76.200527287817
2024-09-23 08:52:28.003630,42.37,7.793814,-0.0035318979854855937,-0.02362894446842532,0.09685382322919964,40.106058693909645,-100.26678939585686,76.200527287817
2024-09-23 08:52:28.045405,42.37,7.793865,-0.0035318979854855937,-0.02362894446842532,0.09685382322919964,40.106058693909645,-100.26678939585686,76.200527287817
2024-09-23 08:52:28.057065,42.37,7.793865,-0.003631395514708897,-0.023181236725942318,0.09695331012558621,36.09446859390736,-100.26678939585686,76.200527287817
2024-09-23 08:52:28.099545,42.37,7.793915,-0.0035816467500972456,-0.024076653729884996,0.09695331012558621,36.09446859390736,-96.25519929585457,80.21211738781929
2024-09-23 08:52:28.111182,42.37,7.793915,-0.0035816467500972456,-0.024076653729884996,0.09725178296655933,36.09446859390736,-96.25519929585457,80.21211738781929
2024-09-23 08:52:28.142878,42.37,7.793915,-0.0035816467500972456,-0.024076653729884996,0.09725178296655933,36.09446859390736,-96.25519929585457,80.21211738781929
2024-09-23 08:52:28.154238,42.37,7.793966,-0.0033329230534799477,-0.02352945757203875,0.09725178296655933,36.09446859390736,-96.25519929585457,80.21211738781929
2024-09-23 08:52:28.197419,42.37,7.794017,-0.003482159473966507,-0.02352945757203875,0.0973015264147526,44.11764879391193,-92.24360919585227,76.200527287817
2024-09-23 08:52:28.240128,42.37,7.794017,-0.003482159473966507,-0.02362894446842532,0.09750050628343246,44.11764879391193,-92.24360919585227,76.200527287817
2024-09-23 08:52:28.251386,42.37,7.794104,-0.003482159473966507,-0.02362894446842532,0.09750050628343246,44.11764879391193,-96.25519929585457,80.21211738781929
2024-09-23 08:52:28.294159,42.37,7.794104,-0.003233425524256645,-0.02367869399252531,0.09665483728461309,40.106058693909645,-108.28669110388756,80.21211738781929
2024-09-23 08:52:28.305958,42.37,7.794104,-0.003233425524256645,-0.02367869399252531,0.09665483728461309,40.106058693909645,-108.28669110388756,64.16903547978401
2024-09-23 08:52:28.339424,42.37,7.794155,-0.0036811340262279837,-0.023579196463302005,0.09665483728461309,40.106058693909645,-108.28669110388756,64.16903547978401
2024-09-23 08:52:28.350423,42.37,7.794155,-0.0036811340262279837,-0.023579196463302005,0.0973015264147526,36.09446859390736,-96.25519929585457,64.16903547978401
2024-09-23 08:52:28.393409,42.37,7.794206,-0.0035816467500972456,-0.02362894446842532,0.0970030596496862,36.09446859390736,-96.25519929585457,68.18063240997792
2024-09-23 08:52:28.436522,42.1,7.794257,-0.0035816467500972456,-0.02362894446842532,0.0970030596496862,36.09446859390736,-96.25519929585457,76.200527287817
2024-09-23 08:52:28.449406,42.1,7.794257,-0.003233425524256645,-0.023827930413011865,0.09675432418099966,36.09446859390736,-96.25519929585457,76.200527287817
2024-09-23 08:52:28.481776,42.1,7.794257,-0.003233425524256645,-0.023827930413011865,0.09675432418099966,40.106058693909645,-96.25519929585457,76.200527287817
2024-09-23 08:52:28.492852,42.1,7.794308,-0.003631395514708897,-0.02338022115155219,0.09675432418099966,40.106058693909645,-104.27510100388527,80.21211738781929
2024-09-23 08:52:28.536140,42.1,7.794308,-0.003631395514708897,-0.02338022115155219,0.09759999317981902,48.12595698684454,-100.26678939585686,72.1922225099802
2024-09-23 08:52:28.547972,42.1,7.794358,-0.002785727465249955,-0.02338022115155219,0.09759999317981902,48.12595698684454,-100.26678939585686,72.1922225099802
2024-09-23 08:52:28.580851,42.1,7.794358,-0.002785727465249955,-0.024076653729884996,0.09759999317981902,48.12595698684454,-100.26678939585686,72.1922225099802
2024-09-23 08:52:28.592482,42.1,7.794445,-0.002785727465249955,-0.024076653729884996,0.09670458680871308,28.07457030097246,-92.24360919585227,76.200527287817
2024-09-23 08:52:28.634569,42.1,7.794445,-0.0033329230534799477,-0.023728432883788564,0.09750050628343246,28.07457030097246,-92.24360919585227,76.200527287817
2024-09-23 08:52:28.645638,42.1,7.794445,-0.0033329230534799477,-0.023728432883788564,0.09750050628343246,28.07457030097246,-96.25519929585457,80.21211738781929
2024-09-23 08:52:28.679226,42.1,7.794497,-0.0031339382481259063,-0.023728432883788564,0.09750050628343246,28.07457030097246,-96.25519929585457,80.21211738781929
2024-09-23 08:52:28.691087,42.1,7.794497,-0.0031339382481259063,-0.02367869399252531,0.09665483728461309,36.09446859390736,-92.24360919585227,80.21211738781929
2024-09-23 08:52:28.734141,42.1,7.794547,-0.0032831742888682963,-0.024026904205785005,0.09675432418099966,32.08287849390507,-92.24360919585227,76.200527287817
2024-09-23 08:52:28.776163,42.1,7.794547,-0.0032831742888682963,-0.024026904205785005,0.09675432418099966,32.08287849390507,-96.25519929585457,80.21211738781929
2024-09-23 08:52:28.787806,42.1,7.794598,-0.0031836870127375577,-0.024225890150371555,0.0973512698629459,32.08287849390507,-96.25519929585457,80.21211738781929
2024-09-23 08:52:28.831134,42.1,7.794649,-0.003631395514708897,-0.024026904205785005,0.0973512698629459,32.08287849390507,-100.26678939585686,76.200527287817
2024-09-23 08:52:28.873695,42.1,7.794649,-0.003631395514708897,-0.024026904205785005,0.09690356060148622,40.106058693909645,-100.26678939585686,76.200527287817
2024-09-23 08:52:28.885380,42.1,7.794699,-0.0036811340262279837,-0.024026904205785005,0.09690356060148622,40.106058693909645,-92.24360919585227,72.1922225099802
2024-09-23 08:52:28.928276,42.1,7.794786,-0.0036811340262279837,-0.023330473146428877,0.09675432418099966,28.07457030097246,-96.25519929585457,80.21211738781929
2024-09-23 08:52:28.971272,42.1,7.794786,-0.0029847020175114316,-0.02362894446842532,0.09675432418099966,28.07457030097246,-96.25519929585457,80.21211738781929
2024-09-23 08:52:28.982910,42.1,7.794786,-0.0029847020175114316,-0.02362894446842532,0.09705279702197278,32.08287849390507,-108.28669110388756,84.22370748782159
2024-09-23 08:52:29.025857,42.1,7.794838,-0.002785727465249955,-0.023778180888911878,0.0970030596496862,36.09446859390736,-100.26678939585686,84.22370748782159
2024-09-23 08:52:29.068362,42.1,7.794888,-0.002785727465249955,-0.023778180888911878,0.0970030596496862,36.09446859390736,-100.26678939585686,84.22370748782159
2024-09-23 08:52:29.080128,42.1,7.794888,-0.0027359787006383035,-0.023927417309398437,0.09740101331113918,44.11764879391193,-100.26678939585686,84.22370748782159
2024-09-23 08:52:29.122590,42.1,7.794939,-0.0032831742888682963,-0.023579196463302005,0.09740101331113918,44.11764879391193,-104.27510100388527,80.21211738781929
2024-09-23 08:52:29.134370,42.1,7.794939,-0.0032831742888682963,-0.023579196463302005,0.09740101331113918,44.11764879391193,-104.27510100388527,80.21211738781929
2024-09-23 08:52:29.166063,42.1,7.794939,-0.0032831742888682963,-0.023579196463302005,0.09740101331113918,24.06297849342227,-96.25519929585457,80.21211738781929
2024-09-23 08:52:29.177456,42.1,7.79499,-0.003382661564999035,-0.02362894446842532,0.09740101331113918,24.06297849342227,-96.25519929585457,80.21211738781929
2024-09-23 08:52:29.220851,42.1,7.79504,-0.0033329230534799477,-0.02362894446842532,0.09685382322919964,36.09446859390736,-96.25519929585457,80.21211738781929
2024-09-23 08:52:29.263774,42.1,7.79504,-0.0033329230534799477,-0.023429960042815445,0.09690356060148622,36.09446859390736,-96.25519929585457,80.21211738781929
2024-09-23 08:52:29.275041,42.1,7.795128,-0.0033329230534799477,-0.023429960042815445,0.09690356060148622,40.106058693909645,-96.25519929585457,76.200527287817
2024-09-23 08:52:29.316730,42.1,7.795128,-0.002636491424507565,-0.023927417309398437,0.09715228999426605,32.08287849390507,-88.23529758782387,76.200527287817
2024-09-23 08:52:29.328580,42.1,7.795128,-0.002636491424507565,-0.023927417309398437,0.09715228999426605,32.08287849390507,-88.23529758782387,80.21211738781929
2024-09-23 08:52:29.360929,42.1,7.795179,-0.003233425524256645,-0.023927417309398437,0.09715228999426605,32.08287849390507,-88.23529758782387,80.21211738781929
2024-09-23 08:52:29.372733,42.1,7.795179,-0.003233425524256645,-0.02412639262114825,0.09690356060148622,40.106058693909645,-92.24360919585227,80.21211738781929
2024-09-23 08:52:29.414866,42.1,7.79523,-0.002636491424507565,-0.023778180888911878,0.0973015264147526,40.106058693909645,-92.24360919585227,76.200527287817
2024-09-23 08:52:29.426475,42.1,7.79523,-0.002636491424507565,-0.023778180888911878,0.0973015264147526,32.08287849390507,-92.24360919585227,76.200527287817
2024-09-23 08:52:29.459485,42.29,7.79523,-0.002636491424507565,-0.023778180888911878,0.0973015264147526,32.08287849390507,-100.26678939585686,80.21211738781929
2024-09-23 08:52:29.470821,42.29,7.79528,-0.002785727465249955,-0.023579196463302005,0.09665483728461309,32.08287849390507,-100.26678939585686,80.21211738781929
2024-09-23 08:52:29.512948,42.29,7.795331,-0.0035816467500972456,-0.023579196463302005,0.09665483728461309,36.09446859390736,-100.26678939585686,80.21211738781929
2024-09-23 08:52:29.525058,42.29,7.795331,-0.0035816467500972456,-0.02412639262114825,0.09665483728461309,36.09446859390736,-100.26678939585686,80.21211738781929
2024-09-23 08:52:29.557804,42.29,7.795331,-0.0035816467500972456,-0.02412639262114825,0.09685382322919964,36.09446859390736,-88.23529758782387,80.21211738781929
2024-09-23 08:52:29.569813,42.29,7.795382,-0.0029349636958644295,-0.02412639262114825,0.09685382322919964,36.09446859390736,-88.23529758782387,80.21211738781929
2024-09-23 08:52:29.612518,42.29,7.795469,-0.0029349636958644295,-0.02362894446842532,0.09745075675933246,36.09446859390736,-100.26678939585686,80.21211738781929
2024-09-23 08:52:29.657178,42.29,7.795469,-0.0030344509719951677,-0.02397715620066169,0.09720203344245934,36.09446859390736,-100.26678939585686,80.21211738781929
2024-09-23 08:52:29.668924,42.29,7.795469,-0.0030344509719951677,-0.02397715620066169,0.09720203344245934,32.08287849390507,-92.24360919585227,80.21211738781929
2024-09-23 08:52:29.703282,42.29,7.79552,-0.003233425524256645,-0.02397715620066169,0.09720203344245934,32.08287849390507,-92.24360919585227,80.21211738781929
2024-09-23 08:52:29.714952,42.29,7.79552,-0.003233425524256645,-0.022733528983459317,0.09715228999426605,40.106058693909645,-100.26678939585686,80.21211738781929
2024-09-23 08:52:29.758021,42.29,7.795571,-0.0035318979854855937,-0.023877669304275123,0.09710254654607277,36.09446859390736,-100.26678939585686,76.200527287817
2024-09-23 08:52:29.799916,42.29,7.795571,-0.0035318979854855937,-0.023877669304275123,0.09710254654607277,36.09446859390736,-100.26678939585686,80.21211738781929
2024-09-23 08:52:29.811601,42.29,7.795622,-0.0029349636958644295,-0.023728432883788564,0.09710254654607277,36.09446859390736,-100.26678939585686,80.21211738781929
2024-09-23 08:52:29.855022,42.29,7.795672,-0.0032831742888682963,-0.02362894446842532,0.09710254654607277,32.08287849390507,-100.26678939585686,80.21211738781929
2024-09-23 08:52:29.897283,42.29,7.795672,-0.0032831742888682963,-0.02362894446842532,0.09695331012558621,36.09446859390736,-100.26678939585686,80.21211738781929
2024-09-23 08:52:29.908865,42.29,7.795723,-0.0030841997366068195,-0.02362894446842532,0.09695331012558621,36.09446859390736,-96.25519929585457,84.22370748782159
2024-09-23 08:52:29.952209,42.29,7.79581,-0.0030841997366068195,-0.024275627522658133,0.0973512698629459,36.09446859390736,-100.26678939585686,76.200527287817
2024-09-23 08:52:29.995790,42.29,7.79581,-0.003631395514708897,-0.023429960042815445,0.0973512698629459,36.09446859390736,-100.26678939585686,76.200527287817
2024-09-23 08:52:30.007332,42.29,7.79581,-0.003631395514708897,-0.023429960042815445,0.0973015264147526,36.09446859390736,-104.27510100388527,80.21211738781929
2024-09-23 08:52:30.049859,42.29,7.795862,-0.0029847020175114316,-0.023181236725942318,0.09690356060148622,32.08287849390507,-104.27510100388527,80.21211738781929
2024-09-23 08:52:30.093559,42.29,7.795912,-0.0028852147413806935,-0.023181236725942318,0.09690356060148622,32.08287849390507,-104.27510100388527,76.200527287817
2024-09-23 08:52:30.146819,42.29,7.795912,-0.0028852147413806935,-0.023280723622328886,0.09665483728461309,40.106058693909645,-108.28669110388756,76.200527287817
2024-09-23 08:52:30.158992,42.29,7.795963,-0.0028852147413806935,-0.023280723622328886,0.09665483728461309,40.106058693909645,-108.28669110388756,76.200527287817
2024-09-23 08:52:30.191897,42.29,7.795963,-0.003929857343101113,-0.023778180888911878,0.09665483728461309,40.106058693909645,-108.28669110388756,76.200527287817
2024-09-23 08:52:30.203764,42.29,7.795963,-0.003929857343101113,-0.023778180888911878,0.0973015264147526,36.09446859390736,-100.26678939585686,84.22370748782159
2024-09-23 08:52:30.246790,42.29,7.796014,-0.0031836870127375577,-0.023330473146428877,0.09750050628343246,36.09446859390736,-104.27510100388527,84.22370748782159
2024-09-23 08:52:30.288871,42.29,7.796064,-0.0024872551938930902,-0.023330473146428877,0.09750050628343246,36.09446859390736,-104.27510100388527,80.21211738781929
2024-09-23 08:52:30.301551,42.29,7.796064,-0.0024872551938930902,-0.023778180888911878,0.09690356060148622,36.09446859390736,-104.27510100388527,80.21211738781929
2024-09-23 08:52:30.334966,42.29,7.796064,-0.0024872551938930902,-0.023778180888911878,0.09690356060148622,36.09446859390736,-100.26678939585686,80.21211738781929
2024-09-23 08:52:30.345938,42.29,7.796151,-0.0031836870127375577,-0.02367869399252531,0.09715228999426605,36.09446859390736,-100.26678939585686,76.200527287817
2024-09-23 08:52:30.387653,42.29,7.796203,-0.0031836870127375577,-0.02367869399252531,0.09715228999426605,36.09446859390736,-96.25519929585457,84.22370748782159
2024-09-23 08:52:30.399423,42.29,7.796203,-0.0032831742888682963,-0.023479709566915436,0.09715228999426605,36.09446859390736,-96.25519929585457,84.22370748782159
2024-09-23 08:52:30.431795,42.29,7.796203,-0.0032831742888682963,-0.023479709566915436,0.09705279702197278,36.09446859390736,-96.25519929585457,84.22370748782159
2024-09-23 08:52:30.443243,42.29,7.796254,-0.0030344509719951677,-0.023479709566915436,0.09705279702197278,36.09446859390736,-96.25519929585457,84.22370748782159
2024-09-23 08:52:30.486838,42.59,7.796254,-0.0030344509719951677,-0.023579196463302005,0.09680407370509965,36.09446859390736,-96.25519929585457,84.22370748782159
2024-09-23 08:52:30.499511,42.59,7.796346,-0.0030344509719951677,-0.023579196463302005,0.09680407370509965,36.09446859390736,-96.25519929585457,80.21211738781929
2024-09-23 08:52:30.531585,42.59,7.796346,-0.003482159473966507,-0.023579196463302005,0.09680407370509965,36.09446859390736,-96.25519929585457,80.21211738781929
2024-09-23 08:52:30.543421,42.59,7.796346,-0.003482159473966507,-0.023230986250042305,0.09620712802315341,32.08287849390507,-96.25519929585457,76.200527287817
2024-09-23 08:52:30.587425,42.59,7.796398,-0.0030841997366068195,-0.02352945757203875,0.09685382322919964,32.08287849390507,-96.25519929585457,76.200527287817
2024-09-23 08:52:30.630929,42.59,7.796448,-0.0030841997366068195,-0.02352945757203875,0.09685382322919964,32.08287849390507,-96.25519929585457,84.22370748782159
2024-09-23 08:52:30.642755,42.59,7.796448,-0.0035318979854855937,-0.02362894446842532,0.0973512698629459,44.11764879391193,-96.25519929585457,84.22370748782159
2024-09-23 08:52:30.675697,42.59,7.796448,-0.0035318979854855937,-0.02362894446842532,0.0973512698629459,44.11764879391193,-96.25519929585457,84.22370748782159
2024-09-23 08:52:30.686938,42.59,7.796499,-0.0035318979854855937,-0.023280723622328886,0.0973512698629459,44.11764879391193,-96.25519929585457,76.200527287817
2024-09-23 08:52:30.780595,42.59,7.79655,-0.003382661564999035,-0.023280723622328886,0.0973512698629459,40.106058693909645,-100.26678939585686,68.18063240997792
2024-09-23 08:52:30.792814,42.59,7.79655,-0.003382661564999035,-0.023728432883788564,0.0973512698629459,40.106058693909645,-100.26678939585686,68.18063240997792
2024-09-23 08:52:30.825718,42.59,7.79655,-0.003382661564999035,-0.023728432883788564,0.09745075675933246,44.11764879391193,-104.27510100388527,68.18063240997792
2024-09-23 08:52:30.837269,42.59,7.7966,-0.0026862297461545674,-0.023728432883788564,0.09745075675933246,44.11764879391193,-104.27510100388527,72.1922225099802
2024-09-23 08:52:30.879402,42.59,7.796688,-0.0026862297461545674,-0.024026904205785005,0.09725178296655933,44.11764879391193,-96.25519929585457,76.200527287817
2024-09-23 08:52:30.922442,42.59,7.796688,-0.0029847020175114316,-0.023778180888911878,0.09705279702197278,44.11764879391193,-96.25519929585457,76.200527287817
2024-09-23 08:52:30.934845,42.59,7.796688,-0.0029847020175114316,-0.023778180888911878,0.09705279702197278,36.09446859390736,-100.26678939585686,80.21211738781929
2024-09-23 08:52:30.978528,42.59,7.796739,-0.0030344509719951677,-0.023479709566915436,0.09715228999426605,32.08287849390507,-104.27510100388527,80.21211738781929
2024-09-23 08:52:31.021852,42.59,7.796835,-0.0034324103296106863,-0.023479709566915436,0.09715228999426605,32.08287849390507,-104.27510100388527,80.21211738781929
2024-09-23 08:52:31.033667,42.59,7.796835,-0.0034324103296106863,-0.02313149783467906,0.0966050877605131,36.09446859390736,-104.27510100388527,80.21211738781929
2024-09-23 08:52:31.117198,42.59,7.796835,-0.0034324103296106863,-0.02313149783467906,0.0966050877605131,36.09446859390736,-100.26678939585686,80.21211738781929
2024-09-23 08:52:31.128760,42.59,7.796886,-0.0028852147413806935,-0.02313149783467906,0.0966050877605131,36.09446859390736,-100.26678939585686,80.21211738781929
2024-09-23 08:52:31.171962,42.59,7.796937,-0.0028852147413806935,-0.02352945757203875,0.09725178296655933,36.09446859390736,-104.27510100388527,80.21211738781929
2024-09-23 08:52:31.215783,42.59,7.796937,-0.003482159473966507,-0.023579196463302005,0.09705279702197278,36.09446859390736,-104.27510100388527,80.21211738781929
2024-09-23 08:52:31.227160,42.59,7.796937,-0.003482159473966507,-0.023579196463302005,0.09705279702197278,28.07457030097246,-96.25519929585457,84.22370748782159
2024-09-23 08:52:31.269701,42.59,7.796987,-0.003780631555451287,-0.023827930413011865,0.09690356060148622,28.07457030097246,-96.25519929585457,84.22370748782159
2024-09-23 08:52:31.312272,42.59,7.797078,-0.0031836870127375577,-0.023827930413011865,0.09690356060148622,28.07457030097246,-96.25519929585457,76.200527287817
2024-09-23 08:52:31.323553,42.59,7.797078,-0.0031836870127375577,-0.023181236725942318,0.09655535038822652,40.106058693909645,-96.25519929585457,76.200527287817
2024-09-23 08:52:31.366706,42.59,7.797176,-0.0031836870127375577,-0.02367869399252531,0.09675432418099966,40.106058693909645,-92.24360919585227,76.200527287817
2024-09-23 08:52:31.409056,42.59,7.797176,-0.0031836870127375577,-0.02367869399252531,0.09675432418099966,40.106058693909645,-88.23529758782387,76.200527287817
2024-09-23 08:52:31.420176,42.59,7.797227,-0.0029847020175114316,-0.023778180888911878,0.09675432418099966,40.106058693909645,-88.23529758782387,80.21211738781929
2024-09-23 08:52:31.464301,42.59,7.797278,-0.0029847020175114316,-0.023778180888911878,0.09690356060148622,36.09446859390736,-100.26678939585686,76.200527287817
2024-09-23 08:52:31.476491,42.59,7.797278,-0.003233425524256645,-0.023778180888911878,0.09690356060148622,36.09446859390736,-100.26678939585686,76.200527287817
2024-09-23 08:52:31.508221,42.22,7.797278,-0.003233425524256645,-0.02397715620066169,0.09620712802315341,32.08287849390507,-100.26678939585686,76.200527287817
2024-09-23 08:52:31.519241,42.22,7.79737,-0.003233425524256645,-0.02397715620066169,0.09620712802315341,32.08287849390507,-100.26678939585686,84.22370748782159
2024-09-23 08:52:31.561433,42.22,7.79737,-0.002437506429281439,-0.023579196463302005,0.09670458680871308,44.11764879391193,-100.26678939585686,76.200527287817
2024-09-23 08:52:31.604603,42.22,7.797422,-0.002437506429281439,-0.023579196463302005,0.09670458680871308,44.11764879391193,-100.26678939585686,76.200527287817
2024-09-23 08:52:31.657848,42.22,7.797422,-0.0030841997366068195,-0.02352945757203875,0.0973512698629459,36.09446859390736,-112.29828120388984,76.200527287817
2024-09-23 08:52:31.669829,42.22,7.797422,-0.0030841997366068195,-0.02352945757203875,0.0973512698629459,36.09446859390736,-112.29828120388984,68.18063240997792
2024-09-23 08:52:31.704811,42.22,7.797472,-0.002785727465249955,-0.02412639262114825,0.0973512698629459,36.09446859390736,-112.29828120388984,68.18063240997792
2024-09-23 08:52:31.716427,42.22,7.797472,-0.002785727465249955,-0.02412639262114825,0.09665483728461309,36.09446859390736,-100.26678939585686,68.18063240997792
2024-09-23 08:52:31.749596,42.22,7.797472,-0.002785727465249955,-0.02412639262114825,0.09665483728461309,36.09446859390736,-100.26678939585686,72.1922225099802
2024-09-23 08:52:31.761279,42.22,7.797523,-0.0031339382481259063,-0.023728432883788564,0.09794820946898543,28.07457030097246,-100.26678939585686,72.1922225099802
2024-09-23 08:52:31.803704,42.22,7.797574,-0.0032831742888682963,-0.02397715620066169,0.09794820946898543,28.07457030097246,-100.26678939585686,76.200527287817
2024-09-23 08:52:31.815741,42.22,7.797574,-0.0032831742888682963,-0.02397715620066169,0.09750050628343246,28.07457030097246,-100.26678939585686,76.200527287817
2024-09-23 08:52:31.850312,42.22,7.797574,-0.0032831742888682963,-0.02397715620066169,0.09750050628343246,40.106058693909645,-100.26678939585686,80.21211738781929
2024-09-23 08:52:31.861633,42.22,7.797624,-0.003631395514708897,-0.02352945757203875,0.09750050628343246,40.106058693909645,-100.26678939585686,80.21211738781929
2024-09-23 08:52:31.895119,42.22,7.797624,-0.003631395514708897,-0.02352945757203875,0.09690356060148622,40.106058693909645,-100.26678939585686,80.21211738781929
2024-09-23 08:52:31.906621,42.22,7.797714,-0.0035318979854855937,-0.02352945757203875,0.09690356060148622,36.09446859390736,-100.26678939585686,80.21211738781929
2024-09-23 08:52:31.950623,42.22,7.797714,-0.0035318979854855937,-0.023280723622328886,0.09680407370509965,32.08287849390507,-96.25519929585457,80.21211738781929
2024-09-23 08:52:31.962128,42.22,7.797809,-0.0035318979854855937,-0.023280723622328886,0.09680407370509965,32.08287849390507,-96.25519929585457,80.21211738781929
2024-09-23 08:52:31.994022,42.22,7.797809,-0.0032831742888682963,-0.02362894446842532,0.09680407370509965,32.08287849390507,-96.25519929585457,80.21211738781929
2024-09-23 08:52:32.005157,42.22,7.797809,-0.0032831742888682963,-0.02362894446842532,0.09675432418099966,36.09446859390736,-96.25519929585457,76.200527287817
2024-09-23 08:52:32.047510,42.22,7.79786,-0.0034324103296106863,-0.02338022115155219,0.09635636444363997,36.09446859390736,-96.25519929585457,76.200527287817
2024-09-23 08:52:32.059468,42.22,7.79786,-0.0034324103296106863,-0.02338022115155219,0.09635636444363997,36.09446859390736,-104.27510100388527,76.200527287817
2024-09-23 08:52:32.092987,42.22,7.797911,-0.0031836870127375577,-0.02338022115155219,0.09635636444363997,36.09446859390736,-104.27510100388527,76.200527287817
2024-09-23 08:52:32.105289,42.22,7.797911,-0.0031836870127375577,-0.023827930413011865,0.09759999317981902,44.11764879391193,-104.27510100388527,76.200527287817
2024-09-23 08:52:32.148094,42.22,7.797962,-0.0030841997366068195,-0.023877669304275123,0.09705279702197278,44.11764879391193,-100.26678939585686,76.200527287817
2024-09-23 08:52:32.192121,42.22,7.798012,-0.0030841997366068195,-0.023877669304275123,0.09705279702197278,36.09446859390736,-96.25519929585457,84.22370748782159
2024-09-23 08:52:32.203178,42.22,7.798012,-0.0035816467500972456,-0.02352945757203875,0.09705279702197278,36.09446859390736,-96.25519929585457,84.22370748782159
2024-09-23 08:52:32.245878,42.22,7.798063,-0.0026862297461545674,-0.02352945757203875,0.09680407370509965,32.08287849390507,-96.25519929585457,80.21211738781929
2024-09-23 08:52:32.288002,42.22,7.798063,-0.0026862297461545674,-0.024375126570858115,0.09710254654607277,32.08287849390507,-96.25519929585457,80.21211738781929
2024-09-23 08:52:32.299587,42.22,7.79815,-0.0026862297461545674,-0.024375126570858115,0.09710254654607277,32.08287849390507,-92.24360919585227,80.21211738781929
2024-09-23 08:52:32.342141,42.22,7.79815,-0.0033329230534799477,-0.02303200030545576,0.09750050628343246,40.106058693909645,-92.24360919585227,84.22370748782159
2024-09-23 08:52:32.384006,42.22,7.798202,-0.0031836870127375577,-0.02303200030545576,0.09750050628343246,40.106058693909645,-92.24360919585227,84.22370748782159
2024-09-23 08:52:32.395306,42.22,7.798202,-0.0031836870127375577,-0.023827930413011865,0.09645586349183995,40.106058693909645,-96.25519929585457,84.22370748782159
2024-09-23 08:52:32.438795,42.22,7.798253,-0.003482159473966507,-0.02352945757203875,0.0966050877605131,40.106058693909645,-96.25519929585457,84.22370748782159
2024-09-23 08:52:32.482530,42.22,7.798253,-0.003482159473966507,-0.02352945757203875,0.0966050877605131,40.106058693909645,-96.25519929585457,80.21211738781929
2024-09-23 08:52:32.493910,42.22,7.798303,-0.0037308827908396356,-0.02362894446842532,0.09725178296655933,40.106058693909645,-96.25519929585457,80.21211738781929
2024-09-23 08:52:32.537241,42.25,7.798354,-0.0032831742888682963,-0.024325377046758124,0.09725178296655933,40.106058693909645,-96.25519929585457,76.200527287817
2024-09-23 08:52:32.582719,42.25,7.798354,-0.0032831742888682963,-0.024325377046758124,0.09665483728461309,36.09446859390736,-96.25519929585457,76.200527287817
2024-09-23 08:52:32.594658,42.25,7.798405,-0.003382661564999035,-0.024325377046758124,0.09665483728461309,36.09446859390736,-96.25519929585457,84.22370748782159
2024-09-23 08:52:32.626751,42.25,7.798405,-0.003382661564999035,-0.02367869399252531,0.09665483728461309,36.09446859390736,-96.25519929585457,84.22370748782159
2024-09-23 08:52:32.638521,42.25,7.798491,-0.003382661564999035,-0.02367869399252531,0.09605789160266685,28.07457030097246,-100.26678939585686,76.200527287817
2024-09-23 08:52:32.681612,42.25,7.798491,-0.003482159473966507,-0.023330473146428877,0.09715228999426605,36.09446859390736,-96.25519929585457,76.200527287817
2024-09-23 08:52:32.693690,42.25,7.798491,-0.003482159473966507,-0.023330473146428877,0.09715228999426605,36.09446859390736,-96.25519929585457,80.21211738781929
2024-09-23 08:52:32.726204,42.25,7.798543,-0.0035816467500972456,-0.024176140626271565,0.09715228999426605,36.09446859390736,-96.25519929585457,80.21211738781929
2024-09-23 08:52:32.737333,42.25,7.798543,-0.0035816467500972456,-0.024176140626271565,0.09710254654607277,32.08287849390507,-96.25519929585457,80.21211738781929
2024-09-23 08:52:32.778995,42.25,7.798594,-0.0037308827908396356,-0.02412639262114825,0.09695331012558621,32.08287849390507,-96.25519929585457,84.22370748782159
2024-09-23 08:52:32.791004,42.25,7.798594,-0.0037308827908396356,-0.02412639262114825,0.09695331012558621,36.09446859390736,-96.25519929585457,84.22370748782159
2024-09-23 08:52:32.822741,42.25,7.798594,-0.0037308827908396356,-0.02412639262114825,0.09695331012558621,36.09446859390736,-96.25519929585457,84.22370748782159
2024-09-23 08:52:32.834136,42.25,7.798644,-0.0032831742888682963,-0.024026904205785005,0.09685382322919964,36.09446859390736,-96.25519929585457,84.22370748782159
2024-09-23 08:52:32.875907,42.25,7.798695,-0.0029847020175114316,-0.024026904205785005,0.09685382322919964,44.11764879391193,-92.24360919585227,84.22370748782159
2024-09-23 08:52:32.887569,42.25,7.798695,-0.0029847020175114316,-0.023778180888911878,0.09685382322919964,44.11764879391193,-92.24360919585227,84.22370748782159
2024-09-23 08:52:32.920181,42.25,7.798695,-0.0029847020175114316,-0.023778180888911878,0.0962568775472534,44.11764879391193,-92.24360919585227,84.22370748782159
2024-09-23 08:52:32.931783,42.25,7.798746,-0.0030344509719951677,-0.023778180888911878,0.0962568775472534,44.11764879391193,-96.25519929585457,76.200527287817
2024-09-23 08:52:32.974626,42.25,7.798833,-0.0030344509719951677,-0.023827930413011865,0.09675432418099966,40.106058693909645,-100.26678939585686,80.21211738781929
2024-09-23 08:52:33.017351,42.25,7.798833,-0.0027359787006383035,-0.024225890150371555,0.09675432418099966,40.106058693909645,-100.26678939585686,80.21211738781929
2024-09-23 08:52:33.028813,42.25,7.798833,-0.0027359787006383035,-0.024225890150371555,0.09680407370509965,36.09446859390736,-100.26678939585686,80.21211738781929
2024-09-23 08:52:33.072233,42.25,7.798884,-0.0037308827908396356,-0.023728432883788564,0.09680407370509965,40.106058693909645,-100.26678939585686,80.21211738781929
2024-09-23 08:52:33.115379,42.25,7.798935,-0.0037308827908396356,-0.023728432883788564,0.09680407370509965,40.106058693909645,-100.26678939585686,80.21211738781929
2024-09-23 08:52:33.127286,42.25,7.798935,-0.003482159473966507,-0.023927417309398437,0.0973512698629459,40.106058693909645,-100.26678939585686,80.21211738781929
2024-09-23 08:52:33.170150,42.25,7.798985,-0.0036811340262279837,-0.023579196463302005,0.09705279702197278,40.106058693909645,-104.27510100388527,80.21211738781929
2024-09-23 08:52:33.212303,42.25,7.798985,-0.0036811340262279837,-0.023579196463302005,0.09705279702197278,40.106058693909645,-100.26678939585686,80.21211738781929
2024-09-23 08:52:33.223732,42.25,7.799036,-0.0028852147413806935,-0.023330473146428877,0.09705279702197278,40.106058693909645,-100.26678939585686,80.21211738781929
2024-09-23 08:52:33.265723,42.25,7.799087,-0.0028852147413806935,-0.023330473146428877,0.09705279702197278,32.08287849390507,-104.27510100388527,84.22370748782159
2024-09-23 08:52:33.277744,42.25,7.799087,-0.0032831742888682963,-0.023330473146428877,0.09705279702197278,32.08287849390507,-104.27510100388527,84.22370748782159
2024-09-23 08:52:33.309831,42.25,7.799087,-0.0032831742888682963,-0.02352945757203875,0.09745075675933246,32.08287849390507,-104.27510100388527,84.22370748782159
2024-09-23 08:52:33.321557,42.25,7.799174,-0.0032831742888682963,-0.02352945757203875,0.09745075675933246,32.08287849390507,-92.24360919585227,84.22370748782159
2024-09-23 08:52:33.364354,42.25,7.799174,-0.0030841997366068195,-0.02367869399252531,0.0970030596496862,36.09446859390736,-92.24360919585227,84.22370748782159
2024-09-23 08:52:33.376133,42.25,7.799174,-0.0030841997366068195,-0.02367869399252531,0.0970030596496862,36.09446859390736,-92.24360919585227,84.22370748782159
2024-09-23 08:52:33.409450,42.25,7.799225,-0.0031836870127375577,-0.023479709566915436,0.0970030596496862,36.09446859390736,-92.24360919585227,84.22370748782159
2024-09-23 08:52:33.421137,42.25,7.799225,-0.0031836870127375577,-0.023479709566915436,0.09675432418099966,44.11764879391193,-104.27510100388527,84.22370748782159
2024-09-23 08:52:33.463639,42.25,7.799276,-0.002785727465249955,-0.02397715620066169,0.09690356060148622,36.09446859390736,-104.27510100388527,76.200527287817
