Ayaan's Suite
Timestamp,Sample Rate (Hz),Time,Ax,Ay,Az,Gx,Gy,Gz
2024-09-23 09:17:12.454514,0,9.278287,-0.0028852147413806935,-0.024076653729884996,0.09695331012558621,40.106058693909645,-100.26678939585686,80.21211738781929
2024-09-23 09:17:12.488885,0,9.278287,-0.0028852147413806935,-0.023479709566915436,0.09690356060148622,36.09446859390736,-104.27510100388527,80.21211738781929
2024-09-23 09:17:12.501766,0,9.278381,-0.0028852147413806935,-0.023479709566915436,0.09690356060148622,36.09446859390736,-104.27510100388527,84.22370748782159
2024-09-23 09:17:12.534314,0,9.278381,-0.003233425524256645,-0.023479709566915436,0.09690356060148622,36.09446859390736,-104.27510100388527,84.22370748782159
2024-09-23 09:17:12.545842,0,9.278381,-0.003233425524256645,-0.023479709566915436,0.09745075675933246,32.08287849390507,-100.26678939585686,84.22370748782159
2024-09-23 09:17:12.589239,0,9.278433,-0.003233425524256645,-0.024026904205785005,0.09695331012558621,36.09446859390736,-104.27510100388527,84.22370748782159
2024-09-23 09:17:12.632362,0,9.278484,-0.003482159473966507,-0.024026904205785005,0.09695331012558621,36.09446859390736,-104.27510100388527,84.22370748782159
2024-09-23 09:17:12.644312,0,9.278484,-0.003482159473966507,-0.023877669304275123,0.09740101331113918,36.09446859390736,-104.27510100388527,84.22370748782159
2024-09-23 09:17:12.686441,0,9.278534,-0.0033329230534799477,-0.023330473146428877,0.09670458680871308,36.09446859390736,-104.27510100388527,80.21211738781929
2024-09-23 09:17:12.730186,0,9.278534,-0.0033329230534799477,-0.023330473146428877,0.09670458680871308,32.08287849390507,-100.26678939585686,76.200527287817
2024-09-23 09:17:12.741803,0,9.278585,-0.003233425524256645,-0.023728432883788564,0.09670458680871308,32.08287849390507,-100.26678939585686,76.200527287817
2024-09-23 09:17:12.784425,0,9.278636,-0.0029349636958644295,-0.023728432883788564,0.09670458680871308,32.08287849390507,-100.26678939585686,84.22370748782159
2024-09-23 09:17:12.827787,0,9.278636,-0.0029349636958644295,-0.023230986250042305,0.09715228999426605,44.11764879391193,-100.26678939585686,84.22370748782159
2024-09-23 09:17:12.839098,0,9.278723,-0.0029349636958644295,-0.023230986250042305,0.09715228999426605,44.11764879391193,-96.25519929585457,76.200527287817
2024-09-23 09:17:12.881929,0,9.278723,-0.0030841997366068195,-0.023827930413011865,0.09685382322919964,36.09446859390736,-100.26678939585686,76.200527287817
2024-09-23 09:17:12.975076,0,9.278774,-0.0031836870127375577,-0.023728432883788564,0.09685382322919964,36.09446859390736,-100.26678939585686,76.200527287817
2024-09-23 09:17:12.987082,0,9.278774,-0.0031836870127375577,-0.023728432883788564,0.09710254654607277,36.09446859390736,-100.26678939585686,76.200527287817
2024-09-23 09:17:13.018852,0,9.278774,-0.0031836870127375577,-0.023728432883788564,0.09710254654607277,36.09446859390736,-100.26678939585686,80.21211738781929
2024-09-23 09:17:13.030199,0,9.278825,-0.0035816467500972456,-0.023479709566915436,0.09705279702197278,44.11764879391193,-100.26678939585686,80.21211738781929
2024-09-23 09:17:13.073154,0,9.278876,-0.002636491424507565,-0.023479709566915436,0.09705279702197278,44.11764879391193,-100.26678939585686,84.22370748782159
2024-09-23 09:17:13.084992,0,9.278876,-0.002636491424507565,-0.023479709566915436,0.09680407370509965,44.11764879391193,-100.26678939585686,84.22370748782159
2024-09-23 09:17:13.117929,0,9.278876,-0.002636491424507565,-0.023479709566915436,0.09680407370509965,40.106058693909645,-100.26678939585686,84.22370748782159
2024-09-23 09:17:13.129428,0,9.278926,-0.0033329230534799477,-0.023827930413011865,0.09680407370509965,40.106058693909645,-100.26678939585686,84.22370748782159
2024-09-23 09:17:13.172303,0,9.278977,-0.0033329230534799477,-0.023827930413011865,0.09725178296655933,32.08287849390507,-108.28669110388756,76.200527287817
2024-09-23 09:17:13.184410,0,9.278977,-0.0032831742888682963,-0.023827930413011865,0.09725178296655933,32.08287849390507,-108.28669110388756,76.200527287817
2024-09-23 09:17:13.215883,0,9.278977,-0.0032831742888682963,-0.023778180888911878,0.0970030596496862,32.08287849390507,-108.28669110388756,76.200527287817
2024-09-23 09:17:13.227508,0,9.278977,-0.0032831742888682963,-0.023778180888911878,0.0970030596496862,40.106058693909645,-100.26678939585686,76.200527287817
2024-09-23 09:17:13.269973,0,9.279113,-0.003233425524256645,-0.023280723622328886,0.09675432418099966,40.106058693909645,-100.26678939585686,72.1922225099802
2024-09-23 09:17:13.281802,0,9.279113,-0.003233425524256645,-0.023280723622328886,0.09675432418099966,36.09446859390736,-100.26678939585686,72.1922225099802
2024-09-23 09:17:13.313203,0,9.279113,-0.003233425524256645,-0.023280723622328886,0.09675432418099966,36.09446859390736,-104.27510100388527,76.200527287817
2024-09-23 09:17:13.324555,0,9.279164,-0.0028852147413806935,-0.023827930413011865,0.09695331012558621,36.09446859390736,-104.27510100388527,76.200527287817
2024-09-23 09:17:13.367222,0,9.279215,-0.0030344509719951677,-0.023827930413011865,0.09695331012558621,32.08287849390507,-96.25519929585457,84.22370748782159
2024-09-23 09:17:13.379044,0,9.279215,-0.0030344509719951677,-0.023230986250042305,0.09695331012558621,32.08287849390507,-96.25519929585457,84.22370748782159
2024-09-23 09:17:13.410521,0,9.279215,-0.0030344509719951677,-0.023230986250042305,0.09650560086412653,40.106058693909645,-96.25519929585457,84.22370748782159
2024-09-23 09:17:13.421960,0,9.279266,-0.003233425524256645,-0.023230986250042305,0.09650560086412653,40.106058693909645,-100.26678939585686,76.200527287817
2024-09-23 09:17:13.466035,43.0,9.279316,-0.003233425524256645,-0.023827930413011865,0.09705279702197278,32.08287849390507,-100.26678939585686,88.23529758782387
2024-09-23 09:17:13.509231,43.0,9.279316,-0.0036811340262279837,-0.023728432883788564,0.09705279702197278,32.08287849390507,-100.26678939585686,88.23529758782387
2024-09-23 09:17:13.520806,43.0,9.279316,-0.0036811340262279837,-0.023728432883788564,0.09670458680871308,36.09446859390736,-92.24360919585227,84.22370748782159
2024-09-23 09:17:13.563182,43.0,9.279406,-0.0034324103296106863,-0.023479709566915436,0.0970030596496862,36.09446859390736,-92.24360919585227,84.22370748782159
2024-09-23 09:17:13.606133,43.0,9.279406,-0.0034324103296106863,-0.023479709566915436,0.0970030596496862,36.09446859390736,-100.26678939585686,80.21211738781929
2024-09-23 09:17:13.618093,43.0,9.279457,-0.0032831742888682963,-0.023579196463302005,0.09695331012558621,36.09446859390736,-100.26678939585686,80.21211738781929
2024-09-23 09:17:13.661467,43.0,9.279508,-0.0031339382481259063,-0.023330473146428877,0.09695331012558621,32.08287849390507,-104.27510100388527,80.21211738781929
2024-09-23 09:17:13.704961,43.0,9.279508,-0.0031339382481259063,-0.023330473146428877,0.09675432418099966,36.09446859390736,-100.26678939585686,80.21211738781929
2024-09-23 09:17:13.716623,43.0,9.279559,-0.0035318979854855937,-0.023330473146428877,0.09675432418099966,36.09446859390736,-100.26678939585686,80.21211738781929
2024-09-23 09:17:13.759610,43.0,9.279609,-0.0035318979854855937,-0.023181236725942318,0.09705279702197278,36.09446859390736,-92.24360919585227,84.22370748782159
2024-09-23 09:17:13.802055,43.0,9.279609,-0.003233425524256645,-0.023579196463302005,0.09705279702197278,36.09446859390736,-92.24360919585227,84.22370748782159
2024-09-23 09:17:13.813348,43.0,9.279609,-0.003233425524256645,-0.023579196463302005,0.09680407370509965,36.09446859390736,-96.25519929585457,76.200527287817
2024-09-23 09:17:13.857145,43.0,9.279698,-0.003482159473966507,-0.023479709566915436,0.0966050877605131,36.09446859390736,-92.24360919585227,76.200527287817
2024-09-23 09:17:13.899700,43.0,9.27975,-0.003382661564999035,-0.023479709566915436,0.0966050877605131,36.09446859390736,-92.24360919585227,76.200527287817
2024-09-23 09:17:13.910693,43.0,9.27975,-0.003382661564999035,-0.023280723622328886,0.09740101331113918,32.08287849390507,-92.24360919585227,76.200527287817
2024-09-23 09:17:13.953007,43.0,9.2798,-0.003382661564999035,-0.023280723622328886,0.09740101331113918,32.08287849390507,-84.22370748782159,92.24360919585227
2024-09-23 09:17:13.995780,43.0,9.2798,-0.0030841997366068195,-0.023181236725942318,0.09740101331113918,32.08287849390507,-84.22370748782159,92.24360919585227
2024-09-23 09:17:14.007585,43.0,9.2798,-0.0030841997366068195,-0.023181236725942318,0.09665483728461309,48.12595698684454,-92.24360919585227,84.22370748782159
2024-09-23 09:17:14.050101,43.0,9.279851,-0.0038303700669703737,-0.023280723622328886,0.09680407370509965,40.106058693909645,-92.24360919585227,84.22370748782159
2024-09-23 09:17:14.061833,43.0,9.279851,-0.0038303700669703737,-0.023280723622328886,0.09680407370509965,40.106058693909645,-104.27510100388527,84.22370748782159
2024-09-23 09:17:14.094563,43.0,9.279902,-0.003631395514708897,-0.023280723622328886,0.09680407370509965,40.106058693909645,-104.27510100388527,80.21211738781929
2024-09-23 09:17:14.105641,43.0,9.279902,-0.003631395514708897,-0.02338022115155219,0.09675432418099966,36.09446859390736,-104.27510100388527,80.21211738781929
2024-09-23 09:17:14.148917,43.0,9.279991,-0.0031339382481259063,-0.023230986250042305,0.09685382322919964,36.09446859390736,-92.24360919585227,80.21211738781929
2024-09-23 09:17:14.190994,43.0,9.279991,-0.0031339382481259063,-0.023230986250042305,0.09685382322919964,36.09446859390736,-100.26678939585686,80.21211738781929
2024-09-23 09:17:14.202284,43.0,9.280041,-0.0032831742888682963,-0.023280723622328886,0.09685382322919964,36.09446859390736,-100.26678939585686,84.22370748782159
2024-09-23 09:17:14.244623,43.0,9.280092,-0.0032831742888682963,-0.023280723622328886,0.09710254654607277,36.09446859390736,-108.28669110388756,84.22370748782159
2024-09-23 09:17:14.256838,43.0,9.280092,-0.0032831742888682963,-0.023280723622328886,0.09710254654607277,36.09446859390736,-108.28669110388756,84.22370748782159
2024-09-23 09:17:14.288916,43.0,9.280092,-0.0032831742888682963,-0.023728432883788564,0.09685382322919964,36.09446859390736,-108.28669110388756,84.22370748782159
2024-09-23 09:17:14.300088,43.0,9.280185,-0.0032831742888682963,-0.023728432883788564,0.09685382322919964,40.106058693909645,-104.27510100388527,76.200527287817
2024-09-23 09:17:14.341687,43.0,9.280185,-0.0030841997366068195,-0.023877669304275123,0.09715228999426605,40.106058693909645,-108.28669110388756,76.200527287817
2024-09-23 09:17:14.353177,43.0,9.280185,-0.0030841997366068195,-0.023877669304275123,0.09715228999426605,40.106058693909645,-108.28669110388756,76.200527287817
2024-09-23 09:17:14.385655,43.0,9.280237,-0.003233425524256645,-0.023877669304275123,0.09715228999426605,40.106058693909645,-108.28669110388756,76.200527287817
2024-09-23 09:17:14.397357,43.0,9.280237,-0.003233425524256645,-0.02362894446842532,0.09640611396773996,48.12595698684454,-100.26678939585686,76.200527287817
2024-09-23 09:17:14.440325,43.0,9.280287,-0.003382661564999035,-0.023330473146428877,0.0970030596496862,32.08287849390507,-100.26678939585686,76.200527287817
2024-09-23 09:17:14.483527,42.14,9.280287,-0.003382661564999035,-0.023330473146428877,0.0970030596496862,32.08287849390507,-92.24360919585227,76.200527287817
2024-09-23 09:17:14.495739,42.14,9.280338,-0.0031339382481259063,-0.02352945757203875,0.09755024973162574,32.08287849390507,-92.24360919585227,76.200527287817
2024-09-23 09:17:14.538262,42.14,9.280389,-0.0028354659767690416,-0.02352945757203875,0.09755024973162574,32.08287849390507,-96.25519929585457,80.21211738781929
2024-09-23 09:17:14.550182,42.14,9.280389,-0.0028354659767690416,-0.02397715620066169,0.09755024973162574,32.08287849390507,-96.25519929585457,80.21211738781929
2024-09-23 09:17:14.582266,42.14,9.280389,-0.0028354659767690416,-0.02397715620066169,0.0973015264147526,32.08287849390507,-100.26678939585686,80.21211738781929
2024-09-23 09:17:14.594553,42.14,9.280389,-0.0028354659767690416,-0.02397715620066169,0.0973015264147526,32.08287849390507,-100.26678939585686,76.200527287817
2024-09-23 09:17:14.627917,42.14,9.280439,-0.0028354659767690416,-0.02397715620066169,0.0973015264147526,32.08287849390507,-100.26678939585686,76.200527287817
2024-09-23 09:17:14.639183,42.14,9.280439,-0.0028354659767690416,-0.023479709566915436,0.09690356060148622,40.106058693909645,-96.25519929585457,76.200527287817
2024-09-23 09:17:14.681628,42.14,9.280527,-0.0030841997366068195,-0.023330473146428877,0.09690356060148622,40.106058693909645,-96.25519929585457,76.200527287817
2024-09-23 09:17:14.693595,42.14,9.280527,-0.0030841997366068195,-0.023330473146428877,0.09680407370509965,36.09446859390736,-96.25519929585457,76.200527287817
2024-09-23 09:17:14.727122,42.14,9.280527,-0.0030841997366068195,-0.023330473146428877,0.09680407370509965,36.09446859390736,-96.25519929585457,76.200527287817
2024-09-23 09:17:14.738435,42.14,9.280578,-0.003233425524256645,-0.023927417309398437,0.09710254654607277,36.09446859390736,-96.25519929585457,76.200527287817
2024-09-23 09:17:14.781184,42.14,9.280629,-0.0032831742888682963,-0.024076653729884996,0.09710254654607277,28.07457030097246,-96.25519929585457,80.21211738781929
2024-09-23 09:17:14.823435,42.14,9.280629,-0.0032831742888682963,-0.024076653729884996,0.09675432418099966,28.07457030097246,-96.25519929585457,80.21211738781929
2024-09-23 09:17:14.834803,42.14,9.280679,-0.0034324103296106863,-0.024076653729884996,0.09675432418099966,36.09446859390736,-92.24360919585227,80.21211738781929
2024-09-23 09:17:14.877317,42.14,9.280679,-0.0034324103296106863,-0.023181236725942318,0.09705279702197278,36.09446859390736,-96.25519929585457,80.21211738781929
2024-09-23 09:17:14.888820,42.14,9.28077,-0.0034324103296106863,-0.023181236725942318,0.09705279702197278,36.09446859390736,-96.25519929585457,84.22370748782159
2024-09-23 09:17:14.922166,42.14,9.28077,-0.0035318979854855937,-0.023778180888911878,0.09705279702197278,36.09446859390736,-96.25519929585457,84.22370748782159
2024-09-23 09:17:14.933327,42.14,9.28077,-0.0035318979854855937,-0.023778180888911878,0.09720203344245934,36.09446859390736,-96.25519929585457,76.200527287817
2024-09-23 09:17:14.976205,42.14,9.280822,-0.002586742470023829,-0.02367869399252531,0.09740101331113918,40.106058693909645,-96.25519929585457,76.200527287817
2024-09-23 09:17:14.993101,42.14,9.280822,-0.002586742470023829,-0.02367869399252531,0.09740101331113918,40.106058693909645,-96.25519929585457,76.200527287817
2024-09-23 09:17:15.024942,42.14,9.280872,-0.0033329230534799477,-0.023877669304275123,0.09720203344245934,40.106058693909645,-96.25519929585457,76.200527287817
2024-09-23 09:17:15.036980,42.14,9.280872,-0.0033329230534799477,-0.023877669304275123,0.09720203344245934,28.07457030097246,-96.25519929585457,76.200527287817
2024-09-23 09:17:15.070081,42.14,9.280923,-0.0033329230534799477,-0.023877669304275123,0.09720203344245934,28.07457030097246,-100.26678939585686,84.22370748782159
2024-09-23 09:17:15.081640,42.14,9.280923,-0.003482159473966507,-0.023778180888911878,0.09680407370509965,28.07457030097246,-100.26678939585686,84.22370748782159
2024-09-23 09:17:15.125337,42.14,9.280974,-0.0030841997366068195,-0.023877669304275123,0.09680407370509965,36.09446859390736,-100.26678939585686,84.22370748782159
2024-09-23 09:17:15.167420,42.14,9.280974,-0.0030841997366068195,-0.023877669304275123,0.09715228999426605,36.09446859390736,-92.24360919585227,84.22370748782159
2024-09-23 09:17:15.179195,42.14,9.281024,-0.0032831742888682963,-0.023877669304275123,0.09715228999426605,36.09446859390736,-92.24360919585227,84.22370748782159
2024-09-23 09:17:15.221200,42.14,9.281112,-0.0032831742888682963,-0.024076653729884996,0.09655535038822652,28.07457030097246,-96.25519929585457,76.200527287817
2024-09-23 09:17:15.265071,42.14,9.281112,-0.003631395514708897,-0.023728432883788564,0.09715228999426605,28.07457030097246,-96.25519929585457,76.200527287817
2024-09-23 09:17:15.276621,42.14,9.281112,-0.003631395514708897,-0.023728432883788564,0.09715228999426605,36.09446859390736,-92.24360919585227,76.200527287817
2024-09-23 09:17:15.319026,42.14,9.281163,-0.0029847020175114316,-0.02397715620066169,0.0970030596496862,44.11764879391193,-104.27510100388527,76.200527287817
2024-09-23 09:17:15.362254,42.14,9.281214,-0.0036811340262279837,-0.02397715620066169,0.0970030596496862,44.11764879391193,-104.27510100388527,76.200527287817
2024-09-23 09:17:15.374320,42.14,9.281214,-0.0036811340262279837,-0.023877669304275123,0.09745075675933246,32.08287849390507,-104.27510100388527,76.200527287817
2024-09-23 09:17:15.416687,42.14,9.281264,-0.003482159473966507,-0.023579196463302005,0.0966050877605131,32.08287849390507,-88.23529758782387,88.23529758782387
2024-09-23 09:17:15.458573,42.14,9.281264,-0.003482159473966507,-0.023579196463302005,0.0966050877605131,32.08287849390507,-100.26678939585686,88.23529758782387
2024-09-23 09:17:15.470891,42.14,9.281315,-0.0031836870127375577,-0.02362894446842532,0.0966050877605131,32.08287849390507,-100.26678939585686,80.21211738781929
2024-09-23 09:17:15.514439,42.97,9.281366,-0.0031836870127375577,-0.02362894446842532,0.09685382322919964,36.09446859390736,-104.27510100388527,76.200527287817
2024-09-23 09:17:15.556866,42.97,9.281366,-0.0031836870127375577,-0.023230986250042305,0.09670458680871308,36.09446859390736,-104.27510100388527,76.200527287817
2024-09-23 09:17:15.609838,42.97,9.281453,-0.0033329230534799477,-0.023230986250042305,0.09670458680871308,32.08287849390507,-96.25519929585457,80.21211738781929
2024-09-23 09:17:15.621857,42.97,9.281453,-0.0033329230534799477,-0.02352945757203875,0.09670458680871308,32.08287849390507,-96.25519929585457,80.21211738781929
2024-09-23 09:17:15.654992,42.97,9.281453,-0.0033329230534799477,-0.02352945757203875,0.09720203344245934,40.106058693909645,-100.26678939585686,80.21211738781929
2024-09-23 09:17:15.666556,42.97,9.281505,-0.0033329230534799477,-0.02352945757203875,0.09720203344245934,40.106058693909645,-100.26678939585686,84.22370748782159
2024-09-23 09:17:15.708951,42.97,9.281556,-0.0033329230534799477,-0.02338022115155219,0.0973015264147526,40.106058693909645,-104.27510100388527,84.22370748782159
2024-09-23 09:17:15.752546,42.97,9.281556,-0.0033329230534799477,-0.02412639262114825,0.09670458680871308,40.106058693909645,-104.27510100388527,84.22370748782159
2024-09-23 09:17:15.764373,42.97,9.281556,-0.0033329230534799477,-0.02412639262114825,0.09670458680871308,36.09446859390736,-100.26678939585686,80.21211738781929
2024-09-23 09:17:15.807618,42.97,9.281606,-0.0034324103296106863,-0.023230986250042305,0.09690356060148622,36.09446859390736,-100.26678939585686,80.21211738781929
2024-09-23 09:17:15.849810,42.97,9.281606,-0.0034324103296106863,-0.023230986250042305,0.09690356060148622,36.09446859390736,-100.26678939585686,80.21211738781929
2024-09-23 09:17:15.903005,42.97,9.281698,-0.0028852147413806935,-0.02352945757203875,0.09645586349183995,32.08287849390507,-100.26678939585686,80.21211738781929
2024-09-23 09:17:15.946013,42.97,9.281749,-0.0028852147413806935,-0.02352945757203875,0.09645586349183995,32.08287849390507,-100.26678939585686,76.200527287817
2024-09-23 09:17:15.957262,42.97,9.281749,-0.003929857343101113,-0.024026904205785005,0.09675432418099966,24.06297849342227,-100.26678939585686,76.200527287817
2024-09-23 09:17:16.000002,42.97,9.281799,-0.0028354659767690416,-0.023728432883788564,0.09675432418099966,24.06297849342227,-96.25519929585457,76.200527287817
2024-09-23 09:17:16.011707,42.97,9.281799,-0.0028354659767690416,-0.023728432883788564,0.09670458680871308,24.06297849342227,-96.25519929585457,76.200527287817
2024-09-23 09:17:16.045095,42.97,9.281799,-0.0028354659767690416,-0.023728432883788564,0.09670458680871308,24.06297849342227,-100.26678939585686,76.200527287817
2024-09-23 09:17:16.056357,42.97,9.28185,-0.0030841997366068195,-0.023778180888911878,0.09670458680871308,24.06297849342227,-100.26678939585686,76.200527287817
2024-09-23 09:17:16.099225,42.97,9.28194,-0.0033329230534799477,-0.023778180888911878,0.0966050877605131,52.137550501942634,-100.26678939585686,76.200527287817
2024-09-23 09:17:16.142090,42.97,9.28194,-0.0033329230534799477,-0.02352945757203875,0.09725178296655933,36.09446859390736,-100.26678939585686,76.200527287817
2024-09-23 09:17:16.154709,42.97,9.282038,-0.0033329230534799477,-0.02352945757203875,0.09725178296655933,36.09446859390736,-88.23529758782387,80.21211738781929
2024-09-23 09:17:16.190522,42.97,9.282038,-0.0036811340262279837,-0.02412639262114825,0.09670458680871308,36.09446859390736,-88.23529758782387,80.21211738781929
2024-09-23 09:17:16.201772,42.97,9.282038,-0.0036811340262279837,-0.02412639262114825,0.09670458680871308,36.09446859390736,-96.25519929585457,80.21211738781929
2024-09-23 09:17:16.245247,42.97,9.282089,-0.0034324103296106863,-0.02412639262114825,0.09695331012558621,36.09446859390736,-100.26678939585686,80.21211738781929
2024-09-23 09:17:16.287920,42.97,9.28214,-0.0033329230534799477,-0.02412639262114825,0.09695331012558621,36.09446859390736,-100.26678939585686,84.22370748782159
2024-09-23 09:17:16.340306,42.97,9.28214,-0.0033329230534799477,-0.02367869399252531,0.0966050877605131,36.09446859390736,-112.29828120388984,68.18063240997792
2024-09-23 09:17:16.352250,42.97,9.282191,-0.0033329230534799477,-0.02367869399252531,0.0966050877605131,36.09446859390736,-112.29828120388984,68.18063240997792
2024-09-23 09:17:16.384852,42.97,9.282191,-0.0033329230534799477,-0.02362894446842532,0.0966050877605131,36.09446859390736,-112.29828120388984,68.18063240997792
2024-09-23 09:17:16.395950,42.97,9.282191,-0.0033329230534799477,-0.02362894446842532,0.09759999317981902,40.106058693909645,-104.27510100388527,76.200527287817
2024-09-23 09:17:16.438543,42.97,9.282241,-0.0031339382481259063,-0.023728432883788564,0.09695331012558621,40.106058693909645,-104.27510100388527,76.200527287817
2024-09-23 09:17:16.450567,42.97,9.282241,-0.0031339382481259063,-0.023728432883788564,0.09695331012558621,40.106058693909645,-104.27510100388527,76.200527287817
2024-09-23 09:17:16.482885,42.97,9.282292,-0.0035318979854855937,-0.023728432883788564,0.09695331012558621,40.106058693909645,-104.27510100388527,80.21211738781929
2024-09-23 09:17:16.494431,42.97,9.282292,-0.0035318979854855937,-0.023479709566915436,0.09680407370509965,32.08287849390507,-104.27510100388527,80.21211738781929
2024-09-23 09:17:16.537671,42.24,9.282379,-0.003780631555451287,-0.02367869399252531,0.09675432418099966,32.08287849390507,-100.26678939585686,76.200527287817
2024-09-23 09:17:16.580363,42.24,9.282379,-0.003780631555451287,-0.02367869399252531,0.09675432418099966,36.09446859390736,-104.27510100388527,76.200527287817
2024-09-23 09:17:16.591622,42.24,9.282431,-0.0028852147413806935,-0.02362894446842532,0.09675432418099966,36.09446859390736,-104.27510100388527,76.200527287817
2024-09-23 09:17:16.634842,42.24,9.282482,-0.0028852147413806935,-0.02362894446842532,0.0973512698629459,36.09446859390736,-96.25519929585457,80.21211738781929
2024-09-23 09:17:16.647243,42.24,9.282482,-0.0028354659767690416,-0.02362894446842532,0.0973512698629459,36.09446859390736,-96.25519929585457,80.21211738781929
2024-09-23 09:17:16.679895,42.24,9.282482,-0.0028354659767690416,-0.023429960042815445,0.09640611396773996,40.106058693909645,-104.27510100388527,80.21211738781929
2024-09-23 09:17:16.691191,42.24,9.282574,-0.0028354659767690416,-0.023429960042815445,0.09640611396773996,40.106058693909645,-104.27510100388527,80.21211738781929
2024-09-23 09:17:16.733673,42.24,9.282574,-0.0032831742888682963,-0.023429960042815445,0.09759999317981902,36.09446859390736,-104.27510100388527,76.200527287817
2024-09-23 09:17:16.776745,42.24,9.282626,-0.0030841997366068195,-0.023778180888911878,0.09759999317981902,36.09446859390736,-104.27510100388527,76.200527287817
2024-09-23 09:17:16.787860,42.24,9.282626,-0.0030841997366068195,-0.023778180888911878,0.09759999317981902,44.11764879391193,-96.25519929585457,76.200527287817
2024-09-23 09:17:16.830161,42.24,9.282676,-0.003631395514708897,-0.023877669304275123,0.09665483728461309,40.106058693909645,-96.25519929585457,84.22370748782159
2024-09-23 09:17:16.872368,42.24,9.282676,-0.003631395514708897,-0.023877669304275123,0.09665483728461309,40.106058693909645,-96.25519929585457,76.200527287817
2024-09-23 09:17:16.884641,42.24,9.282727,-0.0031836870127375577,-0.02293251340906919,0.09670458680871308,40.106058693909645,-96.25519929585457,76.200527287817
2024-09-23 09:17:16.928234,42.24,9.282778,-0.0028852147413806935,-0.024275627522658133,0.09670458680871308,32.08287849390507,-92.24360919585227,80.21211738781929
2024-09-23 09:17:16.971242,42.24,9.282778,-0.0028852147413806935,-0.024275627522658133,0.09750050628343246,36.09446859390736,-96.25519929585457,80.21211738781929
2024-09-23 09:17:16.982666,42.24,9.282828,-0.0029349636958644295,-0.024275627522658133,0.09750050628343246,36.09446859390736,-96.25519929585457,80.21211738781929
2024-09-23 09:17:17.025925,42.24,9.282915,-0.0029349636958644295,-0.023280723622328886,0.09665483728461309,40.106058693909645,-96.25519929585457,80.21211738781929
2024-09-23 09:17:17.068681,42.24,9.282915,-0.0029847020175114316,-0.024275627522658133,0.0976994861521123,40.106058693909645,-96.25519929585457,80.21211738781929
2024-09-23 09:17:17.080337,42.24,9.282915,-0.0029847020175114316,-0.024275627522658133,0.0976994861521123,36.09446859390736,-100.26678939585686,80.21211738781929
2024-09-23 09:17:17.123063,42.24,9.282967,-0.0030841997366068195,-0.023877669304275123,0.09675432418099966,32.08287849390507,-96.25519929585457,80.21211738781929
2024-09-23 09:17:17.166055,42.24,9.283017,-0.0030841997366068195,-0.023877669304275123,0.09675432418099966,32.08287849390507,-96.25519929585457,80.21211738781929
2024-09-23 09:17:17.177397,42.24,9.283017,-0.0030344509719951677,-0.023827930413011865,0.09705279702197278,36.09446859390736,-96.25519929585457,80.21211738781929
2024-09-23 09:17:17.220377,42.24,9.283068,-0.003382661564999035,-0.023280723622328886,0.0973015264147526,36.09446859390736,-88.23529758782387,80.21211738781929
2024-09-23 09:17:17.263488,42.24,9.283068,-0.003382661564999035,-0.023280723622328886,0.0973015264147526,40.106058693909645,-88.23529758782387,88.23529758782387
2024-09-23 09:17:17.274691,42.24,9.283119,-0.0029349636958644295,-0.023579196463302005,0.0973015264147526,40.106058693909645,-88.23529758782387,88.23529758782387
2024-09-23 09:17:17.318061,42.24,9.283119,-0.0029349636958644295,-0.023579196463302005,0.0966050877605131,32.08287849390507,-88.23529758782387,88.23529758782387
2024-09-23 09:17:17.360307,42.24,9.283169,-0.0029349636958644295,-0.023579196463302005,0.0966050877605131,32.08287849390507,-92.24360919585227,80.21211738781929
2024-09-23 09:17:17.372066,42.24,9.283169,-0.002387757474797703,-0.023728432883788564,0.09755024973162574,32.08287849390507,-92.24360919585227,80.21211738781929
2024-09-23 09:17:17.415202,42.24,9.283257,-0.0030841997366068195,-0.02338022115155219,0.09755024973162574,44.11764879391193,-100.26678939585686,84.22370748782159
2024-09-23 09:17:17.509050,42.24,9.283257,-0.0030841997366068195,-0.02338022115155219,0.09665483728461309,32.08287849390507,-100.26678939585686,76.200527287817
2024-09-23 09:17:17.521105,42.24,9.283308,-0.0038801188315820256,-0.02338022115155219,0.09665483728461309,32.08287849390507,-100.26678939585686,76.200527287817
2024-09-23 09:17:17.553977,41.47,9.283308,-0.0038801188315820256,-0.02352945757203875,0.09665483728461309,32.08287849390507,-100.26678939585686,76.200527287817
2024-09-23 09:17:17.565831,41.47,9.283359,-0.0038801188315820256,-0.02352945757203875,0.09725178296655933,36.09446859390736,-96.25519929585457,80.21211738781929
2024-09-23 09:17:17.608027,41.47,9.283359,-0.0028852147413806935,-0.02352945757203875,0.09725178296655933,36.09446859390736,-96.25519929585457,80.21211738781929
2024-09-23 09:17:17.651958,41.47,9.283359,-0.0028852147413806935,-0.023230986250042305,0.09750050628343246,36.09446859390736,-96.25519929585457,80.21211738781929
2024-09-23 09:17:17.664263,41.47,9.283452,-0.0028852147413806935,-0.023230986250042305,0.09750050628343246,44.11764879391193,-96.25519929585457,80.21211738781929
2024-09-23 09:17:17.707934,41.47,9.283452,-0.0029349636958644295,-0.023827930413011865,0.09685382322919964,28.07457030097246,-92.24360919585227,76.200527287817
2024-09-23 09:17:17.751343,41.47,9.283503,-0.003233425524256645,-0.023280723622328886,0.09685382322919964,28.07457030097246,-92.24360919585227,76.200527287817
2024-09-23 09:17:17.762980,41.47,9.283503,-0.003233425524256645,-0.023280723622328886,0.09685382322919964,36.09446859390736,-96.25519929585457,76.200527287817
2024-09-23 09:17:17.806548,41.47,9.2836,-0.0033329230534799477,-0.02352945757203875,0.09715228999426605,40.106058693909645,-96.25519929585457,72.1922225099802
2024-09-23 09:17:17.848727,41.47,9.28365,-0.0033329230534799477,-0.02352945757203875,0.09715228999426605,40.106058693909645,-100.26678939585686,80.21211738781929
2024-09-23 09:17:17.860062,41.47,9.28365,-0.0033329230534799477,-0.02352945757203875,0.09695331012558621,40.106058693909645,-100.26678939585686,80.21211738781929
2024-09-23 09:17:17.903465,41.47,9.283746,-0.0031836870127375577,-0.02308174982955575,0.09695331012558621,40.106058693909645,-104.27510100388527,76.200527287817
2024-09-23 09:17:17.946195,41.47,9.283746,-0.0031836870127375577,-0.02308174982955575,0.09655535038822652,44.11764879391193,-96.25519929585457,76.200527287817
2024-09-23 09:17:17.957712,41.47,9.283797,-0.003482159473966507,-0.02308174982955575,0.09655535038822652,44.11764879391193,-96.25519929585457,80.21211738781929
2024-09-23 09:17:18.000605,41.47,9.28389,-0.003482159473966507,-0.023579196463302005,0.09645586349183995,32.08287849390507,-100.26678939585686,80.21211738781929
2024-09-23 09:17:18.042223,41.47,9.28389,-0.0033329230534799477,-0.023280723622328886,0.09645586349183995,32.08287849390507,-100.26678939585686,80.21211738781929
2024-09-23 09:17:18.054284,41.47,9.28389,-0.0033329230534799477,-0.023280723622328886,0.09690356060148622,40.106058693909645,-96.25519929585457,84.22370748782159
2024-09-23 09:17:18.096922,41.47,9.283942,-0.003482159473966507,-0.02352945757203875,0.09640611396773996,40.106058693909645,-96.25519929585457,84.22370748782159
2024-09-23 09:17:18.107880,41.47,9.283942,-0.003482159473966507,-0.02352945757203875,0.09640611396773996,44.11764879391193,-104.27510100388527,84.22370748782159
2024-09-23 09:17:18.139780,41.47,9.283992,-0.003482159473966507,-0.02352945757203875,0.09640611396773996,44.11764879391193,-104.27510100388527,84.22370748782159
2024-09-23 09:17:18.151538,41.47,9.283992,-0.003233425524256645,-0.02397715620066169,0.09740101331113918,32.08287849390507,-104.27510100388527,84.22370748782159
2024-09-23 09:17:18.194252,41.47,9.284043,-0.0033329230534799477,-0.023181236725942318,0.09705279702197278,32.08287849390507,-96.25519929585457,84.22370748782159
2024-09-23 09:17:18.236980,41.47,9.284043,-0.0033329230534799477,-0.023181236725942318,0.09705279702197278,40.106058693909645,-100.26678939585686,84.22370748782159
2024-09-23 09:17:18.248140,41.47,9.284094,-0.0030344509719951677,-0.023230986250042305,0.09705279702197278,40.106058693909645,-100.26678939585686,84.22370748782159
2024-09-23 09:17:18.290177,41.47,9.284144,-0.0030344509719951677,-0.023230986250042305,0.09740101331113918,36.09446859390736,-100.26678939585686,80.21211738781929
2024-09-23 09:17:18.302198,41.47,9.284144,-0.003382661564999035,-0.023230986250042305,0.09740101331113918,36.09446859390736,-100.26678939585686,80.21211738781929
2024-09-23 09:17:18.334737,41.47,9.284144,-0.003382661564999035,-0.024076653729884996,0.09680407370509965,36.09446859390736,-100.26678939585686,80.21211738781929
2024-09-23 09:17:18.345887,41.47,9.284232,-0.003382661564999035,-0.024076653729884996,0.09680407370509965,32.08287849390507,-100.26678939585686,80.21211738781929
2024-09-23 09:17:18.388180,41.47,9.284232,-0.0032831742888682963,-0.023728432883788564,0.09725178296655933,44.11764879391193,-100.26678939585686,80.21211738781929
2024-09-23 09:17:18.431143,41.47,9.284232,-0.0032831742888682963,-0.023728432883788564,0.09725178296655933,44.11764879391193,-100.26678939585686,80.21211738781929
2024-09-23 09:17:18.442205,41.47,9.284283,-0.002785727465249955,-0.024026904205785005,0.09655535038822652,48.12595698684454,-100.26678939585686,80.21211738781929
2024-09-23 09:17:18.485214,41.47,9.284334,-0.0027359787006383035,-0.023429960042815445,0.09655535038822652,48.12595698684454,-92.24360919585227,76.200527287817
2024-09-23 09:17:18.497053,41.47,9.284334,-0.0027359787006383035,-0.023429960042815445,0.09705279702197278,48.12595698684454,-92.24360919585227,76.200527287817
2024-09-23 09:17:18.529382,41.47,9.284334,-0.0027359787006383035,-0.023429960042815445,0.09705279702197278,36.09446859390736,-96.25519929585457,76.200527287817
2024-09-23 09:17:18.540606,41.47,9.284384,-0.0035816467500972456,-0.023479709566915436,0.09705279702197278,36.09446859390736,-96.25519929585457,80.21211738781929
2024-09-23 09:17:18.583698,41.52,9.284435,-0.0035816467500972456,-0.023479709566915436,0.0973015264147526,36.09446859390736,-100.26678939585686,76.200527287817
2024-09-23 09:17:18.595672,41.52,9.284435,-0.003482159473966507,-0.023479709566915436,0.0973015264147526,36.09446859390736,-100.26678939585686,76.200527287817
2024-09-23 09:17:18.628031,41.52,9.284435,-0.003482159473966507,-0.023479709566915436,0.09675432418099966,40.106058693909645,-100.26678939585686,76.200527287817
2024-09-23 09:17:18.639758,41.52,9.284486,-0.003482159473966507,-0.023479709566915436,0.09675432418099966,40.106058693909645,-96.25519929585457,80.21211738781929
2024-09-23 09:17:18.681747,41.52,9.284486,-0.003631395514708897,-0.02338022115155219,0.09695331012558621,44.11764879391193,-96.25519929585457,80.21211738781929
2024-09-23 09:17:18.724863,41.52,9.284573,-0.003382661564999035,-0.02338022115155219,0.09695331012558621,44.11764879391193,-96.25519929585457,80.21211738781929
2024-09-23 09:17:18.735886,41.52,9.284573,-0.003382661564999035,-0.023479709566915436,0.09695331012558621,36.09446859390736,-104.27510100388527,80.21211738781929
2024-09-23 09:17:18.778310,41.52,9.284625,-0.002785727465249955,-0.02397715620066169,0.09695331012558621,36.09446859390736,-104.27510100388527,80.21211738781929
2024-09-23 09:17:18.789778,41.52,9.284625,-0.002785727465249955,-0.02397715620066169,0.09685382322919964,40.106058693909645,-104.27510100388527,80.21211738781929
2024-09-23 09:17:18.822803,41.52,9.284625,-0.002785727465249955,-0.02397715620066169,0.09685382322919964,40.106058693909645,-96.25519929585457,80.21211738781929
2024-09-23 09:17:18.834140,41.52,9.284675,-0.0035318979854855937,-0.023877669304275123,0.09695331012558621,40.106058693909645,-96.25519929585457,80.21211738781929
2024-09-23 09:17:18.876444,41.52,9.284726,-0.0035318979854855937,-0.023877669304275123,0.09695331012558621,36.09446859390736,-96.25519929585457,80.21211738781929
2024-09-23 09:17:18.888190,41.52,9.284726,-0.0032831742888682963,-0.023778180888911878,0.09695331012558621,36.09446859390736,-96.25519929585457,80.21211738781929
2024-09-23 09:17:18.920490,41.52,9.284726,-0.0032831742888682963,-0.023778180888911878,0.09759999317981902,40.106058693909645,-92.24360919585227,80.21211738781929
2024-09-23 09:17:18.931673,41.52,9.284777,-0.0031339382481259063,-0.023778180888911878,0.09759999317981902,40.106058693909645,-92.24360919585227,76.200527287817
2024-09-23 09:17:18.974370,41.52,9.284865,-0.0031339382481259063,-0.023778180888911878,0.09685382322919964,32.08287849390507,-100.26678939585686,84.22370748782159
2024-09-23 09:17:19.017021,41.52,9.284865,-0.0035816467500972456,-0.024225890150371555,0.09685382322919964,32.08287849390507,-100.26678939585686,84.22370748782159
2024-09-23 09:17:19.028363,41.52,9.284865,-0.0035816467500972456,-0.024225890150371555,0.09690356060148622,40.106058693909645,-96.25519929585457,80.21211738781929
2024-09-23 09:17:19.071179,41.52,9.284917,-0.0037308827908396356,-0.02412639262114825,0.0966050877605131,44.11764879391193,-96.25519929585457,80.21211738781929
2024-09-23 09:17:19.083199,41.52,9.284917,-0.0037308827908396356,-0.02412639262114825,0.0966050877605131,44.11764879391193,-104.27510100388527,80.21211738781929
2024-09-23 09:17:19.116064,41.52,9.284968,-0.003233425524256645,-0.02412639262114825,0.0966050877605131,44.11764879391193,-104.27510100388527,76.200527287817
2024-09-23 09:17:19.127028,41.52,9.284968,-0.003233425524256645,-0.023280723622328886,0.09640611396773996,40.106058693909645,-104.27510100388527,76.200527287817
2024-09-23 09:17:19.211734,41.52,9.284968,-0.003233425524256645,-0.023280723622328886,0.09640611396773996,40.106058693909645,-96.25519929585457,80.21211738781929
2024-09-23 09:17:19.225853,41.52,9.285018,-0.0034324103296106863,-0.02412639262114825,0.09675432418099966,40.106058693909645,-96.25519929585457,80.21211738781929
2024-09-23 09:17:19.268599,41.52,9.285069,-0.003233425524256645,-0.02367869399252531,0.09675432418099966,28.07457030097246,-96.25519929585457,84.22370748782159
2024-09-23 09:17:19.312631,41.52,9.285069,-0.003233425524256645,-0.02367869399252531,0.09690356060148622,44.11764879391193,-100.26678939585686,84.22370748782159
2024-09-23 09:17:19.324265,41.52,9.285119,-0.0028852147413806935,-0.02367869399252531,0.09690356060148622,44.11764879391193,-100.26678939585686,84.22370748782159
2024-09-23 09:17:19.356015,41.52,9.285119,-0.0028852147413806935,-0.02362894446842532,0.09690356060148622,44.11764879391193,-100.26678939585686,84.22370748782159
2024-09-23 09:17:19.367122,41.52,9.285207,-0.0028852147413806935,-0.02362894446842532,0.09685382322919964,40.106058693909645,-96.25519929585457,76.200527287817
2024-09-23 09:17:19.408858,41.52,9.285207,-0.0026862297461545674,-0.023579196463302005,0.0973512698629459,40.106058693909645,-96.25519929585457,76.200527287817
2024-09-23 09:17:19.420552,41.52,9.285207,-0.0026862297461545674,-0.023579196463302005,0.0973512698629459,44.11764879391193,-96.25519929585457,76.200527287817
2024-09-23 09:17:19.463930,41.52,9.285305,-0.003482159473966507,-0.02303200030545576,0.0973015264147526,44.11764879391193,-92.24360919585227,80.21211738781929
2024-09-23 09:17:19.505861,41.52,9.285305,-0.003482159473966507,-0.02303200030545576,0.0973015264147526,36.09446859390736,-96.25519929585457,84.22370748782159
2024-09-23 09:17:19.517666,41.52,9.285356,-0.0028852147413806935,-0.02367869399252531,0.0973015264147526,36.09446859390736,-96.25519929585457,84.22370748782159
2024-09-23 09:17:19.560255,41.52,9.285407,-0.0035816467500972456,-0.02367869399252531,0.0966050877605131,36.09446859390736,-92.24360919585227,84.22370748782159
2024-09-23 09:17:19.603495,41.61,9.285407,-0.0035816467500972456,-0.023429960042815445,0.09630662707135339,36.09446859390736,-92.24360919585227,84.22370748782159
2024-09-23 09:17:19.615401,41.61,9.285457,-0.0035816467500972456,-0.023429960042815445,0.09630662707135339,36.09446859390736,-92.24360919585227,80.21211738781929
2024-09-23 09:17:19.658210,41.61,9.285457,-0.0029847020175114316,-0.02303200030545576,0.09750050628343246,32.08287849390507,-96.25519929585457,76.200527287817
2024-09-23 09:17:19.700586,41.61,9.285548,-0.0036811340262279837,-0.023778180888911878,0.09750050628343246,32.08287849390507,-96.25519929585457,76.200527287817
2024-09-23 09:17:19.712228,41.61,9.285548,-0.0036811340262279837,-0.023778180888911878,0.09675432418099966,32.08287849390507,-100.26678939585686,76.200527287817
2024-09-23 09:17:19.755517,41.61,9.2856,-0.0035816467500972456,-0.02367869399252531,0.09690356060148622,32.08287849390507,-100.26678939585686,88.23529758782387
2024-09-23 09:17:19.798586,41.61,9.2856,-0.0035816467500972456,-0.02367869399252531,0.09690356060148622,44.11764879391193,-96.25519929585457,88.23529758782387
2024-09-23 09:17:19.810367,41.61,9.28565,-0.0027359787006383035,-0.02352945757203875,0.09690356060148622,44.11764879391193,-96.25519929585457,88.23529758782387
2024-09-23 09:17:19.844579,41.61,9.28565,-0.0027359787006383035,-0.02352945757203875,0.09720203344245934,44.11764879391193,-96.25519929585457,88.23529758782387
2024-09-23 09:17:19.856004,41.61,9.285701,-0.0031339382481259063,-0.02352945757203875,0.09720203344245934,36.09446859390736,-104.27510100388527,80.21211738781929
2024-09-23 09:17:19.898245,41.61,9.285701,-0.0031339382481259063,-0.02338022115155219,0.09680407370509965,32.08287849390507,-100.26678939585686,80.21211738781929
2024-09-23 09:17:19.910115,41.61,9.285752,-0.0031339382481259063,-0.02338022115155219,0.09680407370509965,32.08287849390507,-100.26678939585686,80.21211738781929
2024-09-23 09:17:19.941951,41.61,9.285752,-0.0030344509719951677,-0.02338022115155219,0.09680407370509965,32.08287849390507,-100.26678939585686,80.21211738781929
2024-09-23 09:17:19.953229,41.61,9.285752,-0.0030344509719951677,-0.023827930413011865,0.09740101331113918,44.11764879391193,-104.27510100388527,80.21211738781929
2024-09-23 09:17:19.996513,41.61,9.28584,-0.003631395514708897,-0.023230986250042305,0.09764974270391902,36.09446859390736,-104.27510100388527,80.21211738781929
2024-09-23 09:17:20.008227,41.61,9.28584,-0.003631395514708897,-0.023230986250042305,0.09764974270391902,36.09446859390736,-100.26678939585686,80.21211738781929
2024-09-23 09:17:20.040292,41.61,9.28584,-0.003631395514708897,-0.023230986250042305,0.09764974270391902,36.09446859390736,-100.26678939585686,80.21211738781929
2024-09-23 09:17:20.052169,41.61,9.285892,-0.003233425524256645,-0.02397715620066169,0.09675432418099966,36.09446859390736,-100.26678939585686,80.21211738781929
2024-09-23 09:17:20.094643,41.61,9.285943,-0.0030841997366068195,-0.02362894446842532,0.09675432418099966,36.09446859390736,-100.26678939585686,80.21211738781929
2024-09-23 09:17:20.106762,41.61,9.285943,-0.0030841997366068195,-0.02362894446842532,0.09715228999426605,36.09446859390736,-100.26678939585686,80.21211738781929
2024-09-23 09:17:20.138496,41.61,9.285943,-0.0030841997366068195,-0.02362894446842532,0.09715228999426605,40.106058693909645,-96.25519929585457,80.21211738781929
2024-09-23 09:17:20.149862,41.61,9.285993,-0.0032831742888682963,-0.02293251340906919,0.09715228999426605,40.106058693909645,-96.25519929585457,80.21211738781929
2024-09-23 09:17:20.191492,41.61,9.285993,-0.0032831742888682963,-0.02293251340906919,0.09680407370509965,36.09446859390736,-100.26678939585686,76.200527287817
2024-09-23 09:17:20.202781,41.61,9.286044,-0.0031339382481259063,-0.02293251340906919,0.09680407370509965,36.09446859390736,-100.26678939585686,76.200527287817
2024-09-23 09:17:20.235703,41.61,9.286044,-0.0031339382481259063,-0.023330473146428877,0.09680407370509965,36.09446859390736,-100.26678939585686,76.200527287817
2024-09-23 09:17:20.246813,41.61,9.286133,-0.0031339382481259063,-0.023330473146428877,0.09680407370509965,32.08287849390507,-100.26678939585686,72.1922225099802
2024-09-23 09:17:20.288815,41.61,9.286133,-0.0031339382481259063,-0.024375126570858115,0.0973015264147526,32.08287849390507,-100.26678939585686,72.1922225099802
2024-09-23 09:17:20.300538,41.61,9.286133,-0.0031339382481259063,-0.024375126570858115,0.0973015264147526,32.08287849390507,-100.26678939585686,84.22370748782159
2024-09-23 09:17:20.333317,41.61,9.286184,-0.0029349636958644295,-0.024375126570858115,0.0973015264147526,32.08287849390507,-100.26678939585686,84.22370748782159
2024-09-23 09:17:20.344655,41.61,9.286184,-0.0029349636958644295,-0.02362894446842532,0.09705279702197278,40.106058693909645,-92.24360919585227,84.22370748782159
2024-09-23 09:17:20.386712,41.61,9.286235,-0.0034324103296106863,-0.02352945757203875,0.09690356060148622,40.106058693909645,-92.24360919585227,84.22370748782159
2024-09-23 09:17:20.398311,41.61,9.286235,-0.0034324103296106863,-0.02352945757203875,0.09690356060148622,40.106058693909645,-92.24360919585227,84.22370748782159
2024-09-23 09:17:20.430329,41.61,9.286235,-0.0034324103296106863,-0.02352945757203875,0.09690356060148622,40.106058693909645,-104.27510100388527,84.22370748782159
2024-09-23 09:17:20.443523,41.61,9.286286,-0.0032831742888682963,-0.02352945757203875,0.09690356060148622,40.106058693909645,-104.27510100388527,84.22370748782159
2024-09-23 09:17:20.486343,41.61,9.286336,-0.0032831742888682963,-0.023280723622328886,0.09670458680871308,36.09446859390736,-100.26678939585686,80.21211738781929
2024-09-23 09:17:20.528652,41.61,9.286336,-0.0030344509719951677,-0.023728432883788564,0.09670458680871308,36.09446859390736,-100.26678939585686,80.21211738781929
2024-09-23 09:17:20.539837,41.61,9.286336,-0.0030344509719951677,-0.023728432883788564,0.09675432418099966,36.09446859390736,-96.25519929585457,72.1922225099802
2024-09-23 09:17:20.582948,41.61,9.286387,-0.0028852147413806935,-0.02362894446842532,0.09710254654607277,32.08287849390507,-96.25519929585457,72.1922225099802
2024-09-23 09:17:20.625249,42.04,9.286474,-0.0028852147413806935,-0.02362894446842532,0.09710254654607277,32.08287849390507,-96.25519929585457,80.21211738781929
2024-09-23 09:17:20.637043,42.04,9.286474,-0.003482159473966507,-0.023479709566915436,0.09650560086412653,36.09446859390736,-96.25519929585457,80.21211738781929
2024-09-23 09:17:20.679162,42.04,9.286525,-0.0030344509719951677,-0.023479709566915436,0.09650560086412653,36.09446859390736,-100.26678939585686,76.200527287817
2024-09-23 09:17:20.691337,42.04,9.286525,-0.0030344509719951677,-0.023479709566915436,0.09690356060148622,36.09446859390736,-100.26678939585686,76.200527287817
2024-09-23 09:17:20.723524,42.04,9.286525,-0.0030344509719951677,-0.023479709566915436,0.09690356060148622,36.09446859390736,-100.26678939585686,76.200527287817
2024-09-23 09:17:20.734538,42.04,9.286576,-0.0031836870127375577,-0.02367869399252531,0.09690356060148622,36.09446859390736,-100.26678939585686,72.1922225099802
2024-09-23 09:17:20.776987,42.04,9.286626,-0.0031836870127375577,-0.02367869399252531,0.09755024973162574,36.09446859390736,-104.27510100388527,76.200527287817
2024-09-23 09:17:20.789166,42.04,9.286626,-0.003631395514708897,-0.02367869399252531,0.09755024973162574,36.09446859390736,-104.27510100388527,76.200527287817
2024-09-23 09:17:20.821228,42.04,9.286626,-0.003631395514708897,-0.02367869399252531,0.09710254654607277,36.09446859390736,-104.27510100388527,76.200527287817
2024-09-23 09:17:20.832311,42.04,9.286718,-0.003631395514708897,-0.02367869399252531,0.09710254654607277,28.07457030097246,-100.26678939585686,80.21211738781929
2024-09-23 09:17:20.874066,42.04,9.286718,-0.0034324103296106863,-0.02397715620066169,0.0973015264147526,36.09446859390736,-96.25519929585457,80.21211738781929
2024-09-23 09:17:20.885593,42.04,9.286718,-0.0034324103296106863,-0.02397715620066169,0.0973015264147526,36.09446859390736,-96.25519929585457,84.22370748782159
2024-09-23 09:17:20.969455,42.04,9.286769,-0.0035318979854855937,-0.023778180888911878,0.0973015264147526,36.09446859390736,-96.25519929585457,84.22370748782159
2024-09-23 09:17:20.981722,42.04,9.286769,-0.0035318979854855937,-0.023778180888911878,0.09750050628343246,40.106058693909645,-96.25519929585457,84.22370748782159
2024-09-23 09:17:21.013647,42.04,9.286769,-0.0035318979854855937,-0.023778180888911878,0.09750050628343246,40.106058693909645,-96.25519929585457,80.21211738781929
2024-09-23 09:17:21.025128,42.04,9.28682,-0.0030344509719951677,-0.023280723622328886,0.09640611396773996,36.09446859390736,-96.25519929585457,80.21211738781929
2024-09-23 09:17:21.118503,42.04,9.286871,-0.003233425524256645,-0.023728432883788564,0.09640611396773996,36.09446859390736,-100.26678939585686,76.200527287817
2024-09-23 09:17:21.130632,42.04,9.286871,-0.003233425524256645,-0.023728432883788564,0.09740101331113918,36.09446859390736,-100.26678939585686,76.200527287817
2024-09-23 09:17:21.164189,42.04,9.286871,-0.003233425524256645,-0.023728432883788564,0.09740101331113918,32.08287849390507,-100.26678939585686,80.21211738781929
2024-09-23 09:17:21.175568,42.04,9.286921,-0.0031836870127375577,-0.024026904205785005,0.09740101331113918,32.08287849390507,-100.26678939585686,80.21211738781929
2024-09-23 09:17:21.218027,42.04,9.286972,-0.0037308827908396356,-0.024026904205785005,0.09645586349183995,36.09446859390736,-92.24360919585227,80.21211738781929
2024-09-23 09:17:21.260170,42.04,9.286972,-0.0037308827908396356,-0.02352945757203875,0.09675432418099966,28.07457030097246,-92.24360919585227,80.21211738781929
2024-09-23 09:17:21.272833,42.04,9.287108,-0.0037308827908396356,-0.02352945757203875,0.09675432418099966,28.07457030097246,-100.26678939585686,76.200527287817
2024-09-23 09:17:21.306313,42.04,9.287108,-0.0035318979854855937,-0.02352945757203875,0.09675432418099966,28.07457030097246,-100.26678939585686,76.200527287817
2024-09-23 09:17:21.317816,42.04,9.287108,-0.0035318979854855937,-0.02367869399252531,0.09675432418099966,44.11764879391193,-100.26678939585686,76.200527287817
2024-09-23 09:17:21.360343,42.04,9.287206,-0.0035318979854855937,-0.02362894446842532,0.09695331012558621,44.11764879391193,-100.26678939585686,76.200527287817
2024-09-23 09:17:21.371402,42.04,9.287206,-0.0035318979854855937,-0.02362894446842532,0.09695331012558621,36.09446859390736,-108.28669110388756,76.200527287817
2024-09-23 09:17:21.403651,42.04,9.287206,-0.0035318979854855937,-0.02362894446842532,0.09695331012558621,36.09446859390736,-108.28669110388756,76.200527287817
2024-09-23 09:17:21.415033,42.04,9.287257,-0.0038303700669703737,-0.023479709566915436,0.09690356060148622,32.08287849390507,-108.28669110388756,76.200527287817
2024-09-23 09:17:21.457913,42.04,9.287308,-0.003233425524256645,-0.023479709566915436,0.09690356060148622,32.08287849390507,-100.26678939585686,84.22370748782159
2024-09-23 09:17:21.470504,42.04,9.287308,-0.003233425524256645,-0.02367869399252531,0.09675432418099966,32.08287849390507,-100.26678939585686,84.22370748782159
2024-09-23 09:17:21.502362,42.04,9.287308,-0.003233425524256645,-0.02367869399252531,0.09675432418099966,32.08287849390507,-100.26678939585686,84.22370748782159
2024-09-23 09:17:21.515625,42.04,9.287359,-0.0038801188315820256,-0.02367869399252531,0.09675432418099966,32.08287849390507,-104.27510100388527,80.21211738781929
2024-09-23 09:17:21.558292,42.04,9.287409,-0.0038801188315820256,-0.02367869399252531,0.09685382322919964,24.06297849342227,-104.27510100388527,80.21211738781929
2024-09-23 09:17:21.569730,42.04,9.287409,-0.003382661564999035,-0.02367869399252531,0.09685382322919964,24.06297849342227,-104.27510100388527,80.21211738781929
2024-09-23 09:17:21.602762,42.04,9.287409,-0.003382661564999035,-0.02362894446842532,0.09655535038822652,48.12595698684454,-104.27510100388527,80.21211738781929
2024-09-23 09:17:21.614093,42.04,9.287498,-0.003382661564999035,-0.02362894446842532,0.09655535038822652,48.12595698684454,-96.25519929585457,84.22370748782159
2024-09-23 09:17:21.656918,42.21,9.287498,-0.0029847020175114316,-0.023728432883788564,0.0973512698629459,32.08287849390507,-96.25519929585457,80.21211738781929
2024-09-23 09:17:21.700474,42.21,9.287549,-0.0035318979854855937,-0.023827930413011865,0.09725178296655933,32.08287849390507,-96.25519929585457,80.21211738781929
2024-09-23 09:17:21.711504,42.21,9.287549,-0.0035318979854855937,-0.023827930413011865,0.09725178296655933,36.09446859390736,-92.24360919585227,80.21211738781929
2024-09-23 09:17:21.754082,42.21,9.2876,-0.003382661564999035,-0.023280723622328886,0.09720203344245934,40.106058693909645,-92.24360919585227,76.200527287817
2024-09-23 09:17:21.798791,42.21,9.287651,-0.003382661564999035,-0.023280723622328886,0.09720203344245934,40.106058693909645,-88.23529758782387,80.21211738781929
2024-09-23 09:17:21.810248,42.21,9.287651,-0.0030841997366068195,-0.023280723622328886,0.09720203344245934,40.106058693909645,-88.23529758782387,80.21211738781929
2024-09-23 09:17:21.842544,42.21,9.287651,-0.0030841997366068195,-0.02397715620066169,0.09720203344245934,40.106058693909645,-88.23529758782387,80.21211738781929
2024-09-23 09:17:21.853887,42.21,9.287701,-0.0030841997366068195,-0.02397715620066169,0.09779897304849887,36.09446859390736,-96.25519929585457,80.21211738781929
2024-09-23 09:17:21.895914,42.21,9.287701,-0.0029847020175114316,-0.02367869399252531,0.09779897304849887,36.09446859390736,-96.25519929585457,80.21211738781929
2024-09-23 09:17:21.949238,42.21,9.287752,-0.0030841997366068195,-0.02367869399252531,0.09764974270391902,40.106058693909645,-92.24360919585227,76.200527287817
2024-09-23 09:17:21.991158,42.21,9.287752,-0.0030841997366068195,-0.02352945757203875,0.09630662707135339,40.106058693909645,-92.24360919585227,76.200527287817
2024-09-23 09:17:22.003103,42.21,9.287839,-0.0030841997366068195,-0.02352945757203875,0.09630662707135339,40.106058693909645,-104.27510100388527,76.200527287817
2024-09-23 09:17:22.046822,42.21,9.287839,-0.0030841997366068195,-0.023579196463302005,0.09695331012558621,36.09446859390736,-88.23529758782387,92.24360919585227
2024-09-23 09:17:22.089962,42.21,9.287891,-0.0035318979854855937,-0.023728432883788564,0.09695331012558621,36.09446859390736,-88.23529758782387,92.24360919585227
2024-09-23 09:17:22.101410,42.21,9.287891,-0.0035318979854855937,-0.023728432883788564,0.09695331012558621,36.09446859390736,-100.26678939585686,92.24360919585227
2024-09-23 09:17:22.144424,42.21,9.287941,-0.003780631555451287,-0.023927417309398437,0.09670458680871308,36.09446859390736,-100.26678939585686,84.22370748782159
2024-09-23 09:17:22.187367,42.21,9.288036,-0.003780631555451287,-0.023927417309398437,0.09670458680871308,36.09446859390736,-96.25519929585457,84.22370748782159
2024-09-23 09:17:22.199061,42.21,9.288036,-0.0030841997366068195,-0.023330473146428877,0.09745075675933246,36.09446859390736,-96.25519929585457,84.22370748782159
2024-09-23 09:17:22.241847,42.21,9.288087,-0.0034324103296106863,-0.02362894446842532,0.09745075675933246,40.106058693909645,-100.26678939585686,72.1922225099802
2024-09-23 09:17:22.283481,42.21,9.288087,-0.0034324103296106863,-0.02362894446842532,0.09755024973162574,36.09446859390736,-100.26678939585686,72.1922225099802
2024-09-23 09:17:22.295323,42.21,9.288137,-0.003382661564999035,-0.02362894446842532,0.09755024973162574,36.09446859390736,-96.25519929585457,80.21211738781929
2024-09-23 09:17:22.338854,42.21,9.288229,-0.003382661564999035,-0.023479709566915436,0.0970030596496862,36.09446859390736,-96.25519929585457,80.21211738781929
2024-09-23 09:17:22.382243,42.21,9.288229,-0.0031836870127375577,-0.023827930413011865,0.09675432418099966,36.09446859390736,-96.25519929585457,80.21211738781929
2024-09-23 09:17:22.393921,42.21,9.288229,-0.0031836870127375577,-0.023827930413011865,0.09675432418099966,48.12595698684454,-96.25519929585457,72.1922225099802
2024-09-23 09:17:22.437052,42.21,9.288281,-0.0035318979854855937,-0.023927417309398437,0.09685382322919964,44.11764879391193,-104.27510100388527,72.1922225099802
2024-09-23 09:17:22.479272,42.21,9.288331,-0.002785727465249955,-0.023927417309398437,0.09685382322919964,44.11764879391193,-104.27510100388527,84.22370748782159
2024-09-23 09:17:22.490541,42.21,9.288331,-0.002785727465249955,-0.023778180888911878,0.09720203344245934,44.11764879391193,-104.27510100388527,84.22370748782159
2024-09-23 09:17:22.532884,42.21,9.288382,-0.003233425524256645,-0.023778180888911878,0.09720203344245934,32.08287849390507,-104.27510100388527,84.22370748782159
2024-09-23 09:17:22.545136,42.21,9.288382,-0.003233425524256645,-0.023579196463302005,0.09720203344245934,32.08287849390507,-104.27510100388527,84.22370748782159
2024-09-23 09:17:22.578463,42.21,9.288382,-0.003233425524256645,-0.023579196463302005,0.0973015264147526,32.08287849390507,-100.26678939585686,84.22370748782159
2024-09-23 09:17:22.589751,42.21,9.288433,-0.003382661564999035,-0.023579196463302005,0.0973015264147526,32.08287849390507,-100.26678939585686,76.200527287817
2024-09-23 09:17:22.622019,42.21,9.288433,-0.003382661564999035,-0.023778180888911878,0.0973015264147526,32.08287849390507,-100.26678939585686,76.200527287817
2024-09-23 09:17:22.633651,42.21,9.288483,-0.003382661564999035,-0.023778180888911878,0.09720203344245934,32.08287849390507,-96.25519929585457,76.200527287817
2024-09-23 09:17:22.675944,42.01,9.288483,-0.0036811340262279837,-0.023728432883788564,0.09645586349183995,44.11764879391193,-96.25519929585457,76.200527287817
2024-09-23 09:17:22.687665,42.01,9.288483,-0.0036811340262279837,-0.023728432883788564,0.09645586349183995,44.11764879391193,-92.24360919585227,68.18063240997792
2024-09-23 09:17:22.719849,42.01,9.28857,-0.0036811340262279837,-0.023728432883788564,0.09645586349183995,44.11764879391193,-92.24360919585227,68.18063240997792
2024-09-23 09:17:22.731127,42.01,9.28857,-0.0031339382481259063,-0.023330473146428877,0.09695331012558621,40.106058693909645,-96.25519929585457,68.18063240997792
2024-09-23 09:17:22.773799,42.01,9.288622,-0.0031339382481259063,-0.023330473146428877,0.09695331012558621,40.106058693909645,-96.25519929585457,84.22370748782159
2024-09-23 09:17:22.785313,42.01,9.288622,-0.0031339382481259063,-0.023778180888911878,0.0970030596496862,36.09446859390736,-96.25519929585457,84.22370748782159
2024-09-23 09:17:22.818834,42.01,9.288622,-0.0031339382481259063,-0.023778180888911878,0.0970030596496862,36.09446859390736,-96.25519929585457,84.22370748782159
2024-09-23 09:17:22.830710,42.01,9.288673,-0.0028354659767690416,-0.02352945757203875,0.09690356060148622,36.09446859390736,-96.25519929585457,84.22370748782159
2024-09-23 09:17:22.872671,42.01,9.288724,-0.0028354659767690416,-0.02352945757203875,0.09690356060148622,32.08287849390507,-104.27510100388527,84.22370748782159
2024-09-23 09:17:22.883967,42.01,9.288724,-0.0030841997366068195,-0.023181236725942318,0.09690356060148622,32.08287849390507,-104.27510100388527,84.22370748782159
2024-09-23 09:17:22.916457,42.01,9.288724,-0.0030841997366068195,-0.023181236725942318,0.09710254654607277,32.08287849390507,-104.27510100388527,84.22370748782159
2024-09-23 09:17:22.927893,42.01,9.288774,-0.0026862297461545674,-0.023181236725942318,0.09710254654607277,36.09446859390736,-100.26678939585686,84.22370748782159
2024-09-23 09:17:22.969680,42.01,9.288774,-0.0026862297461545674,-0.02338022115155219,0.09665483728461309,32.08287849390507,-100.26678939585686,84.22370748782159
2024-09-23 09:17:22.980668,42.01,9.288863,-0.0026862297461545674,-0.02338022115155219,0.09665483728461309,32.08287849390507,-100.26678939585686,76.200527287817
2024-09-23 09:17:23.011988,42.01,9.288863,-0.0029349636958644295,-0.02338022115155219,0.09665483728461309,32.08287849390507,-100.26678939585686,76.200527287817
2024-09-23 09:17:23.023543,42.01,9.288863,-0.0029349636958644295,-0.023280723622328886,0.09710254654607277,36.09446859390736,-96.25519929585457,72.1922225099802
2024-09-23 09:17:23.068773,42.01,9.288914,-0.0029349636958644295,-0.02352945757203875,0.09740101331113918,36.09446859390736,-96.25519929585457,72.1922225099802
2024-09-23 09:17:23.081461,42.01,9.288914,-0.0029349636958644295,-0.02352945757203875,0.09740101331113918,36.09446859390736,-92.24360919585227,72.1922225099802
2024-09-23 09:17:23.114209,42.01,9.288965,-0.0034324103296106863,-0.02352945757203875,0.09740101331113918,36.09446859390736,-92.24360919585227,80.21211738781929
2024-09-23 09:17:23.125580,42.01,9.288965,-0.0034324103296106863,-0.02367869399252531,0.09690356060148622,32.08287849390507,-92.24360919585227,80.21211738781929
2024-09-23 09:17:23.168891,42.01,9.289016,-0.003482159473966507,-0.02352945757203875,0.09655535038822652,32.08287849390507,-100.26678939585686,80.21211738781929
2024-09-23 09:17:23.211297,42.01,9.289016,-0.003482159473966507,-0.02352945757203875,0.09655535038822652,32.08287849390507,-100.26678939585686,72.1922225099802
2024-09-23 09:17:23.222519,42.01,9.289066,-0.003631395514708897,-0.02338022115155219,0.09655535038822652,32.08287849390507,-100.26678939585686,72.1922225099802
2024-09-23 09:17:23.307380,42.01,9.289066,-0.003631395514708897,-0.02338022115155219,0.09720203344245934,36.09446859390736,-100.26678939585686,72.1922225099802
2024-09-23 09:17:23.318459,42.01,9.289117,-0.0037308827908396356,-0.02338022115155219,0.09720203344245934,36.09446859390736,-104.27510100388527,80.21211738781929
2024-09-23 09:17:23.360492,42.01,9.289117,-0.0037308827908396356,-0.02352945757203875,0.09720203344245934,44.11764879391193,-100.26678939585686,80.21211738781929
2024-09-23 09:17:23.374136,42.01,9.289204,-0.0037308827908396356,-0.02352945757203875,0.09720203344245934,44.11764879391193,-100.26678939585686,80.21211738781929
2024-09-23 09:17:23.406291,42.01,9.289204,-0.0035816467500972456,-0.023728432883788564,0.09715228999426605,44.11764879391193,-100.26678939585686,80.21211738781929
2024-09-23 09:17:23.417819,42.01,9.289204,-0.0035816467500972456,-0.023728432883788564,0.09715228999426605,36.09446859390736,-100.26678939585686,84.22370748782159
2024-09-23 09:17:23.501243,42.01,9.289256,-0.0035816467500972456,-0.023728432883788564,0.09715228999426605,36.09446859390736,-100.26678939585686,84.22370748782159
2024-09-23 09:17:23.513658,42.01,9.289256,-0.0031836870127375577,-0.02367869399252531,0.0973015264147526,36.09446859390736,-100.26678939585686,84.22370748782159
2024-09-23 09:17:23.556282,42.01,9.289306,-0.0034324103296106863,-0.023927417309398437,0.0973015264147526,36.09446859390736,-96.25519929585457,72.1922225099802
2024-09-23 09:17:23.568154,42.01,9.289306,-0.0034324103296106863,-0.023927417309398437,0.09710254654607277,36.09446859390736,-96.25519929585457,72.1922225099802
2024-09-23 09:17:23.599821,42.01,9.289306,-0.0034324103296106863,-0.023927417309398437,0.09710254654607277,36.09446859390736,-96.25519929585457,72.1922225099802
2024-09-23 09:17:23.611733,42.01,9.289401,-0.003631395514708897,-0.02352945757203875,0.09710254654607277,36.09446859390736,-96.25519929585457,76.200527287817
2024-09-23 09:17:23.654781,42.01,9.289452,-0.0032831742888682963,-0.02352945757203875,0.0973512698629459,36.09446859390736,-96.25519929585457,76.200527287817
2024-09-23 09:17:23.697006,42.02,9.289452,-0.0032831742888682963,-0.02397715620066169,0.09680407370509965,36.09446859390736,-96.25519929585457,76.200527287817
2024-09-23 09:17:23.708307,42.02,9.289502,-0.0032831742888682963,-0.02397715620066169,0.09680407370509965,36.09446859390736,-96.25519929585457,76.200527287817
2024-09-23 09:17:23.750508,42.02,9.289502,-0.0034324103296106863,-0.024176140626271565,0.09705279702197278,36.09446859390736,-100.26678939585686,76.200527287817
2024-09-23 09:17:23.762563,42.02,9.289502,-0.0034324103296106863,-0.024176140626271565,0.09705279702197278,36.09446859390736,-100.26678939585686,84.22370748782159
2024-09-23 09:17:23.846658,42.02,9.289643,-0.003780631555451287,-0.024026904205785005,0.0970030596496862,36.09446859390736,-100.26678939585686,84.22370748782159
2024-09-23 09:17:23.858402,42.02,9.289643,-0.003780631555451287,-0.024026904205785005,0.0970030596496862,32.08287849390507,-100.26678939585686,84.22370748782159
2024-09-23 09:17:23.891045,42.02,9.289643,-0.003780631555451287,-0.024026904205785005,0.0970030596496862,32.08287849390507,-100.26678939585686,80.21211738781929
2024-09-23 09:17:23.902094,42.02,9.289695,-0.0035816467500972456,-0.023479709566915436,0.09710254654607277,36.09446859390736,-100.26678939585686,80.21211738781929
2024-09-23 09:17:23.944841,42.02,9.289745,-0.003631395514708897,-0.023479709566915436,0.09710254654607277,36.09446859390736,-100.26678939585686,80.21211738781929
2024-09-23 09:17:23.956775,42.02,9.289745,-0.003631395514708897,-0.023579196463302005,0.0973015264147526,36.09446859390736,-100.26678939585686,80.21211738781929
2024-09-23 09:17:23.989085,42.02,9.289745,-0.003631395514708897,-0.023579196463302005,0.0973015264147526,36.09446859390736,-96.25519929585457,80.21211738781929
2024-09-23 09:17:24.000644,42.02,9.289796,-0.0038303700669703737,-0.023230986250042305,0.0973015264147526,36.09446859390736,-96.25519929585457,80.21211738781929
2024-09-23 09:17:24.043819,42.02,9.289847,-0.003631395514708897,-0.023230986250042305,0.09715228999426605,36.09446859390736,-92.24360919585227,80.21211738781929
2024-09-23 09:17:24.086374,42.02,9.289847,-0.003631395514708897,-0.023827930413011865,0.09715228999426605,36.09446859390736,-92.24360919585227,80.21211738781929
2024-09-23 09:17:24.097481,42.02,9.289984,-0.003631395514708897,-0.023827930413011865,0.09685382322919964,44.11764879391193,-92.24360919585227,76.200527287817
2024-09-23 09:17:24.140376,42.02,9.289984,-0.0029349636958644295,-0.024325377046758124,0.09710254654607277,44.11764879391193,-92.24360919585227,76.200527287817
2024-09-23 09:17:24.152198,42.02,9.289984,-0.0029349636958644295,-0.024325377046758124,0.09710254654607277,44.11764879391193,-92.24360919585227,80.21211738781929
2024-09-23 09:17:24.184336,42.02,9.290036,-0.0035318979854855937,-0.024325377046758124,0.09710254654607277,44.11764879391193,-92.24360919585227,80.21211738781929
2024-09-23 09:17:24.195263,42.02,9.290036,-0.0035318979854855937,-0.023479709566915436,0.09750050628343246,40.106058693909645,-96.25519929585457,80.21211738781929
2024-09-23 09:17:24.237728,42.02,9.290086,-0.0026862297461545674,-0.02367869399252531,0.09710254654607277,40.106058693909645,-96.25519929585457,84.22370748782159
2024-09-23 09:17:24.249828,42.02,9.290086,-0.0026862297461545674,-0.02367869399252531,0.09710254654607277,32.08287849390507,-96.25519929585457,84.22370748782159
2024-09-23 09:17:24.281784,42.02,9.290086,-0.0026862297461545674,-0.02367869399252531,0.09710254654607277,32.08287849390507,-100.26678939585686,76.200527287817
2024-09-23 09:17:24.293460,42.02,9.290137,-0.0031836870127375577,-0.02412639262114825,0.09725178296655933,32.08287849390507,-100.26678939585686,76.200527287817
2024-09-23 09:17:24.335295,42.02,9.290188,-0.0035318979854855937,-0.02412639262114825,0.09725178296655933,36.09446859390736,-104.27510100388527,80.21211738781929
2024-09-23 09:17:24.346987,42.02,9.290188,-0.0035318979854855937,-0.023429960042815445,0.09725178296655933,36.09446859390736,-104.27510100388527,80.21211738781929
2024-09-23 09:17:24.382020,42.02,9.290188,-0.0035318979854855937,-0.023429960042815445,0.0966050877605131,44.11764879391193,-104.27510100388527,80.21211738781929
2024-09-23 09:17:24.393076,42.02,9.290239,-0.0036811340262279837,-0.023429960042815445,0.0966050877605131,44.11764879391193,-100.26678939585686,84.22370748782159
2024-09-23 09:17:24.435686,42.02,9.290325,-0.0036811340262279837,-0.02367869399252531,0.09695331012558621,28.07457030097246,-104.27510100388527,84.22370748782159
2024-09-23 09:17:24.529280,42.02,9.290325,-0.0034324103296106863,-0.02293251340906919,0.09725178296655933,36.09446859390736,-104.27510100388527,84.22370748782159
2024-09-23 09:17:24.572623,42.02,9.290325,-0.0034324103296106863,-0.02293251340906919,0.09725178296655933,36.09446859390736,-100.26678939585686,84.22370748782159
2024-09-23 09:17:24.583882,42.02,9.290377,-0.0026862297461545674,-0.02362894446842532,0.0973512698629459,36.09446859390736,-100.26678939585686,76.200527287817
2024-09-23 09:17:24.677125,42.02,9.290428,-0.0030841997366068195,-0.02362894446842532,0.0973512698629459,44.11764879391193,-100.26678939585686,76.200527287817
2024-09-23 09:17:24.689368,42.02,9.290428,-0.0030841997366068195,-0.02362894446842532,0.0973512698629459,44.11764879391193,-100.26678939585686,76.200527287817
2024-09-23 09:17:24.721917,41.9,9.290428,-0.0030841997366068195,-0.02362894446842532,0.0970030596496862,40.106058693909645,-96.25519929585457,76.200527287817
2024-09-23 09:17:24.733829,41.9,9.290478,-0.0034324103296106863,-0.02362894446842532,0.0970030596496862,40.106058693909645,-96.25519929585457,84.22370748782159
2024-09-23 09:17:24.776789,41.9,9.290529,-0.0034324103296106863,-0.023479709566915436,0.0966050877605131,32.08287849390507,-100.26678939585686,76.200527287817
2024-09-23 09:17:24.819361,41.9,9.290529,-0.0031339382481259063,-0.023579196463302005,0.09710254654607277,32.08287849390507,-100.26678939585686,76.200527287817
2024-09-23 09:17:24.830546,41.9,9.290529,-0.0031339382481259063,-0.023579196463302005,0.09710254654607277,40.106058693909645,-88.23529758782387,80.21211738781929
2024-09-23 09:17:24.873398,41.9,9.290667,-0.0030841997366068195,-0.023579196463302005,0.09710254654607277,40.106058693909645,-88.23529758782387,80.21211738781929
2024-09-23 09:17:24.915777,41.9,9.290667,-0.0030841997366068195,-0.02352945757203875,0.09675432418099966,40.106058693909645,-88.23529758782387,80.21211738781929
2024-09-23 09:17:24.927365,41.9,9.290765,-0.0030841997366068195,-0.02352945757203875,0.09675432418099966,44.11764879391193,-100.26678939585686,80.21211738781929
2024-09-23 09:17:24.970588,41.9,9.290765,-0.003233425524256645,-0.023778180888911878,0.0973512698629459,36.09446859390736,-100.26678939585686,80.21211738781929
2024-09-23 09:17:24.981947,41.9,9.290765,-0.003233425524256645,-0.023778180888911878,0.0973512698629459,36.09446859390736,-100.26678939585686,80.21211738781929
2024-09-23 09:17:25.014294,41.9,9.290816,-0.0030344509719951677,-0.023778180888911878,0.0973512698629459,36.09446859390736,-100.26678939585686,80.21211738781929
2024-09-23 09:17:25.025353,41.9,9.290816,-0.0030344509719951677,-0.023778180888911878,0.09745075675933246,32.08287849390507,-96.25519929585457,80.21211738781929
2024-09-23 09:17:25.067868,41.9,9.290867,-0.0030841997366068195,-0.02338022115155219,0.0973512698629459,28.07457030097246,-96.25519929585457,84.22370748782159
2024-09-23 09:17:25.111722,41.9,9.290867,-0.0030841997366068195,-0.02338022115155219,0.0973512698629459,28.07457030097246,-100.26678939585686,84.22370748782159
2024-09-23 09:17:25.122955,41.9,9.290918,-0.0038801188315820256,-0.023877669304275123,0.09750050628343246,28.07457030097246,-100.26678939585686,84.22370748782159
2024-09-23 09:17:25.166292,41.9,9.29101,-0.0024872551938930902,-0.023330473146428877,0.09750050628343246,32.08287849390507,-100.26678939585686,84.22370748782159
2024-09-23 09:17:25.210509,41.9,9.29101,-0.0024872551938930902,-0.023330473146428877,0.09720203344245934,48.12595698684454,-100.26678939585686,84.22370748782159
2024-09-23 09:17:25.226036,41.9,9.291061,-0.0035318979854855937,-0.023330473146428877,0.09720203344245934,48.12595698684454,-100.26678939585686,76.200527287817
2024-09-23 09:17:25.258835,41.9,9.291061,-0.0035318979854855937,-0.02362894446842532,0.0973015264147526,36.09446859390736,-100.26678939585686,76.200527287817
2024-09-23 09:17:25.270172,41.9,9.291154,-0.0035318979854855937,-0.02362894446842532,0.0973015264147526,36.09446859390736,-100.26678939585686,76.200527287817
2024-09-23 09:17:25.312836,41.9,9.291154,-0.0032831742888682963,-0.023927417309398437,0.09740101331113918,40.106058693909645,-108.28669110388756,72.1922225099802
2024-09-23 09:17:25.357843,41.9,9.291206,-0.0035816467500972456,-0.02352945757203875,0.09740101331113918,40.106058693909645,-108.28669110388756,72.1922225099802
2024-09-23 09:17:25.369481,41.9,9.291206,-0.0035816467500972456,-0.02352945757203875,0.0973512698629459,36.09446859390736,-100.26678939585686,72.1922225099802
2024-09-23 09:17:25.402267,41.9,9.291206,-0.0035816467500972456,-0.02352945757203875,0.0973512698629459,36.09446859390736,-100.26678939585686,84.22370748782159
2024-09-23 09:17:25.414193,41.9,9.291256,-0.0035816467500972456,-0.023479709566915436,0.09710254654607277,40.106058693909645,-100.26678939585686,84.22370748782159
2024-09-23 09:17:25.456449,41.9,9.291307,-0.0030344509719951677,-0.02397715620066169,0.09710254654607277,40.106058693909645,-96.25519929585457,84.22370748782159
2024-09-23 09:17:25.468208,41.9,9.291307,-0.0030344509719951677,-0.02397715620066169,0.09675432418099966,40.106058693909645,-96.25519929585457,84.22370748782159
2024-09-23 09:17:25.499943,41.9,9.291307,-0.0030344509719951677,-0.02397715620066169,0.09675432418099966,36.09446859390736,-96.25519929585457,84.22370748782159
2024-09-23 09:17:25.511267,41.9,9.291358,-0.0030841997366068195,-0.02397715620066169,0.09675432418099966,36.09446859390736,-96.25519929585457,80.21211738781929
2024-09-23 09:17:25.553184,41.9,9.291358,-0.0030841997366068195,-0.02397715620066169,0.0970030596496862,40.106058693909645,-100.26678939585686,76.200527287817
2024-09-23 09:17:25.564860,41.9,9.291408,-0.003233425524256645,-0.02397715620066169,0.0970030596496862,40.106058693909645,-100.26678939585686,76.200527287817
2024-09-23 09:17:25.597408,41.9,9.291408,-0.003233425524256645,-0.02352945757203875,0.0970030596496862,40.106058693909645,-100.26678939585686,76.200527287817
2024-09-23 09:17:25.609239,41.9,9.291495,-0.003233425524256645,-0.02352945757203875,0.0970030596496862,44.11764879391193,-96.25519929585457,72.1922225099802
2024-09-23 09:17:25.651738,41.9,9.291495,-0.0031836870127375577,-0.023877669304275123,0.09680407370509965,28.07457030097246,-92.24360919585227,72.1922225099802
2024-09-23 09:17:25.663662,41.9,9.291495,-0.0031836870127375577,-0.023877669304275123,0.09680407370509965,28.07457030097246,-92.24360919585227,80.21211738781929
2024-09-23 09:17:25.696651,41.9,9.291547,-0.003233425524256645,-0.024325377046758124,0.09680407370509965,28.07457030097246,-92.24360919585227,80.21211738781929
2024-09-23 09:17:25.707972,41.9,9.291547,-0.003233425524256645,-0.024325377046758124,0.0973015264147526,40.106058693909645,-96.25519929585457,80.21211738781929
2024-09-23 09:17:25.750394,41.81,9.291598,-0.0038303700669703737,-0.02397715620066169,0.09680407370509965,40.106058693909645,-96.25519929585457,72.1922225099802
2024-09-23 09:17:25.793336,41.81,9.291598,-0.0038303700669703737,-0.02397715620066169,0.09680407370509965,40.106058693909645,-92.24360919585227,72.1922225099802
2024-09-23 09:17:25.805321,41.81,9.291648,-0.0038303700669703737,-0.023429960042815445,0.09725178296655933,40.106058693909645,-92.24360919585227,72.1922225099802
2024-09-23 09:17:25.849075,41.81,9.291699,-0.0031836870127375577,-0.023877669304275123,0.09725178296655933,36.09446859390736,-92.24360919585227,80.21211738781929
2024-09-23 09:17:25.892193,41.81,9.291699,-0.0031836870127375577,-0.023877669304275123,0.09690356060148622,36.09446859390736,-100.26678939585686,80.21211738781929
2024-09-23 09:17:25.903326,41.81,9.29175,-0.0035816467500972456,-0.023877669304275123,0.09690356060148622,36.09446859390736,-100.26678939585686,80.21211738781929
2024-09-23 09:17:25.946392,41.81,9.291837,-0.0035816467500972456,-0.02367869399252531,0.09755024973162574,36.09446859390736,-96.25519929585457,80.21211738781929
2024-09-23 09:17:25.988237,41.81,9.291837,-0.003233425524256645,-0.02338022115155219,0.09755024973162574,36.09446859390736,-96.25519929585457,80.21211738781929
2024-09-23 09:17:25.999606,41.81,9.291837,-0.003233425524256645,-0.02338022115155219,0.0973015264147526,40.106058693909645,-100.26678939585686,80.21211738781929
2024-09-23 09:17:26.041966,41.81,9.291888,-0.003233425524256645,-0.023927417309398437,0.0973512698629459,28.07457030097246,-100.26678939585686,80.21211738781929
2024-09-23 09:17:26.054246,41.81,9.291888,-0.003233425524256645,-0.023927417309398437,0.0973512698629459,28.07457030097246,-88.23529758782387,80.21211738781929
2024-09-23 09:17:26.086806,41.81,9.291939,-0.003233425524256645,-0.023927417309398437,0.0973512698629459,28.07457030097246,-88.23529758782387,84.22370748782159
2024-09-23 09:17:26.097927,41.81,9.291939,-0.0030841997366068195,-0.02362894446842532,0.09695331012558621,48.12595698684454,-88.23529758782387,84.22370748782159
2024-09-23 09:17:26.140163,41.81,9.29199,-0.0026862297461545674,-0.023429960042815445,0.09695331012558621,48.12595698684454,-100.26678939585686,72.1922225099802
2024-09-23 09:17:26.152098,41.81,9.29199,-0.0026862297461545674,-0.023429960042815445,0.09665483728461309,48.12595698684454,-100.26678939585686,72.1922225099802
2024-09-23 09:17:26.237303,41.81,9.29204,-0.0030344509719951677,-0.023429960042815445,0.09665483728461309,36.09446859390736,-100.26678939585686,80.21211738781929
2024-09-23 09:17:26.249419,41.81,9.29204,-0.0030344509719951677,-0.02338022115155219,0.09665483728461309,36.09446859390736,-100.26678939585686,80.21211738781929
2024-09-23 09:17:26.282613,41.81,9.29204,-0.0030344509719951677,-0.02338022115155219,0.09710254654607277,32.08287849390507,-96.25519929585457,80.21211738781929
2024-09-23 09:17:26.294252,41.81,9.292091,-0.003233425524256645,-0.02338022115155219,0.09710254654607277,32.08287849390507,-96.25519929585457,80.21211738781929
2024-09-23 09:17:26.337842,41.81,9.292178,-0.003233425524256645,-0.023330473146428877,0.09695331012558621,32.08287849390507,-96.25519929585457,76.200527287817
2024-09-23 09:17:26.380213,41.81,9.292178,-0.002785727465249955,-0.02362894446842532,0.09710254654607277,32.08287849390507,-96.25519929585457,76.200527287817
2024-09-23 09:17:26.391490,41.81,9.292178,-0.002785727465249955,-0.02362894446842532,0.09710254654607277,40.106058693909645,-92.24360919585227,76.200527287817
2024-09-23 09:17:26.435178,41.81,9.292229,-0.0034324103296106863,-0.02338022115155219,0.09725178296655933,32.08287849390507,-88.23529758782387,76.200527287817
2024-09-23 09:17:26.478063,41.81,9.292325,-0.0038801188315820256,-0.02338022115155219,0.09725178296655933,32.08287849390507,-88.23529758782387,84.22370748782159
2024-09-23 09:17:26.490871,41.81,9.292325,-0.0038801188315820256,-0.024275627522658133,0.09695331012558621,36.09446859390736,-88.23529758782387,84.22370748782159
2024-09-23 09:17:26.574719,41.81,9.292376,-0.0038801188315820256,-0.024275627522658133,0.09695331012558621,36.09446859390736,-92.24360919585227,84.22370748782159
2024-09-23 09:17:26.586353,41.81,9.292376,-0.0036811340262279837,-0.023927417309398437,0.09725178296655933,36.09446859390736,-92.24360919585227,84.22370748782159
2024-09-23 09:17:26.628730,41.81,9.292427,-0.0033329230534799477,-0.023877669304275123,0.09725178296655933,40.106058693909645,-96.25519929585457,80.21211738781929
2024-09-23 09:17:26.670913,41.81,9.292427,-0.0033329230534799477,-0.023877669304275123,0.09705279702197278,44.11764879391193,-96.25519929585457,80.21211738781929
2024-09-23 09:17:26.682762,41.81,9.292478,-0.003233425524256645,-0.023877669304275123,0.09705279702197278,44.11764879391193,-96.25519929585457,80.21211738781929
2024-09-23 09:17:26.725771,41.81,9.292568,-0.003233425524256645,-0.024076653729884996,0.09720203344245934,40.106058693909645,-92.24360919585227,88.23529758782387
2024-09-23 09:17:26.768070,41.63,9.292568,-0.003233425524256645,-0.023280723622328886,0.09720203344245934,40.106058693909645,-92.24360919585227,88.23529758782387
2024-09-23 09:17:26.779626,41.63,9.292568,-0.003233425524256645,-0.023280723622328886,0.09705279702197278,40.106058693909645,-96.25519929585457,80.21211738781929
2024-09-23 09:17:26.821876,41.63,9.292666,-0.0029349636958644295,-0.022982261414192504,0.09680407370509965,36.09446859390736,-96.25519929585457,80.21211738781929
2024-09-23 09:17:26.834079,41.63,9.292666,-0.0029349636958644295,-0.022982261414192504,0.09680407370509965,36.09446859390736,-96.25519929585457,80.21211738781929
2024-09-23 09:17:26.866207,41.63,9.292717,-0.0029349636958644295,-0.022982261414192504,0.09680407370509965,36.09446859390736,-96.25519929585457,88.23529758782387
2024-09-23 09:17:26.877784,41.63,9.292717,-0.0029847020175114316,-0.02367869399252531,0.0970030596496862,32.08287849390507,-96.25519929585457,88.23529758782387
2024-09-23 09:17:26.919683,41.63,9.292768,-0.0038801188315820256,-0.02352945757203875,0.0970030596496862,32.08287849390507,-92.24360919585227,76.200527287817
2024-09-23 09:17:26.931810,41.63,9.292768,-0.0038801188315820256,-0.02352945757203875,0.09680407370509965,32.08287849390507,-92.24360919585227,76.200527287817
2024-09-23 09:17:26.964420,41.63,9.292768,-0.0038801188315820256,-0.02352945757203875,0.09680407370509965,32.08287849390507,-92.24360919585227,76.200527287817
2024-09-23 09:17:26.976573,41.63,9.292819,-0.0031836870127375577,-0.02338022115155219,0.09680407370509965,32.08287849390507,-92.24360919585227,76.200527287817
2024-09-23 09:17:27.019034,41.63,9.292869,-0.0028354659767690416,-0.02338022115155219,0.09755024973162574,48.12595698684454,-116.30987130389214,72.1922225099802
2024-09-23 09:17:27.062132,41.63,9.292869,-0.0028354659767690416,-0.02313149783467906,0.09755024973162574,36.09446859390736,-116.30987130389214,72.1922225099802
2024-09-23 09:17:27.074201,41.63,9.292958,-0.0028354659767690416,-0.02313149783467906,0.09755024973162574,36.09446859390736,-88.23529758782387,76.200527287817
2024-09-23 09:17:27.116920,41.63,9.292958,-0.0029349636958644295,-0.024076653729884996,0.09720203344245934,40.106058693909645,-96.25519929585457,76.200527287817
2024-09-23 09:17:27.159437,41.63,9.293009,-0.003780631555451287,-0.023927417309398437,0.09720203344245934,40.106058693909645,-96.25519929585457,76.200527287817
2024-09-23 09:17:27.212022,41.63,9.29306,-0.003780631555451287,-0.023927417309398437,0.09764974270391902,32.08287849390507,-100.26678939585686,76.200527287817
2024-09-23 09:17:27.224563,41.63,9.29306,-0.003631395514708897,-0.023927417309398437,0.09764974270391902,32.08287849390507,-100.26678939585686,76.200527287817
2024-09-23 09:17:27.256853,41.63,9.29306,-0.003631395514708897,-0.02367869399252531,0.09650560086412653,32.08287849390507,-100.26678939585686,76.200527287817
2024-09-23 09:17:27.268629,41.63,9.293111,-0.003631395514708897,-0.02367869399252531,0.09650560086412653,36.09446859390736,-96.25519929585457,80.21211738781929
2024-09-23 09:17:27.310916,41.63,9.293111,-0.0035318979854855937,-0.02352945757203875,0.09750050628343246,32.08287849390507,-100.26678939585686,80.21211738781929
2024-09-23 09:17:27.322384,41.63,9.293111,-0.0035318979854855937,-0.02352945757203875,0.09750050628343246,32.08287849390507,-100.26678939585686,80.21211738781929
2024-09-23 09:17:27.355229,41.63,9.293161,-0.0026862297461545674,-0.023877669304275123,0.09750050628343246,32.08287849390507,-100.26678939585686,80.21211738781929
2024-09-23 09:17:27.366624,41.63,9.293161,-0.0026862297461545674,-0.023877669304275123,0.09745075675933246,40.106058693909645,-96.25519929585457,80.21211738781929
2024-09-23 09:17:27.408972,41.63,9.293212,-0.0031836870127375577,-0.023778180888911878,0.09665483728461309,40.106058693909645,-96.25519929585457,76.200527287817
2024-09-23 09:17:27.451154,41.63,9.293212,-0.0031836870127375577,-0.023778180888911878,0.09665483728461309,40.106058693909645,-96.25519929585457,80.21211738781929
2024-09-23 09:17:27.463429,41.63,9.293301,-0.0037308827908396356,-0.023579196463302005,0.09685382322919964,40.106058693909645,-96.25519929585457,80.21211738781929
2024-09-23 09:17:27.506542,41.63,9.293352,-0.003482159473966507,-0.02362894446842532,0.09685382322919964,44.11764879391193,-92.24360919585227,80.21211738781929
2024-09-23 09:17:27.600463,41.63,9.293352,-0.003482159473966507,-0.02362894446842532,0.09705279702197278,44.11764879391193,-92.24360919585227,72.1922225099802
2024-09-23 09:17:27.612463,41.63,9.293402,-0.0031339382481259063,-0.02362894446842532,0.09705279702197278,44.11764879391193,-92.24360919585227,72.1922225099802
2024-09-23 09:17:27.645782,41.63,9.293402,-0.0031339382481259063,-0.024026904205785005,0.09675432418099966,44.11764879391193,-92.24360919585227,72.1922225099802
2024-09-23 09:17:27.656859,41.63,9.293494,-0.0031339382481259063,-0.024026904205785005,0.09675432418099966,40.106058693909645,-100.26678939585686,80.21211738781929
2024-09-23 09:17:27.699449,41.63,9.293494,-0.0028354659767690416,-0.023479709566915436,0.09630662707135339,44.11764879391193,-92.24360919585227,80.21211738781929
2024-09-23 09:17:27.742548,41.63,9.293494,-0.0028354659767690416,-0.023479709566915436,0.09630662707135339,44.11764879391193,-92.24360919585227,84.22370748782159
2024-09-23 09:17:27.754731,41.63,9.293546,-0.002636491424507565,-0.023579196463302005,0.09750050628343246,40.106058693909645,-92.24360919585227,84.22370748782159
2024-09-23 09:17:27.797724,41.88,9.293596,-0.003233425524256645,-0.02352945757203875,0.09750050628343246,40.106058693909645,-100.26678939585686,80.21211738781929
2024-09-23 09:17:27.809452,41.88,9.293596,-0.003233425524256645,-0.02352945757203875,0.09630662707135339,40.106058693909645,-100.26678939585686,80.21211738781929
2024-09-23 09:17:27.840934,41.88,9.293596,-0.003233425524256645,-0.02352945757203875,0.09630662707135339,36.09446859390736,-104.27510100388527,80.21211738781929
2024-09-23 09:17:27.852315,41.88,9.293691,-0.0029847020175114316,-0.02352945757203875,0.09630662707135339,36.09446859390736,-104.27510100388527,84.22370748782159
2024-09-23 09:17:27.895793,41.88,9.293742,-0.0029847020175114316,-0.02352945757203875,0.09745075675933246,40.106058693909645,-96.25519929585457,76.200527287817
2024-09-23 09:17:27.907274,41.88,9.293742,-0.0035318979854855937,-0.02352945757203875,0.09745075675933246,40.106058693909645,-96.25519929585457,76.200527287817
2024-09-23 09:17:27.939969,41.88,9.293742,-0.0035318979854855937,-0.023728432883788564,0.09695331012558621,40.106058693909645,-96.25519929585457,76.200527287817
2024-09-23 09:17:27.951689,41.88,9.293792,-0.0035318979854855937,-0.023728432883788564,0.09695331012558621,40.106058693909645,-100.26678939585686,84.22370748782159
2024-09-23 09:17:27.994694,41.88,9.293792,-0.0033329230534799477,-0.023330473146428877,0.09705279702197278,36.09446859390736,-100.26678939585686,84.22370748782159
2024-09-23 09:17:28.038117,41.88,9.293885,-0.0033329230534799477,-0.023330473146428877,0.09705279702197278,36.09446859390736,-100.26678939585686,80.21211738781929
2024-09-23 09:17:28.049170,41.88,9.293885,-0.0038303700669703737,-0.023280723622328886,0.09695331012558621,36.09446859390736,-100.26678939585686,80.21211738781929
2024-09-23 09:17:28.091870,41.88,9.293936,-0.0038801188315820256,-0.023927417309398437,0.09695331012558621,40.106058693909645,-96.25519929585457,76.200527287817
2024-09-23 09:17:28.134852,41.88,9.293936,-0.0038801188315820256,-0.023927417309398437,0.09750050628343246,36.09446859390736,-100.26678939585686,76.200527287817
2024-09-23 09:17:28.146558,41.88,9.293987,-0.0035816467500972456,-0.023927417309398437,0.09750050628343246,36.09446859390736,-100.26678939585686,76.200527287817
2024-09-23 09:17:28.231126,41.88,9.293987,-0.0035816467500972456,-0.023927417309398437,0.09690356060148622,36.09446859390736,-100.26678939585686,76.200527287817
2024-09-23 09:17:28.242325,41.88,9.294038,-0.0035816467500972456,-0.023927417309398437,0.09690356060148622,36.09446859390736,-100.26678939585686,76.200527287817
2024-09-23 09:17:28.284731,41.88,9.294038,-0.0032831742888682963,-0.023280723622328886,0.09750050628343246,32.08287849390507,-100.26678939585686,76.200527287817
2024-09-23 09:17:28.296558,41.88,9.294038,-0.0032831742888682963,-0.023280723622328886,0.09750050628343246,32.08287849390507,-100.26678939585686,84.22370748782159
2024-09-23 09:17:28.328672,41.88,9.294129,-0.0029349636958644295,-0.023280723622328886,0.09750050628343246,32.08287849390507,-100.26678939585686,84.22370748782159
2024-09-23 09:17:28.339685,41.88,9.294129,-0.0029349636958644295,-0.023579196463302005,0.09725178296655933,40.106058693909645,-96.25519929585457,84.22370748782159
2024-09-23 09:17:28.382307,41.88,9.29418,-0.0027359787006383035,-0.023728432883788564,0.0970030596496862,40.106058693909645,-96.25519929585457,84.22370748782159
2024-09-23 09:17:28.394509,41.88,9.29418,-0.0027359787006383035,-0.023728432883788564,0.0970030596496862,36.09446859390736,-96.25519929585457,84.22370748782159
2024-09-23 09:17:28.429123,41.88,9.294231,-0.0027359787006383035,-0.023728432883788564,0.0970030596496862,36.09446859390736,-100.26678939585686,80.21211738781929
2024-09-23 09:17:28.440885,41.88,9.294231,-0.0037308827908396356,-0.023429960042815445,0.09690356060148622,36.09446859390736,-100.26678939585686,80.21211738781929
2024-09-23 09:17:28.472765,41.88,9.294231,-0.0037308827908396356,-0.023429960042815445,0.09690356060148622,36.09446859390736,-100.26678939585686,80.21211738781929
2024-09-23 09:17:28.484742,41.88,9.294325,-0.0031339382481259063,-0.02367869399252531,0.09690356060148622,36.09446859390736,-100.26678939585686,80.21211738781929
2024-09-23 09:17:28.528536,41.88,9.294376,-0.0031339382481259063,-0.02367869399252531,0.09715228999426605,40.106058693909645,-96.25519929585457,76.200527287817
2024-09-23 09:17:28.540604,41.88,9.294376,-0.003233425524256645,-0.02367869399252531,0.09715228999426605,40.106058693909645,-96.25519929585457,76.200527287817
2024-09-23 09:17:28.624526,41.88,9.294376,-0.003233425524256645,-0.02362894446842532,0.09715228999426605,40.106058693909645,-96.25519929585457,76.200527287817
2024-09-23 09:17:28.667483,41.88,9.294376,-0.003233425524256645,-0.02362894446842532,0.0973015264147526,40.106058693909645,-96.25519929585457,76.200527287817
2024-09-23 09:17:28.678895,41.88,9.294469,-0.003233425524256645,-0.02362894446842532,0.0973015264147526,40.106058693909645,-100.26678939585686,76.200527287817
2024-09-23 09:17:28.721398,41.88,9.294469,-0.003631395514708897,-0.023728432883788564,0.0970030596496862,44.11764879391193,-100.26678939585686,76.200527287817
2024-09-23 09:17:28.733653,41.88,9.294469,-0.003631395514708897,-0.023728432883788564,0.0970030596496862,44.11764879391193,-100.26678939585686,76.200527287817
2024-09-23 09:17:28.767906,41.88,9.294521,-0.0031836870127375577,-0.023728432883788564,0.0970030596496862,44.11764879391193,-100.26678939585686,76.200527287817
2024-09-23 09:17:28.779680,41.88,9.294521,-0.0031836870127375577,-0.023230986250042305,0.09750050628343246,36.09446859390736,-96.25519929585457,76.200527287817
2024-09-23 09:17:28.822083,41.9,9.294571,-0.0029847020175114316,-0.023728432883788564,0.09680407370509965,36.09446859390736,-96.25519929585457,80.21211738781929
2024-09-23 09:17:28.864589,41.9,9.294571,-0.0029847020175114316,-0.023728432883788564,0.09680407370509965,36.09446859390736,-96.25519929585457,80.21211738781929
2024-09-23 09:17:28.876068,41.9,9.294622,-0.003382661564999035,-0.023479709566915436,0.09764974270391902,36.09446859390736,-96.25519929585457,80.21211738781929
2024-09-23 09:17:28.918367,41.9,9.294764,-0.0033329230534799477,-0.023479709566915436,0.09764974270391902,36.09446859390736,-104.27510100388527,76.200527287817
2024-09-23 09:17:28.930248,41.9,9.294764,-0.0033329230534799477,-0.023579196463302005,0.09764974270391902,36.09446859390736,-104.27510100388527,76.200527287817
2024-09-23 09:17:28.962183,41.9,9.294764,-0.0033329230534799477,-0.023579196463302005,0.09675432418099966,28.07457030097246,-104.27510100388527,76.200527287817
2024-09-23 09:17:28.973457,41.9,9.294814,-0.0035816467500972456,-0.023579196463302005,0.09675432418099966,28.07457030097246,-96.25519929585457,80.21211738781929
2024-09-23 09:17:29.016803,41.9,9.294814,-0.0035816467500972456,-0.023827930413011865,0.09710254654607277,36.09446859390736,-96.25519929585457,80.21211738781929
2024-09-23 09:17:29.058757,41.9,9.294814,-0.0035816467500972456,-0.023827930413011865,0.09710254654607277,36.09446859390736,-104.27510100388527,80.21211738781929
2024-09-23 09:17:29.069972,41.9,9.294908,-0.0030344509719951677,-0.023728432883788564,0.09695331012558621,36.09446859390736,-104.27510100388527,80.21211738781929
2024-09-23 09:17:29.112112,41.9,9.29496,-0.0030344509719951677,-0.023728432883788564,0.09695331012558621,36.09446859390736,-100.26678939585686,76.200527287817
2024-09-23 09:17:29.125480,41.9,9.29496,-0.0033329230534799477,-0.02367869399252531,0.09695331012558621,36.09446859390736,-100.26678939585686,76.200527287817
2024-09-23 09:17:29.157811,41.9,9.29496,-0.0033329230534799477,-0.02367869399252531,0.09695331012558621,40.106058693909645,-100.26678939585686,76.200527287817
2024-09-23 09:17:29.168874,41.9,9.29501,-0.0030344509719951677,-0.02367869399252531,0.09695331012558621,40.106058693909645,-96.25519929585457,80.21211738781929
2024-09-23 09:17:29.211838,41.9,9.295061,-0.0030344509719951677,-0.02367869399252531,0.09720203344245934,36.09446859390736,-96.25519929585457,84.22370748782159
2024-09-23 09:17:29.254715,41.9,9.295061,-0.0028354659767690416,-0.023728432883788564,0.09720203344245934,36.09446859390736,-96.25519929585457,84.22370748782159
2024-09-23 09:17:29.266899,41.9,9.295061,-0.0028354659767690416,-0.023728432883788564,0.0966050877605131,32.08287849390507,-96.25519929585457,80.21211738781929
2024-09-23 09:17:29.310490,41.9,9.295152,-0.003631395514708897,-0.02352945757203875,0.0973512698629459,28.07457030097246,-96.25519929585457,80.21211738781929
2024-09-23 09:17:29.353411,41.9,9.295204,-0.003631395514708897,-0.02352945757203875,0.0973512698629459,28.07457030097246,-96.25519929585457,76.200527287817
2024-09-23 09:17:29.365095,41.9,9.295204,-0.002785727465249955,-0.02362894446842532,0.09720203344245934,44.11764879391193,-96.25519929585457,76.200527287817
2024-09-23 09:17:29.408043,41.9,9.295254,-0.0026862297461545674,-0.023579196463302005,0.09650560086412653,44.11764879391193,-92.24360919585227,88.23529758782387
2024-09-23 09:17:29.451667,41.9,9.295254,-0.0026862297461545674,-0.023579196463302005,0.09650560086412653,28.07457030097246,-96.25519929585457,88.23529758782387
2024-09-23 09:17:29.462846,41.9,9.295305,-0.003233425524256645,-0.024275627522658133,0.09650560086412653,28.07457030097246,-96.25519929585457,88.23529758782387
2024-09-23 09:17:29.505144,41.9,9.295356,-0.0031836870127375577,-0.024275627522658133,0.09705279702197278,28.07457030097246,-100.26678939585686,84.22370748782159
2024-09-23 09:17:29.548121,41.9,9.295356,-0.0031836870127375577,-0.02352945757203875,0.09720203344245934,36.09446859390736,-100.26678939585686,84.22370748782159
2024-09-23 09:17:29.559248,41.9,9.295444,-0.0031836870127375577,-0.02352945757203875,0.09720203344245934,36.09446859390736,-108.28669110388756,84.22370748782159
2024-09-23 09:17:29.602149,41.9,9.295444,-0.0030344509719951677,-0.02338022115155219,0.09759999317981902,32.08287849390507,-108.28669110388756,80.21211738781929
2024-09-23 09:17:29.644283,41.9,9.295496,-0.0029349636958644295,-0.02338022115155219,0.09759999317981902,32.08287849390507,-108.28669110388756,80.21211738781929
2024-09-23 09:17:29.655886,41.9,9.295496,-0.0029349636958644295,-0.02367869399252531,0.09725178296655933,32.08287849390507,-100.26678939585686,80.21211738781929
2024-09-23 09:17:29.697955,41.9,9.295547,-0.0033329230534799477,-0.023579196463302005,0.09725178296655933,32.08287849390507,-100.26678939585686,80.21211738781929
2024-09-23 09:17:29.740042,41.9,9.295547,-0.0033329230534799477,-0.023579196463302005,0.09710254654607277,32.08287849390507,-100.26678939585686,80.21211738781929
2024-09-23 09:17:29.751663,41.9,9.295598,-0.003482159473966507,-0.023579196463302005,0.09710254654607277,40.106058693909645,-92.24360919585227,80.21211738781929
2024-09-23 09:17:29.795904,41.9,9.295598,-0.003482159473966507,-0.024076653729884996,0.09779897304849887,36.09446859390736,-100.26678939585686,76.200527287817
2024-09-23 09:17:29.808072,41.9,9.295649,-0.003482159473966507,-0.024076653729884996,0.09779897304849887,36.09446859390736,-100.26678939585686,76.200527287817
2024-09-23 09:17:29.839882,41.81,9.295649,-0.003233425524256645,-0.023827930413011865,0.09779897304849887,36.09446859390736,-100.26678939585686,76.200527287817
2024-09-23 09:17:29.851793,41.81,9.295649,-0.003233425524256645,-0.023827930413011865,0.09680407370509965,36.09446859390736,-100.26678939585686,80.21211738781929
2024-09-23 09:17:29.894512,41.81,9.295699,-0.0028354659767690416,-0.023927417309398437,0.09675432418099966,40.106058693909645,-100.26678939585686,80.21211738781929
2024-09-23 09:17:29.906441,41.81,9.295699,-0.0028354659767690416,-0.023927417309398437,0.09675432418099966,40.106058693909645,-100.26678939585686,80.21211738781929
2024-09-23 09:17:29.938286,41.81,9.295786,-0.0030841997366068195,-0.023927417309398437,0.09675432418099966,40.106058693909645,-100.26678939585686,80.21211738781929
2024-09-23 09:17:29.950105,41.81,9.295786,-0.0030841997366068195,-0.023927417309398437,0.09740101331113918,36.09446859390736,-100.26678939585686,80.21211738781929
2024-09-23 09:17:29.992633,41.81,9.295837,-0.002636491424507565,-0.02352945757203875,0.09620712802315341,36.09446859390736,-104.27510100388527,72.1922225099802
2024-09-23 09:17:30.034603,41.81,9.295837,-0.002636491424507565,-0.02352945757203875,0.09620712802315341,36.09446859390736,-100.26678939585686,72.1922225099802
2024-09-23 09:17:30.046387,41.81,9.295888,-0.0030344509719951677,-0.024225890150371555,0.09620712802315341,36.09446859390736,-100.26678939585686,76.200527287817
2024-09-23 09:17:30.088552,41.81,9.295938,-0.0030344509719951677,-0.024225890150371555,0.09695331012558621,44.11764879391193,-96.25519929585457,80.21211738781929
2024-09-23 09:17:30.100608,41.81,9.295938,-0.003482159473966507,-0.024225890150371555,0.09695331012558621,44.11764879391193,-96.25519929585457,80.21211738781929
2024-09-23 09:17:30.133582,41.81,9.295938,-0.003482159473966507,-0.022982261414192504,0.09725178296655933,28.07457030097246,-96.25519929585457,80.21211738781929
2024-09-23 09:17:30.145416,41.81,9.296029,-0.003482159473966507,-0.022982261414192504,0.09725178296655933,28.07457030097246,-96.25519929585457,72.1922225099802
2024-09-23 09:17:30.178588,41.81,9.296029,-0.003233425524256645,-0.022982261414192504,0.09725178296655933,28.07457030097246,-96.25519929585457,72.1922225099802
2024-09-23 09:17:30.189850,41.81,9.296029,-0.003233425524256645,-0.023330473146428877,0.09645586349183995,32.08287849390507,-104.27510100388527,80.21211738781929
2024-09-23 09:17:30.231673,41.81,9.296081,-0.0030344509719951677,-0.023429960042815445,0.09645586349183995,32.08287849390507,-104.27510100388527,80.21211738781929
2024-09-23 09:17:30.242925,41.81,9.296081,-0.0030344509719951677,-0.023429960042815445,0.09685382322919964,40.106058693909645,-104.27510100388527,80.21211738781929
2024-09-23 09:17:30.285418,41.81,9.296132,-0.002785727465249955,-0.023280723622328886,0.09710254654607277,36.09446859390736,-104.27510100388527,76.200527287817
2024-09-23 09:17:30.328275,41.81,9.296182,-0.002785727465249955,-0.023280723622328886,0.09710254654607277,36.09446859390736,-96.25519929585457,84.22370748782159
2024-09-23 09:17:30.339348,41.81,9.296182,-0.0033329230534799477,-0.02362894446842532,0.0970030596496862,36.09446859390736,-96.25519929585457,84.22370748782159
2024-09-23 09:17:30.381459,41.81,9.296233,-0.002785727465249955,-0.02362894446842532,0.0970030596496862,32.08287849390507,-96.25519929585457,88.23529758782387
2024-09-23 09:17:30.393237,41.81,9.296233,-0.002785727465249955,-0.023579196463302005,0.0970030596496862,32.08287849390507,-96.25519929585457,88.23529758782387
2024-09-23 09:17:30.427329,41.81,9.296233,-0.002785727465249955,-0.023579196463302005,0.09665483728461309,28.07457030097246,-92.24360919585227,88.23529758782387
2024-09-23 09:17:30.438811,41.81,9.296283,-0.0038303700669703737,-0.023579196463302005,0.09665483728461309,28.07457030097246,-92.24360919585227,88.23529758782387
2024-09-23 09:17:30.471722,41.81,9.296283,-0.0038303700669703737,-0.023877669304275123,0.09665483728461309,28.07457030097246,-92.24360919585227,88.23529758782387
2024-09-23 09:17:30.483199,41.81,9.296371,-0.0038303700669703737,-0.023877669304275123,0.09690356060148622,32.08287849390507,-96.25519929585457,84.22370748782159
2024-09-23 09:17:30.524741,41.81,9.296371,-0.003233425524256645,-0.023827930413011865,0.09685382322919964,40.106058693909645,-96.25519929585457,84.22370748782159
2024-09-23 09:17:30.537959,41.81,9.296371,-0.003233425524256645,-0.023827930413011865,0.09685382322919964,40.106058693909645,-96.25519929585457,80.21211738781929
2024-09-23 09:17:30.569971,41.81,9.296422,-0.003233425524256645,-0.023827930413011865,0.09685382322919964,40.106058693909645,-96.25519929585457,80.21211738781929
2024-09-23 09:17:30.580951,41.81,9.296422,-0.0032831742888682963,-0.02313149783467906,0.09725178296655933,32.08287849390507,-92.24360919585227,80.21211738781929
2024-09-23 09:17:30.623479,41.81,9.296473,-0.0027359787006383035,-0.02362894446842532,0.09725178296655933,32.08287849390507,-92.24360919585227,84.22370748782159
2024-09-23 09:17:30.634815,41.81,9.296473,-0.0027359787006383035,-0.02362894446842532,0.09705279702197278,36.09446859390736,-92.24360919585227,84.22370748782159
2024-09-23 09:17:30.668331,41.81,9.296473,-0.0027359787006383035,-0.02362894446842532,0.09705279702197278,36.09446859390736,-92.24360919585227,84.22370748782159
2024-09-23 09:17:30.679650,41.81,9.296524,-0.0036811340262279837,-0.02367869399252531,0.09710254654607277,36.09446859390736,-92.24360919585227,84.22370748782159
2024-09-23 09:17:30.722473,41.81,9.296574,-0.0036811340262279837,-0.02367869399252531,0.09710254654607277,36.09446859390736,-100.26678939585686,76.200527287817
2024-09-23 09:17:30.734869,41.81,9.296574,-0.0030841997366068195,-0.023330473146428877,0.09710254654607277,36.09446859390736,-100.26678939585686,76.200527287817
2024-09-23 09:17:30.767759,41.81,9.296574,-0.0030841997366068195,-0.023330473146428877,0.09690356060148622,36.09446859390736,-104.27510100388527,76.200527287817
2024-09-23 09:17:30.779270,41.81,9.296625,-0.003233425524256645,-0.023330473146428877,0.09690356060148622,36.09446859390736,-104.27510100388527,76.200527287817
2024-09-23 09:17:30.822133,41.81,9.296625,-0.003233425524256645,-0.023330473146428877,0.09680407370509965,40.106058693909645,-92.24360919585227,76.200527287817
2024-09-23 09:17:30.866295,41.88,9.296712,-0.0029847020175114316,-0.023330473146428877,0.09680407370509965,40.106058693909645,-92.24360919585227,80.21211738781929
2024-09-23 09:17:30.878202,41.88,9.296712,-0.0029847020175114316,-0.02397715620066169,0.09695331012558621,32.08287849390507,-92.24360919585227,80.21211738781929
2024-09-23 09:17:30.910954,41.88,9.296712,-0.0029847020175114316,-0.02397715620066169,0.09695331012558621,32.08287849390507,-96.25519929585457,80.21211738781929
2024-09-23 09:17:30.922526,41.88,9.296763,-0.0033329230534799477,-0.02367869399252531,0.09695331012558621,32.08287849390507,-96.25519929585457,76.200527287817
2024-09-23 09:17:30.964948,41.88,9.296814,-0.0030344509719951677,-0.02367869399252531,0.09695331012558621,36.09446859390736,-92.24360919585227,80.21211738781929
2024-09-23 09:17:30.976711,41.88,9.296814,-0.0030344509719951677,-0.023429960042815445,0.09695331012558621,36.09446859390736,-92.24360919585227,80.21211738781929
2024-09-23 09:17:31.008928,41.88,9.296814,-0.0030344509719951677,-0.023429960042815445,0.09725178296655933,36.09446859390736,-92.24360919585227,80.21211738781929
2024-09-23 09:17:31.020886,41.88,9.296865,-0.0035816467500972456,-0.023429960042815445,0.09725178296655933,36.09446859390736,-92.24360919585227,80.21211738781929
2024-09-23 09:17:31.063488,41.88,9.296865,-0.0035816467500972456,-0.023827930413011865,0.09695331012558621,48.12595698684454,-108.28669110388756,68.18063240997792
2024-09-23 09:17:31.075429,41.88,9.296915,-0.0035816467500972456,-0.023827930413011865,0.09695331012558621,48.12595698684454,-108.28669110388756,68.18063240997792
2024-09-23 09:17:31.107425,41.88,9.296915,-0.003382661564999035,-0.02308174982955575,0.09695331012558621,48.12595698684454,-108.28669110388756,68.18063240997792
2024-09-23 09:17:31.118552,41.88,9.296915,-0.003382661564999035,-0.02308174982955575,0.09720203344245934,40.106058693909645,-100.26678939585686,80.21211738781929
2024-09-23 09:17:31.161879,41.88,9.297005,-0.003233425524256645,-0.023778180888911878,0.09655535038822652,32.08287849390507,-100.26678939585686,80.21211738781929
2024-09-23 09:17:31.204453,41.88,9.297056,-0.003233425524256645,-0.023778180888911878,0.09655535038822652,32.08287849390507,-100.26678939585686,80.21211738781929
2024-09-23 09:17:31.216019,41.88,9.297056,-0.0029349636958644295,-0.023927417309398437,0.09755024973162574,32.08287849390507,-100.26678939585686,80.21211738781929
2024-09-23 09:17:31.258426,41.88,9.297107,-0.0030344509719951677,-0.023429960042815445,0.09755024973162574,32.08287849390507,-100.26678939585686,80.21211738781929
2024-09-23 09:17:31.270475,41.88,9.297107,-0.0030344509719951677,-0.023429960042815445,0.09745075675933246,32.08287849390507,-100.26678939585686,80.21211738781929
2024-09-23 09:17:31.302289,41.88,9.297107,-0.0030344509719951677,-0.023429960042815445,0.09745075675933246,40.106058693909645,-92.24360919585227,80.21211738781929
2024-09-23 09:17:31.313420,41.88,9.297158,-0.0032831742888682963,-0.02313149783467906,0.09745075675933246,40.106058693909645,-92.24360919585227,84.22370748782159
2024-09-23 09:17:31.355883,41.88,9.297208,-0.0032831742888682963,-0.02313149783467906,0.0970030596496862,48.12595698684454,-88.23529758782387,80.21211738781929
2024-09-23 09:17:31.367579,41.88,9.297208,-0.0032831742888682963,-0.02313149783467906,0.0970030596496862,48.12595698684454,-88.23529758782387,80.21211738781929
2024-09-23 09:17:31.399960,41.88,9.297208,-0.0032831742888682963,-0.023579196463302005,0.09685382322919964,48.12595698684454,-88.23529758782387,80.21211738781929
2024-09-23 09:17:31.411646,41.88,9.297297,-0.0032831742888682963,-0.023579196463302005,0.09685382322919964,32.08287849390507,-100.26678939585686,84.22370748782159
2024-09-23 09:17:31.453329,41.88,9.297297,-0.0029847020175114316,-0.02397715620066169,0.09715228999426605,28.07457030097246,-104.27510100388527,84.22370748782159
2024-09-23 09:17:31.465854,41.88,9.297297,-0.0029847020175114316,-0.02397715620066169,0.09715228999426605,28.07457030097246,-104.27510100388527,80.21211738781929
2024-09-23 09:17:31.499481,41.88,9.297348,-0.003233425524256645,-0.023827930413011865,0.09715228999426605,28.07457030097246,-104.27510100388527,80.21211738781929
2024-09-23 09:17:31.511423,41.88,9.297348,-0.003233425524256645,-0.023827930413011865,0.09715228999426605,36.09446859390736,-96.25519929585457,80.21211738781929
2024-09-23 09:17:31.543467,41.88,9.297348,-0.003233425524256645,-0.023827930413011865,0.09715228999426605,36.09446859390736,-96.25519929585457,84.22370748782159
2024-09-23 09:17:31.555031,41.88,9.297399,-0.0031339382481259063,-0.023728432883788564,0.09725178296655933,32.08287849390507,-96.25519929585457,84.22370748782159
2024-09-23 09:17:31.598228,41.88,9.29745,-0.0031836870127375577,-0.023728432883788564,0.09725178296655933,32.08287849390507,-96.25519929585457,80.21211738781929
2024-09-23 09:17:31.609462,41.88,9.29745,-0.0031836870127375577,-0.023280723622328886,0.09705279702197278,32.08287849390507,-96.25519929585457,80.21211738781929
2024-09-23 09:17:31.642490,41.88,9.29745,-0.0031836870127375577,-0.023280723622328886,0.09705279702197278,36.09446859390736,-96.25519929585457,80.21211738781929
2024-09-23 09:17:31.653851,41.88,9.2975,-0.0034324103296106863,-0.024026904205785005,0.09705279702197278,36.09446859390736,-100.26678939585686,80.21211738781929
2024-09-23 09:17:31.696401,41.88,9.297551,-0.0034324103296106863,-0.024026904205785005,0.09750050628343246,36.09446859390736,-92.24360919585227,80.21211738781929
2024-09-23 09:17:31.708149,41.88,9.297551,-0.0028354659767690416,-0.024026904205785005,0.09750050628343246,36.09446859390736,-92.24360919585227,80.21211738781929
2024-09-23 09:17:31.740347,41.88,9.297551,-0.0028354659767690416,-0.024225890150371555,0.09685382322919964,36.09446859390736,-92.24360919585227,80.21211738781929
2024-09-23 09:17:31.751719,41.88,9.297551,-0.0028354659767690416,-0.024225890150371555,0.09685382322919964,44.11764879391193,-96.25519929585457,80.21211738781929
2024-09-23 09:17:31.795036,41.88,9.297638,-0.003233425524256645,-0.02367869399252531,0.09819693278585856,44.11764879391193,-96.25519929585457,76.200527287817
2024-09-23 09:17:31.806729,41.88,9.297638,-0.003233425524256645,-0.02367869399252531,0.09819693278585856,36.09446859390736,-96.25519929585457,76.200527287817
2024-09-23 09:17:31.838508,41.88,9.297638,-0.003233425524256645,-0.02367869399252531,0.09819693278585856,36.09446859390736,-100.26678939585686,80.21211738781929
2024-09-23 09:17:31.850383,41.88,9.29769,-0.0033329230534799477,-0.023877669304275123,0.09710254654607277,36.09446859390736,-100.26678939585686,80.21211738781929
2024-09-23 09:17:31.893807,42.39,9.29774,-0.003631395514708897,-0.02367869399252531,0.09710254654607277,44.11764879391193,-104.27510100388527,80.21211738781929
2024-09-23 09:17:31.935722,42.39,9.29774,-0.003631395514708897,-0.02367869399252531,0.0976994861521123,44.11764879391193,-104.27510100388527,80.21211738781929
2024-09-23 09:17:31.947203,42.39,9.297791,-0.0035816467500972456,-0.02367869399252531,0.0976994861521123,44.11764879391193,-96.25519929585457,80.21211738781929
2024-09-23 09:17:31.989679,42.39,9.297791,-0.0035816467500972456,-0.02362894446842532,0.0970030596496862,36.09446859390736,-100.26678939585686,84.22370748782159
2024-09-23 09:17:32.001835,42.39,9.297882,-0.0035816467500972456,-0.02362894446842532,0.0970030596496862,36.09446859390736,-100.26678939585686,84.22370748782159
2024-09-23 09:17:32.035474,42.39,9.297882,-0.003631395514708897,-0.023728432883788564,0.09705279702197278,36.09446859390736,-100.26678939585686,84.22370748782159
2024-09-23 09:17:32.047034,42.39,9.297882,-0.003631395514708897,-0.023728432883788564,0.09705279702197278,40.106058693909645,-104.27510100388527,84.22370748782159
2024-09-23 09:17:32.090329,42.39,9.297933,-0.0030841997366068195,-0.023280723622328886,0.09680407370509965,44.11764879391193,-96.25519929585457,84.22370748782159
2024-09-23 09:17:32.133807,42.39,9.297984,-0.0035318979854855937,-0.023479709566915436,0.09680407370509965,44.11764879391193,-96.25519929585457,80.21211738781929
2024-09-23 09:17:32.145532,42.39,9.297984,-0.0035318979854855937,-0.023479709566915436,0.09720203344245934,40.106058693909645,-96.25519929585457,80.21211738781929
2024-09-23 09:17:32.176992,42.39,9.297984,-0.0035318979854855937,-0.023479709566915436,0.09720203344245934,40.106058693909645,-100.26678939585686,80.21211738781929
2024-09-23 09:17:32.188580,42.39,9.298035,-0.0031836870127375577,-0.023479709566915436,0.09685382322919964,40.106058693909645,-100.26678939585686,80.21211738781929
2024-09-23 09:17:32.230877,42.39,9.298085,-0.0031836870127375577,-0.023479709566915436,0.09685382322919964,44.11764879391193,-96.25519929585457,84.22370748782159
2024-09-23 09:17:32.242643,42.39,9.298085,-0.0032831742888682963,-0.02338022115155219,0.09685382322919964,44.11764879391193,-96.25519929585457,84.22370748782159
2024-09-23 09:17:32.274906,42.39,9.298085,-0.0032831742888682963,-0.02338022115155219,0.09715228999426605,44.11764879391193,-96.25519929585457,84.22370748782159
2024-09-23 09:17:32.286684,42.39,9.298136,-0.0037308827908396356,-0.02338022115155219,0.09715228999426605,40.106058693909645,-104.27510100388527,84.22370748782159
2024-09-23 09:17:32.329258,42.39,9.298136,-0.0037308827908396356,-0.023827930413011865,0.09710254654607277,40.106058693909645,-100.26678939585686,84.22370748782159
2024-09-23 09:17:32.341224,42.39,9.298223,-0.0037308827908396356,-0.023827930413011865,0.09710254654607277,40.106058693909645,-100.26678939585686,80.21211738781929
2024-09-23 09:17:32.374744,42.39,9.298223,-0.0034324103296106863,-0.02338022115155219,0.09710254654607277,40.106058693909645,-100.26678939585686,80.21211738781929
2024-09-23 09:17:32.386226,42.39,9.298223,-0.0034324103296106863,-0.02338022115155219,0.09710254654607277,40.106058693909645,-96.25519929585457,84.22370748782159
2024-09-23 09:17:32.429199,42.39,9.298275,-0.0027359787006383035,-0.023230986250042305,0.09745075675933246,40.106058693909645,-104.27510100388527,84.22370748782159
2024-09-23 09:17:32.472092,42.39,9.298325,-0.0027359787006383035,-0.023230986250042305,0.09745075675933246,40.106058693909645,-104.27510100388527,80.21211738781929
2024-09-23 09:17:32.485929,42.39,9.298325,-0.0034324103296106863,-0.023429960042815445,0.0976994861521123,36.09446859390736,-104.27510100388527,80.21211738781929
2024-09-23 09:17:32.518492,42.39,9.298325,-0.0034324103296106863,-0.023429960042815445,0.0976994861521123,36.09446859390736,-92.24360919585227,80.21211738781929
2024-09-23 09:17:32.530958,42.39,9.298376,-0.003233425524256645,-0.023728432883788564,0.09745075675933246,36.09446859390736,-92.24360919585227,84.22370748782159
2024-09-23 09:17:32.572675,42.39,9.298427,-0.003233425524256645,-0.023728432883788564,0.09745075675933246,36.09446859390736,-104.27510100388527,80.21211738781929
2024-09-23 09:17:32.584117,42.39,9.298427,-0.0038801188315820256,-0.02352945757203875,0.09745075675933246,36.09446859390736,-104.27510100388527,80.21211738781929
2024-09-23 09:17:32.616151,42.39,9.298427,-0.0038801188315820256,-0.02352945757203875,0.09789846602079214,36.09446859390736,-104.27510100388527,80.21211738781929
2024-09-23 09:17:32.627719,42.39,9.298477,-0.0035816467500972456,-0.02352945757203875,0.09789846602079214,40.106058693909645,-100.26678939585686,84.22370748782159
2024-09-23 09:17:32.669716,42.39,9.298477,-0.0035816467500972456,-0.02293251340906919,0.09655535038822652,36.09446859390736,-96.25519929585457,84.22370748782159
2024-09-23 09:17:32.681570,42.39,9.298564,-0.0035816467500972456,-0.02293251340906919,0.09655535038822652,36.09446859390736,-96.25519929585457,84.22370748782159
2024-09-23 09:17:32.765790,42.39,9.298564,-0.0032831742888682963,-0.023827930413011865,0.09690356060148622,36.09446859390736,-96.25519929585457,84.22370748782159
2024-09-23 09:17:32.820424,42.39,9.298617,-0.0035318979854855937,-0.023827930413011865,0.09690356060148622,36.09446859390736,-92.24360919585227,80.21211738781929
2024-09-23 09:17:32.832569,42.39,9.298617,-0.0035318979854855937,-0.023827930413011865,0.09690356060148622,36.09446859390736,-92.24360919585227,80.21211738781929
2024-09-23 09:17:32.864072,42.39,9.298617,-0.0035318979854855937,-0.023827930413011865,0.0973512698629459,40.106058693909645,-92.24360919585227,80.21211738781929
2024-09-23 09:17:32.875248,42.39,9.298667,-0.003233425524256645,-0.023827930413011865,0.0973512698629459,40.106058693909645,-92.24360919585227,80.21211738781929
2024-09-23 09:17:32.918882,42.66,9.298718,-0.003233425524256645,-0.02352945757203875,0.09755024973162574,36.09446859390736,-96.25519929585457,76.200527287817
2024-09-23 09:17:32.962201,42.66,9.298718,-0.002785727465249955,-0.023877669304275123,0.09745075675933246,36.09446859390736,-96.25519929585457,76.200527287817
2024-09-23 09:17:32.973389,42.66,9.298718,-0.002785727465249955,-0.023877669304275123,0.09745075675933246,36.09446859390736,-92.24360919585227,80.21211738781929
2024-09-23 09:17:33.016728,42.66,9.298769,-0.003979606107712764,-0.023927417309398437,0.09720203344245934,36.09446859390736,-96.25519929585457,80.21211738781929
2024-09-23 09:17:33.060079,42.66,9.298907,-0.0035318979854855937,-0.023877669304275123,0.09720203344245934,36.09446859390736,-96.25519929585457,80.21211738781929
2024-09-23 09:17:33.071294,42.66,9.298907,-0.0035318979854855937,-0.023877669304275123,0.09630662707135339,36.09446859390736,-96.25519929585457,80.21211738781929
2024-09-23 09:17:33.114380,42.66,9.298958,-0.003631395514708897,-0.02338022115155219,0.09680407370509965,36.09446859390736,-100.26678939585686,88.23529758782387
2024-09-23 09:17:33.158072,42.66,9.299009,-0.003631395514708897,-0.02338022115155219,0.09680407370509965,36.09446859390736,-100.26678939585686,76.200527287817
2024-09-23 09:17:33.169965,42.66,9.299009,-0.003233425524256645,-0.023579196463302005,0.09680407370509965,36.09446859390736,-100.26678939585686,76.200527287817
2024-09-23 09:17:33.202649,42.66,9.299009,-0.003233425524256645,-0.023579196463302005,0.09675432418099966,36.09446859390736,-100.26678939585686,76.200527287817
2024-09-23 09:17:33.214006,42.66,9.299059,-0.002586742470023829,-0.023579196463302005,0.09675432418099966,36.09446859390736,-100.26678939585686,72.1922225099802
2024-09-23 09:17:33.256553,42.66,9.299059,-0.002586742470023829,-0.023877669304275123,0.09650560086412653,36.09446859390736,-104.27510100388527,72.1922225099802
2024-09-23 09:17:33.269050,42.66,9.299149,-0.002586742470023829,-0.023877669304275123,0.09650560086412653,36.09446859390736,-104.27510100388527,80.21211738781929
2024-09-23 09:17:33.301860,42.66,9.299149,-0.0031339382481259063,-0.023728432883788564,0.09720203344245934,36.09446859390736,-104.27510100388527,80.21211738781929
2024-09-23 09:17:33.313078,42.66,9.299149,-0.0031339382481259063,-0.023728432883788564,0.09720203344245934,40.106058693909645,-96.25519929585457,76.200527287817
2024-09-23 09:17:33.356454,42.66,9.299201,-0.0032831742888682963,-0.023429960042815445,0.0970030596496862,36.09446859390736,-92.24360919585227,76.200527287817
2024-09-23 09:17:33.398561,42.66,9.299252,-0.0032831742888682963,-0.023429960042815445,0.0970030596496862,36.09446859390736,-92.24360919585227,76.200527287817
2024-09-23 09:17:33.410465,42.66,9.299252,-0.0033329230534799477,-0.023330473146428877,0.09715228999426605,36.09446859390736,-92.24360919585227,76.200527287817
2024-09-23 09:17:33.453090,42.66,9.299302,-0.0030841997366068195,-0.023778180888911878,0.09690356060148622,36.09446859390736,-104.27510100388527,76.200527287817
2024-09-23 09:17:33.495152,42.66,9.299302,-0.0030841997366068195,-0.023778180888911878,0.09690356060148622,40.106058693909645,-104.27510100388527,76.200527287817
2024-09-23 09:17:33.506185,42.66,9.299353,-0.0032831742888682963,-0.023579196463302005,0.09690356060148622,40.106058693909645,-104.27510100388527,80.21211738781929
2024-09-23 09:17:33.548823,42.66,9.299404,-0.0032831742888682963,-0.023579196463302005,0.09740101331113918,40.106058693909645,-96.25519929585457,80.21211738781929
2024-09-23 09:17:33.560537,42.66,9.299404,-0.0033329230534799477,-0.023579196463302005,0.09740101331113918,40.106058693909645,-96.25519929585457,80.21211738781929
2024-09-23 09:17:33.593143,42.66,9.299404,-0.0033329230534799477,-0.023429960042815445,0.09740101331113918,40.106058693909645,-96.25519929585457,80.21211738781929
2024-09-23 09:17:33.604527,42.66,9.299491,-0.0033329230534799477,-0.023429960042815445,0.09665483728461309,32.08287849390507,-100.26678939585686,80.21211738781929
2024-09-23 09:17:33.646448,42.66,9.299491,-0.0031836870127375577,-0.023230986250042305,0.09715228999426605,32.08287849390507,-100.26678939585686,80.21211738781929
2024-09-23 09:17:33.658412,42.66,9.299491,-0.0031836870127375577,-0.023230986250042305,0.09715228999426605,32.08287849390507,-100.26678939585686,80.21211738781929
2024-09-23 09:17:33.690588,42.66,9.299543,-0.0029847020175114316,-0.023230986250042305,0.09715228999426605,32.08287849390507,-100.26678939585686,80.21211738781929
2024-09-23 09:17:33.702076,42.66,9.299543,-0.0029847020175114316,-0.02352945757203875,0.09690356060148622,36.09446859390736,-96.25519929585457,80.21211738781929
2024-09-23 09:17:33.744852,42.66,9.299594,-0.0030841997366068195,-0.023778180888911878,0.09740101331113918,36.09446859390736,-96.25519929585457,80.21211738781929
2024-09-23 09:17:33.756819,42.66,9.299594,-0.0030841997366068195,-0.023778180888911878,0.09740101331113918,40.106058693909645,-96.25519929585457,80.21211738781929
2024-09-23 09:17:33.789368,42.66,9.299594,-0.0030841997366068195,-0.023778180888911878,0.09740101331113918,40.106058693909645,-100.26678939585686,80.21211738781929
2024-09-23 09:17:33.842168,42.66,9.299644,-0.0032831742888682963,-0.023778180888911878,0.0973015264147526,36.09446859390736,-100.26678939585686,80.21211738781929
2024-09-23 09:17:33.854251,42.66,9.299644,-0.0032831742888682963,-0.023778180888911878,0.0973015264147526,36.09446859390736,-96.25519929585457,80.21211738781929
2024-09-23 09:17:33.886212,42.66,9.299695,-0.0032831742888682963,-0.023778180888911878,0.0973015264147526,36.09446859390736,-96.25519929585457,80.21211738781929
2024-09-23 09:17:33.898256,42.66,9.299695,-0.0032831742888682963,-0.023479709566915436,0.09720203344245934,40.106058693909645,-96.25519929585457,80.21211738781929
