Ayaan's Suite
Timestamp,Sample Rate (Hz),Time,Ax,Ay,Az,Gx,Gy,Gz
2024-09-23 09:42:12.820166,0,10.778703,-0.0028852147413806935,-0.023230986250042305,0.09680407370509965,40.106058693909645,-100.26678939585686,76.200527287817
2024-09-23 09:42:12.862038,0,10.778703,-0.0028852147413806935,-0.023230986250042305,0.09680407370509965,36.09446859390736,-100.26678939585686,76.200527287817
2024-09-23 09:42:12.914329,0,10.778754,-0.003233425524256645,-0.023728432883788564,0.09680407370509965,36.09446859390736,-100.26678939585686,76.200527287817
2024-09-23 09:42:12.926303,0,10.778754,-0.003233425524256645,-0.023728432883788564,0.0962568775472534,36.09446859390736,-100.26678939585686,76.200527287817
2024-09-23 09:42:12.959527,0,10.778754,-0.003233425524256645,-0.023728432883788564,0.0962568775472534,36.09446859390736,-104.27510100388527,76.200527287817
2024-09-23 09:42:12.970585,0,10.778804,-0.0028354659767690416,-0.023280723622328886,0.0976994861521123,36.09446859390736,-104.27510100388527,80.21211738781929
2024-09-23 09:42:13.012415,0,10.778891,-0.0028354659767690416,-0.023280723622328886,0.0976994861521123,36.09446859390736,-100.26678939585686,80.21211738781929
2024-09-23 09:42:13.024080,0,10.778891,-0.0031339382481259063,-0.02397715620066169,0.0976994861521123,36.09446859390736,-100.26678939585686,80.21211738781929
2024-09-23 09:42:13.057423,0,10.778891,-0.0031339382481259063,-0.02397715620066169,0.09665483728461309,36.09446859390736,-100.26678939585686,80.21211738781929
2024-09-23 09:42:13.069006,0,10.778943,-0.0030344509719951677,-0.02397715620066169,0.09665483728461309,36.09446859390736,-104.27510100388527,76.200527287817
2024-09-23 09:42:13.110972,0,10.778943,-0.0030344509719951677,-0.02367869399252531,0.09695331012558621,32.08287849390507,-96.25519929585457,76.200527287817
2024-09-23 09:42:13.122735,0,10.778994,-0.0030344509719951677,-0.02367869399252531,0.09695331012558621,32.08287849390507,-96.25519929585457,76.200527287817
2024-09-23 09:42:13.155492,0,10.778994,-0.003631395514708897,-0.023429960042815445,0.09695331012558621,32.08287849390507,-96.25519929585457,76.200527287817
2024-09-23 09:42:13.167634,0,10.778994,-0.003631395514708897,-0.023429960042815445,0.09680407370509965,32.08287849390507,-96.25519929585457,76.200527287817
2024-09-23 09:42:13.211933,0,10.779087,-0.0031836870127375577,-0.023728432883788564,0.09615739065086683,28.07457030097246,-96.25519929585457,76.200527287817
2024-09-23 09:42:13.255248,0,10.779138,-0.0032831742888682963,-0.023927417309398437,0.09615739065086683,28.07457030097246,-96.25519929585457,76.200527287817
2024-09-23 09:42:13.267042,0,10.779138,-0.0032831742888682963,-0.023927417309398437,0.09710254654607277,32.08287849390507,-96.25519929585457,76.200527287817
2024-09-23 09:42:13.300161,0,10.779138,-0.0032831742888682963,-0.023927417309398437,0.09710254654607277,32.08287849390507,-100.26678939585686,76.200527287817
2024-09-23 09:42:13.311894,0,10.779189,-0.0034324103296106863,-0.023877669304275123,0.09715228999426605,32.08287849390507,-100.26678939585686,80.21211738781929
2024-09-23 09:42:13.405834,0,10.77924,-0.0027359787006383035,-0.02367869399252531,0.09715228999426605,48.12595698684454,-96.25519929585457,68.18063240997792
2024-09-23 09:42:13.450828,0,10.77924,-0.0027359787006383035,-0.02367869399252531,0.09759999317981902,40.106058693909645,-96.25519929585457,68.18063240997792
2024-09-23 09:42:13.461839,0,10.77929,-0.003482159473966507,-0.02367869399252531,0.09759999317981902,40.106058693909645,-96.25519929585457,72.1922225099802
2024-09-23 09:42:13.494875,0,10.77929,-0.003482159473966507,-0.023579196463302005,0.09759999317981902,40.106058693909645,-96.25519929585457,72.1922225099802
2024-09-23 09:42:13.506731,0,10.779379,-0.003482159473966507,-0.023579196463302005,0.09710254654607277,40.106058693909645,-96.25519929585457,80.21211738781929
2024-09-23 09:42:13.601761,0,10.779379,-0.003482159473966507,-0.02397715620066169,0.09740101331113918,40.106058693909645,-96.25519929585457,80.21211738781929
2024-09-23 09:42:13.643452,0,10.779379,-0.003482159473966507,-0.02397715620066169,0.09740101331113918,36.09446859390736,-96.25519929585457,80.21211738781929
2024-09-23 09:42:13.655612,0,10.77943,-0.003482159473966507,-0.02293251340906919,0.09740101331113918,36.09446859390736,-96.25519929585457,80.21211738781929
2024-09-23 09:42:13.698569,0,10.779526,-0.003482159473966507,-0.02293251340906919,0.09774922960030558,44.11764879391193,-92.24360919585227,72.1922225099802
2024-09-23 09:42:13.710374,0,10.779526,-0.0030841997366068195,-0.02293251340906919,0.09774922960030558,44.11764879391193,-92.24360919585227,72.1922225099802
2024-09-23 09:42:13.742717,0,10.779526,-0.0030841997366068195,-0.023827930413011865,0.09705279702197278,40.106058693909645,-92.24360919585227,72.1922225099802
2024-09-23 09:42:13.754509,0,10.779577,-0.0030841997366068195,-0.023827930413011865,0.09705279702197278,40.106058693909645,-100.26678939585686,84.22370748782159
2024-09-23 09:42:13.786845,40.58,10.779577,-0.003233425524256645,-0.023827930413011865,0.09705279702197278,40.106058693909645,-100.26678939585686,84.22370748782159
2024-09-23 09:42:13.798391,40.58,10.779577,-0.003233425524256645,-0.023827930413011865,0.09710254654607277,36.09446859390736,-96.25519929585457,72.1922225099802
2024-09-23 09:42:13.840133,40.58,10.779628,-0.0030841997366068195,-0.02308174982955575,0.09710254654607277,36.09446859390736,-96.25519929585457,72.1922225099802
2024-09-23 09:42:13.851119,40.58,10.779628,-0.0030841997366068195,-0.02308174982955575,0.09695331012558621,44.11764879391193,-96.25519929585457,72.1922225099802
2024-09-23 09:42:13.893745,40.58,10.77977,-0.0033329230534799477,-0.023230986250042305,0.09764974270391902,28.07457030097246,-96.25519929585457,76.200527287817
2024-09-23 09:42:13.936162,40.58,10.779821,-0.0033329230534799477,-0.023230986250042305,0.09764974270391902,28.07457030097246,-96.25519929585457,80.21211738781929
2024-09-23 09:42:13.947386,40.58,10.779821,-0.0030344509719951677,-0.023579196463302005,0.09690356060148622,28.07457030097246,-96.25519929585457,80.21211738781929
2024-09-23 09:42:13.989974,40.58,10.779872,-0.003929857343101113,-0.02397715620066169,0.09690356060148622,40.106058693909645,-100.26678939585686,76.200527287817
2024-09-23 09:42:14.032280,40.58,10.779872,-0.003929857343101113,-0.02397715620066169,0.09745075675933246,44.11764879391193,-100.26678939585686,76.200527287817
2024-09-23 09:42:14.044135,40.58,10.779922,-0.0033329230534799477,-0.02397715620066169,0.09745075675933246,44.11764879391193,-96.25519929585457,76.200527287817
2024-09-23 09:42:14.086593,40.58,10.779922,-0.0033329230534799477,-0.023280723622328886,0.0973512698629459,36.09446859390736,-96.25519929585457,76.200527287817
2024-09-23 09:42:14.098562,40.58,10.780013,-0.0033329230534799477,-0.023280723622328886,0.0973512698629459,36.09446859390736,-96.25519929585457,76.200527287817
2024-09-23 09:42:14.130294,40.58,10.780013,-0.0032831742888682963,-0.02362894446842532,0.0973512698629459,36.09446859390736,-96.25519929585457,76.200527287817
2024-09-23 09:42:14.142305,40.58,10.780013,-0.0032831742888682963,-0.02362894446842532,0.09690356060148622,40.106058693909645,-100.26678939585686,80.21211738781929
2024-09-23 09:42:14.184830,40.58,10.780064,-0.0036811340262279837,-0.023330473146428877,0.09690356060148622,36.09446859390736,-100.26678939585686,80.21211738781929
2024-09-23 09:42:14.228009,40.58,10.780115,-0.0036811340262279837,-0.023330473146428877,0.09690356060148622,36.09446859390736,-100.26678939585686,80.21211738781929
2024-09-23 09:42:14.239503,40.58,10.780115,-0.0031836870127375577,-0.02303200030545576,0.09670458680871308,36.09446859390736,-100.26678939585686,80.21211738781929
2024-09-23 09:42:14.281733,40.58,10.780165,-0.003382661564999035,-0.023479709566915436,0.09670458680871308,36.09446859390736,-104.27510100388527,68.18063240997792
2024-09-23 09:42:14.293878,40.58,10.780165,-0.003382661564999035,-0.023479709566915436,0.09720203344245934,36.09446859390736,-104.27510100388527,68.18063240997792
2024-09-23 09:42:14.327216,40.58,10.780165,-0.003382661564999035,-0.023479709566915436,0.09720203344245934,36.09446859390736,-104.27510100388527,76.200527287817
2024-09-23 09:42:14.339483,40.58,10.780216,-0.003482159473966507,-0.024026904205785005,0.09720203344245934,36.09446859390736,-104.27510100388527,76.200527287817
2024-09-23 09:42:14.371552,40.58,10.780216,-0.003482159473966507,-0.024026904205785005,0.09755024973162574,36.09446859390736,-104.27510100388527,76.200527287817
2024-09-23 09:42:14.383020,40.58,10.780267,-0.0036811340262279837,-0.024026904205785005,0.09755024973162574,44.11764879391193,-100.26678939585686,80.21211738781929
2024-09-23 09:42:14.427158,40.58,10.780267,-0.0036811340262279837,-0.02352945757203875,0.09695331012558621,36.09446859390736,-88.23529758782387,80.21211738781929
2024-09-23 09:42:14.438870,40.58,10.780354,-0.0036811340262279837,-0.02352945757203875,0.09695331012558621,36.09446859390736,-88.23529758782387,80.21211738781929
2024-09-23 09:42:14.470589,40.58,10.780354,-0.0038801188315820256,-0.02352945757203875,0.09695331012558621,36.09446859390736,-88.23529758782387,80.21211738781929
2024-09-23 09:42:14.482032,40.58,10.780354,-0.0038801188315820256,-0.02313149783467906,0.09695331012558621,44.11764879391193,-88.23529758782387,72.1922225099802
2024-09-23 09:42:14.524051,40.58,10.780405,-0.0031836870127375577,-0.023728432883788564,0.09710254654607277,44.11764879391193,-88.23529758782387,72.1922225099802
2024-09-23 09:42:14.536132,40.58,10.780405,-0.0031836870127375577,-0.023728432883788564,0.09710254654607277,48.12595698684454,-92.24360919585227,72.1922225099802
2024-09-23 09:42:14.568625,40.58,10.780456,-0.0031836870127375577,-0.023728432883788564,0.09710254654607277,48.12595698684454,-92.24360919585227,72.1922225099802
2024-09-23 09:42:14.580197,40.58,10.780456,-0.0036811340262279837,-0.023827930413011865,0.09715228999426605,40.106058693909645,-92.24360919585227,72.1922225099802
2024-09-23 09:42:14.622108,40.58,10.780507,-0.003382661564999035,-0.02397715620066169,0.09715228999426605,40.106058693909645,-92.24360919585227,76.200527287817
2024-09-23 09:42:14.633891,40.58,10.780507,-0.003382661564999035,-0.02397715620066169,0.09640611396773996,40.106058693909645,-92.24360919585227,76.200527287817
2024-09-23 09:42:14.666412,40.58,10.780507,-0.003382661564999035,-0.02397715620066169,0.09640611396773996,40.106058693909645,-104.27510100388527,76.200527287817
2024-09-23 09:42:14.678063,40.58,10.780558,-0.003382661564999035,-0.023280723622328886,0.09640611396773996,40.106058693909645,-104.27510100388527,80.21211738781929
2024-09-23 09:42:14.720797,40.58,10.780608,-0.0037308827908396356,-0.023280723622328886,0.09695331012558621,36.09446859390736,-96.25519929585457,80.21211738781929
2024-09-23 09:42:14.763872,40.58,10.780608,-0.0037308827908396356,-0.02338022115155219,0.09685382322919964,36.09446859390736,-96.25519929585457,80.21211738781929
2024-09-23 09:42:14.775590,40.58,10.780695,-0.0037308827908396356,-0.02338022115155219,0.09685382322919964,36.09446859390736,-100.26678939585686,80.21211738781929
2024-09-23 09:42:14.817752,42.6,10.780695,-0.0032831742888682963,-0.02397715620066169,0.09740101331113918,36.09446859390736,-96.25519929585457,80.21211738781929
2024-09-23 09:42:14.830247,42.6,10.780695,-0.0032831742888682963,-0.02397715620066169,0.09740101331113918,36.09446859390736,-96.25519929585457,76.200527287817
2024-09-23 09:42:14.863565,42.6,10.780747,-0.0034324103296106863,-0.02352945757203875,0.09740101331113918,36.09446859390736,-96.25519929585457,76.200527287817
2024-09-23 09:42:14.875263,42.6,10.780747,-0.0034324103296106863,-0.02352945757203875,0.09725178296655933,36.09446859390736,-88.23529758782387,76.200527287817
2024-09-23 09:42:14.907751,42.6,10.780747,-0.0034324103296106863,-0.02352945757203875,0.09725178296655933,36.09446859390736,-88.23529758782387,76.200527287817
2024-09-23 09:42:14.918836,42.6,10.780797,-0.003233425524256645,-0.023827930413011865,0.0970030596496862,32.08287849390507,-88.23529758782387,76.200527287817
2024-09-23 09:42:14.961819,42.6,10.780848,-0.003382661564999035,-0.023827930413011865,0.0970030596496862,32.08287849390507,-92.24360919585227,80.21211738781929
2024-09-23 09:42:14.973247,42.6,10.780848,-0.003382661564999035,-0.023728432883788564,0.0970030596496862,32.08287849390507,-92.24360919585227,80.21211738781929
2024-09-23 09:42:15.005137,42.6,10.780848,-0.003382661564999035,-0.023728432883788564,0.0970030596496862,32.08287849390507,-92.24360919585227,80.21211738781929
2024-09-23 09:42:15.016837,42.6,10.780899,-0.0036811340262279837,-0.023827930413011865,0.0970030596496862,32.08287849390507,-104.27510100388527,76.200527287817
2024-09-23 09:42:15.059263,42.6,10.780899,-0.0036811340262279837,-0.023827930413011865,0.09680407370509965,32.08287849390507,-104.27510100388527,80.21211738781929
2024-09-23 09:42:15.071133,42.6,10.780949,-0.0031339382481259063,-0.023827930413011865,0.09680407370509965,32.08287849390507,-104.27510100388527,80.21211738781929
2024-09-23 09:42:15.103220,42.6,10.780949,-0.0031339382481259063,-0.02367869399252531,0.09680407370509965,32.08287849390507,-104.27510100388527,80.21211738781929
2024-09-23 09:42:15.115487,42.6,10.781036,-0.0031339382481259063,-0.02367869399252531,0.0973512698629459,36.09446859390736,-100.26678939585686,84.22370748782159
2024-09-23 09:42:15.158373,42.6,10.781036,-0.0029349636958644295,-0.023181236725942318,0.0973512698629459,40.106058693909645,-100.26678939585686,84.22370748782159
2024-09-23 09:42:15.170935,42.6,10.781036,-0.0029349636958644295,-0.023181236725942318,0.0973512698629459,40.106058693909645,-96.25519929585457,76.200527287817
2024-09-23 09:42:15.202924,42.6,10.781088,-0.003382661564999035,-0.023181236725942318,0.0973512698629459,40.106058693909645,-96.25519929585457,76.200527287817
2024-09-23 09:42:15.213871,42.6,10.781088,-0.003382661564999035,-0.023778180888911878,0.09740101331113918,40.106058693909645,-92.24360919585227,76.200527287817
2024-09-23 09:42:15.255505,42.6,10.781139,-0.0032831742888682963,-0.024076653729884996,0.09779897304849887,40.106058693909645,-92.24360919585227,80.21211738781929
2024-09-23 09:42:15.267511,42.6,10.781139,-0.0032831742888682963,-0.024076653729884996,0.09779897304849887,40.106058693909645,-92.24360919585227,80.21211738781929
2024-09-23 09:42:15.299650,42.6,10.781139,-0.0032831742888682963,-0.024076653729884996,0.09779897304849887,40.106058693909645,-92.24360919585227,80.21211738781929
2024-09-23 09:42:15.311476,42.6,10.781189,-0.003382661564999035,-0.02362894446842532,0.09720203344245934,40.106058693909645,-92.24360919585227,80.21211738781929
2024-09-23 09:42:15.405837,42.6,10.78124,-0.0031836870127375577,-0.023181236725942318,0.09720203344245934,36.09446859390736,-96.25519929585457,76.200527287817
2024-09-23 09:42:15.449173,42.6,10.78124,-0.0031836870127375577,-0.023181236725942318,0.09710254654607277,36.09446859390736,-96.25519929585457,76.200527287817
2024-09-23 09:42:15.502289,42.6,10.781291,-0.0035318979854855937,-0.023778180888911878,0.09745075675933246,36.09446859390736,-100.26678939585686,76.200527287817
2024-09-23 09:42:15.544251,42.6,10.781291,-0.0035318979854855937,-0.023778180888911878,0.09745075675933246,36.09446859390736,-96.25519929585457,76.200527287817
2024-09-23 09:42:15.556520,42.6,10.781378,-0.0030841997366068195,-0.023778180888911878,0.09745075675933246,36.09446859390736,-96.25519929585457,76.200527287817
2024-09-23 09:42:15.599581,42.6,10.781429,-0.0034324103296106863,-0.023778180888911878,0.09740101331113918,36.09446859390736,-100.26678939585686,80.21211738781929
2024-09-23 09:42:15.643177,42.6,10.781429,-0.0034324103296106863,-0.02362894446842532,0.09665483728461309,40.106058693909645,-100.26678939585686,80.21211738781929
2024-09-23 09:42:15.654689,42.6,10.781525,-0.0034324103296106863,-0.02362894446842532,0.09665483728461309,40.106058693909645,-96.25519929585457,80.21211738781929
2024-09-23 09:42:15.697807,42.6,10.781525,-0.0035318979854855937,-0.023579196463302005,0.09690356060148622,40.106058693909645,-96.25519929585457,80.21211738781929
2024-09-23 09:42:15.740378,42.6,10.781622,-0.002785727465249955,-0.02412639262114825,0.09690356060148622,40.106058693909645,-96.25519929585457,80.21211738781929
2024-09-23 09:42:15.751679,42.6,10.781622,-0.002785727465249955,-0.02412639262114825,0.09650560086412653,40.106058693909645,-100.26678939585686,80.21211738781929
2024-09-23 09:42:15.794575,42.6,10.781673,-0.003482159473966507,-0.024325377046758124,0.09665483728461309,32.08287849390507,-100.26678939585686,80.21211738781929
2024-09-23 09:42:15.838037,42.12,10.781724,-0.003482159473966507,-0.024325377046758124,0.09665483728461309,32.08287849390507,-100.26678939585686,84.22370748782159
2024-09-23 09:42:15.849795,42.12,10.781724,-0.003631395514708897,-0.02397715620066169,0.09755024973162574,32.08287849390507,-100.26678939585686,84.22370748782159
2024-09-23 09:42:15.892221,42.12,10.781775,-0.003233425524256645,-0.023778180888911878,0.09755024973162574,32.08287849390507,-100.26678939585686,76.200527287817
2024-09-23 09:42:15.934952,42.12,10.781775,-0.003233425524256645,-0.023778180888911878,0.09750050628343246,28.07457030097246,-96.25519929585457,76.200527287817
2024-09-23 09:42:15.946174,42.12,10.781825,-0.0036811340262279837,-0.023778180888911878,0.09750050628343246,28.07457030097246,-96.25519929585457,84.22370748782159
2024-09-23 09:42:15.988570,42.12,10.781914,-0.0036811340262279837,-0.023927417309398437,0.09720203344245934,44.11764879391193,-100.26678939585686,76.200527287817
2024-09-23 09:42:16.030944,42.12,10.781914,-0.003482159473966507,-0.023579196463302005,0.09720203344245934,44.11764879391193,-100.26678939585686,76.200527287817
2024-09-23 09:42:16.041848,42.12,10.781914,-0.003482159473966507,-0.023579196463302005,0.09759999317981902,44.11764879391193,-96.25519929585457,76.200527287817
2024-09-23 09:42:16.084395,42.12,10.781965,-0.003233425524256645,-0.023280723622328886,0.0970030596496862,44.11764879391193,-96.25519929585457,84.22370748782159
2024-09-23 09:42:16.096250,42.12,10.781965,-0.003233425524256645,-0.023280723622328886,0.0970030596496862,44.11764879391193,-96.25519929585457,84.22370748782159
2024-09-23 09:42:16.129315,42.12,10.781965,-0.003233425524256645,-0.023280723622328886,0.0970030596496862,44.11764879391193,-104.27510100388527,80.21211738781929
2024-09-23 09:42:16.141264,42.12,10.782016,-0.0028852147413806935,-0.023230986250042305,0.09685382322919964,44.11764879391193,-104.27510100388527,80.21211738781929
2024-09-23 09:42:16.184633,42.12,10.782067,-0.0035318979854855937,-0.024026904205785005,0.09685382322919964,36.09446859390736,-100.26678939585686,76.200527287817
2024-09-23 09:42:16.228069,42.12,10.782067,-0.0035318979854855937,-0.024026904205785005,0.09710254654607277,40.106058693909645,-96.25519929585457,76.200527287817
2024-09-23 09:42:16.239479,42.12,10.782117,-0.003233425524256645,-0.024026904205785005,0.09710254654607277,40.106058693909645,-96.25519929585457,80.21211738781929
2024-09-23 09:42:16.281802,42.12,10.782168,-0.003233425524256645,-0.02352945757203875,0.0973015264147526,36.09446859390736,-96.25519929585457,72.1922225099802
2024-09-23 09:42:16.323928,42.12,10.782168,-0.003382661564999035,-0.023230986250042305,0.0973015264147526,36.09446859390736,-96.25519929585457,72.1922225099802
2024-09-23 09:42:16.335377,42.12,10.782168,-0.003382661564999035,-0.023230986250042305,0.09720203344245934,36.09446859390736,-100.26678939585686,80.21211738781929
2024-09-23 09:42:16.377885,42.12,10.782256,-0.0032831742888682963,-0.023280723622328886,0.09670458680871308,32.08287849390507,-100.26678939585686,80.21211738781929
2024-09-23 09:42:16.389977,42.12,10.782256,-0.0032831742888682963,-0.023280723622328886,0.09670458680871308,32.08287849390507,-96.25519929585457,80.21211738781929
2024-09-23 09:42:16.473754,42.12,10.782307,-0.0030344509719951677,-0.023479709566915436,0.09670458680871308,32.08287849390507,-96.25519929585457,80.21211738781929
2024-09-23 09:42:16.485415,42.12,10.782307,-0.0030344509719951677,-0.023479709566915436,0.09745075675933246,28.07457030097246,-96.25519929585457,80.21211738781929
2024-09-23 09:42:16.517972,42.12,10.782307,-0.0030344509719951677,-0.023479709566915436,0.09745075675933246,28.07457030097246,-88.23529758782387,80.21211738781929
2024-09-23 09:42:16.529391,42.12,10.782358,-0.0030344509719951677,-0.023230986250042305,0.09725178296655933,28.07457030097246,-88.23529758782387,88.23529758782387
2024-09-23 09:42:16.572024,42.12,10.782408,-0.0030344509719951677,-0.023230986250042305,0.09725178296655933,32.08287849390507,-96.25519929585457,84.22370748782159
2024-09-23 09:42:16.584667,42.12,10.782408,-0.0036811340262279837,-0.023280723622328886,0.09725178296655933,32.08287849390507,-96.25519929585457,84.22370748782159
2024-09-23 09:42:16.618031,42.12,10.782408,-0.0036811340262279837,-0.023280723622328886,0.09635636444363997,36.09446859390736,-96.25519929585457,84.22370748782159
2024-09-23 09:42:16.629779,42.12,10.782459,-0.003382661564999035,-0.023280723622328886,0.09635636444363997,36.09446859390736,-96.25519929585457,80.21211738781929
2024-09-23 09:42:16.672316,42.12,10.782459,-0.003382661564999035,-0.02397715620066169,0.09675432418099966,36.09446859390736,-92.24360919585227,80.21211738781929
2024-09-23 09:42:16.714681,42.12,10.782596,-0.003482159473966507,-0.02397715620066169,0.09675432418099966,36.09446859390736,-92.24360919585227,80.21211738781929
2024-09-23 09:42:16.727186,42.12,10.782596,-0.003482159473966507,-0.02352945757203875,0.0973512698629459,44.11764879391193,-92.24360919585227,80.21211738781929
2024-09-23 09:42:16.771045,42.12,10.782648,-0.0032831742888682963,-0.02352945757203875,0.0973512698629459,44.11764879391193,-92.24360919585227,76.200527287817
2024-09-23 09:42:16.813175,42.12,10.782648,-0.0032831742888682963,-0.02367869399252531,0.0973512698629459,40.106058693909645,-92.24360919585227,76.200527287817
2024-09-23 09:42:16.824634,42.12,10.782699,-0.0032831742888682963,-0.02367869399252531,0.0973512698629459,40.106058693909645,-88.23529758782387,76.200527287817
2024-09-23 09:42:16.867584,41.79,10.782699,-0.0026862297461545674,-0.023280723622328886,0.09655535038822652,36.09446859390736,-104.27510100388527,80.21211738781929
2024-09-23 09:42:16.910792,41.79,10.782749,-0.003382661564999035,-0.022982261414192504,0.09655535038822652,36.09446859390736,-104.27510100388527,80.21211738781929
2024-09-23 09:42:16.921888,41.79,10.782749,-0.003382661564999035,-0.022982261414192504,0.09680407370509965,40.106058693909645,-96.25519929585457,80.21211738781929
2024-09-23 09:42:16.963926,41.79,10.7828,-0.0034324103296106863,-0.023579196463302005,0.09690356060148622,44.11764879391193,-96.25519929585457,80.21211738781929
2024-09-23 09:42:17.006541,41.79,10.7828,-0.0034324103296106863,-0.023579196463302005,0.09690356060148622,44.11764879391193,-96.25519929585457,80.21211738781929
2024-09-23 09:42:17.017696,41.79,10.782889,-0.0028354659767690416,-0.023429960042815445,0.09705279702197278,44.11764879391193,-96.25519929585457,80.21211738781929
2024-09-23 09:42:17.059626,41.79,10.782941,-0.0032831742888682963,-0.023429960042815445,0.09705279702197278,36.09446859390736,-104.27510100388527,80.21211738781929
2024-09-23 09:42:17.071262,41.79,10.782941,-0.0032831742888682963,-0.02303200030545576,0.09705279702197278,36.09446859390736,-104.27510100388527,80.21211738781929
2024-09-23 09:42:17.103620,41.79,10.782941,-0.0032831742888682963,-0.02303200030545576,0.09720203344245934,36.09446859390736,-104.27510100388527,80.21211738781929
2024-09-23 09:42:17.114986,41.79,10.782992,-0.0034324103296106863,-0.02303200030545576,0.09720203344245934,36.09446859390736,-100.26678939585686,76.200527287817
2024-09-23 09:42:17.157108,41.79,10.782992,-0.0034324103296106863,-0.023479709566915436,0.0970030596496862,36.09446859390736,-96.25519929585457,76.200527287817
2024-09-23 09:42:17.168864,41.79,10.783084,-0.0034324103296106863,-0.023479709566915436,0.0970030596496862,36.09446859390736,-96.25519929585457,76.200527287817
2024-09-23 09:42:17.201092,41.79,10.783084,-0.003482159473966507,-0.023479709566915436,0.0970030596496862,36.09446859390736,-96.25519929585457,76.200527287817
2024-09-23 09:42:17.212916,41.79,10.783084,-0.003482159473966507,-0.023479709566915436,0.0973015264147526,32.08287849390507,-96.25519929585457,84.22370748782159
2024-09-23 09:42:17.257024,41.79,10.783135,-0.003482159473966507,-0.023230986250042305,0.09774922960030558,32.08287849390507,-96.25519929585457,84.22370748782159
2024-09-23 09:42:17.299505,41.79,10.783186,-0.003482159473966507,-0.023230986250042305,0.09774922960030558,32.08287849390507,-96.25519929585457,80.21211738781929
2024-09-23 09:42:17.310471,41.79,10.783186,-0.003631395514708897,-0.023877669304275123,0.0970030596496862,44.11764879391193,-96.25519929585457,80.21211738781929
2024-09-23 09:42:17.354543,41.79,10.783237,-0.003382661564999035,-0.023927417309398437,0.09740101331113918,44.11764879391193,-100.26678939585686,80.21211738781929
2024-09-23 09:42:17.396536,41.79,10.783237,-0.003382661564999035,-0.023927417309398437,0.09740101331113918,32.08287849390507,-96.25519929585457,80.21211738781929
2024-09-23 09:42:17.408504,41.79,10.783287,-0.0031339382481259063,-0.02362894446842532,0.09740101331113918,32.08287849390507,-96.25519929585457,68.18063240997792
2024-09-23 09:42:17.491818,41.79,10.783287,-0.0031339382481259063,-0.02362894446842532,0.09745075675933246,32.08287849390507,-96.25519929585457,68.18063240997792
2024-09-23 09:42:17.503052,41.79,10.783338,-0.003631395514708897,-0.02362894446842532,0.09745075675933246,40.106058693909645,-100.26678939585686,76.200527287817
2024-09-23 09:42:17.546148,41.79,10.783338,-0.003631395514708897,-0.024176140626271565,0.0973015264147526,36.09446859390736,-96.25519929585457,76.200527287817
2024-09-23 09:42:17.558154,41.79,10.783425,-0.003631395514708897,-0.024176140626271565,0.0973015264147526,36.09446859390736,-96.25519929585457,80.21211738781929
2024-09-23 09:42:17.589845,41.79,10.783425,-0.003631395514708897,-0.024176140626271565,0.0973015264147526,36.09446859390736,-96.25519929585457,80.21211738781929
2024-09-23 09:42:17.601728,41.79,10.783425,-0.003631395514708897,-0.02338022115155219,0.09715228999426605,36.09446859390736,-92.24360919585227,72.1922225099802
2024-09-23 09:42:17.644009,41.79,10.783477,-0.0034324103296106863,-0.023778180888911878,0.09630662707135339,36.09446859390736,-92.24360919585227,72.1922225099802
2024-09-23 09:42:17.655761,41.79,10.783477,-0.0034324103296106863,-0.023778180888911878,0.09630662707135339,32.08287849390507,-100.26678939585686,72.1922225099802
2024-09-23 09:42:17.688423,41.79,10.783527,-0.0034324103296106863,-0.023778180888911878,0.09630662707135339,32.08287849390507,-100.26678939585686,80.21211738781929
2024-09-23 09:42:17.700172,41.79,10.783527,-0.003780631555451287,-0.02352945757203875,0.0970030596496862,36.09446859390736,-100.26678939585686,80.21211738781929
2024-09-23 09:42:17.742578,41.79,10.783622,-0.003382661564999035,-0.022982261414192504,0.0970030596496862,36.09446859390736,-96.25519929585457,80.21211738781929
2024-09-23 09:42:17.755040,41.79,10.783622,-0.003382661564999035,-0.022982261414192504,0.09705279702197278,36.09446859390736,-96.25519929585457,80.21211738781929
2024-09-23 09:42:17.787207,41.79,10.783622,-0.003382661564999035,-0.022982261414192504,0.09705279702197278,36.09446859390736,-100.26678939585686,80.21211738781929
2024-09-23 09:42:17.798597,41.79,10.783673,-0.0030344509719951677,-0.023181236725942318,0.09705279702197278,36.09446859390736,-100.26678939585686,76.200527287817
2024-09-23 09:42:17.841962,41.79,10.783723,-0.004079093383843503,-0.023181236725942318,0.0966050877605131,36.09446859390736,-104.27510100388527,72.1922225099802
2024-09-23 09:42:17.884921,41.69,10.783723,-0.004079093383843503,-0.023330473146428877,0.09695331012558621,36.09446859390736,-104.27510100388527,72.1922225099802
2024-09-23 09:42:17.896285,41.69,10.783815,-0.004079093383843503,-0.023330473146428877,0.09695331012558621,36.09446859390736,-100.26678939585686,80.21211738781929
2024-09-23 09:42:17.938767,41.69,10.783815,-0.0037308827908396356,-0.02352945757203875,0.09655535038822652,32.08287849390507,-96.25519929585457,80.21211738781929
2024-09-23 09:42:17.981128,41.69,10.783867,-0.0031836870127375577,-0.02352945757203875,0.09655535038822652,32.08287849390507,-96.25519929585457,80.21211738781929
2024-09-23 09:42:17.992845,41.69,10.783867,-0.0031836870127375577,-0.02338022115155219,0.0966050877605131,32.08287849390507,-100.26678939585686,80.21211738781929
2024-09-23 09:42:18.036241,41.69,10.783917,-0.0033329230534799477,-0.023778180888911878,0.09759999317981902,36.09446859390736,-100.26678939585686,76.200527287817
2024-09-23 09:42:18.078843,41.69,10.783917,-0.0033329230534799477,-0.023778180888911878,0.09759999317981902,36.09446859390736,-104.27510100388527,80.21211738781929
2024-09-23 09:42:18.090240,41.69,10.783968,-0.0031339382481259063,-0.023479709566915436,0.0970030596496862,36.09446859390736,-104.27510100388527,80.21211738781929
2024-09-23 09:42:18.131861,41.69,10.784019,-0.002785727465249955,-0.023479709566915436,0.0970030596496862,48.12595698684454,-92.24360919585227,68.18063240997792
2024-09-23 09:42:18.143783,41.69,10.784019,-0.002785727465249955,-0.02367869399252531,0.0970030596496862,48.12595698684454,-92.24360919585227,68.18063240997792
2024-09-23 09:42:18.176085,41.69,10.784019,-0.002785727465249955,-0.02367869399252531,0.0973015264147526,48.12595698684454,-92.24360919585227,68.18063240997792
2024-09-23 09:42:18.187796,41.69,10.784069,-0.0038801188315820256,-0.02367869399252531,0.0973015264147526,36.09446859390736,-96.25519929585457,76.200527287817
2024-09-23 09:42:18.230404,41.69,10.784069,-0.0038801188315820256,-0.024076653729884996,0.09725178296655933,40.106058693909645,-96.25519929585457,80.21211738781929
2024-09-23 09:42:18.242428,41.69,10.784156,-0.0038801188315820256,-0.024076653729884996,0.09725178296655933,40.106058693909645,-96.25519929585457,80.21211738781929
2024-09-23 09:42:18.275543,41.69,10.784156,-0.0033329230534799477,-0.023827930413011865,0.09745075675933246,40.106058693909645,-96.25519929585457,80.21211738781929
2024-09-23 09:42:18.287254,41.69,10.784156,-0.0033329230534799477,-0.023827930413011865,0.09745075675933246,36.09446859390736,-108.28669110388756,72.1922225099802
2024-09-23 09:42:18.329109,41.69,10.784208,-0.0032831742888682963,-0.02362894446842532,0.0973015264147526,44.11764879391193,-100.26678939585686,72.1922225099802
2024-09-23 09:42:18.371527,41.69,10.784259,-0.0032831742888682963,-0.02362894446842532,0.0973015264147526,44.11764879391193,-100.26678939585686,76.200527287817
2024-09-23 09:42:18.383783,41.69,10.784259,-0.0033329230534799477,-0.02352945757203875,0.09720203344245934,32.08287849390507,-100.26678939585686,76.200527287817
2024-09-23 09:42:18.426493,41.69,10.784309,-0.003382661564999035,-0.023778180888911878,0.09720203344245934,32.08287849390507,-96.25519929585457,76.200527287817
2024-09-23 09:42:18.437956,41.69,10.784309,-0.003382661564999035,-0.023778180888911878,0.09695331012558621,32.08287849390507,-96.25519929585457,76.200527287817
2024-09-23 09:42:18.470596,41.69,10.784309,-0.003382661564999035,-0.023778180888911878,0.09695331012558621,40.106058693909645,-100.26678939585686,84.22370748782159
2024-09-23 09:42:18.482247,41.69,10.78436,-0.003929857343101113,-0.02362894446842532,0.09695331012558621,40.106058693909645,-100.26678939585686,84.22370748782159
2024-09-23 09:42:18.525822,41.69,10.784411,-0.003929857343101113,-0.02362894446842532,0.09710254654607277,40.106058693909645,-92.24360919585227,80.21211738781929
2024-09-23 09:42:18.570044,41.69,10.784411,-0.002636491424507565,-0.02367869399252531,0.09745075675933246,40.106058693909645,-92.24360919585227,80.21211738781929
2024-09-23 09:42:18.581345,41.69,10.784411,-0.002636491424507565,-0.02367869399252531,0.09745075675933246,36.09446859390736,-104.27510100388527,80.21211738781929
2024-09-23 09:42:18.612943,41.69,10.784411,-0.002636491424507565,-0.02367869399252531,0.09745075675933246,36.09446859390736,-104.27510100388527,76.200527287817
2024-09-23 09:42:18.625059,41.69,10.784498,-0.0037308827908396356,-0.024026904205785005,0.09750050628343246,40.106058693909645,-104.27510100388527,76.200527287817
2024-09-23 09:42:18.667613,41.69,10.784549,-0.0031836870127375577,-0.024026904205785005,0.09750050628343246,40.106058693909645,-92.24360919585227,80.21211738781929
2024-09-23 09:42:18.679661,41.69,10.784549,-0.0031836870127375577,-0.023479709566915436,0.09715228999426605,40.106058693909645,-92.24360919585227,80.21211738781929
2024-09-23 09:42:18.711955,41.69,10.784549,-0.0031836870127375577,-0.023479709566915436,0.09715228999426605,32.08287849390507,-92.24360919585227,80.21211738781929
2024-09-23 09:42:18.723854,41.69,10.7846,-0.0038801188315820256,-0.023429960042815445,0.09715228999426605,32.08287849390507,-108.28669110388756,80.21211738781929
2024-09-23 09:42:18.767869,41.69,10.784651,-0.003631395514708897,-0.023429960042815445,0.09685382322919964,44.11764879391193,-96.25519929585457,84.22370748782159
2024-09-23 09:42:18.809936,41.69,10.784651,-0.003631395514708897,-0.02352945757203875,0.09670458680871308,44.11764879391193,-96.25519929585457,84.22370748782159
2024-09-23 09:42:18.821384,41.69,10.784701,-0.003631395514708897,-0.02352945757203875,0.09670458680871308,48.12595698684454,-92.24360919585227,76.200527287817
2024-09-23 09:42:18.863804,41.69,10.784701,-0.0032831742888682963,-0.023479709566915436,0.09650560086412653,40.106058693909645,-100.26678939585686,76.200527287817
2024-09-23 09:42:18.875605,41.69,10.784701,-0.0032831742888682963,-0.023479709566915436,0.09650560086412653,40.106058693909645,-100.26678939585686,76.200527287817
2024-09-23 09:42:18.907272,42.24,10.784791,-0.0033329230534799477,-0.023479709566915436,0.09650560086412653,40.106058693909645,-100.26678939585686,76.200527287817
2024-09-23 09:42:18.918867,42.24,10.784791,-0.0033329230534799477,-0.023479709566915436,0.09655535038822652,36.09446859390736,-96.25519929585457,76.200527287817
2024-09-23 09:42:18.960972,42.24,10.784842,-0.0027359787006383035,-0.023230986250042305,0.09640611396773996,36.09446859390736,-96.25519929585457,84.22370748782159
2024-09-23 09:42:18.972814,42.24,10.784842,-0.0027359787006383035,-0.023230986250042305,0.09640611396773996,44.11764879391193,-96.25519929585457,84.22370748782159
2024-09-23 09:42:19.005686,42.24,10.784842,-0.0027359787006383035,-0.023230986250042305,0.09640611396773996,44.11764879391193,-96.25519929585457,84.22370748782159
2024-09-23 09:42:19.016844,42.24,10.784893,-0.0033329230534799477,-0.02352945757203875,0.0973512698629459,44.11764879391193,-96.25519929585457,84.22370748782159
2024-09-23 09:42:19.059421,42.24,10.784943,-0.0033329230534799477,-0.02352945757203875,0.0973512698629459,40.106058693909645,-96.25519929585457,80.21211738781929
2024-09-23 09:42:19.071738,42.24,10.784943,-0.0034324103296106863,-0.024076653729884996,0.0973512698629459,40.106058693909645,-96.25519929585457,80.21211738781929
2024-09-23 09:42:19.103159,42.24,10.784943,-0.0034324103296106863,-0.024076653729884996,0.09710254654607277,36.09446859390736,-96.25519929585457,80.21211738781929
2024-09-23 09:42:19.114731,42.24,10.784994,-0.0031339382481259063,-0.024076653729884996,0.09710254654607277,36.09446859390736,-100.26678939585686,80.21211738781929
2024-09-23 09:42:19.157917,42.24,10.784994,-0.0031339382481259063,-0.023330473146428877,0.09710254654607277,40.106058693909645,-92.24360919585227,76.200527287817
2024-09-23 09:42:19.169620,42.24,10.785083,-0.0031339382481259063,-0.023330473146428877,0.09710254654607277,40.106058693909645,-92.24360919585227,76.200527287817
2024-09-23 09:42:19.201090,42.24,10.785083,-0.003382661564999035,-0.023778180888911878,0.09705279702197278,40.106058693909645,-92.24360919585227,76.200527287817
2024-09-23 09:42:19.212291,42.24,10.785083,-0.003382661564999035,-0.023778180888911878,0.09705279702197278,32.08287849390507,-104.27510100388527,76.200527287817
2024-09-23 09:42:19.254759,42.24,10.785134,-0.0031339382481259063,-0.02338022115155219,0.09690356060148622,44.11764879391193,-104.27510100388527,76.200527287817
2024-09-23 09:42:19.297329,42.24,10.785185,-0.0031339382481259063,-0.02338022115155219,0.09690356060148622,44.11764879391193,-104.27510100388527,76.200527287817
2024-09-23 09:42:19.308751,42.24,10.785185,-0.0038801188315820256,-0.023429960042815445,0.09725178296655933,36.09446859390736,-104.27510100388527,76.200527287817
2024-09-23 09:42:19.350694,42.24,10.785236,-0.0031339382481259063,-0.023429960042815445,0.09725178296655933,36.09446859390736,-96.25519929585457,80.21211738781929
2024-09-23 09:42:19.362129,42.24,10.785236,-0.0031339382481259063,-0.023429960042815445,0.09670458680871308,36.09446859390736,-96.25519929585457,80.21211738781929
2024-09-23 09:42:19.395410,42.24,10.785236,-0.0031339382481259063,-0.023429960042815445,0.09670458680871308,36.09446859390736,-108.28669110388756,80.21211738781929
2024-09-23 09:42:19.407337,42.24,10.785286,-0.0031339382481259063,-0.02367869399252531,0.09670458680871308,36.09446859390736,-108.28669110388756,80.21211738781929
2024-09-23 09:42:19.450169,42.24,10.785337,-0.0031339382481259063,-0.02367869399252531,0.09710254654607277,40.106058693909645,-96.25519929585457,84.22370748782159
2024-09-23 09:42:19.461723,42.24,10.785337,-0.0029847020175114316,-0.02367869399252531,0.09710254654607277,40.106058693909645,-96.25519929585457,84.22370748782159
2024-09-23 09:42:19.494587,42.24,10.785337,-0.0029847020175114316,-0.023280723622328886,0.09745075675933246,44.11764879391193,-96.25519929585457,84.22370748782159
2024-09-23 09:42:19.506130,42.24,10.785424,-0.0029847020175114316,-0.023280723622328886,0.09745075675933246,44.11764879391193,-100.26678939585686,80.21211738781929
2024-09-23 09:42:19.548355,42.24,10.785424,-0.0028852147413806935,-0.02367869399252531,0.0973015264147526,36.09446859390736,-100.26678939585686,76.200527287817
2024-09-23 09:42:19.591591,42.24,10.785476,-0.0031836870127375577,-0.023579196463302005,0.0973015264147526,36.09446859390736,-100.26678939585686,76.200527287817
2024-09-23 09:42:19.603533,42.24,10.785476,-0.0031836870127375577,-0.023579196463302005,0.0973512698629459,40.106058693909645,-100.26678939585686,76.200527287817
2024-09-23 09:42:19.646095,42.24,10.785526,-0.0028354659767690416,-0.023728432883788564,0.09675432418099966,32.08287849390507,-100.26678939585686,84.22370748782159
2024-09-23 09:42:19.688337,42.24,10.785526,-0.0028354659767690416,-0.023728432883788564,0.09675432418099966,32.08287849390507,-96.25519929585457,84.22370748782159
2024-09-23 09:42:19.699777,42.24,10.785577,-0.0032831742888682963,-0.023728432883788564,0.09680407370509965,32.08287849390507,-96.25519929585457,84.22370748782159
2024-09-23 09:42:19.743240,42.24,10.785628,-0.0030841997366068195,-0.023728432883788564,0.09680407370509965,36.09446859390736,-100.26678939585686,84.22370748782159
2024-09-23 09:42:19.754997,42.24,10.785628,-0.0030841997366068195,-0.023230986250042305,0.09680407370509965,36.09446859390736,-100.26678939585686,84.22370748782159
2024-09-23 09:42:19.786838,42.24,10.785628,-0.0030841997366068195,-0.023230986250042305,0.09645586349183995,36.09446859390736,-96.25519929585457,84.22370748782159
2024-09-23 09:42:19.797841,42.24,10.785678,-0.0036811340262279837,-0.023230986250042305,0.09645586349183995,36.09446859390736,-96.25519929585457,92.24360919585227
2024-09-23 09:42:19.840387,42.24,10.785678,-0.0036811340262279837,-0.023778180888911878,0.09680407370509965,44.11764879391193,-96.25519929585457,92.24360919585227
2024-09-23 09:42:19.882659,42.24,10.785765,-0.0036811340262279837,-0.023778180888911878,0.09680407370509965,44.11764879391193,-96.25519929585457,76.200527287817
2024-09-23 09:42:19.894424,42.24,10.785765,-0.0035318979854855937,-0.023728432883788564,0.09720203344245934,44.11764879391193,-96.25519929585457,76.200527287817
2024-09-23 09:42:19.938533,42.58,10.785817,-0.0031339382481259063,-0.02338022115155219,0.09720203344245934,44.11764879391193,-104.27510100388527,72.1922225099802
2024-09-23 09:42:19.949931,42.58,10.785817,-0.0031339382481259063,-0.02338022115155219,0.0973015264147526,44.11764879391193,-104.27510100388527,72.1922225099802
2024-09-23 09:42:19.982137,42.58,10.785817,-0.0031339382481259063,-0.02338022115155219,0.0973015264147526,32.08287849390507,-88.23529758782387,88.23529758782387
2024-09-23 09:42:19.993638,42.58,10.785867,-0.0029847020175114316,-0.023579196463302005,0.0973015264147526,32.08287849390507,-88.23529758782387,88.23529758782387
2024-09-23 09:42:20.036270,42.58,10.785918,-0.0029847020175114316,-0.023579196463302005,0.0973512698629459,52.137550501942634,-88.23529758782387,80.21211738781929
2024-09-23 09:42:20.079248,42.58,10.785918,-0.0029847020175114316,-0.023479709566915436,0.09705279702197278,52.137550501942634,-88.23529758782387,80.21211738781929
2024-09-23 09:42:20.090887,42.58,10.785969,-0.0029847020175114316,-0.023479709566915436,0.09705279702197278,52.137550501942634,-92.24360919585227,76.200527287817
2024-09-23 09:42:20.133424,42.58,10.785969,-0.0032831742888682963,-0.023927417309398437,0.09675432418099966,36.09446859390736,-96.25519929585457,84.22370748782159
2024-09-23 09:42:20.175662,42.58,10.786058,-0.0026862297461545674,-0.023927417309398437,0.09675432418099966,36.09446859390736,-96.25519929585457,84.22370748782159
2024-09-23 09:42:20.186599,42.58,10.786058,-0.0026862297461545674,-0.02362894446842532,0.09680407370509965,28.07457030097246,-96.25519929585457,84.22370748782159
2024-09-23 09:42:20.230118,42.58,10.78611,-0.0033329230534799477,-0.02367869399252531,0.0966050877605131,28.07457030097246,-96.25519929585457,84.22370748782159
2024-09-23 09:42:20.241996,42.58,10.78611,-0.0033329230534799477,-0.02367869399252531,0.0966050877605131,36.09446859390736,-96.25519929585457,84.22370748782159
2024-09-23 09:42:20.274584,42.58,10.78616,-0.0033329230534799477,-0.02367869399252531,0.0966050877605131,36.09446859390736,-96.25519929585457,84.22370748782159
2024-09-23 09:42:20.286418,42.58,10.78616,-0.003382661564999035,-0.023330473146428877,0.09715228999426605,36.09446859390736,-96.25519929585457,84.22370748782159
2024-09-23 09:42:20.328713,42.58,10.786211,-0.0031836870127375577,-0.023579196463302005,0.09715228999426605,36.09446859390736,-100.26678939585686,76.200527287817
2024-09-23 09:42:20.371232,42.58,10.786211,-0.0031836870127375577,-0.023579196463302005,0.09695331012558621,36.09446859390736,-100.26678939585686,76.200527287817
2024-09-23 09:42:20.382494,42.58,10.786262,-0.0031339382481259063,-0.023579196463302005,0.09695331012558621,36.09446859390736,-100.26678939585686,76.200527287817
2024-09-23 09:42:20.425927,42.58,10.78635,-0.0031339382481259063,-0.023330473146428877,0.0973512698629459,32.08287849390507,-96.25519929585457,80.21211738781929
2024-09-23 09:42:20.467893,42.58,10.78635,-0.003482159473966507,-0.023877669304275123,0.0973512698629459,32.08287849390507,-96.25519929585457,80.21211738781929
2024-09-23 09:42:20.480138,42.58,10.78635,-0.003482159473966507,-0.023877669304275123,0.0973015264147526,36.09446859390736,-100.26678939585686,72.1922225099802
2024-09-23 09:42:20.523595,42.58,10.786402,-0.003482159473966507,-0.023778180888911878,0.09685382322919964,40.106058693909645,-104.27510100388527,72.1922225099802
2024-09-23 09:42:20.565421,42.58,10.786452,-0.003482159473966507,-0.023778180888911878,0.09685382322919964,40.106058693909645,-104.27510100388527,76.200527287817
2024-09-23 09:42:20.576457,42.58,10.786452,-0.0028852147413806935,-0.023728432883788564,0.09740101331113918,40.106058693909645,-104.27510100388527,76.200527287817
2024-09-23 09:42:20.618669,42.58,10.786503,-0.002586742470023829,-0.023579196463302005,0.09740101331113918,40.106058693909645,-100.26678939585686,80.21211738781929
2024-09-23 09:42:20.630901,42.58,10.786503,-0.002586742470023829,-0.023579196463302005,0.09755024973162574,40.106058693909645,-100.26678939585686,80.21211738781929
2024-09-23 09:42:20.715245,42.58,10.786554,-0.002586742470023829,-0.023579196463302005,0.09755024973162574,44.11764879391193,-96.25519929585457,80.21211738781929
2024-09-23 09:42:20.727326,42.58,10.786554,-0.0033329230534799477,-0.023778180888911878,0.09755024973162574,44.11764879391193,-96.25519929585457,80.21211738781929
2024-09-23 09:42:20.760286,42.58,10.786554,-0.0033329230534799477,-0.023778180888911878,0.09670458680871308,36.09446859390736,-96.25519929585457,80.21211738781929
2024-09-23 09:42:20.771529,42.58,10.786604,-0.0033329230534799477,-0.023778180888911878,0.09670458680871308,36.09446859390736,-108.28669110388756,76.200527287817
2024-09-23 09:42:20.814428,42.58,10.786604,-0.0033329230534799477,-0.023728432883788564,0.09715228999426605,32.08287849390507,-100.26678939585686,80.21211738781929
2024-09-23 09:42:20.825707,42.58,10.786692,-0.0033329230534799477,-0.023728432883788564,0.09715228999426605,32.08287849390507,-100.26678939585686,80.21211738781929
2024-09-23 09:42:20.859186,42.58,10.786692,-0.0028354659767690416,-0.023479709566915436,0.09670458680871308,32.08287849390507,-100.26678939585686,80.21211738781929
2024-09-23 09:42:20.871113,42.58,10.786692,-0.0028354659767690416,-0.023479709566915436,0.09670458680871308,36.09446859390736,-100.26678939585686,76.200527287817
2024-09-23 09:42:20.913800,42.58,10.786743,-0.003482159473966507,-0.02412639262114825,0.09680407370509965,40.106058693909645,-104.27510100388527,76.200527287817
2024-09-23 09:42:20.956429,42.41,10.786839,-0.0031339382481259063,-0.02412639262114825,0.09680407370509965,40.106058693909645,-104.27510100388527,80.21211738781929
2024-09-23 09:42:20.967735,42.41,10.786839,-0.0031339382481259063,-0.02367869399252531,0.0973015264147526,36.09446859390736,-104.27510100388527,80.21211738781929
2024-09-23 09:42:21.010208,42.41,10.78689,-0.0028852147413806935,-0.02313149783467906,0.09690356060148622,36.09446859390736,-96.25519929585457,84.22370748782159
2024-09-23 09:42:21.052428,42.41,10.78689,-0.0028852147413806935,-0.02313149783467906,0.09690356060148622,40.106058693909645,-92.24360919585227,84.22370748782159
2024-09-23 09:42:21.064128,42.41,10.786941,-0.0035318979854855937,-0.02338022115155219,0.09690356060148622,40.106058693909645,-92.24360919585227,84.22370748782159
2024-09-23 09:42:21.107365,42.41,10.786991,-0.0035318979854855937,-0.02338022115155219,0.09705279702197278,32.08287849390507,-100.26678939585686,84.22370748782159
2024-09-23 09:42:21.149907,42.41,10.786991,-0.0035318979854855937,-0.023827930413011865,0.09705279702197278,32.08287849390507,-100.26678939585686,84.22370748782159
2024-09-23 09:42:21.161365,42.41,10.786991,-0.0035318979854855937,-0.023827930413011865,0.09680407370509965,44.11764879391193,-100.26678939585686,76.200527287817
2024-09-23 09:42:21.203605,42.41,10.787082,-0.0028354659767690416,-0.023728432883788564,0.0973512698629459,32.08287849390507,-100.26678939585686,76.200527287817
2024-09-23 09:42:21.215746,42.41,10.787082,-0.0028354659767690416,-0.023728432883788564,0.0973512698629459,32.08287849390507,-104.27510100388527,76.200527287817
2024-09-23 09:42:21.249171,42.41,10.787133,-0.0028354659767690416,-0.023728432883788564,0.0973512698629459,32.08287849390507,-104.27510100388527,84.22370748782159
2024-09-23 09:42:21.260413,42.41,10.787133,-0.0029349636958644295,-0.02367869399252531,0.09705279702197278,40.106058693909645,-104.27510100388527,84.22370748782159
2024-09-23 09:42:21.303256,42.41,10.787184,-0.002586742470023829,-0.023330473146428877,0.0973512698629459,40.106058693909645,-92.24360919585227,76.200527287817
2024-09-23 09:42:21.347114,42.41,10.787184,-0.002586742470023829,-0.023330473146428877,0.0973512698629459,40.106058693909645,-100.26678939585686,80.21211738781929
2024-09-23 09:42:21.359370,42.41,10.787234,-0.0031836870127375577,-0.02412639262114825,0.0973512698629459,40.106058693909645,-100.26678939585686,80.21211738781929
2024-09-23 09:42:21.442902,42.41,10.787234,-0.0031836870127375577,-0.02412639262114825,0.09715228999426605,40.106058693909645,-100.26678939585686,80.21211738781929
2024-09-23 09:42:21.454020,42.41,10.787285,-0.0031339382481259063,-0.02412639262114825,0.09715228999426605,40.106058693909645,-104.27510100388527,84.22370748782159
2024-09-23 09:42:21.496338,42.41,10.787285,-0.0031339382481259063,-0.023230986250042305,0.09705279702197278,52.137550501942634,-96.25519929585457,84.22370748782159
2024-09-23 09:42:21.507500,42.41,10.787374,-0.0031339382481259063,-0.023230986250042305,0.09705279702197278,52.137550501942634,-96.25519929585457,76.200527287817
2024-09-23 09:42:21.539613,42.41,10.787374,-0.003382661564999035,-0.023230986250042305,0.09705279702197278,52.137550501942634,-96.25519929585457,76.200527287817
2024-09-23 09:42:21.551405,42.41,10.787374,-0.003382661564999035,-0.02412639262114825,0.09690356060148622,40.106058693909645,-96.25519929585457,84.22370748782159
2024-09-23 09:42:21.593806,42.41,10.787426,-0.0031836870127375577,-0.02338022115155219,0.09710254654607277,36.09446859390736,-96.25519929585457,84.22370748782159
2024-09-23 09:42:21.637004,42.41,10.787426,-0.0031836870127375577,-0.02338022115155219,0.09710254654607277,36.09446859390736,-92.24360919585227,84.22370748782159
2024-09-23 09:42:21.648787,42.41,10.787476,-0.0035816467500972456,-0.023330473146428877,0.09705279702197278,36.09446859390736,-92.24360919585227,80.21211738781929
2024-09-23 09:42:21.691396,42.41,10.787571,-0.0030841997366068195,-0.023330473146428877,0.09705279702197278,48.12595698684454,-100.26678939585686,80.21211738781929
2024-09-23 09:42:21.703609,42.41,10.787571,-0.0030841997366068195,-0.022982261414192504,0.09705279702197278,48.12595698684454,-100.26678939585686,80.21211738781929
2024-09-23 09:42:21.736008,42.41,10.787571,-0.0030841997366068195,-0.022982261414192504,0.09745075675933246,32.08287849390507,-100.26678939585686,80.21211738781929
2024-09-23 09:42:21.747446,42.41,10.787622,-0.003382661564999035,-0.022982261414192504,0.09745075675933246,32.08287849390507,-100.26678939585686,84.22370748782159
2024-09-23 09:42:21.790129,42.41,10.787622,-0.003382661564999035,-0.023181236725942318,0.09685382322919964,36.09446859390736,-100.26678939585686,76.200527287817
2024-09-23 09:42:21.801679,42.41,10.787672,-0.003382661564999035,-0.023181236725942318,0.09685382322919964,36.09446859390736,-100.26678939585686,76.200527287817
2024-09-23 09:42:21.834287,42.41,10.787672,-0.003382661564999035,-0.023778180888911878,0.09685382322919964,36.09446859390736,-100.26678939585686,76.200527287817
2024-09-23 09:42:21.846040,42.41,10.787672,-0.003382661564999035,-0.023778180888911878,0.09685382322919964,32.08287849390507,-92.24360919585227,80.21211738781929
2024-09-23 09:42:21.888691,42.41,10.787765,-0.0035318979854855937,-0.023728432883788564,0.09695331012558621,32.08287849390507,-92.24360919585227,80.21211738781929
2024-09-23 09:42:21.931604,42.41,10.787816,-0.0036811340262279837,-0.023728432883788564,0.09695331012558621,32.08287849390507,-92.24360919585227,76.200527287817
2024-09-23 09:42:21.942713,42.41,10.787816,-0.0036811340262279837,-0.023728432883788564,0.09675432418099966,32.08287849390507,-92.24360919585227,76.200527287817
2024-09-23 09:42:21.986255,42.45,10.787867,-0.003482159473966507,-0.023778180888911878,0.0970030596496862,32.08287849390507,-96.25519929585457,80.21211738781929
2024-09-23 09:42:22.028703,42.45,10.787867,-0.003482159473966507,-0.023778180888911878,0.0970030596496862,32.08287849390507,-100.26678939585686,84.22370748782159
2024-09-23 09:42:22.039721,42.45,10.787917,-0.0033329230534799477,-0.02362894446842532,0.0970030596496862,32.08287849390507,-100.26678939585686,84.22370748782159
2024-09-23 09:42:22.082079,42.45,10.787968,-0.0035318979854855937,-0.02362894446842532,0.09740101331113918,40.106058693909645,-96.25519929585457,80.21211738781929
2024-09-23 09:42:22.126668,42.45,10.787968,-0.0035318979854855937,-0.02367869399252531,0.0973512698629459,32.08287849390507,-96.25519929585457,80.21211738781929
2024-09-23 09:42:22.138505,42.45,10.788057,-0.0035318979854855937,-0.02367869399252531,0.0973512698629459,32.08287849390507,-96.25519929585457,76.200527287817
2024-09-23 09:42:22.181293,42.45,10.788057,-0.0028852147413806935,-0.023579196463302005,0.09705279702197278,36.09446859390736,-96.25519929585457,80.21211738781929
2024-09-23 09:42:22.224478,42.45,10.788108,-0.0026862297461545674,-0.023728432883788564,0.09705279702197278,36.09446859390736,-96.25519929585457,80.21211738781929
2024-09-23 09:42:22.237311,42.45,10.788108,-0.0026862297461545674,-0.023728432883788564,0.09710254654607277,36.09446859390736,-88.23529758782387,80.21211738781929
2024-09-23 09:42:22.271906,42.45,10.788159,-0.0026862297461545674,-0.023728432883788564,0.09710254654607277,36.09446859390736,-88.23529758782387,84.22370748782159
2024-09-23 09:42:22.283630,42.45,10.788159,-0.0028852147413806935,-0.02352945757203875,0.09640611396773996,40.106058693909645,-88.23529758782387,84.22370748782159
2024-09-23 09:42:22.327427,42.45,10.788209,-0.0028852147413806935,-0.023728432883788564,0.09779897304849887,40.106058693909645,-96.25519929585457,80.21211738781929
2024-09-23 09:42:22.371139,42.45,10.788209,-0.0028852147413806935,-0.023728432883788564,0.09779897304849887,40.106058693909645,-100.26678939585686,80.21211738781929
2024-09-23 09:42:22.382726,42.45,10.78826,-0.0035318979854855937,-0.02367869399252531,0.09779897304849887,40.106058693909645,-100.26678939585686,80.21211738781929
2024-09-23 09:42:22.425855,42.45,10.788311,-0.0031339382481259063,-0.02367869399252531,0.09755024973162574,40.106058693909645,-96.25519929585457,80.21211738781929
2024-09-23 09:42:22.468126,42.45,10.788311,-0.0031339382481259063,-0.02352945757203875,0.0973512698629459,48.12595698684454,-96.25519929585457,80.21211738781929
2024-09-23 09:42:22.479724,42.45,10.788398,-0.0031339382481259063,-0.02352945757203875,0.0973512698629459,48.12595698684454,-100.26678939585686,80.21211738781929
2024-09-23 09:42:22.522367,42.45,10.788398,-0.0030344509719951677,-0.023479709566915436,0.0970030596496862,44.11764879391193,-100.26678939585686,76.200527287817
2024-09-23 09:42:22.564898,42.45,10.788449,-0.0030344509719951677,-0.023479709566915436,0.0970030596496862,44.11764879391193,-100.26678939585686,76.200527287817
2024-09-23 09:42:22.575812,42.45,10.788449,-0.0030344509719951677,-0.023479709566915436,0.09725178296655933,40.106058693909645,-96.25519929585457,76.200527287817
2024-09-23 09:42:22.618773,42.45,10.7885,-0.0032831742888682963,-0.024275627522658133,0.09680407370509965,32.08287849390507,-96.25519929585457,80.21211738781929
2024-09-23 09:42:22.661333,42.45,10.7885,-0.0032831742888682963,-0.024275627522658133,0.09680407370509965,32.08287849390507,-100.26678939585686,80.21211738781929
2024-09-23 09:42:22.672643,42.45,10.788551,-0.0032831742888682963,-0.023280723622328886,0.0973512698629459,32.08287849390507,-100.26678939585686,80.21211738781929
2024-09-23 09:42:22.715552,42.45,10.788601,-0.003233425524256645,-0.023280723622328886,0.0973512698629459,32.08287849390507,-100.26678939585686,76.200527287817
2024-09-23 09:42:22.727625,42.45,10.788601,-0.003233425524256645,-0.024076653729884996,0.0973512698629459,32.08287849390507,-100.26678939585686,76.200527287817
2024-09-23 09:42:22.760016,42.45,10.788601,-0.003233425524256645,-0.024076653729884996,0.09740101331113918,40.106058693909645,-104.27510100388527,76.200527287817
2024-09-23 09:42:22.771036,42.45,10.788652,-0.0033329230534799477,-0.024076653729884996,0.09740101331113918,40.106058693909645,-104.27510100388527,80.21211738781929
2024-09-23 09:42:22.813854,42.45,10.788739,-0.0033329230534799477,-0.02352945757203875,0.09755024973162574,40.106058693909645,-96.25519929585457,80.21211738781929
2024-09-23 09:42:22.856661,42.45,10.788739,-0.0031836870127375577,-0.02362894446842532,0.09755024973162574,40.106058693909645,-96.25519929585457,80.21211738781929
2024-09-23 09:42:22.868030,42.45,10.788739,-0.0031836870127375577,-0.02362894446842532,0.09705279702197278,36.09446859390736,-96.25519929585457,80.21211738781929
2024-09-23 09:42:22.912616,42.45,10.788791,-0.0038801188315820256,-0.023479709566915436,0.09745075675933246,36.09446859390736,-92.24360919585227,80.21211738781929
2024-09-23 09:42:22.955617,42.45,10.788841,-0.0035318979854855937,-0.023479709566915436,0.09745075675933246,36.09446859390736,-92.24360919585227,76.200527287817
2024-09-23 09:42:22.966765,42.45,10.788841,-0.0035318979854855937,-0.023330473146428877,0.09690356060148622,36.09446859390736,-92.24360919585227,76.200527287817
2024-09-23 09:42:23.010040,42.21,10.788841,-0.0035318979854855937,-0.023330473146428877,0.09690356060148622,36.09446859390736,-92.24360919585227,80.21211738781929
2024-09-23 09:42:23.052980,42.21,10.788892,-0.0033329230534799477,-0.023579196463302005,0.09690356060148622,36.09446859390736,-92.24360919585227,80.21211738781929
2024-09-23 09:42:23.064614,42.21,10.788892,-0.0033329230534799477,-0.023579196463302005,0.09740101331113918,44.11764879391193,-96.25519929585457,80.21211738781929
2024-09-23 09:42:23.107622,42.21,10.788943,-0.0028852147413806935,-0.023877669304275123,0.09710254654607277,40.106058693909645,-96.25519929585457,72.1922225099802
2024-09-23 09:42:23.150862,42.21,10.788943,-0.0028852147413806935,-0.023877669304275123,0.09710254654607277,40.106058693909645,-92.24360919585227,84.22370748782159
2024-09-23 09:42:23.161789,42.21,10.788993,-0.0029847020175114316,-0.02352945757203875,0.09670458680871308,40.106058693909645,-92.24360919585227,84.22370748782159
2024-09-23 09:42:23.203695,42.21,10.78908,-0.0027359787006383035,-0.023579196463302005,0.09670458680871308,36.09446859390736,-100.26678939585686,80.21211738781929
2024-09-23 09:42:23.246889,42.21,10.78908,-0.0027359787006383035,-0.023579196463302005,0.09720203344245934,36.09446859390736,-100.26678939585686,80.21211738781929
2024-09-23 09:42:23.258353,42.21,10.789131,-0.0030841997366068195,-0.023579196463302005,0.09720203344245934,36.09446859390736,-104.27510100388527,80.21211738781929
2024-09-23 09:42:23.302068,42.21,10.789227,-0.0030841997366068195,-0.02352945757203875,0.0970030596496862,44.11764879391193,-100.26678939585686,84.22370748782159
2024-09-23 09:42:23.344169,42.21,10.789227,-0.0031339382481259063,-0.023778180888911878,0.0970030596496862,44.11764879391193,-100.26678939585686,84.22370748782159
2024-09-23 09:42:23.355966,42.21,10.789227,-0.0031339382481259063,-0.023778180888911878,0.09670458680871308,40.106058693909645,-96.25519929585457,76.200527287817
2024-09-23 09:42:23.398865,42.21,10.789278,-0.003382661564999035,-0.023877669304275123,0.09685382322919964,32.08287849390507,-96.25519929585457,76.200527287817
2024-09-23 09:42:23.441289,42.21,10.789329,-0.003382661564999035,-0.023877669304275123,0.09685382322919964,32.08287849390507,-96.25519929585457,80.21211738781929
2024-09-23 09:42:23.452798,42.21,10.789329,-0.0031836870127375577,-0.02367869399252531,0.09690356060148622,32.08287849390507,-96.25519929585457,80.21211738781929
2024-09-23 09:42:23.495467,42.21,10.789379,-0.003482159473966507,-0.02352945757203875,0.09690356060148622,32.08287849390507,-100.26678939585686,80.21211738781929
2024-09-23 09:42:23.507610,42.21,10.789379,-0.003482159473966507,-0.02352945757203875,0.09740101331113918,32.08287849390507,-100.26678939585686,80.21211738781929
2024-09-23 09:42:23.541169,42.21,10.789379,-0.003482159473966507,-0.02352945757203875,0.09740101331113918,36.09446859390736,-104.27510100388527,80.21211738781929
2024-09-23 09:42:23.552362,42.21,10.78943,-0.0031836870127375577,-0.023429960042815445,0.09740101331113918,36.09446859390736,-104.27510100388527,80.21211738781929
2024-09-23 09:42:23.595150,42.21,10.789481,-0.0031836870127375577,-0.023429960042815445,0.09655535038822652,32.08287849390507,-92.24360919585227,84.22370748782159
2024-09-23 09:42:23.637347,42.21,10.789481,-0.0031836870127375577,-0.02338022115155219,0.09620712802315341,36.09446859390736,-92.24360919585227,84.22370748782159
2024-09-23 09:42:23.649622,42.21,10.789568,-0.0031836870127375577,-0.02338022115155219,0.09620712802315341,36.09446859390736,-92.24360919585227,88.23529758782387
2024-09-23 09:42:23.692207,42.21,10.789568,-0.0034324103296106863,-0.02397715620066169,0.09685382322919964,40.106058693909645,-92.24360919585227,80.21211738781929
2024-09-23 09:42:23.734613,42.21,10.789619,-0.0028354659767690416,-0.02397715620066169,0.09685382322919964,40.106058693909645,-92.24360919585227,80.21211738781929
2024-09-23 09:42:23.746413,42.21,10.789619,-0.0028354659767690416,-0.02308174982955575,0.09665483728461309,40.106058693909645,-92.24360919585227,80.21211738781929
2024-09-23 09:42:23.780798,42.21,10.789619,-0.0028354659767690416,-0.02308174982955575,0.09665483728461309,40.106058693909645,-92.24360919585227,80.21211738781929
2024-09-23 09:42:23.791950,42.21,10.78967,-0.0035816467500972456,-0.023429960042815445,0.09705279702197278,40.106058693909645,-92.24360919585227,80.21211738781929
2024-09-23 09:42:23.834008,42.21,10.789721,-0.0030344509719951677,-0.023429960042815445,0.09705279702197278,40.106058693909645,-92.24360919585227,80.21211738781929
2024-09-23 09:42:23.845195,42.21,10.789721,-0.0030344509719951677,-0.023778180888911878,0.09764974270391902,40.106058693909645,-92.24360919585227,80.21211738781929
2024-09-23 09:42:23.887547,42.21,10.789771,-0.0031836870127375577,-0.02338022115155219,0.09764974270391902,32.08287849390507,-100.26678939585686,84.22370748782159
2024-09-23 09:42:23.931040,42.21,10.789771,-0.0031836870127375577,-0.02338022115155219,0.09715228999426605,36.09446859390736,-100.26678939585686,84.22370748782159
2024-09-23 09:42:23.942498,42.21,10.789822,-0.0028852147413806935,-0.02338022115155219,0.09715228999426605,36.09446859390736,-100.26678939585686,80.21211738781929
2024-09-23 09:42:23.985350,42.21,10.789909,-0.0028852147413806935,-0.023330473146428877,0.09680407370509965,40.106058693909645,-100.26678939585686,84.22370748782159
2024-09-23 09:42:24.027362,42.08,10.789909,-0.0030841997366068195,-0.02397715620066169,0.09755024973162574,40.106058693909645,-100.26678939585686,84.22370748782159
2024-09-23 09:42:24.038741,42.08,10.789909,-0.0030841997366068195,-0.02397715620066169,0.09755024973162574,44.11764879391193,-96.25519929585457,84.22370748782159
2024-09-23 09:42:24.081292,42.08,10.789961,-0.0035816467500972456,-0.023728432883788564,0.09690356060148622,44.11764879391193,-96.25519929585457,84.22370748782159
2024-09-23 09:42:24.123541,42.08,10.790012,-0.0035816467500972456,-0.023728432883788564,0.09690356060148622,44.11764879391193,-96.25519929585457,80.21211738781929
2024-09-23 09:42:24.135274,42.08,10.790012,-0.0034324103296106863,-0.023330473146428877,0.09755024973162574,44.11764879391193,-96.25519929585457,80.21211738781929
2024-09-23 09:42:24.178992,42.08,10.790063,-0.0030841997366068195,-0.023579196463302005,0.09685382322919964,44.11764879391193,-96.25519929585457,80.21211738781929
2024-09-23 09:42:24.221606,42.08,10.790063,-0.0030841997366068195,-0.023579196463302005,0.09685382322919964,40.106058693909645,-96.25519929585457,80.21211738781929
2024-09-23 09:42:24.232747,42.08,10.790113,-0.0025369937054121774,-0.023728432883788564,0.09685382322919964,40.106058693909645,-96.25519929585457,84.22370748782159
2024-09-23 09:42:24.274534,42.08,10.790164,-0.0025369937054121774,-0.023728432883788564,0.0970030596496862,48.12595698684454,-104.27510100388527,80.21211738781929
2024-09-23 09:42:24.286608,42.08,10.790164,-0.0029349636958644295,-0.023728432883788564,0.0970030596496862,48.12595698684454,-104.27510100388527,80.21211738781929
2024-09-23 09:42:24.319328,42.08,10.790164,-0.0029349636958644295,-0.023429960042815445,0.0970030596496862,48.12595698684454,-104.27510100388527,80.21211738781929
2024-09-23 09:42:24.330355,42.08,10.79025,-0.0029349636958644295,-0.023429960042815445,0.0970030596496862,36.09446859390736,-100.26678939585686,80.21211738781929
2024-09-23 09:42:24.372228,42.08,10.79025,-0.0027359787006383035,-0.023429960042815445,0.09745075675933246,32.08287849390507,-100.26678939585686,80.21211738781929
2024-09-23 09:42:24.385231,42.08,10.79025,-0.0027359787006383035,-0.023429960042815445,0.09745075675933246,32.08287849390507,-100.26678939585686,80.21211738781929
2024-09-23 09:42:24.419061,42.08,10.790302,-0.003233425524256645,-0.023330473146428877,0.09745075675933246,32.08287849390507,-100.26678939585686,80.21211738781929
2024-09-23 09:42:24.430690,42.08,10.790302,-0.003233425524256645,-0.023330473146428877,0.09715228999426605,32.08287849390507,-100.26678939585686,80.21211738781929
2024-09-23 09:42:24.473217,42.08,10.790352,-0.0036811340262279837,-0.023429960042815445,0.09695331012558621,36.09446859390736,-100.26678939585686,80.21211738781929
2024-09-23 09:42:24.515550,42.08,10.790403,-0.0036811340262279837,-0.023429960042815445,0.09695331012558621,36.09446859390736,-100.26678939585686,76.200527287817
2024-09-23 09:42:24.527508,42.08,10.790403,-0.0037308827908396356,-0.023877669304275123,0.09740101331113918,36.09446859390736,-100.26678939585686,76.200527287817
2024-09-23 09:42:24.570686,42.08,10.790454,-0.0034324103296106863,-0.02367869399252531,0.09740101331113918,40.106058693909645,-96.25519929585457,76.200527287817
2024-09-23 09:42:24.613842,42.08,10.790454,-0.0034324103296106863,-0.02367869399252531,0.09650560086412653,36.09446859390736,-92.24360919585227,76.200527287817
2024-09-23 09:42:24.625440,42.08,10.790454,-0.0034324103296106863,-0.02367869399252531,0.09650560086412653,36.09446859390736,-92.24360919585227,76.200527287817
2024-09-23 09:42:24.658308,42.08,10.790505,-0.0034324103296106863,-0.02367869399252531,0.09650560086412653,36.09446859390736,-92.24360919585227,76.200527287817
2024-09-23 09:42:24.669636,42.08,10.790505,-0.0035318979854855937,-0.02367869399252531,0.09720203344245934,32.08287849390507,-108.28669110388756,76.200527287817
2024-09-23 09:42:24.712341,42.08,10.790592,-0.0038303700669703737,-0.023728432883788564,0.09720203344245934,32.08287849390507,-108.28669110388756,76.200527287817
2024-09-23 09:42:24.724104,42.08,10.790592,-0.0038303700669703737,-0.023728432883788564,0.0973015264147526,44.11764879391193,-108.28669110388756,76.200527287817
2024-09-23 09:42:24.808095,42.08,10.790643,-0.0038303700669703737,-0.023728432883788564,0.0973015264147526,44.11764879391193,-100.26678939585686,80.21211738781929
2024-09-23 09:42:24.819866,42.08,10.790643,-0.0034324103296106863,-0.023479709566915436,0.09740101331113918,44.11764879391193,-100.26678939585686,80.21211738781929
2024-09-23 09:42:24.862444,42.08,10.790694,-0.0033329230534799477,-0.023877669304275123,0.09740101331113918,44.11764879391193,-96.25519929585457,84.22370748782159
2024-09-23 09:42:24.905117,42.08,10.790694,-0.0033329230534799477,-0.023877669304275123,0.09620712802315341,44.11764879391193,-100.26678939585686,84.22370748782159
2024-09-23 09:42:24.916178,42.08,10.790744,-0.003631395514708897,-0.023877669304275123,0.09620712802315341,44.11764879391193,-100.26678939585686,76.200527287817
2024-09-23 09:42:24.960169,42.08,10.790744,-0.003631395514708897,-0.023927417309398437,0.09620712802315341,44.11764879391193,-100.26678939585686,76.200527287817
2024-09-23 09:42:25.001910,42.08,10.790744,-0.003631395514708897,-0.023927417309398437,0.09705279702197278,44.11764879391193,-100.26678939585686,76.200527287817
2024-09-23 09:42:25.054725,41.61,10.790835,-0.003631395514708897,-0.023927417309398437,0.09705279702197278,40.106058693909645,-88.23529758782387,80.21211738781929
2024-09-23 09:42:25.066538,41.61,10.790835,-0.0029847020175114316,-0.02362894446842532,0.09705279702197278,40.106058693909645,-88.23529758782387,80.21211738781929
2024-09-23 09:42:25.098684,41.61,10.790835,-0.0029847020175114316,-0.02362894446842532,0.09645586349183995,44.11764879391193,-88.23529758782387,80.21211738781929
2024-09-23 09:42:25.110655,41.61,10.790933,-0.0035318979854855937,-0.02362894446842532,0.09645586349183995,44.11764879391193,-92.24360919585227,80.21211738781929
2024-09-23 09:42:25.153426,41.61,10.790985,-0.0035318979854855937,-0.023181236725942318,0.09680407370509965,44.11764879391193,-100.26678939585686,76.200527287817
2024-09-23 09:42:25.195581,41.61,10.790985,-0.0031836870127375577,-0.02338022115155219,0.09680407370509965,44.11764879391193,-100.26678939585686,76.200527287817
2024-09-23 09:42:25.207676,41.61,10.790985,-0.0031836870127375577,-0.02338022115155219,0.09685382322919964,44.11764879391193,-88.23529758782387,80.21211738781929
2024-09-23 09:42:25.250223,41.61,10.791035,-0.0028852147413806935,-0.023479709566915436,0.09750050628343246,36.09446859390736,-88.23529758782387,80.21211738781929
2024-09-23 09:42:25.262339,41.61,10.791035,-0.0028852147413806935,-0.023479709566915436,0.09750050628343246,36.09446859390736,-96.25519929585457,80.21211738781929
2024-09-23 09:42:25.294394,41.61,10.791178,-0.0028852147413806935,-0.023479709566915436,0.09750050628343246,36.09446859390736,-96.25519929585457,80.21211738781929
2024-09-23 09:42:25.305415,41.61,10.791178,-0.0029847020175114316,-0.023230986250042305,0.09720203344245934,32.08287849390507,-96.25519929585457,80.21211738781929
2024-09-23 09:42:25.348576,41.61,10.791229,-0.0029847020175114316,-0.02362894446842532,0.09725178296655933,32.08287849390507,-96.25519929585457,80.21211738781929
2024-09-23 09:42:25.390921,41.61,10.791229,-0.0029847020175114316,-0.02362894446842532,0.09725178296655933,36.09446859390736,-108.28669110388756,80.21211738781929
2024-09-23 09:42:25.402532,41.61,10.791279,-0.003382661564999035,-0.023728432883788564,0.09725178296655933,36.09446859390736,-108.28669110388756,80.21211738781929
2024-09-23 09:42:25.444970,41.61,10.791279,-0.003382661564999035,-0.023728432883788564,0.09715228999426605,36.09446859390736,-96.25519929585457,80.21211738781929
2024-09-23 09:42:25.488028,41.61,10.791279,-0.003382661564999035,-0.023728432883788564,0.09715228999426605,36.09446859390736,-96.25519929585457,80.21211738781929
2024-09-23 09:42:25.499370,41.61,10.79133,-0.0037308827908396356,-0.023479709566915436,0.0976994861521123,44.11764879391193,-96.25519929585457,80.21211738781929
2024-09-23 09:42:25.543091,41.61,10.79142,-0.0030841997366068195,-0.022982261414192504,0.0976994861521123,44.11764879391193,-100.26678939585686,80.21211738781929
2024-09-23 09:42:25.554820,41.61,10.79142,-0.0030841997366068195,-0.022982261414192504,0.09720203344245934,44.11764879391193,-100.26678939585686,80.21211738781929
2024-09-23 09:42:25.588427,41.61,10.79142,-0.0030841997366068195,-0.022982261414192504,0.09720203344245934,44.11764879391193,-96.25519929585457,76.200527287817
2024-09-23 09:42:25.599955,41.61,10.791472,-0.0031836870127375577,-0.02352945757203875,0.09720203344245934,44.11764879391193,-96.25519929585457,76.200527287817
2024-09-23 09:42:25.642799,41.61,10.791523,-0.0035318979854855937,-0.02352945757203875,0.09690356060148622,36.09446859390736,-92.24360919585227,84.22370748782159
2024-09-23 09:42:25.686183,41.61,10.791523,-0.0035318979854855937,-0.023479709566915436,0.09670458680871308,28.07457030097246,-92.24360919585227,84.22370748782159
2024-09-23 09:42:25.698084,41.61,10.791615,-0.0035318979854855937,-0.023479709566915436,0.09670458680871308,28.07457030097246,-88.23529758782387,80.21211738781929
2024-09-23 09:42:25.781380,41.61,10.791615,-0.0028354659767690416,-0.024026904205785005,0.09670458680871308,28.07457030097246,-88.23529758782387,80.21211738781929
2024-09-23 09:42:25.793304,41.61,10.791615,-0.0028354659767690416,-0.024026904205785005,0.09720203344245934,32.08287849390507,-88.23529758782387,80.21211738781929
2024-09-23 09:42:25.837090,41.61,10.791667,-0.0028852147413806935,-0.023827930413011865,0.09670458680871308,32.08287849390507,-92.24360919585227,76.200527287817
2024-09-23 09:42:25.879148,41.61,10.791667,-0.0028852147413806935,-0.023827930413011865,0.09670458680871308,40.106058693909645,-96.25519929585457,76.200527287817
2024-09-23 09:42:25.890321,41.61,10.791718,-0.0035318979854855937,-0.02362894446842532,0.09670458680871308,40.106058693909645,-96.25519929585457,84.22370748782159
2024-09-23 09:42:25.932984,41.61,10.791768,-0.0035318979854855937,-0.02362894446842532,0.09764974270391902,36.09446859390736,-92.24360919585227,76.200527287817
2024-09-23 09:42:25.945212,41.61,10.791768,-0.003382661564999035,-0.02362894446842532,0.09764974270391902,36.09446859390736,-92.24360919585227,76.200527287817
2024-09-23 09:42:25.978034,41.61,10.791768,-0.003382661564999035,-0.02303200030545576,0.0966050877605131,28.07457030097246,-92.24360919585227,76.200527287817
2024-09-23 09:42:25.989888,41.61,10.791768,-0.003382661564999035,-0.02303200030545576,0.0966050877605131,28.07457030097246,-96.25519929585457,76.200527287817
2024-09-23 09:42:26.032921,41.61,10.791819,-0.0033329230534799477,-0.02367869399252531,0.09665483728461309,40.106058693909645,-96.25519929585457,76.200527287817
2024-09-23 09:42:26.075325,41.61,10.791957,-0.0033329230534799477,-0.02367869399252531,0.09665483728461309,40.106058693909645,-104.27510100388527,80.21211738781929
2024-09-23 09:42:26.087406,41.61,10.791957,-0.0028354659767690416,-0.02412639262114825,0.09710254654607277,40.106058693909645,-104.27510100388527,80.21211738781929
2024-09-23 09:42:26.121350,41.61,10.791957,-0.0028354659767690416,-0.02412639262114825,0.09710254654607277,32.08287849390507,-104.27510100388527,80.21211738781929
2024-09-23 09:42:26.132821,41.61,10.792009,-0.003233425524256645,-0.023230986250042305,0.09710254654607277,32.08287849390507,-100.26678939585686,76.200527287817
2024-09-23 09:42:26.175429,41.61,10.792009,-0.003233425524256645,-0.023230986250042305,0.09670458680871308,24.06297849342227,-100.26678939585686,80.21211738781929
2024-09-23 09:42:26.187195,41.61,10.792059,-0.0031836870127375577,-0.023230986250042305,0.09670458680871308,24.06297849342227,-100.26678939585686,80.21211738781929
2024-09-23 09:42:26.220228,41.61,10.792059,-0.0031836870127375577,-0.023579196463302005,0.09720203344245934,24.06297849342227,-100.26678939585686,80.21211738781929
2024-09-23 09:42:26.231604,41.61,10.792152,-0.0031836870127375577,-0.023579196463302005,0.09720203344245934,36.09446859390736,-100.26678939585686,76.200527287817
2024-09-23 09:42:26.274482,41.61,10.792152,-0.0030841997366068195,-0.023927417309398437,0.09725178296655933,40.106058693909645,-100.26678939585686,76.200527287817
2024-09-23 09:42:26.286471,41.61,10.792152,-0.0030841997366068195,-0.023927417309398437,0.09725178296655933,40.106058693909645,-100.26678939585686,80.21211738781929
2024-09-23 09:42:26.319501,41.61,10.792203,-0.0034324103296106863,-0.02397715620066169,0.09725178296655933,40.106058693909645,-100.26678939585686,80.21211738781929
2024-09-23 09:42:26.331808,41.61,10.792203,-0.0034324103296106863,-0.02397715620066169,0.09705279702197278,40.106058693909645,-100.26678939585686,80.21211738781929
2024-09-23 09:42:26.363982,41.61,10.792203,-0.0034324103296106863,-0.02397715620066169,0.09705279702197278,40.106058693909645,-100.26678939585686,80.21211738781929
2024-09-23 09:42:26.376107,41.61,10.792254,-0.003382661564999035,-0.02352945757203875,0.09740101331113918,40.106058693909645,-100.26678939585686,80.21211738781929
2024-09-23 09:42:26.419314,41.61,10.792304,-0.0029349636958644295,-0.02352945757203875,0.09740101331113918,40.106058693909645,-100.26678939585686,76.200527287817
2024-09-23 09:42:26.430614,41.61,10.792304,-0.0029349636958644295,-0.02352945757203875,0.09750050628343246,40.106058693909645,-100.26678939585686,76.200527287817
2024-09-23 09:42:26.463518,41.61,10.792304,-0.0029349636958644295,-0.02352945757203875,0.09750050628343246,28.07457030097246,-100.26678939585686,76.200527287817
2024-09-23 09:42:26.475039,41.61,10.792355,-0.0031836870127375577,-0.023927417309398437,0.09750050628343246,28.07457030097246,-100.26678939585686,76.200527287817
2024-09-23 09:42:26.517211,41.61,10.792406,-0.0031836870127375577,-0.023927417309398437,0.09789846602079214,40.106058693909645,-96.25519929585457,76.200527287817
2024-09-23 09:42:26.529078,41.61,10.792406,-0.0034324103296106863,-0.023927417309398437,0.09789846602079214,40.106058693909645,-96.25519929585457,76.200527287817
2024-09-23 09:42:26.561073,41.61,10.792406,-0.0034324103296106863,-0.023429960042815445,0.09789846602079214,40.106058693909645,-96.25519929585457,76.200527287817
2024-09-23 09:42:26.572984,41.61,10.792493,-0.0034324103296106863,-0.023429960042815445,0.09755024973162574,48.12595698684454,-100.26678939585686,76.200527287817
2024-09-23 09:42:26.615661,41.61,10.792493,-0.003233425524256645,-0.02338022115155219,0.0970030596496862,36.09446859390736,-96.25519929585457,76.200527287817
2024-09-23 09:42:26.627666,41.61,10.792493,-0.003233425524256645,-0.02338022115155219,0.0970030596496862,36.09446859390736,-96.25519929585457,76.200527287817
2024-09-23 09:42:26.660415,41.61,10.792545,-0.0030841997366068195,-0.02362894446842532,0.0970030596496862,36.09446859390736,-96.25519929585457,76.200527287817
2024-09-23 09:42:26.672295,41.61,10.792545,-0.0030841997366068195,-0.02362894446842532,0.09685382322919964,36.09446859390736,-104.27510100388527,76.200527287817
2024-09-23 09:42:26.714862,41.61,10.792595,-0.0035816467500972456,-0.02397715620066169,0.09745075675933246,40.106058693909645,-104.27510100388527,76.200527287817
2024-09-23 09:42:26.757451,41.61,10.792646,-0.0035816467500972456,-0.02397715620066169,0.09745075675933246,40.106058693909645,-96.25519929585457,80.21211738781929
2024-09-23 09:42:26.768739,41.61,10.792646,-0.0032831742888682963,-0.02397715620066169,0.09715228999426605,40.106058693909645,-96.25519929585457,80.21211738781929
2024-09-23 09:42:26.811174,41.61,10.792697,-0.0034324103296106863,-0.02397715620066169,0.09715228999426605,40.106058693909645,-100.26678939585686,84.22370748782159
2024-09-23 09:42:26.853947,41.61,10.792697,-0.0034324103296106863,-0.023429960042815445,0.09745075675933246,40.106058693909645,-100.26678939585686,84.22370748782159
2024-09-23 09:42:26.865217,41.61,10.792748,-0.0034324103296106863,-0.023429960042815445,0.09745075675933246,40.106058693909645,-100.26678939585686,80.21211738781929
2024-09-23 09:42:26.907854,41.61,10.792748,-0.003482159473966507,-0.02338022115155219,0.09720203344245934,36.09446859390736,-100.26678939585686,80.21211738781929
2024-09-23 09:42:26.920080,41.61,10.792748,-0.003482159473966507,-0.02338022115155219,0.09720203344245934,36.09446859390736,-100.26678939585686,84.22370748782159
2024-09-23 09:42:26.953085,41.61,10.792834,-0.0034324103296106863,-0.023330473146428877,0.09720203344245934,36.09446859390736,-100.26678939585686,84.22370748782159
2024-09-23 09:42:26.964423,41.61,10.792834,-0.0034324103296106863,-0.023330473146428877,0.09695331012558621,36.09446859390736,-100.26678939585686,84.22370748782159
2024-09-23 09:42:27.006400,41.61,10.792886,-0.0031836870127375577,-0.023330473146428877,0.0973512698629459,36.09446859390736,-100.26678939585686,80.21211738781929
2024-09-23 09:42:27.048264,41.61,10.792886,-0.0031836870127375577,-0.023330473146428877,0.0973512698629459,40.106058693909645,-96.25519929585457,80.21211738781929
2024-09-23 09:42:27.059706,41.61,10.792936,-0.0031836870127375577,-0.023330473146428877,0.0973512698629459,40.106058693909645,-96.25519929585457,80.21211738781929
2024-09-23 09:42:27.103014,42.2,10.792936,-0.0029349636958644295,-0.023330473146428877,0.09710254654607277,36.09446859390736,-96.25519929585457,80.21211738781929
2024-09-23 09:42:27.114325,42.2,10.792936,-0.0029349636958644295,-0.023330473146428877,0.09710254654607277,36.09446859390736,-100.26678939585686,80.21211738781929
2024-09-23 09:42:27.147339,42.2,10.792987,-0.0029847020175114316,-0.023330473146428877,0.09710254654607277,36.09446859390736,-100.26678939585686,80.21211738781929
2024-09-23 09:42:27.159117,42.2,10.792987,-0.0029847020175114316,-0.02352945757203875,0.09720203344245934,36.09446859390736,-104.27510100388527,80.21211738781929
2024-09-23 09:42:27.202494,42.2,10.793038,-0.0037308827908396356,-0.023877669304275123,0.09670458680871308,40.106058693909645,-104.27510100388527,76.200527287817
2024-09-23 09:42:27.244593,42.2,10.793038,-0.0037308827908396356,-0.023877669304275123,0.09670458680871308,40.106058693909645,-96.25519929585457,76.200527287817
2024-09-23 09:42:27.256335,42.2,10.793127,-0.0035318979854855937,-0.023280723622328886,0.09710254654607277,40.106058693909645,-96.25519929585457,76.200527287817
2024-09-23 09:42:27.298640,42.2,10.793178,-0.0032831742888682963,-0.02362894446842532,0.09710254654607277,40.106058693909645,-92.24360919585227,72.1922225099802
2024-09-23 09:42:27.342899,42.2,10.793178,-0.0032831742888682963,-0.02362894446842532,0.09705279702197278,40.106058693909645,-100.26678939585686,72.1922225099802
2024-09-23 09:42:27.354578,42.2,10.793229,-0.0029349636958644295,-0.02362894446842532,0.09705279702197278,40.106058693909645,-100.26678939585686,72.1922225099802
2024-09-23 09:42:27.397231,42.2,10.793322,-0.0029349636958644295,-0.023280723622328886,0.09715228999426605,44.11764879391193,-104.27510100388527,80.21211738781929
2024-09-23 09:42:27.439314,42.2,10.793322,-0.0034324103296106863,-0.023429960042815445,0.09715228999426605,44.11764879391193,-104.27510100388527,80.21211738781929
2024-09-23 09:42:27.451654,42.2,10.793322,-0.0034324103296106863,-0.023429960042815445,0.09680407370509965,36.09446859390736,-100.26678939585686,84.22370748782159
2024-09-23 09:42:27.495019,42.2,10.793373,-0.0030841997366068195,-0.02352945757203875,0.09680407370509965,40.106058693909645,-100.26678939585686,84.22370748782159
2024-09-23 09:42:27.506518,42.2,10.793373,-0.0030841997366068195,-0.02352945757203875,0.09680407370509965,40.106058693909645,-100.26678939585686,84.22370748782159
2024-09-23 09:42:27.538841,42.2,10.793424,-0.0030344509719951677,-0.02352945757203875,0.09680407370509965,40.106058693909645,-100.26678939585686,76.200527287817
2024-09-23 09:42:27.550652,42.2,10.793424,-0.0030344509719951677,-0.023778180888911878,0.09720203344245934,44.11764879391193,-100.26678939585686,76.200527287817
2024-09-23 09:42:27.583402,42.2,10.793424,-0.0030344509719951677,-0.023778180888911878,0.09720203344245934,44.11764879391193,-88.23529758782387,76.200527287817
2024-09-23 09:42:27.594625,42.2,10.793474,-0.0036811340262279837,-0.02338022115155219,0.09645586349183995,44.11764879391193,-88.23529758782387,80.21211738781929
2024-09-23 09:42:27.637064,42.2,10.793525,-0.0036811340262279837,-0.02338022115155219,0.09645586349183995,40.106058693909645,-92.24360919585227,80.21211738781929
2024-09-23 09:42:27.649049,42.2,10.793525,-0.003482159473966507,-0.02367869399252531,0.09645586349183995,40.106058693909645,-92.24360919585227,80.21211738781929
2024-09-23 09:42:27.682060,42.2,10.793525,-0.003482159473966507,-0.02367869399252531,0.09690356060148622,32.08287849390507,-92.24360919585227,80.21211738781929
2024-09-23 09:42:27.693848,42.2,10.793576,-0.0028354659767690416,-0.02367869399252531,0.09690356060148622,32.08287849390507,-100.26678939585686,80.21211738781929
2024-09-23 09:42:27.735938,42.2,10.793576,-0.0028354659767690416,-0.02352945757203875,0.0973512698629459,40.106058693909645,-96.25519929585457,80.21211738781929
2024-09-23 09:42:27.747568,42.2,10.793663,-0.0028354659767690416,-0.02352945757203875,0.0973512698629459,40.106058693909645,-96.25519929585457,80.21211738781929
2024-09-23 09:42:27.779390,42.2,10.793663,-0.0030344509719951677,-0.02352945757203875,0.0973512698629459,40.106058693909645,-96.25519929585457,80.21211738781929
2024-09-23 09:42:27.790474,42.2,10.793663,-0.0030344509719951677,-0.023927417309398437,0.09695331012558621,40.106058693909645,-96.25519929585457,76.200527287817
2024-09-23 09:42:27.833550,42.2,10.793714,-0.0030841997366068195,-0.02362894446842532,0.09695331012558621,40.106058693909645,-96.25519929585457,76.200527287817
2024-09-23 09:42:27.875598,42.2,10.793714,-0.0030841997366068195,-0.02362894446842532,0.09764974270391902,40.106058693909645,-96.25519929585457,76.200527287817
2024-09-23 09:42:27.887042,42.2,10.793765,-0.0031836870127375577,-0.02362894446842532,0.09764974270391902,36.09446859390736,-96.25519929585457,80.21211738781929
2024-09-23 09:42:27.929762,42.2,10.793765,-0.0031836870127375577,-0.023728432883788564,0.09695331012558621,36.09446859390736,-100.26678939585686,80.21211738781929
2024-09-23 09:42:27.941563,42.2,10.793816,-0.0031836870127375577,-0.023728432883788564,0.09695331012558621,36.09446859390736,-100.26678939585686,72.1922225099802
2024-09-23 09:42:27.974590,42.2,10.793816,-0.002437506429281439,-0.023728432883788564,0.09695331012558621,36.09446859390736,-100.26678939585686,72.1922225099802
2024-09-23 09:42:27.985698,42.2,10.793816,-0.002437506429281439,-0.023877669304275123,0.09685382322919964,40.106058693909645,-104.27510100388527,80.21211738781929
2024-09-23 09:42:28.027923,42.2,10.793866,-0.0034324103296106863,-0.02362894446842532,0.09640611396773996,32.08287849390507,-104.27510100388527,80.21211738781929
2024-09-23 09:42:28.039683,42.2,10.793866,-0.0034324103296106863,-0.02362894446842532,0.09640611396773996,32.08287849390507,-92.24360919585227,80.21211738781929
2024-09-23 09:42:28.073730,42.2,10.793917,-0.0034324103296106863,-0.02362894446842532,0.09640611396773996,32.08287849390507,-92.24360919585227,84.22370748782159
2024-09-23 09:42:28.084943,42.2,10.793917,-0.003233425524256645,-0.023579196463302005,0.09690356060148622,32.08287849390507,-92.24360919585227,84.22370748782159
2024-09-23 09:42:28.128556,42.56,10.794006,-0.0029847020175114316,-0.02352945757203875,0.09755024973162574,32.08287849390507,-96.25519929585457,80.21211738781929
2024-09-23 09:42:28.172064,42.56,10.794006,-0.0029847020175114316,-0.02352945757203875,0.09755024973162574,44.11764879391193,-92.24360919585227,80.21211738781929
2024-09-23 09:42:28.183465,42.56,10.794057,-0.0038303700669703737,-0.023579196463302005,0.09755024973162574,44.11764879391193,-92.24360919585227,80.21211738781929
2024-09-23 09:42:28.217369,42.56,10.794057,-0.0038303700669703737,-0.023579196463302005,0.09759999317981902,44.11764879391193,-92.24360919585227,80.21211738781929
2024-09-23 09:42:28.228589,42.56,10.794107,-0.003233425524256645,-0.023579196463302005,0.09759999317981902,36.09446859390736,-96.25519929585457,80.21211738781929
2024-09-23 09:42:28.272684,42.56,10.794107,-0.003233425524256645,-0.02362894446842532,0.09695331012558621,40.106058693909645,-100.26678939585686,76.200527287817
2024-09-23 09:42:28.284542,42.56,10.794199,-0.003233425524256645,-0.02362894446842532,0.09695331012558621,40.106058693909645,-100.26678939585686,76.200527287817
2024-09-23 09:42:28.316606,42.56,10.794199,-0.0029847020175114316,-0.02397715620066169,0.09695331012558621,40.106058693909645,-100.26678939585686,76.200527287817
2024-09-23 09:42:28.327619,42.56,10.794199,-0.0029847020175114316,-0.02397715620066169,0.09655535038822652,32.08287849390507,-96.25519929585457,80.21211738781929
2024-09-23 09:42:28.369592,42.56,10.794251,-0.0029847020175114316,-0.02352945757203875,0.0973015264147526,36.09446859390736,-96.25519929585457,80.21211738781929
2024-09-23 09:42:28.381260,42.56,10.794251,-0.0029847020175114316,-0.02352945757203875,0.0973015264147526,36.09446859390736,-96.25519929585457,80.21211738781929
2024-09-23 09:42:28.413878,42.56,10.794251,-0.0029847020175114316,-0.02352945757203875,0.0973015264147526,36.09446859390736,-96.25519929585457,80.21211738781929
2024-09-23 09:42:28.425299,42.56,10.794301,-0.0031339382481259063,-0.023579196463302005,0.09705279702197278,48.12595698684454,-96.25519929585457,80.21211738781929
2024-09-23 09:42:28.468083,42.56,10.794352,-0.003382661564999035,-0.02303200030545576,0.0973015264147526,48.12595698684454,-96.25519929585457,80.21211738781929
2024-09-23 09:42:28.510431,42.56,10.794352,-0.003382661564999035,-0.02303200030545576,0.0973015264147526,32.08287849390507,-96.25519929585457,80.21211738781929
2024-09-23 09:42:28.522742,42.56,10.794403,-0.0033329230534799477,-0.023330473146428877,0.0973015264147526,32.08287849390507,-92.24360919585227,80.21211738781929
2024-09-23 09:42:28.565287,42.56,10.794453,-0.0033329230534799477,-0.023330473146428877,0.09725178296655933,32.08287849390507,-96.25519929585457,80.21211738781929
2024-09-23 09:42:28.577044,42.56,10.794453,-0.0033329230534799477,-0.023330473146428877,0.09725178296655933,32.08287849390507,-96.25519929585457,80.21211738781929
2024-09-23 09:42:28.608765,42.56,10.794453,-0.0033329230534799477,-0.02397715620066169,0.09725178296655933,32.08287849390507,-96.25519929585457,80.21211738781929
2024-09-23 09:42:28.620228,42.56,10.79454,-0.0033329230534799477,-0.02397715620066169,0.09725178296655933,44.11764879391193,-96.25519929585457,76.200527287817
2024-09-23 09:42:28.663534,42.56,10.79454,-0.0035318979854855937,-0.02338022115155219,0.09750050628343246,48.12595698684454,-104.27510100388527,84.22370748782159
2024-09-23 09:42:28.707348,42.56,10.794592,-0.0032831742888682963,-0.02338022115155219,0.09750050628343246,48.12595698684454,-104.27510100388527,84.22370748782159
2024-09-23 09:42:28.719045,42.56,10.794592,-0.0032831742888682963,-0.023728432883788564,0.0973015264147526,36.09446859390736,-100.26678939585686,84.22370748782159
2024-09-23 09:42:28.762856,42.56,10.794643,-0.0031836870127375577,-0.023579196463302005,0.0973015264147526,36.09446859390736,-100.26678939585686,76.200527287817
2024-09-23 09:42:28.775089,42.56,10.794643,-0.0031836870127375577,-0.023579196463302005,0.0973015264147526,36.09446859390736,-100.26678939585686,76.200527287817
2024-09-23 09:42:28.807007,42.56,10.794693,-0.0038801188315820256,-0.023579196463302005,0.0973015264147526,36.09446859390736,-100.26678939585686,80.21211738781929
2024-09-23 09:42:28.818610,42.56,10.794693,-0.0038801188315820256,-0.02367869399252531,0.09710254654607277,36.09446859390736,-100.26678939585686,80.21211738781929
2024-09-23 09:42:28.850166,42.56,10.794693,-0.0038801188315820256,-0.02367869399252531,0.09710254654607277,44.11764879391193,-100.26678939585686,80.21211738781929
2024-09-23 09:42:28.861963,42.56,10.794693,-0.0038801188315820256,-0.02367869399252531,0.09710254654607277,44.11764879391193,-92.24360919585227,80.21211738781929
2024-09-23 09:42:28.904079,42.56,10.794744,-0.0038801188315820256,-0.02367869399252531,0.09710254654607277,44.11764879391193,-92.24360919585227,84.22370748782159
2024-09-23 09:42:28.916401,42.56,10.794744,-0.0038801188315820256,-0.02367869399252531,0.09710254654607277,44.11764879391193,-92.24360919585227,84.22370748782159
2024-09-23 09:42:28.949113,42.56,10.794744,-0.0038801188315820256,-0.02367869399252531,0.09710254654607277,44.11764879391193,-100.26678939585686,84.22370748782159
2024-09-23 09:42:29.001856,42.56,10.794744,-0.0038801188315820256,-0.02367869399252531,0.09710254654607277,44.11764879391193,-100.26678939585686,84.22370748782159
2024-09-23 09:42:29.054748,42.56,10.794795,-0.0029349636958644295,-0.023479709566915436,0.09715228999426605,44.11764879391193,-100.26678939585686,84.22370748782159
2024-09-23 09:42:29.098548,42.56,10.794882,-0.003233425524256645,-0.023479709566915436,0.09715228999426605,44.11764879391193,-100.26678939585686,68.18063240997792
2024-09-23 09:42:29.110260,42.56,10.794882,-0.003233425524256645,-0.023778180888911878,0.09655535038822652,44.11764879391193,-100.26678939585686,68.18063240997792
2024-09-23 09:42:29.153156,42.35,10.794934,-0.0031836870127375577,-0.02362894446842532,0.09690356060148622,44.11764879391193,-96.25519929585457,76.200527287817
2024-09-23 09:42:29.194825,42.35,10.794934,-0.0031836870127375577,-0.02362894446842532,0.09690356060148622,40.106058693909645,-92.24360919585227,80.21211738781929
2024-09-23 09:42:29.206426,42.35,10.794984,-0.003631395514708897,-0.023728432883788564,0.09690356060148622,40.106058693909645,-92.24360919585227,80.21211738781929
2024-09-23 09:42:29.249706,42.35,10.795126,-0.0035816467500972456,-0.023728432883788564,0.0973015264147526,24.06297849342227,-104.27510100388527,84.22370748782159
2024-09-23 09:42:29.293166,42.35,10.795126,-0.0035816467500972456,-0.02362894446842532,0.09764974270391902,32.08287849390507,-104.27510100388527,84.22370748782159
2024-09-23 09:42:29.304784,42.35,10.795223,-0.0035816467500972456,-0.02362894446842532,0.09764974270391902,32.08287849390507,-100.26678939585686,80.21211738781929
2024-09-23 09:42:29.348452,42.35,10.795223,-0.0031836870127375577,-0.02362894446842532,0.09725178296655933,36.09446859390736,-96.25519929585457,84.22370748782159
2024-09-23 09:42:29.391554,42.35,10.795274,-0.0029847020175114316,-0.023827930413011865,0.09725178296655933,36.09446859390736,-96.25519929585457,84.22370748782159
2024-09-23 09:42:29.403000,42.35,10.795274,-0.0029847020175114316,-0.023827930413011865,0.09710254654607277,40.106058693909645,-92.24360919585227,84.22370748782159
2024-09-23 09:42:29.445079,42.35,10.795325,-0.0028354659767690416,-0.023579196463302005,0.09695331012558621,40.106058693909645,-92.24360919585227,80.21211738781929
2024-09-23 09:42:29.488400,42.35,10.795376,-0.0028354659767690416,-0.023579196463302005,0.09695331012558621,40.106058693909645,-96.25519929585457,72.1922225099802
2024-09-23 09:42:29.499841,42.35,10.795376,-0.0032831742888682963,-0.023579196463302005,0.09670458680871308,40.106058693909645,-96.25519929585457,72.1922225099802
2024-09-23 09:42:29.542519,42.35,10.795426,-0.0030841997366068195,-0.022982261414192504,0.09670458680871308,32.08287849390507,-96.25519929585457,88.23529758782387
2024-09-23 09:42:29.585298,42.35,10.795426,-0.0030841997366068195,-0.022982261414192504,0.09685382322919964,32.08287849390507,-100.26678939585686,88.23529758782387
2024-09-23 09:42:29.596545,42.35,10.795477,-0.0032831742888682963,-0.022982261414192504,0.09685382322919964,32.08287849390507,-100.26678939585686,84.22370748782159
2024-09-23 09:42:29.639440,42.35,10.795564,-0.0032831742888682963,-0.02367869399252531,0.09710254654607277,32.08287849390507,-100.26678939585686,80.21211738781929
2024-09-23 09:42:29.681436,42.35,10.795564,-0.0031836870127375577,-0.02338022115155219,0.09710254654607277,32.08287849390507,-100.26678939585686,80.21211738781929
2024-09-23 09:42:29.692590,42.35,10.795564,-0.0031836870127375577,-0.02338022115155219,0.0973015264147526,44.11764879391193,-96.25519929585457,84.22370748782159
2024-09-23 09:42:29.736341,42.35,10.795616,-0.0027359787006383035,-0.023728432883788564,0.09650560086412653,44.11764879391193,-104.27510100388527,84.22370748782159
2024-09-23 09:42:29.778589,42.35,10.795666,-0.0027359787006383035,-0.023728432883788564,0.09650560086412653,44.11764879391193,-104.27510100388527,76.200527287817
2024-09-23 09:42:29.789880,42.35,10.795666,-0.0033329230534799477,-0.023230986250042305,0.0970030596496862,36.09446859390736,-104.27510100388527,76.200527287817
2024-09-23 09:42:29.831754,42.35,10.795717,-0.003482159473966507,-0.023230986250042305,0.0970030596496862,36.09446859390736,-96.25519929585457,80.21211738781929
2024-09-23 09:42:29.843401,42.35,10.795717,-0.003482159473966507,-0.023778180888911878,0.09705279702197278,36.09446859390736,-96.25519929585457,80.21211738781929
2024-09-23 09:42:29.876175,42.35,10.795717,-0.003482159473966507,-0.023778180888911878,0.09705279702197278,32.08287849390507,-96.25519929585457,80.21211738781929
2024-09-23 09:42:29.928576,42.35,10.795768,-0.003780631555451287,-0.023778180888911878,0.09705279702197278,32.08287849390507,-100.26678939585686,84.22370748782159
2024-09-23 09:42:29.940325,42.35,10.795768,-0.003780631555451287,-0.024275627522658133,0.09745075675933246,32.08287849390507,-100.26678939585686,84.22370748782159
2024-09-23 09:42:29.974140,42.35,10.795768,-0.003780631555451287,-0.024275627522658133,0.09745075675933246,32.08287849390507,-96.25519929585457,84.22370748782159
2024-09-23 09:42:29.985389,42.35,10.795819,-0.0038801188315820256,-0.02352945757203875,0.09745075675933246,32.08287849390507,-96.25519929585457,76.200527287817
2024-09-23 09:42:30.027242,42.35,10.795905,-0.0038801188315820256,-0.02352945757203875,0.09750050628343246,44.11764879391193,-100.26678939585686,80.21211738781929
2024-09-23 09:42:30.039372,42.35,10.795905,-0.0035816467500972456,-0.02352945757203875,0.09750050628343246,44.11764879391193,-100.26678939585686,80.21211738781929
2024-09-23 09:42:30.071747,42.35,10.795905,-0.0035816467500972456,-0.02367869399252531,0.0966050877605131,44.11764879391193,-100.26678939585686,80.21211738781929
2024-09-23 09:42:30.084398,42.35,10.795957,-0.0035816467500972456,-0.02367869399252531,0.0966050877605131,36.09446859390736,-100.26678939585686,80.21211738781929
2024-09-23 09:42:30.127461,42.35,10.795957,-0.0034324103296106863,-0.02352945757203875,0.09705279702197278,32.08287849390507,-100.26678939585686,80.21211738781929
2024-09-23 09:42:30.170471,41.92,10.796052,-0.003233425524256645,-0.02367869399252531,0.09705279702197278,32.08287849390507,-100.26678939585686,80.21211738781929
2024-09-23 09:42:30.181337,41.92,10.796052,-0.003233425524256645,-0.02367869399252531,0.09715228999426605,36.09446859390736,-96.25519929585457,80.21211738781929
2024-09-23 09:42:30.224701,41.92,10.796104,-0.0031339382481259063,-0.02352945757203875,0.09695331012558621,28.07457030097246,-96.25519929585457,80.21211738781929
2024-09-23 09:42:30.267861,41.92,10.796104,-0.0031339382481259063,-0.02352945757203875,0.09695331012558621,28.07457030097246,-104.27510100388527,84.22370748782159
2024-09-23 09:42:30.279017,41.92,10.796154,-0.003382661564999035,-0.02397715620066169,0.09675432418099966,28.07457030097246,-104.27510100388527,84.22370748782159
2024-09-23 09:42:30.321327,41.92,10.796205,-0.0028852147413806935,-0.023330473146428877,0.09675432418099966,44.11764879391193,-104.27510100388527,80.21211738781929
2024-09-23 09:42:30.363917,41.92,10.796205,-0.0028852147413806935,-0.023330473146428877,0.09745075675933246,44.11764879391193,-104.27510100388527,80.21211738781929
2024-09-23 09:42:30.375641,41.92,10.796256,-0.003233425524256645,-0.023330473146428877,0.09745075675933246,44.11764879391193,-104.27510100388527,80.21211738781929
2024-09-23 09:42:30.417623,41.92,10.796256,-0.003233425524256645,-0.023479709566915436,0.09710254654607277,28.07457030097246,-96.25519929585457,76.200527287817
2024-09-23 09:42:30.429014,41.92,10.796344,-0.003233425524256645,-0.023479709566915436,0.09710254654607277,28.07457030097246,-96.25519929585457,76.200527287817
2024-09-23 09:42:30.461807,41.92,10.796344,-0.003382661564999035,-0.023429960042815445,0.09710254654607277,28.07457030097246,-96.25519929585457,76.200527287817
2024-09-23 09:42:30.474198,41.92,10.796344,-0.003382661564999035,-0.023429960042815445,0.09690356060148622,44.11764879391193,-96.25519929585457,76.200527287817
2024-09-23 09:42:30.517088,41.92,10.796396,-0.0033329230534799477,-0.02362894446842532,0.09705279702197278,44.11764879391193,-92.24360919585227,80.21211738781929
2024-09-23 09:42:30.559091,41.92,10.796396,-0.0033329230534799477,-0.02362894446842532,0.09705279702197278,40.106058693909645,-100.26678939585686,80.21211738781929
2024-09-23 09:42:30.571286,41.92,10.796446,-0.0031836870127375577,-0.023280723622328886,0.09705279702197278,40.106058693909645,-100.26678939585686,80.21211738781929
2024-09-23 09:42:30.614505,41.92,10.796497,-0.003233425524256645,-0.023280723622328886,0.09675432418099966,36.09446859390736,-96.25519929585457,76.200527287817
2024-09-23 09:42:30.656516,41.92,10.796497,-0.003233425524256645,-0.023230986250042305,0.0970030596496862,36.09446859390736,-96.25519929585457,76.200527287817
2024-09-23 09:42:30.667646,41.92,10.796548,-0.003233425524256645,-0.023230986250042305,0.0970030596496862,48.12595698684454,-92.24360919585227,80.21211738781929
2024-09-23 09:42:30.710262,41.92,10.796548,-0.0028852147413806935,-0.023429960042815445,0.09705279702197278,44.11764879391193,-96.25519929585457,80.21211738781929
2024-09-23 09:42:30.722526,41.92,10.796548,-0.0028852147413806935,-0.023429960042815445,0.09705279702197278,44.11764879391193,-96.25519929585457,80.21211738781929
2024-09-23 09:42:30.754896,41.92,10.796637,-0.0031339382481259063,-0.023479709566915436,0.09705279702197278,44.11764879391193,-96.25519929585457,80.21211738781929
2024-09-23 09:42:30.766049,41.92,10.796637,-0.0031339382481259063,-0.023479709566915436,0.09705279702197278,32.08287849390507,-96.25519929585457,80.21211738781929
2024-09-23 09:42:30.808496,41.92,10.796689,-0.003631395514708897,-0.023280723622328886,0.09635636444363997,40.106058693909645,-96.25519929585457,76.200527287817
2024-09-23 09:42:30.851268,41.92,10.796689,-0.003631395514708897,-0.023280723622328886,0.09635636444363997,40.106058693909645,-88.23529758782387,76.200527287817
2024-09-23 09:42:30.862349,41.92,10.796739,-0.0033329230534799477,-0.023330473146428877,0.09695331012558621,40.106058693909645,-88.23529758782387,76.200527287817
2024-09-23 09:42:30.905417,41.92,10.79679,-0.0032831742888682963,-0.023330473146428877,0.09695331012558621,48.12595698684454,-100.26678939585686,72.1922225099802
2024-09-23 09:42:30.917363,41.92,10.79679,-0.0032831742888682963,-0.023479709566915436,0.09695331012558621,48.12595698684454,-100.26678939585686,72.1922225099802
2024-09-23 09:42:30.950653,41.92,10.79679,-0.0032831742888682963,-0.023479709566915436,0.09690356060148622,36.09446859390736,-104.27510100388527,72.1922225099802
2024-09-23 09:42:30.962467,41.92,10.796841,-0.003233425524256645,-0.023479709566915436,0.09690356060148622,36.09446859390736,-104.27510100388527,80.21211738781929
2024-09-23 09:42:31.004822,41.92,10.796929,-0.003233425524256645,-0.023579196463302005,0.0970030596496862,40.106058693909645,-96.25519929585457,80.21211738781929
2024-09-23 09:42:31.048149,41.92,10.796929,-0.003382661564999035,-0.02352945757203875,0.09715228999426605,40.106058693909645,-96.25519929585457,80.21211738781929
2024-09-23 09:42:31.059573,41.92,10.796929,-0.003382661564999035,-0.02352945757203875,0.09715228999426605,40.106058693909645,-92.24360919585227,76.200527287817
2024-09-23 09:42:31.102302,41.92,10.796981,-0.0033329230534799477,-0.02303200030545576,0.0970030596496862,40.106058693909645,-96.25519929585457,76.200527287817
2024-09-23 09:42:31.145606,41.92,10.797031,-0.0029847020175114316,-0.02303200030545576,0.0970030596496862,40.106058693909645,-96.25519929585457,80.21211738781929
2024-09-23 09:42:31.157050,41.92,10.797031,-0.0029847020175114316,-0.02397715620066169,0.0976994861521123,48.12595698684454,-96.25519929585457,80.21211738781929
2024-09-23 09:42:31.199734,42.07,10.797082,-0.0026862297461545674,-0.02303200030545576,0.0973015264147526,48.12595698684454,-84.22370748782159,88.23529758782387
2024-09-23 09:42:31.242446,42.07,10.797082,-0.0026862297461545674,-0.02303200030545576,0.0973015264147526,44.11764879391193,-100.26678939585686,80.21211738781929
2024-09-23 09:42:31.253918,42.07,10.797133,-0.0031836870127375577,-0.02397715620066169,0.0973015264147526,44.11764879391193,-100.26678939585686,80.21211738781929
2024-09-23 09:42:31.297398,42.07,10.797183,-0.003233425524256645,-0.02397715620066169,0.09705279702197278,36.09446859390736,-108.28669110388756,80.21211738781929
2024-09-23 09:42:31.340906,42.07,10.797183,-0.003233425524256645,-0.023728432883788564,0.09675432418099966,40.106058693909645,-108.28669110388756,80.21211738781929
2024-09-23 09:42:31.352131,42.07,10.79727,-0.003233425524256645,-0.023728432883788564,0.09675432418099966,40.106058693909645,-100.26678939585686,84.22370748782159
2024-09-23 09:42:31.394477,42.07,10.79727,-0.0034324103296106863,-0.023479709566915436,0.09764974270391902,36.09446859390736,-88.23529758782387,84.22370748782159
2024-09-23 09:42:31.406761,42.07,10.79727,-0.0034324103296106863,-0.023479709566915436,0.09764974270391902,36.09446859390736,-88.23529758782387,76.200527287817
2024-09-23 09:42:31.440026,42.07,10.797323,-0.0027359787006383035,-0.023230986250042305,0.09690356060148622,36.09446859390736,-88.23529758782387,76.200527287817
2024-09-23 09:42:31.451434,42.07,10.797323,-0.0027359787006383035,-0.023230986250042305,0.09690356060148622,40.106058693909645,-92.24360919585227,76.200527287817
2024-09-23 09:42:31.484051,42.07,10.797323,-0.0027359787006383035,-0.023230986250042305,0.09690356060148622,40.106058693909645,-92.24360919585227,80.21211738781929
2024-09-23 09:42:31.495409,42.07,10.797373,-0.003233425524256645,-0.023330473146428877,0.09710254654607277,36.09446859390736,-92.24360919585227,80.21211738781929
2024-09-23 09:42:31.538163,42.07,10.797424,-0.003482159473966507,-0.023728432883788564,0.09710254654607277,36.09446859390736,-92.24360919585227,80.21211738781929
2024-09-23 09:42:31.550248,42.07,10.797424,-0.003482159473966507,-0.023728432883788564,0.09685382322919964,36.09446859390736,-92.24360919585227,80.21211738781929
2024-09-23 09:42:31.583159,42.07,10.797424,-0.003482159473966507,-0.023728432883788564,0.09685382322919964,36.09446859390736,-100.26678939585686,80.21211738781929
2024-09-23 09:42:31.594545,42.07,10.797475,-0.002785727465249955,-0.023728432883788564,0.09685382322919964,36.09446859390736,-100.26678939585686,80.21211738781929
2024-09-23 09:42:31.636891,42.07,10.797525,-0.002785727465249955,-0.023728432883788564,0.09690356060148622,36.09446859390736,-96.25519929585457,80.21211738781929
2024-09-23 09:42:31.648711,42.07,10.797525,-0.0035318979854855937,-0.023728432883788564,0.09690356060148622,36.09446859390736,-96.25519929585457,80.21211738781929
2024-09-23 09:42:31.682459,42.07,10.797525,-0.0035318979854855937,-0.023330473146428877,0.09670458680871308,36.09446859390736,-96.25519929585457,80.21211738781929
2024-09-23 09:42:31.693997,42.07,10.797612,-0.0035318979854855937,-0.023330473146428877,0.09670458680871308,36.09446859390736,-96.25519929585457,76.200527287817
2024-09-23 09:42:31.737085,42.07,10.797612,-0.003482159473966507,-0.023579196463302005,0.09715228999426605,28.07457030097246,-100.26678939585686,80.21211738781929
2024-09-23 09:42:31.780281,42.07,10.797663,-0.003382661564999035,-0.023330473146428877,0.09715228999426605,28.07457030097246,-100.26678939585686,80.21211738781929
2024-09-23 09:42:31.792357,42.07,10.797663,-0.003382661564999035,-0.023330473146428877,0.09645586349183995,28.07457030097246,-104.27510100388527,80.21211738781929
2024-09-23 09:42:31.824412,42.07,10.797663,-0.003382661564999035,-0.023330473146428877,0.09645586349183995,28.07457030097246,-104.27510100388527,80.21211738781929
2024-09-23 09:42:31.835672,42.07,10.797714,-0.0032831742888682963,-0.023827930413011865,0.0973015264147526,36.09446859390736,-104.27510100388527,80.21211738781929
2024-09-23 09:42:31.879016,42.07,10.797765,-0.0032831742888682963,-0.023827930413011865,0.0973015264147526,36.09446859390736,-108.28669110388756,76.200527287817
2024-09-23 09:42:31.890653,42.07,10.797765,-0.0032831742888682963,-0.023927417309398437,0.09725178296655933,36.09446859390736,-108.28669110388756,76.200527287817
2024-09-23 09:42:31.923041,42.07,10.797765,-0.0032831742888682963,-0.023927417309398437,0.09725178296655933,44.11764879391193,-108.28669110388756,76.200527287817
2024-09-23 09:42:31.934889,42.07,10.797815,-0.0033329230534799477,-0.023280723622328886,0.09725178296655933,44.11764879391193,-92.24360919585227,80.21211738781929
2024-09-23 09:42:31.976941,42.07,10.797866,-0.0033329230534799477,-0.023280723622328886,0.09720203344245934,44.11764879391193,-96.25519929585457,80.21211738781929
2024-09-23 09:42:31.988868,42.07,10.797866,-0.003382661564999035,-0.023280723622328886,0.09720203344245934,44.11764879391193,-96.25519929585457,80.21211738781929
2024-09-23 09:42:32.021005,42.07,10.797866,-0.003382661564999035,-0.02362894446842532,0.09720203344245934,44.11764879391193,-96.25519929585457,80.21211738781929
2024-09-23 09:42:32.032795,42.07,10.797953,-0.003382661564999035,-0.02362894446842532,0.09720203344245934,48.12595698684454,-96.25519929585457,76.200527287817
2024-09-23 09:42:32.075877,42.07,10.797953,-0.0028852147413806935,-0.023877669304275123,0.09715228999426605,40.106058693909645,-96.25519929585457,76.200527287817
2024-09-23 09:42:32.087519,42.07,10.797953,-0.0028852147413806935,-0.023877669304275123,0.09715228999426605,40.106058693909645,-96.25519929585457,92.24360919585227
2024-09-23 09:42:32.119749,42.07,10.798004,-0.0027359787006383035,-0.02352945757203875,0.09715228999426605,40.106058693909645,-96.25519929585457,92.24360919585227
2024-09-23 09:42:32.131355,42.07,10.798004,-0.0027359787006383035,-0.02352945757203875,0.0973015264147526,40.106058693909645,-96.25519929585457,92.24360919585227
2024-09-23 09:42:32.174436,42.07,10.798055,-0.0031836870127375577,-0.02352945757203875,0.09675432418099966,40.106058693909645,-96.25519929585457,88.23529758782387
2024-09-23 09:42:32.216314,42.32,10.798055,-0.0031836870127375577,-0.02352945757203875,0.09675432418099966,44.11764879391193,-96.25519929585457,88.23529758782387
2024-09-23 09:42:32.227669,42.32,10.798106,-0.0032831742888682963,-0.023330473146428877,0.09675432418099966,44.11764879391193,-96.25519929585457,88.23529758782387
2024-09-23 09:42:32.270188,42.32,10.798156,-0.0032831742888682963,-0.023330473146428877,0.09695331012558621,32.08287849390507,-96.25519929585457,80.21211738781929
2024-09-23 09:42:32.282158,42.32,10.798156,-0.003382661564999035,-0.023330473146428877,0.09695331012558621,32.08287849390507,-96.25519929585457,80.21211738781929
2024-09-23 09:42:32.315106,42.32,10.798156,-0.003382661564999035,-0.023778180888911878,0.09655535038822652,36.09446859390736,-96.25519929585457,80.21211738781929
2024-09-23 09:42:32.326036,42.32,10.798207,-0.003382661564999035,-0.023778180888911878,0.09655535038822652,36.09446859390736,-100.26678939585686,80.21211738781929
2024-09-23 09:42:32.368637,42.32,10.798207,-0.0028354659767690416,-0.024225890150371555,0.09710254654607277,36.09446859390736,-100.26678939585686,80.21211738781929
2024-09-23 09:42:32.380840,42.32,10.798207,-0.0028354659767690416,-0.024225890150371555,0.09710254654607277,36.09446859390736,-100.26678939585686,84.22370748782159
2024-09-23 09:42:32.412868,42.32,10.798295,-0.0037308827908396356,-0.024225890150371555,0.09710254654607277,36.09446859390736,-100.26678939585686,84.22370748782159
2024-09-23 09:42:32.424049,42.32,10.798295,-0.0037308827908396356,-0.023927417309398437,0.09725178296655933,44.11764879391193,-92.24360919585227,84.22370748782159
2024-09-23 09:42:32.465866,42.32,10.798346,-0.002785727465249955,-0.023927417309398437,0.09750050628343246,32.08287849390507,-92.24360919585227,80.21211738781929
2024-09-23 09:42:32.508825,42.32,10.798346,-0.002785727465249955,-0.023927417309398437,0.09750050628343246,32.08287849390507,-96.25519929585457,80.21211738781929
2024-09-23 09:42:32.521196,42.32,10.798397,-0.0035816467500972456,-0.02362894446842532,0.09764974270391902,32.08287849390507,-96.25519929585457,80.21211738781929
2024-09-23 09:42:32.564630,42.32,10.798447,-0.0035318979854855937,-0.02362894446842532,0.09764974270391902,40.106058693909645,-100.26678939585686,84.22370748782159
2024-09-23 09:42:32.607415,42.32,10.798447,-0.0035318979854855937,-0.02362894446842532,0.09680407370509965,40.106058693909645,-100.26678939585686,84.22370748782159
2024-09-23 09:42:32.618529,42.32,10.798498,-0.003482159473966507,-0.02362894446842532,0.09680407370509965,40.106058693909645,-100.26678939585686,84.22370748782159
2024-09-23 09:42:32.662114,42.32,10.798587,-0.003482159473966507,-0.023728432883788564,0.09740101331113918,32.08287849390507,-96.25519929585457,80.21211738781929
2024-09-23 09:42:32.704427,42.32,10.798587,-0.0035318979854855937,-0.02367869399252531,0.09695331012558621,32.08287849390507,-96.25519929585457,80.21211738781929
2024-09-23 09:42:32.715678,42.32,10.798587,-0.0035318979854855937,-0.02367869399252531,0.09695331012558621,32.08287849390507,-100.26678939585686,76.200527287817
2024-09-23 09:42:32.758230,42.32,10.798638,-0.0031339382481259063,-0.023429960042815445,0.09705279702197278,40.106058693909645,-96.25519929585457,76.200527287817
2024-09-23 09:42:32.801715,42.32,10.798689,-0.0031339382481259063,-0.023429960042815445,0.09705279702197278,40.106058693909645,-96.25519929585457,80.21211738781929
2024-09-23 09:42:32.812825,42.32,10.798689,-0.0031836870127375577,-0.023579196463302005,0.09710254654607277,36.09446859390736,-96.25519929585457,80.21211738781929
2024-09-23 09:42:32.855143,42.32,10.79874,-0.0033329230534799477,-0.023877669304275123,0.09710254654607277,36.09446859390736,-108.28669110388756,72.1922225099802
2024-09-23 09:42:32.866853,42.32,10.79874,-0.0033329230534799477,-0.023877669304275123,0.09675432418099966,36.09446859390736,-108.28669110388756,72.1922225099802
2024-09-23 09:42:32.900388,42.32,10.79874,-0.0033329230534799477,-0.023877669304275123,0.09675432418099966,36.09446859390736,-92.24360919585227,76.200527287817
2024-09-23 09:42:32.911387,42.32,10.79879,-0.003631395514708897,-0.023429960042815445,0.09675432418099966,36.09446859390736,-92.24360919585227,76.200527287817
2024-09-23 09:42:32.953134,42.32,10.79879,-0.003631395514708897,-0.023429960042815445,0.09635636444363997,36.09446859390736,-92.24360919585227,76.200527287817
2024-09-23 09:42:32.995133,42.32,10.79879,-0.003631395514708897,-0.023429960042815445,0.09635636444363997,36.09446859390736,-92.24360919585227,76.200527287817
2024-09-23 09:42:33.048188,42.32,10.798841,-0.003631395514708897,-0.023429960042815445,0.09635636444363997,36.09446859390736,-100.26678939585686,84.22370748782159
2024-09-23 09:42:33.059565,42.32,10.798841,-0.0032831742888682963,-0.02338022115155219,0.09705279702197278,36.09446859390736,-100.26678939585686,84.22370748782159
2024-09-23 09:42:33.091520,42.32,10.798841,-0.0032831742888682963,-0.02338022115155219,0.09705279702197278,32.08287849390507,-100.26678939585686,84.22370748782159
2024-09-23 09:42:33.102847,42.32,10.798928,-0.0026862297461545674,-0.023579196463302005,0.09705279702197278,32.08287849390507,-104.27510100388527,72.1922225099802
2024-09-23 09:42:33.146570,42.32,10.798928,-0.0026862297461545674,-0.023579196463302005,0.09695331012558621,36.09446859390736,-100.26678939585686,80.21211738781929
2024-09-23 09:42:33.159358,42.32,10.79898,-0.0035816467500972456,-0.023579196463302005,0.09695331012558621,36.09446859390736,-100.26678939585686,80.21211738781929
2024-09-23 09:42:33.191502,42.32,10.79898,-0.0035816467500972456,-0.023479709566915436,0.09695331012558621,36.09446859390736,-100.26678939585686,80.21211738781929
2024-09-23 09:42:33.243752,42.5,10.79898,-0.0035816467500972456,-0.023479709566915436,0.09745075675933246,36.09446859390736,-96.25519929585457,76.200527287817
2024-09-23 09:42:33.255422,42.5,10.799031,-0.0033329230534799477,-0.023479709566915436,0.09745075675933246,36.09446859390736,-96.25519929585457,76.200527287817
2024-09-23 09:42:33.287188,42.5,10.799031,-0.0033329230534799477,-0.023827930413011865,0.09745075675933246,36.09446859390736,-96.25519929585457,76.200527287817
2024-09-23 09:42:33.298111,42.5,10.799173,-0.0033329230534799477,-0.023827930413011865,0.09725178296655933,32.08287849390507,-104.27510100388527,76.200527287817
2024-09-23 09:42:33.340439,42.5,10.799173,-0.003233425524256645,-0.023181236725942318,0.09725178296655933,32.08287849390507,-104.27510100388527,76.200527287817
2024-09-23 09:42:33.352299,42.5,10.799173,-0.003233425524256645,-0.023181236725942318,0.09725178296655933,36.09446859390736,-104.27510100388527,80.21211738781929
2024-09-23 09:42:33.385421,42.5,10.799224,-0.003233425524256645,-0.023181236725942318,0.09725178296655933,36.09446859390736,-104.27510100388527,80.21211738781929
2024-09-23 09:42:33.396888,42.5,10.799224,-0.0030841997366068195,-0.022982261414192504,0.09755024973162574,28.07457030097246,-96.25519929585457,80.21211738781929
2024-09-23 09:42:33.439458,42.5,10.799274,-0.003382661564999035,-0.02352945757203875,0.09715228999426605,28.07457030097246,-96.25519929585457,80.21211738781929
2024-09-23 09:42:33.451026,42.5,10.799274,-0.003382661564999035,-0.02352945757203875,0.09715228999426605,44.11764879391193,-96.25519929585457,80.21211738781929
2024-09-23 09:42:33.483781,42.5,10.799274,-0.003382661564999035,-0.02352945757203875,0.09715228999426605,44.11764879391193,-92.24360919585227,76.200527287817
2024-09-23 09:42:33.495884,42.5,10.799368,-0.0033329230534799477,-0.024176140626271565,0.09680407370509965,44.11764879391193,-92.24360919585227,76.200527287817
2024-09-23 09:42:33.538305,42.5,10.799419,-0.0035318979854855937,-0.023877669304275123,0.09680407370509965,44.11764879391193,-92.24360919585227,84.22370748782159
2024-09-23 09:42:33.581332,42.5,10.799419,-0.0035318979854855937,-0.023877669304275123,0.09690356060148622,28.07457030097246,-92.24360919585227,84.22370748782159
2024-09-23 09:42:33.592834,42.5,10.79947,-0.0034324103296106863,-0.023877669304275123,0.09690356060148622,28.07457030097246,-104.27510100388527,76.200527287817
2024-09-23 09:42:33.635692,42.5,10.79947,-0.0034324103296106863,-0.023778180888911878,0.09720203344245934,32.08287849390507,-104.27510100388527,76.200527287817
2024-09-23 09:42:33.678161,42.5,10.79947,-0.0034324103296106863,-0.023778180888911878,0.09720203344245934,32.08287849390507,-92.24360919585227,76.200527287817
2024-09-23 09:42:33.690114,42.5,10.799562,-0.0031339382481259063,-0.02352945757203875,0.09695331012558621,32.08287849390507,-92.24360919585227,80.21211738781929
2024-09-23 09:42:33.732114,42.5,10.799562,-0.0031339382481259063,-0.02352945757203875,0.09695331012558621,32.08287849390507,-100.26678939585686,84.22370748782159
2024-09-23 09:42:33.776233,42.5,10.799613,-0.0030841997366068195,-0.02352945757203875,0.09695331012558621,32.08287849390507,-100.26678939585686,84.22370748782159
2024-09-23 09:42:33.787438,42.5,10.799613,-0.0030841997366068195,-0.023827930413011865,0.09675432418099966,44.11764879391193,-84.22370748782159,84.22370748782159
2024-09-23 09:42:33.830360,42.5,10.799664,-0.0028354659767690416,-0.02352945757203875,0.09725178296655933,44.11764879391193,-84.22370748782159,76.200527287817
2024-09-23 09:42:33.842206,42.5,10.799664,-0.0028354659767690416,-0.02352945757203875,0.09725178296655933,52.137550501942634,-84.22370748782159,76.200527287817
2024-09-23 09:42:33.875811,42.5,10.799715,-0.0028354659767690416,-0.02352945757203875,0.09725178296655933,52.137550501942634,-88.23529758782387,76.200527287817
2024-09-23 09:42:33.887273,42.5,10.799715,-0.0035318979854855937,-0.023429960042815445,0.09710254654607277,52.137550501942634,-88.23529758782387,76.200527287817
2024-09-23 09:42:33.929873,42.5,10.799806,-0.003482159473966507,-0.023280723622328886,0.09710254654607277,40.106058693909645,-100.26678939585686,80.21211738781929
2024-09-23 09:42:33.973348,42.5,10.799806,-0.003482159473966507,-0.023280723622328886,0.0973015264147526,36.09446859390736,-96.25519929585457,80.21211738781929
2024-09-23 09:42:33.985734,42.5,10.799857,-0.002785727465249955,-0.023280723622328886,0.0973015264147526,36.09446859390736,-96.25519929585457,84.22370748782159
2024-09-23 09:42:34.017925,42.5,10.799857,-0.002785727465249955,-0.023728432883788564,0.0973015264147526,36.09446859390736,-96.25519929585457,84.22370748782159
2024-09-23 09:42:34.029441,42.5,10.799952,-0.002785727465249955,-0.023728432883788564,0.09745075675933246,40.106058693909645,-96.25519929585457,84.22370748782159
2024-09-23 09:42:34.072182,42.5,10.799952,-0.003482159473966507,-0.023579196463302005,0.09710254654607277,36.09446859390736,-96.25519929585457,84.22370748782159
2024-09-23 09:42:34.083202,42.5,10.799952,-0.003482159473966507,-0.023579196463302005,0.09710254654607277,36.09446859390736,-96.25519929585457,84.22370748782159
2024-09-23 09:42:34.115542,42.5,10.800003,-0.003482159473966507,-0.023579196463302005,0.09710254654607277,36.09446859390736,-96.25519929585457,84.22370748782159
