Ayaan's Suite
Timestamp,Sample Rate (Hz),Time,Ax,Ay,Az,Gx,Gy,Gz
2024-09-23 16:41:18.322962,0,35.924753,-0.0033329230534799477,-0.023230986250042305,0.09720203344245934,28.07457030097246,-96.25519929585457,76.200527287817
2024-09-23 16:41:18.365794,0,35.924804,-0.0031339382481259063,-0.023230986250042305,0.09720203344245934,28.07457030097246,-96.25519929585457,80.21211738781929
2024-09-23 16:41:18.377797,0,35.924804,-0.0031339382481259063,-0.02367869399252531,0.09650560086412653,40.106058693909645,-96.25519929585457,80.21211738781929
2024-09-23 16:41:18.420311,0,35.924855,-0.0031836870127375577,-0.02338022115155219,0.09745075675933246,40.106058693909645,-88.23529758782387,80.21211738781929
2024-09-23 16:41:18.462133,0,35.924855,-0.0031836870127375577,-0.02338022115155219,0.09745075675933246,36.09446859390736,-96.25519929585457,80.21211738781929
2024-09-23 16:41:18.473839,0,35.924905,-0.0035318979854855937,-0.02352945757203875,0.09745075675933246,36.09446859390736,-96.25519929585457,80.21211738781929
2024-09-23 16:41:18.517387,0,35.924956,-0.003382661564999035,-0.02352945757203875,0.0970030596496862,40.106058693909645,-100.26678939585686,80.21211738781929
2024-09-23 16:41:18.560146,0,35.924956,-0.003382661564999035,-0.023181236725942318,0.09715228999426605,40.106058693909645,-100.26678939585686,80.21211738781929
2024-09-23 16:41:18.613160,0,35.925043,-0.003382661564999035,-0.023181236725942318,0.09715228999426605,36.09446859390736,-96.25519929585457,76.200527287817
2024-09-23 16:41:18.625893,0,35.925043,-0.0032831742888682963,-0.02352945757203875,0.09715228999426605,36.09446859390736,-96.25519929585457,76.200527287817
2024-09-23 16:41:18.658338,0,35.925043,-0.0032831742888682963,-0.02352945757203875,0.09725178296655933,40.106058693909645,-96.25519929585457,76.200527287817
2024-09-23 16:41:18.669997,0,35.925094,-0.0032831742888682963,-0.02352945757203875,0.09725178296655933,40.106058693909645,-96.25519929585457,72.1922225099802
2024-09-23 16:41:18.712429,0,35.925145,-0.0032831742888682963,-0.023230986250042305,0.09750050628343246,36.09446859390736,-96.25519929585457,76.200527287817
2024-09-23 16:41:18.754349,0,35.925145,-0.003233425524256645,-0.023330473146428877,0.09750050628343246,36.09446859390736,-96.25519929585457,76.200527287817
2024-09-23 16:41:18.765933,0,35.925145,-0.003233425524256645,-0.023330473146428877,0.09695331012558621,36.09446859390736,-100.26678939585686,76.200527287817
2024-09-23 16:41:18.809154,0,35.925196,-0.0029847020175114316,-0.02362894446842532,0.09750050628343246,44.11764879391193,-92.24360919585227,76.200527287817
2024-09-23 16:41:18.851686,0,35.925288,-0.0029847020175114316,-0.02362894446842532,0.09750050628343246,44.11764879391193,-92.24360919585227,68.18063240997792
2024-09-23 16:41:18.863114,0,35.925288,-0.0032831742888682963,-0.023330473146428877,0.09645586349183995,48.12595698684454,-92.24360919585227,68.18063240997792
2024-09-23 16:41:18.906453,0,35.925339,-0.003233425524256645,-0.022982261414192504,0.09789846602079214,48.12595698684454,-88.23529758782387,80.21211738781929
2024-09-23 16:41:18.948995,0,35.925339,-0.003233425524256645,-0.022982261414192504,0.09789846602079214,44.11764879391193,-96.25519929585457,80.21211738781929
2024-09-23 16:41:18.960522,0,35.92539,-0.0029349636958644295,-0.023181236725942318,0.09789846602079214,44.11764879391193,-96.25519929585457,80.21211738781929
2024-09-23 16:41:19.003745,0,35.92544,-0.0029349636958644295,-0.023181236725942318,0.09725178296655933,32.08287849390507,-100.26678939585686,80.21211738781929
2024-09-23 16:41:19.015728,0,35.92544,-0.0034324103296106863,-0.023181236725942318,0.09725178296655933,32.08287849390507,-100.26678939585686,80.21211738781929
2024-09-23 16:41:19.048232,0,35.92544,-0.0034324103296106863,-0.023280723622328886,0.09715228999426605,32.08287849390507,-100.26678939585686,80.21211738781929
2024-09-23 16:41:19.059170,0,35.92553,-0.0034324103296106863,-0.023280723622328886,0.09715228999426605,32.08287849390507,-104.27510100388527,76.200527287817
2024-09-23 16:41:19.101341,0,35.92553,-0.0029847020175114316,-0.02352945757203875,0.09725178296655933,40.106058693909645,-92.24360919585227,80.21211738781929
2024-09-23 16:41:19.143862,0,35.925582,-0.0031339382481259063,-0.02352945757203875,0.09725178296655933,40.106058693909645,-92.24360919585227,80.21211738781929
2024-09-23 16:41:19.155609,0,35.925582,-0.0031339382481259063,-0.023330473146428877,0.09740101331113918,36.09446859390736,-88.23529758782387,80.21211738781929
2024-09-23 16:41:19.198609,0,35.925633,-0.0032831742888682963,-0.023827930413011865,0.09740101331113918,36.09446859390736,-88.23529758782387,88.23529758782387
2024-09-23 16:41:19.292308,36.54,35.925633,-0.0032831742888682963,-0.023827930413011865,0.09670458680871308,40.106058693909645,-96.25519929585457,88.23529758782387
2024-09-23 16:41:19.303979,36.54,35.925683,-0.0029349636958644295,-0.023827930413011865,0.09670458680871308,40.106058693909645,-96.25519929585457,84.22370748782159
2024-09-23 16:41:19.347257,36.54,35.925734,-0.0029349636958644295,-0.02352945757203875,0.09720203344245934,44.11764879391193,-100.26678939585686,76.200527287817
2024-09-23 16:41:19.389724,36.54,35.925734,-0.0032831742888682963,-0.02293251340906919,0.0973015264147526,44.11764879391193,-100.26678939585686,76.200527287817
2024-09-23 16:41:19.401342,36.54,35.925734,-0.0032831742888682963,-0.02293251340906919,0.0973015264147526,40.106058693909645,-96.25519929585457,80.21211738781929
2024-09-23 16:41:19.444859,36.54,35.925785,-0.0029847020175114316,-0.023330473146428877,0.0970030596496862,40.106058693909645,-92.24360919585227,80.21211738781929
2024-09-23 16:41:19.487659,36.54,35.925872,-0.0026862297461545674,-0.023330473146428877,0.0970030596496862,40.106058693909645,-92.24360919585227,84.22370748782159
2024-09-23 16:41:19.498857,36.54,35.925872,-0.0026862297461545674,-0.022982261414192504,0.09725178296655933,36.09446859390736,-92.24360919585227,84.22370748782159
2024-09-23 16:41:19.541288,36.54,35.925971,-0.0026862297461545674,-0.023280723622328886,0.09759999317981902,36.09446859390736,-96.25519929585457,80.21211738781929
2024-09-23 16:41:19.584651,36.54,35.925971,-0.0026862297461545674,-0.023280723622328886,0.09759999317981902,40.106058693909645,-96.25519929585457,84.22370748782159
2024-09-23 16:41:19.596039,36.54,35.926022,-0.0030344509719951677,-0.02293251340906919,0.09759999317981902,40.106058693909645,-96.25519929585457,84.22370748782159
2024-09-23 16:41:19.638595,36.54,35.926072,-0.003382661564999035,-0.02293251340906919,0.09710254654607277,44.11764879391193,-92.24360919585227,80.21211738781929
2024-09-23 16:41:19.680708,36.54,35.926072,-0.003382661564999035,-0.023181236725942318,0.09710254654607277,44.11764879391193,-92.24360919585227,80.21211738781929
2024-09-23 16:41:19.692264,36.54,35.926164,-0.003382661564999035,-0.023181236725942318,0.09720203344245934,36.09446859390736,-100.26678939585686,72.1922225099802
2024-09-23 16:41:19.735774,36.54,35.926164,-0.0031339382481259063,-0.02313149783467906,0.09705279702197278,40.106058693909645,-96.25519929585457,72.1922225099802
2024-09-23 16:41:19.747420,36.54,35.926164,-0.0031339382481259063,-0.02313149783467906,0.09705279702197278,40.106058693909645,-96.25519929585457,80.21211738781929
2024-09-23 16:41:19.779810,36.54,35.926216,-0.0028852147413806935,-0.02313149783467906,0.09705279702197278,40.106058693909645,-96.25519929585457,80.21211738781929
2024-09-23 16:41:19.832777,36.54,35.926266,-0.0028852147413806935,-0.023330473146428877,0.09645586349183995,48.12595698684454,-96.25519929585457,80.21211738781929
2024-09-23 16:41:19.875727,36.54,35.926266,-0.0030841997366068195,-0.02362894446842532,0.09645586349183995,48.12595698684454,-96.25519929585457,80.21211738781929
2024-09-23 16:41:19.886885,36.54,35.926266,-0.0030841997366068195,-0.02362894446842532,0.09740101331113918,28.07457030097246,-92.24360919585227,80.21211738781929
2024-09-23 16:41:19.930094,36.54,35.926317,-0.0029349636958644295,-0.023429960042815445,0.0973015264147526,36.09446859390736,-92.24360919585227,80.21211738781929
2024-09-23 16:41:19.941684,36.54,35.926317,-0.0029349636958644295,-0.023429960042815445,0.0973015264147526,36.09446859390736,-100.26678939585686,80.21211738781929
2024-09-23 16:41:19.976372,36.54,35.926368,-0.003382661564999035,-0.023429960042815445,0.0973015264147526,36.09446859390736,-100.26678939585686,84.22370748782159
2024-09-23 16:41:19.988175,36.54,35.926368,-0.003382661564999035,-0.023181236725942318,0.09740101331113918,40.106058693909645,-100.26678939585686,84.22370748782159
2024-09-23 16:41:20.020427,36.54,35.926368,-0.003382661564999035,-0.023181236725942318,0.09740101331113918,40.106058693909645,-96.25519929585457,84.22370748782159
2024-09-23 16:41:20.032265,36.54,35.926418,-0.002785727465249955,-0.023479709566915436,0.09745075675933246,40.106058693909645,-96.25519929585457,80.21211738781929
2024-09-23 16:41:20.075309,36.54,35.926508,-0.003233425524256645,-0.023479709566915436,0.09745075675933246,40.106058693909645,-92.24360919585227,76.200527287817
2024-09-23 16:41:20.087658,36.54,35.926508,-0.003233425524256645,-0.02367869399252531,0.09745075675933246,40.106058693909645,-92.24360919585227,76.200527287817
2024-09-23 16:41:20.120779,36.54,35.926508,-0.003233425524256645,-0.02367869399252531,0.09695331012558621,36.09446859390736,-96.25519929585457,76.200527287817
2024-09-23 16:41:20.132301,36.54,35.926558,-0.0031836870127375577,-0.02367869399252531,0.09695331012558621,36.09446859390736,-96.25519929585457,72.1922225099802
2024-09-23 16:41:20.175660,36.54,35.926652,-0.0031836870127375577,-0.022833026512682618,0.09740101331113918,40.106058693909645,-96.25519929585457,80.21211738781929
2024-09-23 16:41:20.217640,36.54,35.926652,-0.002636491424507565,-0.023479709566915436,0.09715228999426605,40.106058693909645,-96.25519929585457,80.21211738781929
2024-09-23 16:41:20.229857,36.54,35.926652,-0.002636491424507565,-0.023479709566915436,0.09715228999426605,40.106058693909645,-96.25519929585457,80.21211738781929
2024-09-23 16:41:20.272879,36.54,35.926703,-0.0035318979854855937,-0.023778180888911878,0.09740101331113918,36.09446859390736,-96.25519929585457,80.21211738781929
2024-09-23 16:41:20.315665,38.79,35.926754,-0.003233425524256645,-0.023778180888911878,0.09740101331113918,36.09446859390736,-96.25519929585457,76.200527287817
2024-09-23 16:41:20.327604,38.79,35.926754,-0.003233425524256645,-0.023778180888911878,0.09745075675933246,44.11764879391193,-96.25519929585457,76.200527287817
2024-09-23 16:41:20.370892,38.79,35.926805,-0.0029847020175114316,-0.023230986250042305,0.0966050877605131,44.11764879391193,-96.25519929585457,80.21211738781929
2024-09-23 16:41:20.414252,38.79,35.926805,-0.0029847020175114316,-0.023230986250042305,0.0966050877605131,40.106058693909645,-84.22370748782159,80.21211738781929
2024-09-23 16:41:20.426046,38.79,35.926855,-0.0029847020175114316,-0.023230986250042305,0.0966050877605131,40.106058693909645,-84.22370748782159,80.21211738781929
2024-09-23 16:41:20.509027,38.79,35.926855,-0.0030841997366068195,-0.023429960042815445,0.0966050877605131,40.106058693909645,-84.22370748782159,80.21211738781929
2024-09-23 16:41:20.521148,38.79,35.926855,-0.0030841997366068195,-0.023429960042815445,0.09710254654607277,44.11764879391193,-96.25519929585457,76.200527287817
2024-09-23 16:41:20.564650,38.79,35.926906,-0.0030841997366068195,-0.02308174982955575,0.09750050628343246,40.106058693909645,-88.23529758782387,76.200527287817
2024-09-23 16:41:20.606900,38.79,35.926993,-0.0030841997366068195,-0.02308174982955575,0.09750050628343246,40.106058693909645,-88.23529758782387,80.21211738781929
2024-09-23 16:41:20.618093,38.79,35.926993,-0.0032831742888682963,-0.02338022115155219,0.09759999317981902,40.106058693909645,-88.23529758782387,80.21211738781929
2024-09-23 16:41:20.661065,38.79,35.927045,-0.0028852147413806935,-0.023330473146428877,0.09759999317981902,40.106058693909645,-96.25519929585457,84.22370748782159
2024-09-23 16:41:20.672907,38.79,35.927045,-0.0028852147413806935,-0.023330473146428877,0.09750050628343246,40.106058693909645,-96.25519929585457,84.22370748782159
2024-09-23 16:41:20.704461,38.79,35.927045,-0.0028852147413806935,-0.023330473146428877,0.09750050628343246,40.106058693909645,-92.24360919585227,84.22370748782159
2024-09-23 16:41:20.715648,38.79,35.927095,-0.003233425524256645,-0.023728432883788564,0.09750050628343246,40.106058693909645,-92.24360919585227,76.200527287817
2024-09-23 16:41:20.758687,38.79,35.927191,-0.0029847020175114316,-0.023728432883788564,0.09750050628343246,32.08287849390507,-96.25519929585457,76.200527287817
2024-09-23 16:41:20.801411,38.79,35.927191,-0.0029847020175114316,-0.022982261414192504,0.09710254654607277,32.08287849390507,-96.25519929585457,76.200527287817
2024-09-23 16:41:20.812672,38.79,35.927285,-0.0029847020175114316,-0.022982261414192504,0.09710254654607277,40.106058693909645,-96.25519929585457,76.200527287817
2024-09-23 16:41:20.855808,38.79,35.927285,-0.0029847020175114316,-0.02367869399252531,0.0973512698629459,40.106058693909645,-104.27510100388527,76.200527287817
2024-09-23 16:41:20.867450,38.79,35.927285,-0.0029847020175114316,-0.02367869399252531,0.0973512698629459,40.106058693909645,-104.27510100388527,76.200527287817
2024-09-23 16:41:20.899464,38.79,35.927337,-0.0029847020175114316,-0.02367869399252531,0.0973512698629459,40.106058693909645,-104.27510100388527,76.200527287817
2024-09-23 16:41:20.911185,38.79,35.927337,-0.0029847020175114316,-0.02303200030545576,0.0973015264147526,32.08287849390507,-104.27510100388527,76.200527287817
2024-09-23 16:41:20.953899,38.79,35.927388,-0.0035816467500972456,-0.023429960042815445,0.09680407370509965,36.09446859390736,-104.27510100388527,80.21211738781929
2024-09-23 16:41:20.996540,38.79,35.927388,-0.0035816467500972456,-0.023429960042815445,0.09680407370509965,36.09446859390736,-108.28669110388756,84.22370748782159
2024-09-23 16:41:21.008253,38.79,35.927438,-0.0034324103296106863,-0.023479709566915436,0.09680407370509965,36.09446859390736,-108.28669110388756,84.22370748782159
2024-09-23 16:41:21.050601,38.79,35.927489,-0.0027359787006383035,-0.023479709566915436,0.09680407370509965,48.12595698684454,-96.25519929585457,76.200527287817
2024-09-23 16:41:21.062212,38.79,35.927489,-0.0027359787006383035,-0.023280723622328886,0.09680407370509965,48.12595698684454,-96.25519929585457,76.200527287817
2024-09-23 16:41:21.093638,38.79,35.927489,-0.0027359787006383035,-0.023280723622328886,0.09745075675933246,36.09446859390736,-96.25519929585457,76.200527287817
2024-09-23 16:41:21.146611,38.79,35.92754,-0.0027359787006383035,-0.023280723622328886,0.09745075675933246,36.09446859390736,-100.26678939585686,80.21211738781929
2024-09-23 16:41:21.158668,38.79,35.92754,-0.0029847020175114316,-0.02293251340906919,0.0973015264147526,36.09446859390736,-100.26678939585686,80.21211738781929
2024-09-23 16:41:21.191938,38.79,35.92754,-0.0029847020175114316,-0.02293251340906919,0.0973015264147526,32.08287849390507,-92.24360919585227,80.21211738781929
2024-09-23 16:41:21.203240,38.79,35.927627,-0.0029847020175114316,-0.023728432883788564,0.0973015264147526,32.08287849390507,-92.24360919585227,84.22370748782159
2024-09-23 16:41:21.245646,38.79,35.927678,-0.0029847020175114316,-0.023728432883788564,0.09690356060148622,40.106058693909645,-100.26678939585686,76.200527287817
2024-09-23 16:41:21.257869,38.79,35.927678,-0.0028354659767690416,-0.023728432883788564,0.09690356060148622,40.106058693909645,-100.26678939585686,76.200527287817
2024-09-23 16:41:21.292114,38.79,35.927678,-0.0028354659767690416,-0.02362894446842532,0.0970030596496862,32.08287849390507,-100.26678939585686,76.200527287817
2024-09-23 16:41:21.303388,38.79,35.927729,-0.0028354659767690416,-0.02362894446842532,0.0970030596496862,32.08287849390507,-100.26678939585686,76.200527287817
2024-09-23 16:41:21.345989,39.77,35.927729,-0.0026862297461545674,-0.023181236725942318,0.0970030596496862,40.106058693909645,-100.26678939585686,80.21211738781929
2024-09-23 16:41:21.388771,39.77,35.927822,-0.0030841997366068195,-0.023181236725942318,0.0970030596496862,40.106058693909645,-100.26678939585686,80.21211738781929
2024-09-23 16:41:21.400303,39.77,35.927822,-0.0030841997366068195,-0.023181236725942318,0.09665483728461309,32.08287849390507,-96.25519929585457,80.21211738781929
2024-09-23 16:41:21.443366,39.77,35.927874,-0.0029349636958644295,-0.02293251340906919,0.0973015264147526,40.106058693909645,-96.25519929585457,76.200527287817
2024-09-23 16:41:21.485364,39.77,35.927924,-0.0029349636958644295,-0.02293251340906919,0.0973015264147526,40.106058693909645,-92.24360919585227,76.200527287817
2024-09-23 16:41:21.496558,39.77,35.927924,-0.0028354659767690416,-0.023330473146428877,0.09695331012558621,40.106058693909645,-92.24360919585227,76.200527287817
2024-09-23 16:41:21.540252,39.77,35.927975,-0.003631395514708897,-0.023330473146428877,0.09695331012558621,48.12595698684454,-92.24360919585227,80.21211738781929
2024-09-23 16:41:21.583414,39.77,35.927975,-0.003631395514708897,-0.023330473146428877,0.09745075675933246,40.106058693909645,-96.25519929585457,80.21211738781929
2024-09-23 16:41:21.594832,39.77,35.928026,-0.003382661564999035,-0.023330473146428877,0.09745075675933246,40.106058693909645,-96.25519929585457,84.22370748782159
2024-09-23 16:41:21.637575,39.77,35.928114,-0.003382661564999035,-0.02313149783467906,0.09690356060148622,40.106058693909645,-96.25519929585457,76.200527287817
2024-09-23 16:41:21.682286,39.77,35.928114,-0.0026862297461545674,-0.02278327698858263,0.09715228999426605,40.106058693909645,-96.25519929585457,76.200527287817
2024-09-23 16:41:21.693891,39.77,35.928114,-0.0026862297461545674,-0.02278327698858263,0.09715228999426605,44.11764879391193,-100.26678939585686,80.21211738781929
2024-09-23 16:41:21.725483,39.77,35.928166,-0.0026862297461545674,-0.02278327698858263,0.09715228999426605,44.11764879391193,-100.26678939585686,80.21211738781929
2024-09-23 16:41:21.737880,39.77,35.928166,-0.0030841997366068195,-0.0228827638849692,0.0970030596496862,32.08287849390507,-96.25519929585457,80.21211738781929
2024-09-23 16:41:21.779592,39.77,35.928216,-0.0030841997366068195,-0.02352945757203875,0.0970030596496862,32.08287849390507,-96.25519929585457,80.21211738781929
2024-09-23 16:41:21.791350,39.77,35.928216,-0.0030841997366068195,-0.02352945757203875,0.0973512698629459,36.09446859390736,-96.25519929585457,80.21211738781929
2024-09-23 16:41:21.823373,39.77,35.928216,-0.0030841997366068195,-0.02352945757203875,0.0973512698629459,36.09446859390736,-96.25519929585457,80.21211738781929
2024-09-23 16:41:21.834474,39.77,35.928267,-0.0036811340262279837,-0.023330473146428877,0.09745075675933246,36.09446859390736,-96.25519929585457,80.21211738781929
2024-09-23 16:41:21.877801,39.77,35.928318,-0.0036811340262279837,-0.023330473146428877,0.09745075675933246,36.09446859390736,-96.25519929585457,80.21211738781929
2024-09-23 16:41:21.889550,39.77,35.928318,-0.0025369937054121774,-0.02352945757203875,0.09745075675933246,36.09446859390736,-96.25519929585457,80.21211738781929
2024-09-23 16:41:21.923334,39.77,35.928318,-0.0025369937054121774,-0.02352945757203875,0.0970030596496862,36.09446859390736,-96.25519929585457,80.21211738781929
2024-09-23 16:41:21.934631,39.77,35.928368,-0.0037308827908396356,-0.02352945757203875,0.0970030596496862,36.09446859390736,-88.23529758782387,80.21211738781929
2024-09-23 16:41:21.976392,39.77,35.928368,-0.0037308827908396356,-0.02313149783467906,0.09720203344245934,48.12595698684454,-96.25519929585457,80.21211738781929
2024-09-23 16:41:21.988146,39.77,35.928455,-0.0037308827908396356,-0.02313149783467906,0.09720203344245934,48.12595698684454,-96.25519929585457,80.21211738781929
2024-09-23 16:41:22.019999,39.77,35.928455,-0.0036811340262279837,-0.02352945757203875,0.09720203344245934,48.12595698684454,-96.25519929585457,80.21211738781929
2024-09-23 16:41:22.031799,39.77,35.928455,-0.0036811340262279837,-0.02352945757203875,0.09690356060148622,36.09446859390736,-96.25519929585457,80.21211738781929
2024-09-23 16:41:22.074417,39.77,35.928507,-0.0029847020175114316,-0.02338022115155219,0.09705279702197278,44.11764879391193,-96.25519929585457,80.21211738781929
2024-09-23 16:41:22.087253,39.77,35.928507,-0.0029847020175114316,-0.02338022115155219,0.09705279702197278,44.11764879391193,-100.26678939585686,80.21211738781929
2024-09-23 16:41:22.120113,39.77,35.928558,-0.0028852147413806935,-0.02338022115155219,0.09705279702197278,44.11764879391193,-100.26678939585686,80.21211738781929
2024-09-23 16:41:22.131024,39.77,35.928558,-0.0028852147413806935,-0.022833026512682618,0.09665483728461309,40.106058693909645,-100.26678939585686,80.21211738781929
2024-09-23 16:41:22.173874,39.77,35.928608,-0.0025369937054121774,-0.02308174982955575,0.09715228999426605,40.106058693909645,-100.26678939585686,80.21211738781929
2024-09-23 16:41:22.216399,39.77,35.928608,-0.0025369937054121774,-0.02308174982955575,0.09715228999426605,36.09446859390736,-100.26678939585686,80.21211738781929
2024-09-23 16:41:22.227407,39.77,35.928659,-0.0032831742888682963,-0.02338022115155219,0.09715228999426605,36.09446859390736,-100.26678939585686,80.21211738781929
2024-09-23 16:41:22.269635,39.77,35.928659,-0.0032831742888682963,-0.02338022115155219,0.09750050628343246,32.08287849390507,-100.26678939585686,80.21211738781929
2024-09-23 16:41:22.312114,39.77,35.928659,-0.0032831742888682963,-0.02338022115155219,0.09750050628343246,32.08287849390507,-96.25519929585457,80.21211738781929
2024-09-23 16:41:22.323448,39.77,35.92871,-0.0029349636958644295,-0.02352945757203875,0.0976994861521123,32.08287849390507,-96.25519929585457,84.22370748782159
2024-09-23 16:41:22.365670,40.62,35.928797,-0.0029349636958644295,-0.02352945757203875,0.0976994861521123,44.11764879391193,-96.25519929585457,80.21211738781929
2024-09-23 16:41:22.376837,40.62,35.928797,-0.0030841997366068195,-0.023330473146428877,0.0976994861521123,44.11764879391193,-96.25519929585457,80.21211738781929
2024-09-23 16:41:22.461302,40.62,35.928797,-0.0030841997366068195,-0.023330473146428877,0.09774922960030558,40.106058693909645,-96.25519929585457,80.21211738781929
2024-09-23 16:41:22.472644,40.62,35.928848,-0.0030344509719951677,-0.023330473146428877,0.09774922960030558,40.106058693909645,-96.25519929585457,76.200527287817
2024-09-23 16:41:22.515679,40.62,35.928899,-0.0030344509719951677,-0.023230986250042305,0.09675432418099966,40.106058693909645,-96.25519929585457,84.22370748782159
2024-09-23 16:41:22.559283,40.62,35.928899,-0.0030344509719951677,-0.023181236725942318,0.09680407370509965,36.09446859390736,-96.25519929585457,84.22370748782159
2024-09-23 16:41:22.570916,40.62,35.928899,-0.0030344509719951677,-0.023181236725942318,0.09680407370509965,36.09446859390736,-100.26678939585686,76.200527287817
2024-09-23 16:41:22.602915,40.62,35.928992,-0.0030344509719951677,-0.023181236725942318,0.09680407370509965,36.09446859390736,-100.26678939585686,76.200527287817
2024-09-23 16:41:22.613979,40.62,35.928992,-0.002785727465249955,-0.02313149783467906,0.09690356060148622,36.09446859390736,-92.24360919585227,76.200527287817
2024-09-23 16:41:22.656230,40.62,35.929044,-0.003382661564999035,-0.02313149783467906,0.09690356060148622,36.09446859390736,-92.24360919585227,80.21211738781929
2024-09-23 16:41:22.668374,40.62,35.929044,-0.003382661564999035,-0.02362894446842532,0.09779897304849887,40.106058693909645,-92.24360919585227,80.21211738781929
2024-09-23 16:41:22.700660,40.62,35.929044,-0.003382661564999035,-0.02362894446842532,0.09779897304849887,40.106058693909645,-104.27510100388527,80.21211738781929
2024-09-23 16:41:22.712160,40.62,35.92914,-0.003233425524256645,-0.023479709566915436,0.09695331012558621,40.106058693909645,-104.27510100388527,80.21211738781929
2024-09-23 16:41:22.754945,40.62,35.92914,-0.003233425524256645,-0.023479709566915436,0.09695331012558621,40.106058693909645,-96.25519929585457,76.200527287817
2024-09-23 16:41:22.766398,40.62,35.92919,-0.003631395514708897,-0.02308174982955575,0.09695331012558621,40.106058693909645,-96.25519929585457,76.200527287817
2024-09-23 16:41:22.799226,40.62,35.92919,-0.003631395514708897,-0.02308174982955575,0.09740101331113918,40.106058693909645,-96.25519929585457,76.200527287817
2024-09-23 16:41:22.810632,40.62,35.929241,-0.0029349636958644295,-0.02308174982955575,0.09740101331113918,36.09446859390736,-96.25519929585457,80.21211738781929
2024-09-23 16:41:22.853768,40.62,35.929241,-0.0029349636958644295,-0.023230986250042305,0.09670458680871308,40.106058693909645,-100.26678939585686,72.1922225099802
2024-09-23 16:41:22.865332,40.62,35.929333,-0.0029349636958644295,-0.023230986250042305,0.09670458680871308,40.106058693909645,-100.26678939585686,72.1922225099802
2024-09-23 16:41:22.897863,40.62,35.929333,-0.0031836870127375577,-0.02303200030545576,0.09670458680871308,40.106058693909645,-100.26678939585686,72.1922225099802
2024-09-23 16:41:22.909314,40.62,35.929333,-0.0031836870127375577,-0.02303200030545576,0.09740101331113918,36.09446859390736,-96.25519929585457,80.21211738781929
2024-09-23 16:41:22.952413,40.62,35.929385,-0.003382661564999035,-0.023280723622328886,0.09685382322919964,28.07457030097246,-96.25519929585457,80.21211738781929
2024-09-23 16:41:22.964957,40.62,35.929385,-0.003382661564999035,-0.023280723622328886,0.09685382322919964,28.07457030097246,-96.25519929585457,80.21211738781929
2024-09-23 16:41:22.996531,40.62,35.929435,-0.0028852147413806935,-0.023280723622328886,0.09685382322919964,28.07457030097246,-96.25519929585457,80.21211738781929
2024-09-23 16:41:23.008392,40.62,35.929435,-0.0028852147413806935,-0.02338022115155219,0.09670458680871308,36.09446859390736,-96.25519929585457,80.21211738781929
2024-09-23 16:41:23.051531,40.62,35.929486,-0.003233425524256645,-0.02338022115155219,0.09740101331113918,36.09446859390736,-96.25519929585457,76.200527287817
2024-09-23 16:41:23.093296,40.62,35.929486,-0.003233425524256645,-0.02338022115155219,0.09740101331113918,36.09446859390736,-96.25519929585457,76.200527287817
2024-09-23 16:41:23.104452,40.62,35.929537,-0.002586742470023829,-0.023429960042815445,0.09740101331113918,36.09446859390736,-96.25519929585457,76.200527287817
2024-09-23 16:41:23.146811,40.62,35.929587,-0.002586742470023829,-0.023429960042815445,0.09675432418099966,40.106058693909645,-96.25519929585457,80.21211738781929
2024-09-23 16:41:23.158657,40.62,35.929587,-0.0029847020175114316,-0.023429960042815445,0.09675432418099966,40.106058693909645,-96.25519929585457,80.21211738781929
2024-09-23 16:41:23.191351,40.62,35.929587,-0.0029847020175114316,-0.02313149783467906,0.09670458680871308,40.106058693909645,-96.25519929585457,80.21211738781929
2024-09-23 16:41:23.203280,40.62,35.929674,-0.0029847020175114316,-0.02313149783467906,0.09670458680871308,40.106058693909645,-92.24360919585227,80.21211738781929
2024-09-23 16:41:23.246269,40.62,35.929674,-0.0032831742888682963,-0.02397715620066169,0.09745075675933246,44.11764879391193,-96.25519929585457,84.22370748782159
2024-09-23 16:41:23.288210,40.62,35.929726,-0.0024872551938930902,-0.02397715620066169,0.09745075675933246,44.11764879391193,-96.25519929585457,84.22370748782159
2024-09-23 16:41:23.301986,40.62,35.929726,-0.0024872551938930902,-0.02263404056809607,0.0973512698629459,36.09446859390736,-100.26678939585686,84.22370748782159
2024-09-23 16:41:23.335545,40.62,35.929726,-0.0024872551938930902,-0.02263404056809607,0.0973512698629459,36.09446859390736,-100.26678939585686,84.22370748782159
2024-09-23 16:41:23.347459,40.62,35.929776,-0.0031836870127375577,-0.02367869399252531,0.09685382322919964,40.106058693909645,-100.26678939585686,84.22370748782159
2024-09-23 16:41:23.390065,41.28,35.929827,-0.0029847020175114316,-0.023877669304275123,0.09685382322919964,40.106058693909645,-100.26678939585686,80.21211738781929
2024-09-23 16:41:23.402401,41.28,35.929827,-0.0029847020175114316,-0.023877669304275123,0.0973512698629459,40.106058693909645,-100.26678939585686,80.21211738781929
2024-09-23 16:41:23.434997,41.28,35.929827,-0.0029847020175114316,-0.023877669304275123,0.0973512698629459,44.11764879391193,-92.24360919585227,80.21211738781929
2024-09-23 16:41:23.446876,41.28,35.929878,-0.003233425524256645,-0.023429960042815445,0.0973512698629459,44.11764879391193,-92.24360919585227,88.23529758782387
2024-09-23 16:41:23.489682,41.28,35.929928,-0.0035816467500972456,-0.023429960042815445,0.0973015264147526,36.09446859390736,-96.25519929585457,80.21211738781929
2024-09-23 16:41:23.533137,41.28,35.929928,-0.0035816467500972456,-0.02293251340906919,0.0973015264147526,40.106058693909645,-96.25519929585457,80.21211738781929
2024-09-23 16:41:23.546006,41.28,35.930015,-0.0035816467500972456,-0.02293251340906919,0.0973015264147526,40.106058693909645,-100.26678939585686,80.21211738781929
2024-09-23 16:41:23.578935,41.28,35.930015,-0.0030344509719951677,-0.02293251340906919,0.0973015264147526,40.106058693909645,-100.26678939585686,80.21211738781929
2024-09-23 16:41:23.590800,41.28,35.930015,-0.0030344509719951677,-0.023181236725942318,0.09665483728461309,44.11764879391193,-100.26678939585686,76.200527287817
2024-09-23 16:41:23.633680,41.28,35.930067,-0.0029847020175114316,-0.023429960042815445,0.09665483728461309,44.11764879391193,-100.26678939585686,76.200527287817
2024-09-23 16:41:23.675991,41.28,35.930067,-0.0029847020175114316,-0.023429960042815445,0.09745075675933246,44.11764879391193,-100.26678939585686,76.200527287817
2024-09-23 16:41:23.687809,41.28,35.930118,-0.0031836870127375577,-0.023429960042815445,0.09745075675933246,40.106058693909645,-104.27510100388527,76.200527287817
2024-09-23 16:41:23.730163,41.28,35.930118,-0.0031836870127375577,-0.024076653729884996,0.09740101331113918,32.08287849390507,-100.26678939585686,76.200527287817
2024-09-23 16:41:23.741867,41.28,35.930168,-0.0031836870127375577,-0.024076653729884996,0.09740101331113918,32.08287849390507,-100.26678939585686,80.21211738781929
2024-09-23 16:41:23.774264,41.28,35.930168,-0.0034324103296106863,-0.024076653729884996,0.09740101331113918,32.08287849390507,-100.26678939585686,80.21211738781929
2024-09-23 16:41:23.785223,41.28,35.930168,-0.0034324103296106863,-0.023330473146428877,0.09759999317981902,36.09446859390736,-104.27510100388527,76.200527287817
2024-09-23 16:41:23.828511,41.28,35.930219,-0.0032831742888682963,-0.02367869399252531,0.09675432418099966,40.106058693909645,-104.27510100388527,76.200527287817
2024-09-23 16:41:23.840285,41.28,35.930219,-0.0032831742888682963,-0.02367869399252531,0.09675432418099966,40.106058693909645,-92.24360919585227,76.200527287817
2024-09-23 16:41:23.874462,41.28,35.93027,-0.0029349636958644295,-0.02367869399252531,0.09675432418099966,40.106058693909645,-92.24360919585227,80.21211738781929
2024-09-23 16:41:23.886873,41.28,35.93027,-0.0029349636958644295,-0.02338022115155219,0.09764974270391902,40.106058693909645,-92.24360919585227,80.21211738781929
2024-09-23 16:41:23.919664,41.28,35.93027,-0.0029349636958644295,-0.02338022115155219,0.09764974270391902,40.106058693909645,-92.24360919585227,80.21211738781929
2024-09-23 16:41:23.931040,41.28,35.930359,-0.0028354659767690416,-0.023778180888911878,0.0973512698629459,40.106058693909645,-92.24360919585227,76.200527287817
2024-09-23 16:41:23.974140,41.28,35.930409,-0.0028354659767690416,-0.023778180888911878,0.0973512698629459,44.11764879391193,-96.25519929585457,76.200527287817
2024-09-23 16:41:23.985555,41.28,35.930409,-0.0022385316871478774,-0.022833026512682618,0.0973512698629459,44.11764879391193,-96.25519929585457,76.200527287817
2024-09-23 16:41:24.017121,41.28,35.930409,-0.0022385316871478774,-0.022833026512682618,0.0973512698629459,44.11764879391193,-96.25519929585457,76.200527287817
2024-09-23 16:41:24.028931,41.28,35.93046,-0.0031339382481259063,-0.022833026512682618,0.0973512698629459,36.09446859390736,-96.25519929585457,76.200527287817
2024-09-23 16:41:24.071138,41.28,35.93046,-0.0031339382481259063,-0.023330473146428877,0.09670458680871308,40.106058693909645,-100.26678939585686,76.200527287817
2024-09-23 16:41:24.082767,41.28,35.930552,-0.0031339382481259063,-0.023330473146428877,0.09670458680871308,40.106058693909645,-100.26678939585686,80.21211738781929
2024-09-23 16:41:24.114340,41.28,35.930552,-0.003233425524256645,-0.023330473146428877,0.09670458680871308,40.106058693909645,-100.26678939585686,80.21211738781929
2024-09-23 16:41:24.125677,41.28,35.930552,-0.003233425524256645,-0.023728432883788564,0.09670458680871308,48.12595698684454,-88.23529758782387,84.22370748782159
2024-09-23 16:41:24.169961,41.28,35.930603,-0.002785727465249955,-0.02367869399252531,0.09680407370509965,44.11764879391193,-88.23529758782387,84.22370748782159
2024-09-23 16:41:24.181606,41.28,35.930603,-0.002785727465249955,-0.02367869399252531,0.09680407370509965,44.11764879391193,-88.23529758782387,84.22370748782159
2024-09-23 16:41:24.214189,41.28,35.930654,-0.002785727465249955,-0.02367869399252531,0.09680407370509965,44.11764879391193,-88.23529758782387,84.22370748782159
2024-09-23 16:41:24.225409,41.28,35.930654,-0.0031836870127375577,-0.022833026512682618,0.09705279702197278,40.106058693909645,-88.23529758782387,84.22370748782159
2024-09-23 16:41:24.268589,41.28,35.930705,-0.002785727465249955,-0.02367869399252531,0.09690356060148622,40.106058693909645,-96.25519929585457,84.22370748782159
2024-09-23 16:41:24.312192,41.28,35.930705,-0.002785727465249955,-0.02367869399252531,0.09690356060148622,40.106058693909645,-92.24360919585227,84.22370748782159
2024-09-23 16:41:24.323068,41.28,35.930755,-0.0028354659767690416,-0.02338022115155219,0.09690356060148622,40.106058693909645,-92.24360919585227,84.22370748782159
2024-09-23 16:41:24.365670,41.28,35.930806,-0.0028354659767690416,-0.02338022115155219,0.09725178296655933,36.09446859390736,-92.24360919585227,76.200527287817
2024-09-23 16:41:24.407803,41.93,35.930806,-0.0030841997366068195,-0.02338022115155219,0.09725178296655933,36.09446859390736,-92.24360919585227,76.200527287817
2024-09-23 16:41:24.419375,41.93,35.930806,-0.0030841997366068195,-0.02303200030545576,0.09740101331113918,40.106058693909645,-92.24360919585227,76.200527287817
2024-09-23 16:41:24.462404,41.93,35.930893,-0.0028852147413806935,-0.02293251340906919,0.09685382322919964,40.106058693909645,-92.24360919585227,76.200527287817
2024-09-23 16:41:24.473746,41.93,35.930893,-0.0028852147413806935,-0.02293251340906919,0.09685382322919964,40.106058693909645,-88.23529758782387,76.200527287817
2024-09-23 16:41:24.506211,41.93,35.930945,-0.0028852147413806935,-0.02293251340906919,0.09685382322919964,40.106058693909645,-88.23529758782387,80.21211738781929
2024-09-23 16:41:24.517540,41.93,35.930945,-0.0034324103296106863,-0.02303200030545576,0.0973015264147526,44.11764879391193,-88.23529758782387,80.21211738781929
2024-09-23 16:41:24.561011,41.93,35.930995,-0.0030841997366068195,-0.023927417309398437,0.09695331012558621,44.11764879391193,-100.26678939585686,84.22370748782159
2024-09-23 16:41:24.603370,41.93,35.930995,-0.0030841997366068195,-0.023927417309398437,0.09695331012558621,40.106058693909645,-100.26678939585686,84.22370748782159
2024-09-23 16:41:24.615231,41.93,35.931046,-0.003233425524256645,-0.023479709566915436,0.09695331012558621,40.106058693909645,-96.25519929585457,84.22370748782159
2024-09-23 16:41:24.658139,41.93,35.931046,-0.003233425524256645,-0.023479709566915436,0.09645586349183995,36.09446859390736,-96.25519929585457,76.200527287817
2024-09-23 16:41:24.670845,41.93,35.931097,-0.0032831742888682963,-0.023479709566915436,0.09645586349183995,36.09446859390736,-96.25519929585457,76.200527287817
2024-09-23 16:41:24.704045,41.93,35.931097,-0.0032831742888682963,-0.023778180888911878,0.09740101331113918,32.08287849390507,-96.25519929585457,76.200527287817
2024-09-23 16:41:24.715584,41.93,35.931186,-0.0032831742888682963,-0.023778180888911878,0.09740101331113918,32.08287849390507,-92.24360919585227,80.21211738781929
2024-09-23 16:41:24.759227,41.93,35.931186,-0.0029349636958644295,-0.022982261414192504,0.09690356060148622,40.106058693909645,-100.26678939585686,76.200527287817
2024-09-23 16:41:24.802711,41.93,35.931237,-0.0030344509719951677,-0.023579196463302005,0.0973015264147526,40.106058693909645,-100.26678939585686,76.200527287817
2024-09-23 16:41:24.813964,41.93,35.931237,-0.0030344509719951677,-0.023579196463302005,0.0973015264147526,36.09446859390736,-96.25519929585457,76.200527287817
2024-09-23 16:41:24.847329,41.93,35.931237,-0.0030344509719951677,-0.023579196463302005,0.0973015264147526,36.09446859390736,-96.25519929585457,80.21211738781929
2024-09-23 16:41:24.859096,41.93,35.931288,-0.0034324103296106863,-0.0228827638849692,0.0970030596496862,36.09446859390736,-96.25519929585457,80.21211738781929
2024-09-23 16:41:24.901986,41.93,35.931338,-0.0028852147413806935,-0.023429960042815445,0.0970030596496862,36.09446859390736,-88.23529758782387,72.1922225099802
2024-09-23 16:41:24.914104,41.93,35.931338,-0.0028852147413806935,-0.023429960042815445,0.09695331012558621,36.09446859390736,-88.23529758782387,72.1922225099802
2024-09-23 16:41:24.947200,41.93,35.931338,-0.0028852147413806935,-0.023429960042815445,0.09695331012558621,40.106058693909645,-92.24360919585227,72.1922225099802
2024-09-23 16:41:24.958532,41.93,35.931389,-0.0022385316871478774,-0.02313149783467906,0.09695331012558621,40.106058693909645,-92.24360919585227,72.1922225099802
2024-09-23 16:41:25.001569,41.93,35.93144,-0.0029349636958644295,-0.02313149783467906,0.0970030596496862,44.11764879391193,-96.25519929585457,80.21211738781929
2024-09-23 16:41:25.044231,41.93,35.93144,-0.0029349636958644295,-0.023579196463302005,0.09645586349183995,36.09446859390736,-96.25519929585457,80.21211738781929
2024-09-23 16:41:25.055623,41.93,35.931527,-0.0029349636958644295,-0.023579196463302005,0.09645586349183995,36.09446859390736,-100.26678939585686,72.1922225099802
2024-09-23 16:41:25.098842,41.93,35.931527,-0.002785727465249955,-0.023280723622328886,0.09670458680871308,44.11764879391193,-96.25519929585457,72.1922225099802
2024-09-23 16:41:25.140592,41.93,35.931579,-0.0029349636958644295,-0.023280723622328886,0.09670458680871308,44.11764879391193,-96.25519929585457,72.1922225099802
2024-09-23 16:41:25.151771,41.93,35.931579,-0.0029349636958644295,-0.02293251340906919,0.09774922960030558,40.106058693909645,-96.25519929585457,72.1922225099802
2024-09-23 16:41:25.195269,41.93,35.93163,-0.0030841997366068195,-0.023230986250042305,0.09685382322919964,32.08287849390507,-96.25519929585457,76.200527287817
2024-09-23 16:41:25.237698,41.93,35.93163,-0.0030841997366068195,-0.023230986250042305,0.09685382322919964,32.08287849390507,-92.24360919585227,80.21211738781929
2024-09-23 16:41:25.249117,41.93,35.93168,-0.0035318979854855937,-0.02303200030545576,0.09740101331113918,32.08287849390507,-92.24360919585227,80.21211738781929
2024-09-23 16:41:25.291121,41.93,35.931731,-0.0030344509719951677,-0.02303200030545576,0.09740101331113918,36.09446859390736,-104.27510100388527,76.200527287817
2024-09-23 16:41:25.303200,41.93,35.931731,-0.0030344509719951677,-0.022733528983459317,0.09740101331113918,36.09446859390736,-104.27510100388527,76.200527287817
2024-09-23 16:41:25.335398,41.93,35.931731,-0.0030344509719951677,-0.022733528983459317,0.09750050628343246,36.09446859390736,-104.27510100388527,76.200527287817
2024-09-23 16:41:25.346651,41.93,35.931782,-0.0030841997366068195,-0.022733528983459317,0.09750050628343246,36.09446859390736,-104.27510100388527,76.200527287817
2024-09-23 16:41:25.389304,41.93,35.931782,-0.0030841997366068195,-0.02352945757203875,0.09690356060148622,36.09446859390736,-100.26678939585686,76.200527287817
2024-09-23 16:41:25.401662,41.93,35.931868,-0.0030841997366068195,-0.02352945757203875,0.09690356060148622,36.09446859390736,-100.26678939585686,76.200527287817
2024-09-23 16:41:25.434016,42.35,35.931868,-0.0027359787006383035,-0.023579196463302005,0.09695331012558621,36.09446859390736,-100.26678939585686,76.200527287817
2024-09-23 16:41:25.486171,42.35,35.93192,-0.0030841997366068195,-0.023579196463302005,0.09695331012558621,44.11764879391193,-96.25519929585457,72.1922225099802
2024-09-23 16:41:25.497945,42.35,35.93192,-0.0030841997366068195,-0.02338022115155219,0.09695331012558621,44.11764879391193,-96.25519929585457,72.1922225099802
2024-09-23 16:41:25.530659,42.35,35.93192,-0.0030841997366068195,-0.02338022115155219,0.0973512698629459,32.08287849390507,-96.25519929585457,72.1922225099802
2024-09-23 16:41:25.543016,42.35,35.93197,-0.0035816467500972456,-0.02338022115155219,0.0973512698629459,32.08287849390507,-96.25519929585457,76.200527287817
2024-09-23 16:41:25.586003,42.35,35.932021,-0.0035816467500972456,-0.02308174982955575,0.09685382322919964,28.07457030097246,-96.25519929585457,84.22370748782159
2024-09-23 16:41:25.629154,42.35,35.932021,-0.003233425524256645,-0.02303200030545576,0.09685382322919964,28.07457030097246,-96.25519929585457,84.22370748782159
2024-09-23 16:41:25.641119,42.35,35.932021,-0.003233425524256645,-0.02303200030545576,0.09695331012558621,36.09446859390736,-100.26678939585686,76.200527287817
2024-09-23 16:41:25.684986,42.35,35.932072,-0.0032831742888682963,-0.02338022115155219,0.09655535038822652,36.09446859390736,-96.25519929585457,76.200527287817
2024-09-23 16:41:25.728465,42.35,35.932162,-0.0030344509719951677,-0.02338022115155219,0.09655535038822652,36.09446859390736,-96.25519929585457,76.200527287817
2024-09-23 16:41:25.739492,42.35,35.932162,-0.0030344509719951677,-0.023280723622328886,0.09715228999426605,32.08287849390507,-96.25519929585457,76.200527287817
2024-09-23 16:41:25.773612,42.35,35.932162,-0.0030344509719951677,-0.023280723622328886,0.09715228999426605,32.08287849390507,-88.23529758782387,76.200527287817
2024-09-23 16:41:25.785295,42.35,35.932213,-0.0029847020175114316,-0.023280723622328886,0.09695331012558621,32.08287849390507,-88.23529758782387,76.200527287817
2024-09-23 16:41:25.827617,42.35,35.932263,-0.0023380189632786156,-0.023280723622328886,0.09695331012558621,40.106058693909645,-92.24360919585227,88.23529758782387
2024-09-23 16:41:25.839494,42.35,35.932263,-0.0023380189632786156,-0.02352945757203875,0.09695331012558621,40.106058693909645,-92.24360919585227,88.23529758782387
2024-09-23 16:41:25.871327,42.35,35.932263,-0.0023380189632786156,-0.02352945757203875,0.09695331012558621,40.106058693909645,-92.24360919585227,88.23529758782387
2024-09-23 16:41:25.882466,42.35,35.932314,-0.0029847020175114316,-0.02352945757203875,0.09695331012558621,40.106058693909645,-92.24360919585227,84.22370748782159
2024-09-23 16:41:25.926448,42.35,35.932314,-0.0029847020175114316,-0.023181236725942318,0.09745075675933246,32.08287849390507,-100.26678939585686,80.21211738781929
2024-09-23 16:41:25.937809,42.35,35.932404,-0.0029847020175114316,-0.023181236725942318,0.09745075675933246,32.08287849390507,-100.26678939585686,80.21211738781929
2024-09-23 16:41:25.971103,42.35,35.932404,-0.0029847020175114316,-0.02293251340906919,0.0970030596496862,32.08287849390507,-100.26678939585686,80.21211738781929
2024-09-23 16:41:25.982495,42.35,35.932404,-0.0029847020175114316,-0.02293251340906919,0.0970030596496862,44.11764879391193,-96.25519929585457,80.21211738781929
2024-09-23 16:41:26.024515,42.35,35.932456,-0.0033329230534799477,-0.02293251340906919,0.09725178296655933,32.08287849390507,-92.24360919585227,80.21211738781929
2024-09-23 16:41:26.068141,42.35,35.932506,-0.0029349636958644295,-0.02293251340906919,0.09725178296655933,32.08287849390507,-92.24360919585227,80.21211738781929
2024-09-23 16:41:26.079079,42.35,35.932506,-0.0029349636958644295,-0.023181236725942318,0.09690356060148622,32.08287849390507,-92.24360919585227,80.21211738781929
2024-09-23 16:41:26.121444,42.35,35.932506,-0.0029349636958644295,-0.023181236725942318,0.09690356060148622,40.106058693909645,-92.24360919585227,80.21211738781929
2024-09-23 16:41:26.164159,42.35,35.932506,-0.0029349636958644295,-0.023181236725942318,0.09690356060148622,40.106058693909645,-96.25519929585457,80.21211738781929
2024-09-23 16:41:26.175982,42.35,35.932557,-0.002785727465249955,-0.023230986250042305,0.09755024973162574,40.106058693909645,-96.25519929585457,80.21211738781929
2024-09-23 16:41:26.218770,42.35,35.932608,-0.0029349636958644295,-0.023230986250042305,0.09755024973162574,40.106058693909645,-96.25519929585457,80.21211738781929
2024-09-23 16:41:26.230450,42.35,35.932608,-0.0029349636958644295,-0.023230986250042305,0.09755024973162574,40.106058693909645,-96.25519929585457,80.21211738781929
2024-09-23 16:41:26.262840,42.35,35.932608,-0.0029349636958644295,-0.023230986250042305,0.09710254654607277,40.106058693909645,-92.24360919585227,80.21211738781929
2024-09-23 16:41:26.274730,42.35,35.932658,-0.002387757474797703,-0.023230986250042305,0.09710254654607277,40.106058693909645,-92.24360919585227,72.1922225099802
2024-09-23 16:41:26.318109,42.35,35.932746,-0.002387757474797703,-0.02338022115155219,0.09685382322919964,40.106058693909645,-100.26678939585686,76.200527287817
2024-09-23 16:41:26.360128,42.35,35.932746,-0.0032831742888682963,-0.023330473146428877,0.09750050628343246,40.106058693909645,-100.26678939585686,76.200527287817
2024-09-23 16:41:26.371216,42.35,35.932746,-0.0032831742888682963,-0.023330473146428877,0.09750050628343246,40.106058693909645,-96.25519929585457,76.200527287817
2024-09-23 16:41:26.414116,42.35,35.932844,-0.0029847020175114316,-0.022982261414192504,0.09680407370509965,32.08287849390507,-96.25519929585457,76.200527287817
2024-09-23 16:41:26.456865,42.31,35.932895,-0.0029847020175114316,-0.022982261414192504,0.09680407370509965,32.08287849390507,-96.25519929585457,76.200527287817
2024-09-23 16:41:26.468212,42.31,35.932895,-0.0035816467500972456,-0.023181236725942318,0.0970030596496862,32.08287849390507,-96.25519929585457,76.200527287817
2024-09-23 16:41:26.510533,42.31,35.932946,-0.0031836870127375577,-0.02367869399252531,0.0970030596496862,32.08287849390507,-100.26678939585686,80.21211738781929
2024-09-23 16:41:26.522471,42.31,35.932946,-0.0031836870127375577,-0.02367869399252531,0.09680407370509965,32.08287849390507,-100.26678939585686,80.21211738781929
2024-09-23 16:41:26.556200,42.31,35.932946,-0.0031836870127375577,-0.02367869399252531,0.09680407370509965,40.106058693909645,-108.28669110388756,68.18063240997792
2024-09-23 16:41:26.567994,42.31,35.932996,-0.0031339382481259063,-0.023330473146428877,0.09680407370509965,40.106058693909645,-108.28669110388756,68.18063240997792
2024-09-23 16:41:26.600600,42.31,35.932996,-0.0031339382481259063,-0.023330473146428877,0.0973015264147526,40.106058693909645,-108.28669110388756,68.18063240997792
2024-09-23 16:41:26.612056,42.31,35.933047,-0.0030841997366068195,-0.023330473146428877,0.0973015264147526,44.11764879391193,-104.27510100388527,76.200527287817
2024-09-23 16:41:26.654157,42.31,35.933047,-0.0030841997366068195,-0.023330473146428877,0.09705279702197278,28.07457030097246,-100.26678939585686,76.200527287817
2024-09-23 16:41:26.665899,42.31,35.933136,-0.0030841997366068195,-0.023330473146428877,0.09705279702197278,28.07457030097246,-100.26678939585686,80.21211738781929
2024-09-23 16:41:26.749428,42.31,35.933136,-0.0024872551938930902,-0.02313149783467906,0.09705279702197278,28.07457030097246,-100.26678939585686,80.21211738781929
2024-09-23 16:41:26.761385,42.31,35.933136,-0.0024872551938930902,-0.02313149783467906,0.09695331012558621,32.08287849390507,-104.27510100388527,68.18063240997792
2024-09-23 16:41:26.804920,42.31,35.933187,-0.0033329230534799477,-0.02293251340906919,0.0970030596496862,36.09446859390736,-96.25519929585457,68.18063240997792
2024-09-23 16:41:26.847875,42.31,35.933238,-0.0031339382481259063,-0.02293251340906919,0.0970030596496862,36.09446859390736,-96.25519929585457,76.200527287817
2024-09-23 16:41:26.859760,42.31,35.933238,-0.0031339382481259063,-0.023479709566915436,0.09690356060148622,44.11764879391193,-96.25519929585457,76.200527287817
2024-09-23 16:41:26.901867,42.31,35.933288,-0.0028852147413806935,-0.02338022115155219,0.09710254654607277,44.11764879391193,-100.26678939585686,80.21211738781929
2024-09-23 16:41:26.944280,42.31,35.933288,-0.0028852147413806935,-0.02338022115155219,0.09710254654607277,36.09446859390736,-96.25519929585457,80.21211738781929
2024-09-23 16:41:26.955813,42.31,35.933339,-0.0031836870127375577,-0.02352945757203875,0.09710254654607277,36.09446859390736,-96.25519929585457,80.21211738781929
2024-09-23 16:41:26.998124,42.31,35.933431,-0.0031836870127375577,-0.02352945757203875,0.09720203344245934,32.08287849390507,-88.23529758782387,80.21211738781929
2024-09-23 16:41:27.009550,42.31,35.933431,-0.003382661564999035,-0.02352945757203875,0.09720203344245934,32.08287849390507,-88.23529758782387,80.21211738781929
2024-09-23 16:41:27.042181,42.31,35.933431,-0.003382661564999035,-0.023330473146428877,0.09755024973162574,32.08287849390507,-88.23529758782387,80.21211738781929
2024-09-23 16:41:27.053543,42.31,35.933526,-0.003382661564999035,-0.023330473146428877,0.09755024973162574,32.08287849390507,-92.24360919585227,76.200527287817
2024-09-23 16:41:27.096046,42.31,35.933526,-0.0030344509719951677,-0.023429960042815445,0.09745075675933246,40.106058693909645,-104.27510100388527,76.200527287817
2024-09-23 16:41:27.138915,42.31,35.933577,-0.0030344509719951677,-0.023429960042815445,0.09745075675933246,40.106058693909645,-104.27510100388527,76.200527287817
2024-09-23 16:41:27.150457,42.31,35.933577,-0.0030344509719951677,-0.02338022115155219,0.09789846602079214,40.106058693909645,-100.26678939585686,76.200527287817
2024-09-23 16:41:27.193746,42.31,35.933628,-0.0027359787006383035,-0.02362894446842532,0.09725178296655933,40.106058693909645,-100.26678939585686,76.200527287817
2024-09-23 16:41:27.236134,42.31,35.933628,-0.0027359787006383035,-0.02362894446842532,0.09725178296655933,40.106058693909645,-100.26678939585686,76.200527287817
2024-09-23 16:41:27.247243,42.31,35.933678,-0.0030344509719951677,-0.023330473146428877,0.09715228999426605,40.106058693909645,-100.26678939585686,76.200527287817
2024-09-23 16:41:27.289970,42.31,35.933729,-0.002785727465249955,-0.023330473146428877,0.09715228999426605,36.09446859390736,-100.26678939585686,80.21211738781929
2024-09-23 16:41:27.301598,42.31,35.933729,-0.002785727465249955,-0.023181236725942318,0.09715228999426605,36.09446859390736,-100.26678939585686,80.21211738781929
2024-09-23 16:41:27.334402,42.31,35.933729,-0.002785727465249955,-0.023181236725942318,0.09759999317981902,36.09446859390736,-100.26678939585686,80.21211738781929
2024-09-23 16:41:27.345472,42.31,35.93378,-0.0029847020175114316,-0.023181236725942318,0.09759999317981902,36.09446859390736,-92.24360919585227,84.22370748782159
2024-09-23 16:41:27.388048,42.31,35.93378,-0.0029847020175114316,-0.023479709566915436,0.09759999317981902,44.11764879391193,-100.26678939585686,80.21211738781929
2024-09-23 16:41:27.400397,42.31,35.933867,-0.0029847020175114316,-0.023479709566915436,0.09759999317981902,44.11764879391193,-100.26678939585686,80.21211738781929
2024-09-23 16:41:27.432238,42.31,35.933867,-0.0030344509719951677,-0.023280723622328886,0.09759999317981902,44.11764879391193,-100.26678939585686,80.21211738781929
2024-09-23 16:41:27.443780,42.31,35.933867,-0.0030344509719951677,-0.023280723622328886,0.09745075675933246,36.09446859390736,-96.25519929585457,76.200527287817
2024-09-23 16:41:27.486810,42.35,35.933918,-0.0028354659767690416,-0.02367869399252531,0.09720203344245934,36.09446859390736,-96.25519929585457,76.200527287817
2024-09-23 16:41:27.498291,42.35,35.933918,-0.0028354659767690416,-0.02367869399252531,0.09720203344245934,36.09446859390736,-92.24360919585227,76.200527287817
2024-09-23 16:41:27.531512,42.35,35.933969,-0.0026862297461545674,-0.02367869399252531,0.09720203344245934,36.09446859390736,-92.24360919585227,76.200527287817
2024-09-23 16:41:27.542542,42.35,35.933969,-0.0026862297461545674,-0.023181236725942318,0.0973015264147526,32.08287849390507,-92.24360919585227,76.200527287817
2024-09-23 16:41:27.584832,42.35,35.93402,-0.0031836870127375577,-0.02338022115155219,0.09690356060148622,32.08287849390507,-92.24360919585227,72.1922225099802
2024-09-23 16:41:27.626591,42.35,35.93402,-0.0031836870127375577,-0.02338022115155219,0.09690356060148622,32.08287849390507,-100.26678939585686,72.1922225099802
2024-09-23 16:41:27.638029,42.35,35.93407,-0.0030841997366068195,-0.02263404056809607,0.09690356060148622,32.08287849390507,-100.26678939585686,80.21211738781929
2024-09-23 16:41:27.680787,42.35,35.934121,-0.0030841997366068195,-0.02263404056809607,0.09680407370509965,36.09446859390736,-96.25519929585457,84.22370748782159
2024-09-23 16:41:27.692561,42.35,35.934121,-0.0030841997366068195,-0.02263404056809607,0.09680407370509965,36.09446859390736,-96.25519929585457,84.22370748782159
2024-09-23 16:41:27.724173,42.35,35.934121,-0.0030841997366068195,-0.02303200030545576,0.0973512698629459,36.09446859390736,-96.25519929585457,84.22370748782159
2024-09-23 16:41:27.735538,42.35,35.934208,-0.0030841997366068195,-0.02303200030545576,0.0973512698629459,36.09446859390736,-96.25519929585457,76.200527287817
2024-09-23 16:41:27.778951,42.35,35.934208,-0.0037308827908396356,-0.023479709566915436,0.0970030596496862,40.106058693909645,-100.26678939585686,72.1922225099802
2024-09-23 16:41:27.822060,42.35,35.93426,-0.0029847020175114316,-0.023479709566915436,0.0970030596496862,40.106058693909645,-100.26678939585686,72.1922225099802
2024-09-23 16:41:27.833315,42.35,35.93426,-0.0029847020175114316,-0.02313149783467906,0.09710254654607277,40.106058693909645,-92.24360919585227,72.1922225099802
2024-09-23 16:41:27.875494,42.35,35.93431,-0.0035318979854855937,-0.023230986250042305,0.09755024973162574,40.106058693909645,-92.24360919585227,72.1922225099802
2024-09-23 16:41:27.887562,42.35,35.93431,-0.0035318979854855937,-0.023230986250042305,0.09755024973162574,40.106058693909645,-92.24360919585227,72.1922225099802
2024-09-23 16:41:27.920628,42.35,35.934361,-0.0035318979854855937,-0.023230986250042305,0.09755024973162574,40.106058693909645,-100.26678939585686,76.200527287817
2024-09-23 16:41:27.932338,42.35,35.934361,-0.0031339382481259063,-0.023181236725942318,0.09670458680871308,40.106058693909645,-100.26678939585686,76.200527287817
2024-09-23 16:41:27.974845,42.35,35.934412,-0.0032831742888682963,-0.02338022115155219,0.09670458680871308,40.106058693909645,-92.24360919585227,80.21211738781929
2024-09-23 16:41:28.017477,42.35,35.934412,-0.0032831742888682963,-0.02338022115155219,0.09774922960030558,40.106058693909645,-96.25519929585457,80.21211738781929
2024-09-23 16:41:28.029775,42.35,35.934462,-0.0029349636958644295,-0.02338022115155219,0.09774922960030558,40.106058693909645,-96.25519929585457,72.1922225099802
2024-09-23 16:41:28.072449,42.35,35.934549,-0.0029349636958644295,-0.02293251340906919,0.09685382322919964,36.09446859390736,-92.24360919585227,76.200527287817
2024-09-23 16:41:28.116045,42.35,35.934549,-0.002586742470023829,-0.02313149783467906,0.0973512698629459,36.09446859390736,-92.24360919585227,76.200527287817
2024-09-23 16:41:28.127250,42.35,35.934549,-0.002586742470023829,-0.02313149783467906,0.0973512698629459,36.09446859390736,-92.24360919585227,84.22370748782159
2024-09-23 16:41:28.170252,42.35,35.934601,-0.0030344509719951677,-0.02367869399252531,0.09685382322919964,48.12595698684454,-96.25519929585457,84.22370748782159
2024-09-23 16:41:28.212650,42.35,35.934652,-0.002636491424507565,-0.02367869399252531,0.09685382322919964,48.12595698684454,-96.25519929585457,76.200527287817
2024-09-23 16:41:28.223597,42.35,35.934652,-0.002636491424507565,-0.02313149783467906,0.0976994861521123,36.09446859390736,-96.25519929585457,76.200527287817
2024-09-23 16:41:28.265815,42.35,35.934702,-0.0033329230534799477,-0.023181236725942318,0.0976994861521123,36.09446859390736,-96.25519929585457,80.21211738781929
2024-09-23 16:41:28.277812,42.35,35.934702,-0.0033329230534799477,-0.023181236725942318,0.09755024973162574,36.09446859390736,-96.25519929585457,80.21211738781929
2024-09-23 16:41:28.311472,42.35,35.934702,-0.0033329230534799477,-0.023181236725942318,0.09755024973162574,32.08287849390507,-92.24360919585227,84.22370748782159
2024-09-23 16:41:28.323129,42.35,35.934753,-0.0024872551938930902,-0.02338022115155219,0.09755024973162574,32.08287849390507,-92.24360919585227,84.22370748782159
2024-09-23 16:41:28.366063,42.35,35.934804,-0.0036811340262279837,-0.02338022115155219,0.09690356060148622,44.11764879391193,-96.25519929585457,80.21211738781929
2024-09-23 16:41:28.407783,42.35,35.934804,-0.0036811340262279837,-0.02293251340906919,0.09774922960030558,40.106058693909645,-96.25519929585457,80.21211738781929
2024-09-23 16:41:28.419033,42.35,35.934891,-0.0036811340262279837,-0.02293251340906919,0.09774922960030558,40.106058693909645,-96.25519929585457,76.200527287817
2024-09-23 16:41:28.461356,42.35,35.934891,-0.0028852147413806935,-0.023280723622328886,0.09745075675933246,44.11764879391193,-100.26678939585686,76.200527287817
2024-09-23 16:41:28.473191,42.35,35.934891,-0.0028852147413806935,-0.023280723622328886,0.09745075675933246,44.11764879391193,-100.26678939585686,76.200527287817
2024-09-23 16:41:28.505900,42.44,35.934942,-0.0026862297461545674,-0.023728432883788564,0.09745075675933246,44.11764879391193,-100.26678939585686,76.200527287817
2024-09-23 16:41:28.517365,42.44,35.934942,-0.0026862297461545674,-0.023728432883788564,0.09705279702197278,40.106058693909645,-100.26678939585686,76.200527287817
2024-09-23 16:41:28.560185,42.44,35.934993,-0.0030344509719951677,-0.023330473146428877,0.0973512698629459,40.106058693909645,-100.26678939585686,80.21211738781929
2024-09-23 16:41:28.602057,42.44,35.934993,-0.0030344509719951677,-0.023330473146428877,0.0973512698629459,40.106058693909645,-96.25519929585457,80.21211738781929
2024-09-23 16:41:28.613195,42.44,35.935043,-0.0031836870127375577,-0.023330473146428877,0.09745075675933246,40.106058693909645,-96.25519929585457,80.21211738781929
2024-09-23 16:41:28.656302,42.44,35.935094,-0.0029847020175114316,-0.023280723622328886,0.09745075675933246,48.12595698684454,-104.27510100388527,76.200527287817
2024-09-23 16:41:28.699657,42.44,35.935094,-0.0029847020175114316,-0.023280723622328886,0.09750050628343246,40.106058693909645,-104.27510100388527,76.200527287817
2024-09-23 16:41:28.710793,42.44,35.935145,-0.002288270198666964,-0.023280723622328886,0.09750050628343246,40.106058693909645,-100.26678939585686,80.21211738781929
2024-09-23 16:41:28.753138,42.44,35.935145,-0.002288270198666964,-0.022982261414192504,0.09710254654607277,36.09446859390736,-96.25519929585457,80.21211738781929
2024-09-23 16:41:28.765145,42.44,35.935232,-0.002288270198666964,-0.022982261414192504,0.09710254654607277,36.09446859390736,-96.25519929585457,80.21211738781929
2024-09-23 16:41:28.798502,42.44,35.935232,-0.0031836870127375577,-0.023579196463302005,0.09705279702197278,36.09446859390736,-96.25519929585457,80.21211738781929
2024-09-23 16:41:28.809994,42.44,35.935232,-0.0031836870127375577,-0.023579196463302005,0.09705279702197278,36.09446859390736,-96.25519929585457,88.23529758782387
2024-09-23 16:41:28.852402,42.44,35.935283,-0.003233425524256645,-0.02338022115155219,0.09705279702197278,32.08287849390507,-96.25519929585457,88.23529758782387
2024-09-23 16:41:28.895358,42.44,35.935334,-0.0024872551938930902,-0.02338022115155219,0.09705279702197278,32.08287849390507,-96.25519929585457,88.23529758782387
2024-09-23 16:41:28.907508,42.44,35.935334,-0.0024872551938930902,-0.02303200030545576,0.09745075675933246,48.12595698684454,-96.25519929585457,88.23529758782387
2024-09-23 16:41:28.950566,42.44,35.935385,-0.0027359787006383035,-0.02352945757203875,0.09740101331113918,48.12595698684454,-104.27510100388527,76.200527287817
2024-09-23 16:41:28.994397,42.44,35.935385,-0.0027359787006383035,-0.02352945757203875,0.09740101331113918,32.08287849390507,-92.24360919585227,72.1922225099802
2024-09-23 16:41:29.005459,42.44,35.935435,-0.003233425524256645,-0.023230986250042305,0.09740101331113918,32.08287849390507,-92.24360919585227,72.1922225099802
2024-09-23 16:41:29.038777,42.44,35.935435,-0.003233425524256645,-0.023230986250042305,0.09705279702197278,32.08287849390507,-92.24360919585227,72.1922225099802
2024-09-23 16:41:29.049892,42.44,35.935486,-0.003233425524256645,-0.023230986250042305,0.09705279702197278,40.106058693909645,-100.26678939585686,80.21211738781929
2024-09-23 16:41:29.092095,42.44,35.935486,-0.003233425524256645,-0.02308174982955575,0.09794820946898543,36.09446859390736,-96.25519929585457,80.21211738781929
2024-09-23 16:41:29.103438,42.44,35.935573,-0.003233425524256645,-0.02308174982955575,0.09794820946898543,36.09446859390736,-96.25519929585457,84.22370748782159
2024-09-23 16:41:29.135322,42.44,35.935573,-0.0031836870127375577,-0.02308174982955575,0.09794820946898543,36.09446859390736,-96.25519929585457,84.22370748782159
2024-09-23 16:41:29.148736,42.44,35.935573,-0.0031836870127375577,-0.02303200030545576,0.09725178296655933,32.08287849390507,-92.24360919585227,84.22370748782159
2024-09-23 16:41:29.191366,42.44,35.935625,-0.0028852147413806935,-0.02313149783467906,0.09740101331113918,32.08287849390507,-92.24360919585227,80.21211738781929
2024-09-23 16:41:29.202998,42.44,35.935625,-0.0028852147413806935,-0.02313149783467906,0.09740101331113918,32.08287849390507,-92.24360919585227,80.21211738781929
2024-09-23 16:41:29.235921,42.44,35.935625,-0.0028852147413806935,-0.02313149783467906,0.09740101331113918,32.08287849390507,-100.26678939585686,80.21211738781929
2024-09-23 16:41:29.247060,42.44,35.935676,-0.0029349636958644295,-0.022982261414192504,0.09745075675933246,32.08287849390507,-100.26678939585686,80.21211738781929
2024-09-23 16:41:29.290655,42.44,35.935727,-0.003233425524256645,-0.023827930413011865,0.09745075675933246,44.11764879391193,-96.25519929585457,80.21211738781929
2024-09-23 16:41:29.332524,42.44,35.935727,-0.003233425524256645,-0.023827930413011865,0.09695331012558621,44.11764879391193,-96.25519929585457,80.21211738781929
2024-09-23 16:41:29.343837,42.44,35.935777,-0.0031836870127375577,-0.023827930413011865,0.09695331012558621,44.11764879391193,-96.25519929585457,80.21211738781929
2024-09-23 16:41:29.385851,42.44,35.935777,-0.0031836870127375577,-0.02303200030545576,0.0973015264147526,36.09446859390736,-100.26678939585686,80.21211738781929
2024-09-23 16:41:29.397948,42.44,35.935866,-0.0031836870127375577,-0.02303200030545576,0.0973015264147526,36.09446859390736,-100.26678939585686,80.21211738781929
2024-09-23 16:41:29.430572,42.44,35.935866,-0.0028354659767690416,-0.02308174982955575,0.0973015264147526,36.09446859390736,-100.26678939585686,80.21211738781929
2024-09-23 16:41:29.441678,42.44,35.935866,-0.0028354659767690416,-0.02308174982955575,0.09675432418099966,44.11764879391193,-104.27510100388527,84.22370748782159
2024-09-23 16:41:29.484506,42.44,35.935917,-0.0029847020175114316,-0.02313149783467906,0.0973015264147526,32.08287849390507,-104.27510100388527,84.22370748782159
2024-09-23 16:41:29.496745,42.44,35.935917,-0.0029847020175114316,-0.02313149783467906,0.0973015264147526,32.08287849390507,-92.24360919585227,84.22370748782159
2024-09-23 16:41:29.530928,43.27,35.935968,-0.0032831742888682963,-0.02313149783467906,0.0973015264147526,32.08287849390507,-92.24360919585227,84.22370748782159
2024-09-23 16:41:29.542182,43.27,35.935968,-0.0032831742888682963,-0.02367869399252531,0.0970030596496862,40.106058693909645,-92.24360919585227,84.22370748782159
2024-09-23 16:41:29.574327,43.27,35.935968,-0.0032831742888682963,-0.02367869399252531,0.0970030596496862,40.106058693909645,-100.26678939585686,84.22370748782159
2024-09-23 16:41:29.586251,43.27,35.936018,-0.003382661564999035,-0.02308174982955575,0.09725178296655933,40.106058693909645,-100.26678939585686,80.21211738781929
2024-09-23 16:41:29.628989,43.27,35.936069,-0.003382661564999035,-0.02308174982955575,0.09725178296655933,36.09446859390736,-104.27510100388527,76.200527287817
2024-09-23 16:41:29.641082,43.27,35.936069,-0.0026862297461545674,-0.02352945757203875,0.09725178296655933,36.09446859390736,-104.27510100388527,76.200527287817
2024-09-23 16:41:29.674845,43.27,35.936069,-0.0026862297461545674,-0.02352945757203875,0.09710254654607277,40.106058693909645,-104.27510100388527,76.200527287817
2024-09-23 16:41:29.686534,43.27,35.93612,-0.0027359787006383035,-0.02352945757203875,0.09710254654607277,40.106058693909645,-92.24360919585227,76.200527287817
2024-09-23 16:41:29.728933,43.27,35.936207,-0.0027359787006383035,-0.023230986250042305,0.09680407370509965,40.106058693909645,-92.24360919585227,76.200527287817
2024-09-23 16:41:29.771312,43.27,35.936207,-0.0027359787006383035,-0.02293251340906919,0.09680407370509965,40.106058693909645,-92.24360919585227,76.200527287817
2024-09-23 16:41:29.783031,43.27,35.936207,-0.0027359787006383035,-0.02293251340906919,0.09720203344245934,44.11764879391193,-96.25519929585457,76.200527287817
2024-09-23 16:41:29.825806,43.27,35.936258,-0.0030841997366068195,-0.02308174982955575,0.09779897304849887,48.12595698684454,-96.25519929585457,76.200527287817
2024-09-23 16:41:29.837818,43.27,35.936258,-0.0030841997366068195,-0.02308174982955575,0.09779897304849887,48.12595698684454,-104.27510100388527,76.200527287817
2024-09-23 16:41:29.870919,43.27,35.936309,-0.003482159473966507,-0.02308174982955575,0.09779897304849887,48.12595698684454,-104.27510100388527,64.16903547978401
2024-09-23 16:41:29.882388,43.27,35.936309,-0.003482159473966507,-0.023479709566915436,0.09740101331113918,44.11764879391193,-104.27510100388527,64.16903547978401
2024-09-23 16:41:29.925348,43.27,35.93636,-0.003233425524256645,-0.023927417309398437,0.09764974270391902,44.11764879391193,-104.27510100388527,76.200527287817
2024-09-23 16:41:29.968317,43.27,35.93636,-0.003233425524256645,-0.023927417309398437,0.09764974270391902,40.106058693909645,-96.25519929585457,72.1922225099802
2024-09-23 16:41:29.979862,43.27,35.93641,-0.0030841997366068195,-0.023330473146428877,0.09764974270391902,40.106058693909645,-96.25519929585457,72.1922225099802
2024-09-23 16:41:30.022297,43.27,35.936461,-0.0029349636958644295,-0.023330473146428877,0.09710254654607277,40.106058693909645,-96.25519929585457,80.21211738781929
2024-09-23 16:41:30.066199,43.27,35.936461,-0.0029349636958644295,-0.022833026512682618,0.09740101331113918,32.08287849390507,-96.25519929585457,80.21211738781929
2024-09-23 16:41:30.077861,43.27,35.936548,-0.0029349636958644295,-0.022833026512682618,0.09740101331113918,32.08287849390507,-92.24360919585227,76.200527287817
2024-09-23 16:41:30.111229,43.27,35.936548,-0.003482159473966507,-0.022833026512682618,0.09740101331113918,32.08287849390507,-92.24360919585227,76.200527287817
2024-09-23 16:41:30.123068,43.27,35.936548,-0.003482159473966507,-0.022833026512682618,0.0976994861521123,36.09446859390736,-96.25519929585457,76.200527287817
2024-09-23 16:41:30.167316,43.27,35.9366,-0.0028354659767690416,-0.023280723622328886,0.09720203344245934,36.09446859390736,-96.25519929585457,76.200527287817
2024-09-23 16:41:30.179684,43.27,35.9366,-0.0028354659767690416,-0.023280723622328886,0.09720203344245934,36.09446859390736,-92.24360919585227,76.200527287817
2024-09-23 16:41:30.211944,43.27,35.93665,-0.0031339382481259063,-0.023280723622328886,0.09720203344245934,36.09446859390736,-92.24360919585227,80.21211738781929
2024-09-23 16:41:30.222988,43.27,35.93665,-0.0031339382481259063,-0.02367869399252531,0.09720203344245934,44.11764879391193,-92.24360919585227,80.21211738781929
2024-09-23 16:41:30.265024,43.27,35.936701,-0.0034324103296106863,-0.023280723622328886,0.0976994861521123,44.11764879391193,-96.25519929585457,80.21211738781929
2024-09-23 16:41:30.307653,43.27,35.936701,-0.0034324103296106863,-0.023280723622328886,0.0976994861521123,48.12595698684454,-96.25519929585457,80.21211738781929
2024-09-23 16:41:30.318963,43.27,35.936752,-0.0028852147413806935,-0.023230986250042305,0.0976994861521123,48.12595698684454,-96.25519929585457,84.22370748782159
2024-09-23 16:41:30.360980,43.27,35.936802,-0.0028852147413806935,-0.023230986250042305,0.09665483728461309,48.12595698684454,-96.25519929585457,84.22370748782159
2024-09-23 16:41:30.372870,43.27,35.936802,-0.003233425524256645,-0.023230986250042305,0.09665483728461309,48.12595698684454,-96.25519929585457,84.22370748782159
2024-09-23 16:41:30.406652,43.27,35.936802,-0.003233425524256645,-0.02338022115155219,0.09680407370509965,36.09446859390736,-96.25519929585457,84.22370748782159
2024-09-23 16:41:30.417617,43.27,35.936889,-0.003233425524256645,-0.02338022115155219,0.09680407370509965,36.09446859390736,-100.26678939585686,80.21211738781929
2024-09-23 16:41:30.461051,43.27,35.936889,-0.0027359787006383035,-0.02313149783467906,0.09784872257259886,40.106058693909645,-100.26678939585686,80.21211738781929
2024-09-23 16:41:30.504385,43.27,35.936941,-0.003482159473966507,-0.02293251340906919,0.09784872257259886,40.106058693909645,-100.26678939585686,80.21211738781929
2024-09-23 16:41:30.516284,43.27,35.936941,-0.003482159473966507,-0.02293251340906919,0.0973015264147526,44.11764879391193,-100.26678939585686,80.21211738781929
2024-09-23 16:41:30.559641,43.54,35.936992,-0.0027359787006383035,-0.023280723622328886,0.09690356060148622,40.106058693909645,-100.26678939585686,76.200527287817
2024-09-23 16:41:30.602476,43.54,35.937042,-0.0027359787006383035,-0.023280723622328886,0.09690356060148622,40.106058693909645,-100.26678939585686,76.200527287817
2024-09-23 16:41:30.614359,43.54,35.937042,-0.0028354659767690416,-0.02313149783467906,0.09715228999426605,40.106058693909645,-100.26678939585686,76.200527287817
2024-09-23 16:41:30.646884,43.54,35.937042,-0.0028354659767690416,-0.02313149783467906,0.09715228999426605,40.106058693909645,-100.26678939585686,76.200527287817
2024-09-23 16:41:30.658699,43.54,35.937093,-0.0030344509719951677,-0.02338022115155219,0.09715228999426605,40.106058693909645,-104.27510100388527,76.200527287817
2024-09-23 16:41:30.701616,43.54,35.937093,-0.0030344509719951677,-0.02338022115155219,0.09690356060148622,36.09446859390736,-104.27510100388527,80.21211738781929
2024-09-23 16:41:30.713199,43.54,35.937144,-0.0030841997366068195,-0.02338022115155219,0.09690356060148622,36.09446859390736,-104.27510100388527,80.21211738781929
2024-09-23 16:41:30.746808,43.54,35.937144,-0.0030841997366068195,-0.023479709566915436,0.09720203344245934,36.09446859390736,-104.27510100388527,80.21211738781929
2024-09-23 16:41:30.758874,43.54,35.937231,-0.0030841997366068195,-0.023479709566915436,0.09720203344245934,44.11764879391193,-96.25519929585457,84.22370748782159
2024-09-23 16:41:30.802445,43.54,35.937231,-0.0028852147413806935,-0.02268379009219606,0.09750050628343246,36.09446859390736,-92.24360919585227,80.21211738781929
2024-09-23 16:41:30.844776,43.54,35.937283,-0.0033329230534799477,-0.02268379009219606,0.09750050628343246,36.09446859390736,-92.24360919585227,80.21211738781929
2024-09-23 16:41:30.856368,43.54,35.937283,-0.0033329230534799477,-0.02293251340906919,0.0970030596496862,36.09446859390736,-96.25519929585457,80.21211738781929
2024-09-23 16:41:30.899432,43.54,35.937333,-0.0030841997366068195,-0.0228827638849692,0.09690356060148622,36.09446859390736,-96.25519929585457,80.21211738781929
2024-09-23 16:41:30.911904,43.54,35.937333,-0.0030841997366068195,-0.0228827638849692,0.09690356060148622,36.09446859390736,-96.25519929585457,80.21211738781929
2024-09-23 16:41:30.944544,43.54,35.937384,-0.0029847020175114316,-0.0228827638849692,0.09690356060148622,36.09446859390736,-96.25519929585457,76.200527287817
2024-09-23 16:41:30.956213,43.54,35.937384,-0.0029847020175114316,-0.022833026512682618,0.0973015264147526,36.09446859390736,-96.25519929585457,76.200527287817
2024-09-23 16:41:30.989176,43.54,35.937384,-0.0029847020175114316,-0.022833026512682618,0.0973015264147526,44.11764879391193,-96.25519929585457,76.200527287817
2024-09-23 16:41:31.000771,43.54,35.937435,-0.0029349636958644295,-0.02338022115155219,0.0973015264147526,44.11764879391193,-104.27510100388527,80.21211738781929
2024-09-23 16:41:31.044383,43.54,35.937485,-0.0029349636958644295,-0.02338022115155219,0.09670458680871308,44.11764879391193,-92.24360919585227,80.21211738781929
2024-09-23 16:41:31.055734,43.54,35.937485,-0.0028354659767690416,-0.02338022115155219,0.09670458680871308,44.11764879391193,-92.24360919585227,80.21211738781929
2024-09-23 16:41:31.087876,43.54,35.937485,-0.0028354659767690416,-0.023181236725942318,0.09655535038822652,44.11764879391193,-92.24360919585227,80.21211738781929
2024-09-23 16:41:31.099047,43.54,35.937572,-0.0028354659767690416,-0.023181236725942318,0.09655535038822652,48.12595698684454,-96.25519929585457,84.22370748782159
2024-09-23 16:41:31.142213,43.54,35.937572,-0.0030841997366068195,-0.023230986250042305,0.0973015264147526,40.106058693909645,-108.28669110388756,84.22370748782159
2024-09-23 16:41:31.153772,43.54,35.937572,-0.0030841997366068195,-0.023230986250042305,0.0973015264147526,40.106058693909645,-108.28669110388756,76.200527287817
2024-09-23 16:41:31.188370,43.54,35.937623,-0.0031339382481259063,-0.02338022115155219,0.0973015264147526,40.106058693909645,-108.28669110388756,76.200527287817
2024-09-23 16:41:31.199376,43.54,35.937623,-0.0031339382481259063,-0.02338022115155219,0.09715228999426605,40.106058693909645,-100.26678939585686,76.200527287817
2024-09-23 16:41:31.233681,43.54,35.937623,-0.0031339382481259063,-0.02338022115155219,0.09715228999426605,40.106058693909645,-100.26678939585686,80.21211738781929
2024-09-23 16:41:31.244999,43.54,35.937674,-0.0029847020175114316,-0.02313149783467906,0.09685382322919964,40.106058693909645,-100.26678939585686,80.21211738781929
2024-09-23 16:41:31.287225,43.54,35.937725,-0.0029847020175114316,-0.02338022115155219,0.09685382322919964,40.106058693909645,-96.25519929585457,84.22370748782159
2024-09-23 16:41:31.298881,43.54,35.937725,-0.0029847020175114316,-0.02338022115155219,0.09740101331113918,40.106058693909645,-96.25519929585457,84.22370748782159
2024-09-23 16:41:31.331387,43.54,35.937725,-0.0029847020175114316,-0.02338022115155219,0.09740101331113918,44.11764879391193,-92.24360919585227,84.22370748782159
2024-09-23 16:41:31.343566,43.54,35.937775,-0.0024872551938930902,-0.023479709566915436,0.09740101331113918,44.11764879391193,-92.24360919585227,76.200527287817
2024-09-23 16:41:31.387258,43.54,35.937826,-0.0031339382481259063,-0.023479709566915436,0.0976994861521123,36.09446859390736,-96.25519929585457,84.22370748782159
2024-09-23 16:41:31.429658,43.54,35.937826,-0.0031339382481259063,-0.02367869399252531,0.09720203344245934,36.09446859390736,-96.25519929585457,84.22370748782159
2024-09-23 16:41:31.440871,43.54,35.937913,-0.0031339382481259063,-0.02367869399252531,0.09720203344245934,36.09446859390736,-96.25519929585457,80.21211738781929
2024-09-23 16:41:31.483338,43.54,35.937913,-0.0026862297461545674,-0.02313149783467906,0.09680407370509965,40.106058693909645,-100.26678939585686,80.21211738781929
2024-09-23 16:41:31.495236,43.54,35.937913,-0.0026862297461545674,-0.02313149783467906,0.09680407370509965,40.106058693909645,-100.26678939585686,76.200527287817
2024-09-23 16:41:31.526729,43.54,35.937965,-0.0030841997366068195,-0.02313149783467906,0.09680407370509965,40.106058693909645,-100.26678939585686,76.200527287817
2024-09-23 16:41:31.538527,43.54,35.937965,-0.0030841997366068195,-0.02308174982955575,0.09779897304849887,32.08287849390507,-96.25519929585457,76.200527287817
2024-09-23 16:41:31.581447,43.97,35.938015,-0.002785727465249955,-0.02338022115155219,0.09695331012558621,32.08287849390507,-96.25519929585457,76.200527287817
2024-09-23 16:41:31.624275,43.97,35.938015,-0.002785727465249955,-0.02338022115155219,0.09695331012558621,32.08287849390507,-100.26678939585686,80.21211738781929
2024-09-23 16:41:31.635504,43.97,35.938066,-0.003233425524256645,-0.02352945757203875,0.09745075675933246,32.08287849390507,-100.26678939585686,80.21211738781929
2024-09-23 16:41:31.677624,43.97,35.938117,-0.0035318979854855937,-0.02352945757203875,0.09745075675933246,32.08287849390507,-96.25519929585457,76.200527287817
2024-09-23 16:41:31.689227,43.97,35.938117,-0.0035318979854855937,-0.02352945757203875,0.09745075675933246,32.08287849390507,-96.25519929585457,76.200527287817
2024-09-23 16:41:31.721641,43.97,35.938117,-0.0035318979854855937,-0.02352945757203875,0.09740101331113918,36.09446859390736,-96.25519929585457,76.200527287817
2024-09-23 16:41:31.733294,43.97,35.938167,-0.003382661564999035,-0.02352945757203875,0.09740101331113918,36.09446859390736,-104.27510100388527,76.200527287817
2024-09-23 16:41:31.776484,43.97,35.938254,-0.003382661564999035,-0.023181236725942318,0.0973015264147526,36.09446859390736,-92.24360919585227,80.21211738781929
2024-09-23 16:41:31.818818,43.97,35.938254,-0.0030344509719951677,-0.023181236725942318,0.0973015264147526,36.09446859390736,-92.24360919585227,80.21211738781929
2024-09-23 16:41:31.830190,43.97,35.938254,-0.0030344509719951677,-0.023181236725942318,0.09685382322919964,40.106058693909645,-88.23529758782387,80.21211738781929
2024-09-23 16:41:31.873266,43.97,35.938306,-0.0031339382481259063,-0.023230986250042305,0.09720203344245934,28.07457030097246,-88.23529758782387,80.21211738781929
2024-09-23 16:41:31.885191,43.97,35.938306,-0.0031339382481259063,-0.023230986250042305,0.09720203344245934,28.07457030097246,-92.24360919585227,80.21211738781929
2024-09-23 16:41:31.916759,43.97,35.938357,-0.0031339382481259063,-0.023230986250042305,0.09720203344245934,28.07457030097246,-92.24360919585227,84.22370748782159
2024-09-23 16:41:31.927784,43.97,35.938357,-0.0032831742888682963,-0.02352945757203875,0.0973512698629459,36.09446859390736,-92.24360919585227,84.22370748782159
2024-09-23 16:41:31.971340,43.97,35.938407,-0.0030344509719951677,-0.02268379009219606,0.09745075675933246,36.09446859390736,-92.24360919585227,84.22370748782159
2024-09-23 16:41:32.013878,43.97,35.938407,-0.0030344509719951677,-0.02268379009219606,0.09745075675933246,40.106058693909645,-96.25519929585457,84.22370748782159
2024-09-23 16:41:32.025120,43.97,35.938458,-0.002636491424507565,-0.023479709566915436,0.09745075675933246,40.106058693909645,-96.25519929585457,80.21211738781929
2024-09-23 16:41:32.067931,43.97,35.938509,-0.002636491424507565,-0.023479709566915436,0.0973512698629459,40.106058693909645,-92.24360919585227,84.22370748782159
2024-09-23 16:41:32.081989,43.97,35.938509,-0.0028354659767690416,-0.023479709566915436,0.0973512698629459,40.106058693909645,-92.24360919585227,84.22370748782159
2024-09-23 16:41:32.114796,43.97,35.938509,-0.0028354659767690416,-0.023429960042815445,0.09690356060148622,40.106058693909645,-88.23529758782387,84.22370748782159
2024-09-23 16:41:32.126574,43.97,35.938596,-0.0028354659767690416,-0.023429960042815445,0.09690356060148622,40.106058693909645,-88.23529758782387,80.21211738781929
2024-09-23 16:41:32.158430,43.97,35.938596,-0.003382661564999035,-0.023429960042815445,0.09690356060148622,40.106058693909645,-88.23529758782387,80.21211738781929
2024-09-23 16:41:32.170067,43.97,35.938596,-0.003382661564999035,-0.02293251340906919,0.09670458680871308,48.12595698684454,-92.24360919585227,84.22370748782159
2024-09-23 16:41:32.213740,43.97,35.938647,-0.002636491424507565,-0.02308174982955575,0.09784872257259886,40.106058693909645,-92.24360919585227,84.22370748782159
2024-09-23 16:41:32.225421,43.97,35.938647,-0.002636491424507565,-0.02308174982955575,0.09784872257259886,40.106058693909645,-96.25519929585457,84.22370748782159
2024-09-23 16:41:32.258533,43.97,35.938698,-0.002636491424507565,-0.02308174982955575,0.09784872257259886,40.106058693909645,-96.25519929585457,84.22370748782159
2024-09-23 16:41:32.270243,43.97,35.938698,-0.0028354659767690416,-0.02313149783467906,0.0973015264147526,40.106058693909645,-96.25519929585457,84.22370748782159
2024-09-23 16:41:32.313680,43.97,35.938748,-0.0022385316871478774,-0.023479709566915436,0.0973015264147526,40.106058693909645,-92.24360919585227,76.200527287817
2024-09-23 16:41:32.357206,43.97,35.938748,-0.0022385316871478774,-0.023479709566915436,0.09685382322919964,36.09446859390736,-92.24360919585227,76.200527287817
2024-09-23 16:41:32.369006,43.97,35.938799,-0.0028354659767690416,-0.023479709566915436,0.09685382322919964,36.09446859390736,-92.24360919585227,80.21211738781929
2024-09-23 16:41:32.411427,43.97,35.93885,-0.0028354659767690416,-0.02313149783467906,0.09680407370509965,32.08287849390507,-96.25519929585457,80.21211738781929
2024-09-23 16:41:32.453902,43.97,35.93885,-0.0023380189632786156,-0.022833026512682618,0.0970030596496862,32.08287849390507,-96.25519929585457,80.21211738781929
2024-09-23 16:41:32.464949,43.97,35.93885,-0.0023380189632786156,-0.022833026512682618,0.0970030596496862,32.08287849390507,-92.24360919585227,84.22370748782159
2024-09-23 16:41:32.507458,43.97,35.938937,-0.0029847020175114316,-0.023579196463302005,0.09710254654607277,44.11764879391193,-92.24360919585227,84.22370748782159
2024-09-23 16:41:32.519171,43.97,35.938937,-0.0029847020175114316,-0.023579196463302005,0.09710254654607277,44.11764879391193,-100.26678939585686,84.22370748782159
2024-09-23 16:41:32.552757,43.97,35.938988,-0.0029847020175114316,-0.023579196463302005,0.09710254654607277,44.11764879391193,-100.26678939585686,76.200527287817
2024-09-23 16:41:32.564253,43.97,35.938988,-0.0029847020175114316,-0.0228827638849692,0.09750050628343246,40.106058693909645,-100.26678939585686,76.200527287817
2024-09-23 16:41:32.606889,44.14,35.939039,-0.0035318979854855937,-0.02338022115155219,0.09715228999426605,40.106058693909645,-96.25519929585457,80.21211738781929
2024-09-23 16:41:32.649005,44.14,35.939039,-0.0035318979854855937,-0.02338022115155219,0.09715228999426605,44.11764879391193,-100.26678939585686,80.21211738781929
2024-09-23 16:41:32.661106,44.14,35.93909,-0.0028354659767690416,-0.023280723622328886,0.09715228999426605,44.11764879391193,-100.26678939585686,80.21211738781929
2024-09-23 16:41:32.704060,44.14,35.93914,-0.0028354659767690416,-0.023280723622328886,0.09725178296655933,32.08287849390507,-104.27510100388527,76.200527287817
2024-09-23 16:41:32.715933,44.14,35.93914,-0.0031339382481259063,-0.023280723622328886,0.09725178296655933,32.08287849390507,-104.27510100388527,76.200527287817
2024-09-23 16:41:32.747962,44.14,35.93914,-0.0031339382481259063,-0.022833026512682618,0.09755024973162574,44.11764879391193,-104.27510100388527,76.200527287817
2024-09-23 16:41:32.759690,44.14,35.939229,-0.0031339382481259063,-0.022833026512682618,0.09755024973162574,44.11764879391193,-96.25519929585457,76.200527287817
2024-09-23 16:41:32.791793,44.14,35.939229,-0.0028852147413806935,-0.022833026512682618,0.09755024973162574,44.11764879391193,-96.25519929585457,76.200527287817
2024-09-23 16:41:32.803695,44.14,35.939229,-0.0028852147413806935,-0.022982261414192504,0.09675432418099966,36.09446859390736,-96.25519929585457,84.22370748782159
2024-09-23 16:41:32.845365,44.14,35.939281,-0.0029847020175114316,-0.023728432883788564,0.09675432418099966,36.09446859390736,-96.25519929585457,84.22370748782159
2024-09-23 16:41:32.857347,44.14,35.939281,-0.0029847020175114316,-0.023728432883788564,0.09755024973162574,28.07457030097246,-100.26678939585686,84.22370748782159
2024-09-23 16:41:32.889599,44.14,35.939281,-0.0029847020175114316,-0.023728432883788564,0.09755024973162574,28.07457030097246,-100.26678939585686,80.21211738781929
2024-09-23 16:41:32.901970,44.14,35.939332,-0.0035318979854855937,-0.02308174982955575,0.09705279702197278,40.106058693909645,-100.26678939585686,80.21211738781929
2024-09-23 16:41:32.944299,44.14,35.939382,-0.003631395514708897,-0.02308174982955575,0.09705279702197278,40.106058693909645,-96.25519929585457,80.21211738781929
2024-09-23 16:41:32.957103,44.14,35.939382,-0.003631395514708897,-0.02352945757203875,0.09764974270391902,40.106058693909645,-96.25519929585457,80.21211738781929
2024-09-23 16:41:32.990106,44.14,35.939382,-0.003631395514708897,-0.02352945757203875,0.09764974270391902,36.09446859390736,-100.26678939585686,80.21211738781929
2024-09-23 16:41:33.002361,44.14,35.939433,-0.002288270198666964,-0.02352945757203875,0.09764974270391902,36.09446859390736,-100.26678939585686,80.21211738781929
2024-09-23 16:41:33.044880,44.14,35.939484,-0.002636491424507565,-0.02352945757203875,0.09695331012558621,48.12595698684454,-88.23529758782387,80.21211738781929
2024-09-23 16:41:33.087685,44.14,35.939484,-0.002636491424507565,-0.023429960042815445,0.09705279702197278,36.09446859390736,-88.23529758782387,80.21211738781929
2024-09-23 16:41:33.098728,44.14,35.939571,-0.002636491424507565,-0.023429960042815445,0.09705279702197278,36.09446859390736,-96.25519929585457,80.21211738781929
2024-09-23 16:41:33.142178,44.14,35.939571,-0.0028354659767690416,-0.023280723622328886,0.09715228999426605,32.08287849390507,-100.26678939585686,76.200527287817
2024-09-23 16:41:33.185659,44.14,35.939622,-0.003233425524256645,-0.022982261414192504,0.09715228999426605,32.08287849390507,-100.26678939585686,76.200527287817
2024-09-23 16:41:33.196992,44.14,35.939622,-0.003233425524256645,-0.022982261414192504,0.09715228999426605,40.106058693909645,-92.24360919585227,76.200527287817
2024-09-23 16:41:33.239774,44.14,35.939673,-0.0029349636958644295,-0.023728432883788564,0.09710254654607277,44.11764879391193,-92.24360919585227,80.21211738781929
2024-09-23 16:41:33.282121,44.14,35.939673,-0.0029349636958644295,-0.023728432883788564,0.09710254654607277,44.11764879391193,-96.25519929585457,80.21211738781929
2024-09-23 16:41:33.293709,44.14,35.939723,-0.0029349636958644295,-0.022733528983459317,0.09685382322919964,44.11764879391193,-96.25519929585457,80.21211738781929
2024-09-23 16:41:33.336435,44.14,35.939774,-0.0029349636958644295,-0.022733528983459317,0.09685382322919964,48.12595698684454,-92.24360919585227,76.200527287817
2024-09-23 16:41:33.348854,44.14,35.939774,-0.002785727465249955,-0.02338022115155219,0.09685382322919964,48.12595698684454,-92.24360919585227,76.200527287817
2024-09-23 16:41:33.383509,44.14,35.939774,-0.002785727465249955,-0.02338022115155219,0.09690356060148622,40.106058693909645,-92.24360919585227,76.200527287817
2024-09-23 16:41:33.394400,44.14,35.939825,-0.0028852147413806935,-0.02338022115155219,0.09690356060148622,40.106058693909645,-92.24360919585227,76.200527287817
2024-09-23 16:41:33.427037,44.14,35.939825,-0.0028852147413806935,-0.02338022115155219,0.09690356060148622,40.106058693909645,-92.24360919585227,76.200527287817
2024-09-23 16:41:33.438563,44.14,35.939912,-0.0028852147413806935,-0.02338022115155219,0.09695331012558621,44.11764879391193,-96.25519929585457,72.1922225099802
2024-09-23 16:41:33.480780,44.14,35.939912,-0.0028852147413806935,-0.02293251340906919,0.09740101331113918,44.11764879391193,-100.26678939585686,72.1922225099802
2024-09-23 16:41:33.492867,44.14,35.939912,-0.0028852147413806935,-0.02293251340906919,0.09740101331113918,44.11764879391193,-100.26678939585686,76.200527287817
2024-09-23 16:41:33.524904,44.14,35.939963,-0.0025369937054121774,-0.02293251340906919,0.09740101331113918,44.11764879391193,-100.26678939585686,76.200527287817
2024-09-23 16:41:33.536547,44.14,35.939963,-0.0025369937054121774,-0.023230986250042305,0.09779897304849887,32.08287849390507,-100.26678939585686,76.200527287817
2024-09-23 16:41:33.578440,44.14,35.940014,-0.0030344509719951677,-0.02367869399252531,0.09710254654607277,32.08287849390507,-100.26678939585686,76.200527287817
2024-09-23 16:41:33.590207,44.14,35.940014,-0.0030344509719951677,-0.02367869399252531,0.09710254654607277,32.08287849390507,-100.26678939585686,76.200527287817
2024-09-23 16:41:33.623008,44.37,35.940014,-0.0030344509719951677,-0.02367869399252531,0.09710254654607277,32.08287849390507,-100.26678939585686,76.200527287817
2024-09-23 16:41:33.634902,44.37,35.940065,-0.002785727465249955,-0.02293251340906919,0.0973015264147526,32.08287849390507,-100.26678939585686,84.22370748782159
2024-09-23 16:41:33.678492,44.37,35.940115,-0.0034324103296106863,-0.02313149783467906,0.0973015264147526,40.106058693909645,-96.25519929585457,80.21211738781929
2024-09-23 16:41:33.721347,44.37,35.940115,-0.0034324103296106863,-0.02313149783467906,0.09715228999426605,44.11764879391193,-96.25519929585457,80.21211738781929
2024-09-23 16:41:33.732759,44.37,35.940166,-0.0033329230534799477,-0.02313149783467906,0.09715228999426605,44.11764879391193,-96.25519929585457,76.200527287817
2024-09-23 16:41:33.775810,44.37,35.940253,-0.0033329230534799477,-0.023579196463302005,0.09685382322919964,40.106058693909645,-100.26678939585686,72.1922225099802
2024-09-23 16:41:33.818407,44.37,35.940253,-0.003233425524256645,-0.02293251340906919,0.09685382322919964,40.106058693909645,-100.26678939585686,72.1922225099802
2024-09-23 16:41:33.829610,44.37,35.940253,-0.003233425524256645,-0.02293251340906919,0.09784872257259886,40.106058693909645,-100.26678939585686,80.21211738781929
2024-09-23 16:41:33.872587,44.37,35.940305,-0.0031339382481259063,-0.02263404056809607,0.09759999317981902,40.106058693909645,-100.26678939585686,80.21211738781929
2024-09-23 16:41:33.884571,44.37,35.940305,-0.0031339382481259063,-0.02263404056809607,0.09759999317981902,40.106058693909645,-88.23529758782387,80.21211738781929
2024-09-23 16:41:33.916985,44.37,35.940355,-0.0029847020175114316,-0.02263404056809607,0.09759999317981902,40.106058693909645,-88.23529758782387,84.22370748782159
2024-09-23 16:41:33.928396,44.37,35.940355,-0.0029847020175114316,-0.023579196463302005,0.0973015264147526,44.11764879391193,-88.23529758782387,84.22370748782159
2024-09-23 16:41:33.970237,44.37,35.940406,-0.0038303700669703737,-0.023230986250042305,0.09710254654607277,44.11764879391193,-92.24360919585227,80.21211738781929
2024-09-23 16:41:34.012687,44.37,35.940406,-0.0038303700669703737,-0.023230986250042305,0.09710254654607277,36.09446859390736,-100.26678939585686,80.21211738781929
2024-09-23 16:41:34.024293,44.37,35.940457,-0.0033329230534799477,-0.02362894446842532,0.09710254654607277,36.09446859390736,-100.26678939585686,80.21211738781929
2024-09-23 16:41:34.067437,44.37,35.940507,-0.002387757474797703,-0.02362894446842532,0.09720203344245934,36.09446859390736,-96.25519929585457,80.21211738781929
2024-09-23 16:41:34.109744,44.37,35.940507,-0.002387757474797703,-0.023429960042815445,0.09725178296655933,36.09446859390736,-96.25519929585457,80.21211738781929
2024-09-23 16:41:34.120794,44.37,35.940594,-0.002387757474797703,-0.023429960042815445,0.09725178296655933,36.09446859390736,-96.25519929585457,76.200527287817
2024-09-23 16:41:34.163328,44.37,35.940594,-0.002636491424507565,-0.02263404056809607,0.09695331012558621,36.09446859390736,-92.24360919585227,76.200527287817
2024-09-23 16:41:34.174956,44.37,35.940594,-0.002636491424507565,-0.02263404056809607,0.09695331012558621,36.09446859390736,-92.24360919585227,72.1922225099802
2024-09-23 16:41:34.206626,44.37,35.940646,-0.002636491424507565,-0.02263404056809607,0.09695331012558621,36.09446859390736,-92.24360919585227,72.1922225099802
2024-09-23 16:41:34.218501,44.37,35.940646,-0.0031339382481259063,-0.022833026512682618,0.09670458680871308,32.08287849390507,-96.25519929585457,72.1922225099802
2024-09-23 16:41:34.261004,44.37,35.940697,-0.0031339382481259063,-0.023181236725942318,0.09705279702197278,32.08287849390507,-96.25519929585457,80.21211738781929
2024-09-23 16:41:34.272720,44.37,35.940697,-0.0031339382481259063,-0.023181236725942318,0.09705279702197278,40.106058693909645,-96.25519929585457,80.21211738781929
2024-09-23 16:41:34.306557,44.37,35.940697,-0.0031339382481259063,-0.023181236725942318,0.09705279702197278,40.106058693909645,-92.24360919585227,80.21211738781929
2024-09-23 16:41:34.318270,44.37,35.940747,-0.002785727465249955,-0.02338022115155219,0.0973512698629459,40.106058693909645,-92.24360919585227,80.21211738781929
2024-09-23 16:41:34.360841,44.37,35.940798,-0.0030344509719951677,-0.023181236725942318,0.0973512698629459,40.106058693909645,-92.24360919585227,80.21211738781929
2024-09-23 16:41:34.403626,44.37,35.940798,-0.0030344509719951677,-0.023181236725942318,0.09715228999426605,36.09446859390736,-92.24360919585227,80.21211738781929
2024-09-23 16:41:34.414944,44.37,35.940849,-0.0032831742888682963,-0.023181236725942318,0.09715228999426605,36.09446859390736,-92.24360919585227,84.22370748782159
2024-09-23 16:41:34.458503,44.37,35.940936,-0.0032831742888682963,-0.023479709566915436,0.09690356060148622,44.11764879391193,-96.25519929585457,84.22370748782159
2024-09-23 16:41:34.501893,44.37,35.940936,-0.003233425524256645,-0.023827930413011865,0.09750050628343246,44.11764879391193,-96.25519929585457,84.22370748782159
2024-09-23 16:41:34.513582,44.37,35.940936,-0.003233425524256645,-0.023827930413011865,0.09750050628343246,40.106058693909645,-92.24360919585227,76.200527287817
2024-09-23 16:41:34.555888,44.37,35.940987,-0.002586742470023829,-0.023230986250042305,0.09710254654607277,36.09446859390736,-92.24360919585227,76.200527287817
2024-09-23 16:41:34.598411,44.37,35.941038,-0.002586742470023829,-0.023230986250042305,0.09710254654607277,36.09446859390736,-92.24360919585227,80.21211738781929
2024-09-23 16:41:34.610072,44.37,35.941038,-0.0032831742888682963,-0.02308174982955575,0.0973015264147526,36.09446859390736,-92.24360919585227,80.21211738781929
2024-09-23 16:41:34.653418,44.02,35.941088,-0.0022385316871478774,-0.02352945757203875,0.0973015264147526,36.09446859390736,-100.26678939585686,80.21211738781929
2024-09-23 16:41:34.665465,44.02,35.941088,-0.0022385316871478774,-0.02352945757203875,0.09755024973162574,36.09446859390736,-100.26678939585686,80.21211738781929
2024-09-23 16:41:34.697440,44.02,35.941088,-0.0022385316871478774,-0.02352945757203875,0.09755024973162574,40.106058693909645,-92.24360919585227,76.200527287817
2024-09-23 16:41:34.708867,44.02,35.941139,-0.0029349636958644295,-0.02352945757203875,0.09755024973162574,40.106058693909645,-92.24360919585227,76.200527287817
2024-09-23 16:41:34.751459,44.02,35.94119,-0.003482159473966507,-0.02352945757203875,0.0970030596496862,36.09446859390736,-96.25519929585457,76.200527287817
2024-09-23 16:41:34.794067,44.02,35.94119,-0.003482159473966507,-0.023330473146428877,0.09705279702197278,44.11764879391193,-96.25519929585457,76.200527287817
2024-09-23 16:41:34.805944,44.02,35.941277,-0.003482159473966507,-0.023330473146428877,0.09705279702197278,44.11764879391193,-96.25519929585457,72.1922225099802
2024-09-23 16:41:34.889468,44.02,35.941277,-0.002636491424507565,-0.023330473146428877,0.09705279702197278,44.11764879391193,-96.25519929585457,72.1922225099802
2024-09-23 16:41:34.901468,44.02,35.941277,-0.002636491424507565,-0.023778180888911878,0.0970030596496862,40.106058693909645,-100.26678939585686,76.200527287817
2024-09-23 16:41:34.943961,44.02,35.941329,-0.002636491424507565,-0.023579196463302005,0.09740101331113918,32.08287849390507,-100.26678939585686,76.200527287817
2024-09-23 16:41:34.956110,44.02,35.941329,-0.002636491424507565,-0.023579196463302005,0.09740101331113918,32.08287849390507,-100.26678939585686,76.200527287817
2024-09-23 16:41:34.988402,44.02,35.941379,-0.002636491424507565,-0.023579196463302005,0.09740101331113918,32.08287849390507,-100.26678939585686,72.1922225099802
2024-09-23 16:41:34.999797,44.02,35.941379,-0.0025369937054121774,-0.02362894446842532,0.09745075675933246,36.09446859390736,-100.26678939585686,72.1922225099802
2024-09-23 16:41:35.043723,44.02,35.94143,-0.0032831742888682963,-0.02303200030545576,0.09710254654607277,36.09446859390736,-96.25519929585457,80.21211738781929
2024-09-23 16:41:35.085762,44.02,35.94143,-0.0032831742888682963,-0.02303200030545576,0.09710254654607277,44.11764879391193,-100.26678939585686,80.21211738781929
2024-09-23 16:41:35.096703,44.02,35.941481,-0.0031339382481259063,-0.023230986250042305,0.09710254654607277,44.11764879391193,-100.26678939585686,80.21211738781929
2024-09-23 16:41:35.138349,44.02,35.941572,-0.0031339382481259063,-0.023230986250042305,0.0976994861521123,36.09446859390736,-100.26678939585686,76.200527287817
2024-09-23 16:41:35.150318,44.02,35.941572,-0.0029847020175114316,-0.023230986250042305,0.0976994861521123,36.09446859390736,-100.26678939585686,76.200527287817
2024-09-23 16:41:35.182941,44.02,35.941572,-0.0029847020175114316,-0.023181236725942318,0.09710254654607277,36.09446859390736,-100.26678939585686,76.200527287817
2024-09-23 16:41:35.194023,44.02,35.941667,-0.0029847020175114316,-0.023181236725942318,0.09710254654607277,44.11764879391193,-100.26678939585686,76.200527287817
2024-09-23 16:41:35.238118,44.02,35.941667,-0.0031836870127375577,-0.023330473146428877,0.0973015264147526,40.106058693909645,-100.26678939585686,76.200527287817
2024-09-23 16:41:35.249590,44.02,35.941667,-0.0031836870127375577,-0.023330473146428877,0.0973015264147526,40.106058693909645,-100.26678939585686,76.200527287817
2024-09-23 16:41:35.281946,44.02,35.941718,-0.0030841997366068195,-0.0228827638849692,0.0973015264147526,40.106058693909645,-100.26678939585686,76.200527287817
2024-09-23 16:41:35.293593,44.02,35.941718,-0.0030841997366068195,-0.0228827638849692,0.09725178296655933,40.106058693909645,-100.26678939585686,76.200527287817
2024-09-23 16:41:35.336304,44.02,35.941769,-0.0029349636958644295,-0.02367869399252531,0.09750050628343246,44.11764879391193,-100.26678939585686,80.21211738781929
2024-09-23 16:41:35.379274,44.02,35.94182,-0.0029349636958644295,-0.02367869399252531,0.09750050628343246,44.11764879391193,-96.25519929585457,76.200527287817
2024-09-23 16:41:35.390686,44.02,35.94182,-0.002586742470023829,-0.023181236725942318,0.09720203344245934,44.11764879391193,-96.25519929585457,76.200527287817
2024-09-23 16:41:35.433858,44.02,35.94187,-0.0030344509719951677,-0.02313149783467906,0.09720203344245934,40.106058693909645,-100.26678939585686,80.21211738781929
2024-09-23 16:41:35.476748,44.02,35.94187,-0.0030344509719951677,-0.02313149783467906,0.09695331012558621,36.09446859390736,-100.26678939585686,80.21211738781929
2024-09-23 16:41:35.488330,44.02,35.941921,-0.0030344509719951677,-0.02313149783467906,0.09695331012558621,36.09446859390736,-96.25519929585457,76.200527287817
2024-09-23 16:41:35.531333,44.02,35.942008,-0.0030344509719951677,-0.02303200030545576,0.09665483728461309,32.08287849390507,-100.26678939585686,80.21211738781929
2024-09-23 16:41:35.574300,44.02,35.942008,-0.0032831742888682963,-0.02367869399252531,0.09710254654607277,32.08287849390507,-100.26678939585686,80.21211738781929
2024-09-23 16:41:35.586080,44.02,35.942008,-0.0032831742888682963,-0.02367869399252531,0.09710254654607277,40.106058693909645,-100.26678939585686,80.21211738781929
2024-09-23 16:41:35.628744,44.02,35.94206,-0.0031339382481259063,-0.02278327698858263,0.09695331012558621,32.08287849390507,-100.26678939585686,80.21211738781929
2024-09-23 16:41:35.671383,43.67,35.94211,-0.002785727465249955,-0.02278327698858263,0.09695331012558621,32.08287849390507,-100.26678939585686,76.200527287817
2024-09-23 16:41:35.682774,43.67,35.94211,-0.002785727465249955,-0.02313149783467906,0.09740101331113918,40.106058693909645,-100.26678939585686,76.200527287817
2024-09-23 16:41:35.724965,43.67,35.942161,-0.0031339382481259063,-0.02367869399252531,0.09784872257259886,40.106058693909645,-100.26678939585686,80.21211738781929
2024-09-23 16:41:35.767796,43.67,35.942161,-0.0031339382481259063,-0.02367869399252531,0.09784872257259886,44.11764879391193,-96.25519929585457,80.21211738781929
2024-09-23 16:41:35.779487,43.67,35.942212,-0.002785727465249955,-0.023280723622328886,0.09784872257259886,44.11764879391193,-96.25519929585457,76.200527287817
2024-09-23 16:41:35.823595,43.67,35.942262,-0.0036811340262279837,-0.023280723622328886,0.09710254654607277,56.14914060194492,-96.25519929585457,80.21211738781929
2024-09-23 16:41:35.865931,43.67,35.942262,-0.0036811340262279837,-0.024325377046758124,0.09755024973162574,56.14914060194492,-96.25519929585457,80.21211738781929
2024-09-23 16:41:35.876917,43.67,35.942349,-0.0036811340262279837,-0.024325377046758124,0.09755024973162574,40.106058693909645,-96.25519929585457,80.21211738781929
2024-09-23 16:41:35.920119,43.67,35.942349,-0.0028354659767690416,-0.0228827638849692,0.09740101331113918,36.09446859390736,-96.25519929585457,76.200527287817
2024-09-23 16:41:36.014087,43.67,35.942401,-0.0031836870127375577,-0.0228827638849692,0.09740101331113918,36.09446859390736,-96.25519929585457,76.200527287817
2024-09-23 16:41:36.025378,43.67,35.942401,-0.0031836870127375577,-0.023728432883788564,0.09675432418099966,40.106058693909645,-104.27510100388527,76.200527287817
2024-09-23 16:41:36.059857,43.67,35.942401,-0.0031836870127375577,-0.023728432883788564,0.09675432418099966,40.106058693909645,-104.27510100388527,80.21211738781929
2024-09-23 16:41:36.071278,43.67,35.942452,-0.0029847020175114316,-0.023330473146428877,0.09750050628343246,40.106058693909645,-104.27510100388527,80.21211738781929
2024-09-23 16:41:36.113772,43.67,35.942452,-0.0029847020175114316,-0.023330473146428877,0.09750050628343246,40.106058693909645,-100.26678939585686,80.21211738781929
2024-09-23 16:41:36.155867,43.67,35.942452,-0.0029847020175114316,-0.023330473146428877,0.09750050628343246,40.106058693909645,-100.26678939585686,80.21211738781929
2024-09-23 16:41:36.167715,43.67,35.942502,-0.003233425524256645,-0.02308174982955575,0.09720203344245934,40.106058693909645,-100.26678939585686,80.21211738781929
2024-09-23 16:41:36.210441,43.67,35.942553,-0.003233425524256645,-0.02308174982955575,0.09720203344245934,48.12595698684454,-96.25519929585457,76.200527287817
2024-09-23 16:41:36.221554,43.67,35.942553,-0.0029349636958644295,-0.023330473146428877,0.09720203344245934,48.12595698684454,-96.25519929585457,76.200527287817
2024-09-23 16:41:36.253276,43.67,35.942553,-0.0029349636958644295,-0.023330473146428877,0.0973512698629459,48.12595698684454,-96.25519929585457,76.200527287817
2024-09-23 16:41:36.264606,43.67,35.942604,-0.0031339382481259063,-0.023330473146428877,0.0973512698629459,44.11764879391193,-96.25519929585457,80.21211738781929
2024-09-23 16:41:36.306996,43.67,35.942604,-0.0031339382481259063,-0.023280723622328886,0.0973015264147526,40.106058693909645,-96.25519929585457,80.21211738781929
2024-09-23 16:41:36.318375,43.67,35.942739,-0.0031339382481259063,-0.023280723622328886,0.0973015264147526,40.106058693909645,-104.27510100388527,76.200527287817
2024-09-23 16:41:36.351723,43.67,35.942739,-0.0032831742888682963,-0.023280723622328886,0.0973015264147526,40.106058693909645,-104.27510100388527,76.200527287817
2024-09-23 16:41:36.363630,43.67,35.942739,-0.0032831742888682963,-0.02293251340906919,0.09715228999426605,40.106058693909645,-92.24360919585227,80.21211738781929
2024-09-23 16:41:36.406547,43.67,35.94279,-0.0031339382481259063,-0.02362894446842532,0.09740101331113918,36.09446859390736,-92.24360919585227,80.21211738781929
2024-09-23 16:41:36.418769,43.67,35.94279,-0.0031339382481259063,-0.02362894446842532,0.09740101331113918,36.09446859390736,-100.26678939585686,80.21211738781929
2024-09-23 16:41:36.451225,43.67,35.942887,-0.0031339382481259063,-0.02362894446842532,0.09740101331113918,36.09446859390736,-100.26678939585686,76.200527287817
2024-09-23 16:41:36.503293,43.67,35.942887,-0.0027359787006383035,-0.023230986250042305,0.09715228999426605,44.11764879391193,-100.26678939585686,76.200527287817
2024-09-23 16:41:36.514433,43.67,35.942887,-0.0027359787006383035,-0.023230986250042305,0.09715228999426605,44.11764879391193,-88.23529758782387,84.22370748782159
2024-09-23 16:41:36.546743,43.67,35.942938,-0.0027359787006383035,-0.023230986250042305,0.09715228999426605,44.11764879391193,-88.23529758782387,84.22370748782159
2024-09-23 16:41:36.558679,43.67,35.942938,-0.0028354659767690416,-0.02313149783467906,0.09715228999426605,44.11764879391193,-88.23529758782387,84.22370748782159
2024-09-23 16:41:36.601091,43.67,35.942989,-0.0032831742888682963,-0.022982261414192504,0.0973512698629459,44.11764879391193,-88.23529758782387,80.21211738781929
2024-09-23 16:41:36.613460,43.67,35.942989,-0.0032831742888682963,-0.022982261414192504,0.0973512698629459,48.12595698684454,-88.23529758782387,80.21211738781929
2024-09-23 16:41:36.645459,43.67,35.942989,-0.0032831742888682963,-0.022982261414192504,0.0973512698629459,48.12595698684454,-92.24360919585227,76.200527287817
2024-09-23 16:41:36.657562,43.67,35.943039,-0.0032831742888682963,-0.023579196463302005,0.09710254654607277,48.12595698684454,-92.24360919585227,76.200527287817
2024-09-23 16:41:36.699805,43.64,35.943129,-0.0026862297461545674,-0.02352945757203875,0.09710254654607277,32.08287849390507,-88.23529758782387,84.22370748782159
2024-09-23 16:41:36.742351,43.64,35.943129,-0.0026862297461545674,-0.02352945757203875,0.09690356060148622,36.09446859390736,-88.23529758782387,84.22370748782159
2024-09-23 16:41:36.753981,43.64,35.943181,-0.0024872551938930902,-0.02352945757203875,0.09690356060148622,36.09446859390736,-100.26678939585686,80.21211738781929
2024-09-23 16:41:36.796226,43.64,35.943181,-0.0024872551938930902,-0.022982261414192504,0.09750050628343246,44.11764879391193,-96.25519929585457,84.22370748782159
2024-09-23 16:41:36.808133,43.64,35.943276,-0.0024872551938930902,-0.022982261414192504,0.09750050628343246,44.11764879391193,-96.25519929585457,84.22370748782159
2024-09-23 16:41:36.840295,43.64,35.943276,-0.0028852147413806935,-0.023579196463302005,0.09750050628343246,44.11764879391193,-96.25519929585457,84.22370748782159
2024-09-23 16:41:36.852483,43.64,35.943276,-0.0028852147413806935,-0.023579196463302005,0.0970030596496862,40.106058693909645,-100.26678939585686,80.21211738781929
2024-09-23 16:41:36.894680,43.64,35.943327,-0.0026862297461545674,-0.022833026512682618,0.0973015264147526,44.11764879391193,-100.26678939585686,80.21211738781929
2024-09-23 16:41:36.906620,43.64,35.943327,-0.0026862297461545674,-0.022833026512682618,0.0973015264147526,44.11764879391193,-104.27510100388527,80.21211738781929
2024-09-23 16:41:36.939516,43.64,35.943378,-0.0030344509719951677,-0.022833026512682618,0.0973015264147526,44.11764879391193,-104.27510100388527,76.200527287817
2024-09-23 16:41:36.950856,43.64,35.943378,-0.0030344509719951677,-0.023280723622328886,0.09655535038822652,44.11764879391193,-104.27510100388527,76.200527287817
2024-09-23 16:41:36.993427,43.64,35.943429,-0.0030841997366068195,-0.023230986250042305,0.09755024973162574,44.11764879391193,-100.26678939585686,76.200527287817
2024-09-23 16:41:37.036195,43.64,35.943429,-0.0030841997366068195,-0.023230986250042305,0.09755024973162574,40.106058693909645,-100.26678939585686,84.22370748782159
2024-09-23 16:41:37.048408,43.64,35.943479,-0.002785727465249955,-0.023181236725942318,0.09755024973162574,40.106058693909645,-100.26678939585686,84.22370748782159
2024-09-23 16:41:37.091116,43.64,35.94353,-0.0027359787006383035,-0.023181236725942318,0.09685382322919964,36.09446859390736,-96.25519929585457,84.22370748782159
2024-09-23 16:41:37.133868,43.64,35.94353,-0.0027359787006383035,-0.022982261414192504,0.09720203344245934,40.106058693909645,-96.25519929585457,84.22370748782159
2024-09-23 16:41:37.144942,43.64,35.943617,-0.0027359787006383035,-0.022982261414192504,0.09720203344245934,40.106058693909645,-100.26678939585686,76.200527287817
2024-09-23 16:41:37.187536,43.64,35.943617,-0.0026862297461545674,-0.023429960042815445,0.0973512698629459,40.106058693909645,-92.24360919585227,80.21211738781929
2024-09-23 16:41:37.229992,43.64,35.943668,-0.0030344509719951677,-0.023429960042815445,0.0973512698629459,40.106058693909645,-92.24360919585227,80.21211738781929
2024-09-23 16:41:37.241629,43.64,35.943668,-0.0030344509719951677,-0.023181236725942318,0.09690356060148622,28.07457030097246,-96.25519929585457,80.21211738781929
2024-09-23 16:41:37.283522,43.64,35.943719,-0.0031836870127375577,-0.02338022115155219,0.0973512698629459,28.07457030097246,-96.25519929585457,80.21211738781929
2024-09-23 16:41:37.295403,43.64,35.943719,-0.0031836870127375577,-0.02338022115155219,0.0973512698629459,28.07457030097246,-96.25519929585457,80.21211738781929
2024-09-23 16:41:37.327327,43.64,35.943719,-0.0031836870127375577,-0.02338022115155219,0.0973512698629459,28.07457030097246,-96.25519929585457,76.200527287817
2024-09-23 16:41:37.339168,43.64,35.94377,-0.0028852147413806935,-0.023181236725942318,0.0973015264147526,28.07457030097246,-96.25519929585457,76.200527287817
2024-09-23 16:41:37.381276,43.64,35.94382,-0.002636491424507565,-0.023181236725942318,0.0973015264147526,36.09446859390736,-100.26678939585686,72.1922225099802
2024-09-23 16:41:37.393025,43.64,35.94382,-0.002636491424507565,-0.02362894446842532,0.0973015264147526,36.09446859390736,-100.26678939585686,72.1922225099802
2024-09-23 16:41:37.478105,43.64,35.94382,-0.002636491424507565,-0.02362894446842532,0.09655535038822652,36.09446859390736,-96.25519929585457,80.21211738781929
2024-09-23 16:41:37.489472,43.64,35.943871,-0.0030841997366068195,-0.02362894446842532,0.09655535038822652,36.09446859390736,-96.25519929585457,80.21211738781929
2024-09-23 16:41:37.522038,43.64,35.943871,-0.0030841997366068195,-0.02268379009219606,0.09655535038822652,36.09446859390736,-96.25519929585457,80.21211738781929
2024-09-23 16:41:37.534163,43.64,35.943958,-0.0030841997366068195,-0.02268379009219606,0.09745075675933246,36.09446859390736,-92.24360919585227,76.200527287817
2024-09-23 16:41:37.577432,43.64,35.943958,-0.0030344509719951677,-0.02352945757203875,0.09690356060148622,44.11764879391193,-92.24360919585227,76.200527287817
2024-09-23 16:41:37.589226,43.64,35.943958,-0.0030344509719951677,-0.02352945757203875,0.09690356060148622,44.11764879391193,-92.24360919585227,76.200527287817
2024-09-23 16:41:37.622184,43.64,35.94401,-0.0032831742888682963,-0.023479709566915436,0.09690356060148622,44.11764879391193,-92.24360919585227,76.200527287817
2024-09-23 16:41:37.633813,43.64,35.94401,-0.0032831742888682963,-0.023479709566915436,0.09809744588947199,36.09446859390736,-92.24360919585227,76.200527287817
2024-09-23 16:41:37.677223,43.64,35.94406,-0.0034324103296106863,-0.02308174982955575,0.09685382322919964,40.106058693909645,-92.24360919585227,76.200527287817
2024-09-23 16:41:37.719568,43.59,35.944155,-0.0034324103296106863,-0.02308174982955575,0.09685382322919964,40.106058693909645,-100.26678939585686,72.1922225099802
2024-09-23 16:41:37.730961,43.59,35.944155,-0.0028354659767690416,-0.023181236725942318,0.09720203344245934,40.106058693909645,-100.26678939585686,72.1922225099802
2024-09-23 16:41:37.773280,43.59,35.944206,-0.0027359787006383035,-0.023479709566915436,0.09720203344245934,36.09446859390736,-100.26678939585686,76.200527287817
2024-09-23 16:41:37.816661,43.59,35.944206,-0.0027359787006383035,-0.023479709566915436,0.0973015264147526,36.09446859390736,-96.25519929585457,76.200527287817
2024-09-23 16:41:37.827669,43.59,35.944256,-0.0035318979854855937,-0.023479709566915436,0.0973015264147526,36.09446859390736,-96.25519929585457,80.21211738781929
2024-09-23 16:41:37.869952,43.59,35.944348,-0.0035318979854855937,-0.02338022115155219,0.09740101331113918,40.106058693909645,-88.23529758782387,80.21211738781929
2024-09-23 16:41:37.912954,43.59,35.944348,-0.0026862297461545674,-0.023728432883788564,0.09740101331113918,40.106058693909645,-88.23529758782387,80.21211738781929
2024-09-23 16:41:37.924522,43.59,35.944348,-0.0026862297461545674,-0.023728432883788564,0.0973512698629459,44.11764879391193,-92.24360919585227,72.1922225099802
2024-09-23 16:41:37.967417,43.59,35.9444,-0.0030344509719951677,-0.02338022115155219,0.09685382322919964,44.11764879391193,-92.24360919585227,72.1922225099802
2024-09-23 16:41:37.979428,43.59,35.9444,-0.0030344509719951677,-0.02338022115155219,0.09685382322919964,44.11764879391193,-100.26678939585686,72.1922225099802
2024-09-23 16:41:38.062474,43.59,35.944451,-0.0035318979854855937,-0.02352945757203875,0.09685382322919964,44.11764879391193,-100.26678939585686,80.21211738781929
2024-09-23 16:41:38.074453,43.59,35.944451,-0.0035318979854855937,-0.02352945757203875,0.09774922960030558,44.11764879391193,-100.26678939585686,80.21211738781929
2024-09-23 16:41:38.107403,43.59,35.944451,-0.0035318979854855937,-0.02352945757203875,0.09774922960030558,44.11764879391193,-96.25519929585457,80.21211738781929
2024-09-23 16:41:38.118571,43.59,35.944502,-0.002586742470023829,-0.023230986250042305,0.09759999317981902,44.11764879391193,-96.25519929585457,80.21211738781929
2024-09-23 16:41:38.161856,43.59,35.944552,-0.0032831742888682963,-0.023230986250042305,0.09759999317981902,40.106058693909645,-100.26678939585686,80.21211738781929
2024-09-23 16:41:38.173208,43.59,35.944552,-0.0032831742888682963,-0.0228827638849692,0.09759999317981902,40.106058693909645,-100.26678939585686,80.21211738781929
2024-09-23 16:41:38.206170,43.59,35.944552,-0.0032831742888682963,-0.0228827638849692,0.09695331012558621,44.11764879391193,-108.28669110388756,80.21211738781929
2024-09-23 16:41:38.217216,43.59,35.944603,-0.0031836870127375577,-0.0228827638849692,0.09695331012558621,44.11764879391193,-108.28669110388756,72.1922225099802
2024-09-23 16:41:38.259888,43.59,35.944738,-0.0031836870127375577,-0.023778180888911878,0.0973512698629459,44.11764879391193,-96.25519929585457,80.21211738781929
2024-09-23 16:41:38.302261,43.59,35.944738,-0.0031339382481259063,-0.023429960042815445,0.0973512698629459,44.11764879391193,-96.25519929585457,80.21211738781929
2024-09-23 16:41:38.314405,43.59,35.944738,-0.0031339382481259063,-0.023429960042815445,0.0973015264147526,44.11764879391193,-88.23529758782387,76.200527287817
2024-09-23 16:41:38.358155,43.59,35.94479,-0.0029847020175114316,-0.023927417309398437,0.09670458680871308,44.11764879391193,-92.24360919585227,76.200527287817
2024-09-23 16:41:38.400373,43.59,35.94484,-0.0029847020175114316,-0.023927417309398437,0.09670458680871308,44.11764879391193,-92.24360919585227,76.200527287817
2024-09-23 16:41:38.411678,43.59,35.94484,-0.003482159473966507,-0.02313149783467906,0.09740101331113918,48.12595698684454,-92.24360919585227,76.200527287817
2024-09-23 16:41:38.454184,43.59,35.944891,-0.0031836870127375577,-0.023280723622328886,0.09740101331113918,48.12595698684454,-92.24360919585227,80.21211738781929
2024-09-23 16:41:38.466106,43.59,35.944891,-0.0031836870127375577,-0.023280723622328886,0.09705279702197278,48.12595698684454,-92.24360919585227,80.21211738781929
2024-09-23 16:41:38.498029,43.59,35.944891,-0.0031836870127375577,-0.023280723622328886,0.09705279702197278,32.08287849390507,-96.25519929585457,80.21211738781929
2024-09-23 16:41:38.509750,43.59,35.944942,-0.002785727465249955,-0.023181236725942318,0.09705279702197278,32.08287849390507,-96.25519929585457,76.200527287817
2024-09-23 16:41:38.553468,43.59,35.944992,-0.0034324103296106863,-0.023181236725942318,0.09799795899308542,44.11764879391193,-92.24360919585227,72.1922225099802
2024-09-23 16:41:38.597086,43.59,35.944992,-0.0034324103296106863,-0.023181236725942318,0.09745075675933246,44.11764879391193,-92.24360919585227,72.1922225099802
2024-09-23 16:41:38.608556,43.59,35.945079,-0.0034324103296106863,-0.023181236725942318,0.09745075675933246,44.11764879391193,-104.27510100388527,76.200527287817
2024-09-23 16:41:38.651641,43.59,35.945079,-0.0030344509719951677,-0.02338022115155219,0.09655535038822652,40.106058693909645,-96.25519929585457,80.21211738781929
2024-09-23 16:41:38.693463,43.59,35.945131,-0.0028354659767690416,-0.023579196463302005,0.09655535038822652,40.106058693909645,-96.25519929585457,80.21211738781929
2024-09-23 16:41:38.746807,43.26,35.945182,-0.0028354659767690416,-0.023579196463302005,0.09715228999426605,32.08287849390507,-100.26678939585686,76.200527287817
2024-09-23 16:41:38.758537,43.26,35.945182,-0.0028852147413806935,-0.023579196463302005,0.09715228999426605,32.08287849390507,-100.26678939585686,76.200527287817
2024-09-23 16:41:38.790389,43.26,35.945182,-0.0028852147413806935,-0.023479709566915436,0.09705279702197278,32.08287849390507,-100.26678939585686,76.200527287817
2024-09-23 16:41:38.801474,43.26,35.945232,-0.0028852147413806935,-0.023479709566915436,0.09705279702197278,32.08287849390507,-96.25519929585457,76.200527287817
2024-09-23 16:41:38.844017,43.26,35.945232,-0.0031836870127375577,-0.02263404056809607,0.09670458680871308,36.09446859390736,-100.26678939585686,76.200527287817
2024-09-23 16:41:38.856268,43.26,35.945232,-0.0031836870127375577,-0.02263404056809607,0.09670458680871308,36.09446859390736,-100.26678939585686,72.1922225099802
2024-09-23 16:41:38.890167,43.26,35.945283,-0.0026862297461545674,-0.023728432883788564,0.09670458680871308,36.09446859390736,-100.26678939585686,72.1922225099802
2024-09-23 16:41:38.901610,43.26,35.945283,-0.0026862297461545674,-0.023728432883788564,0.09774922960030558,40.106058693909645,-92.24360919585227,72.1922225099802
2024-09-23 16:41:38.945825,43.26,35.945334,-0.0031836870127375577,-0.023778180888911878,0.09685382322919964,40.106058693909645,-92.24360919585227,80.21211738781929
2024-09-23 16:41:38.988751,43.26,35.945422,-0.003631395514708897,-0.023778180888911878,0.09685382322919964,40.106058693909645,-100.26678939585686,84.22370748782159
2024-09-23 16:41:39.000575,43.26,35.945422,-0.003631395514708897,-0.023280723622328886,0.09725178296655933,40.106058693909645,-100.26678939585686,84.22370748782159
2024-09-23 16:41:39.032127,43.26,35.945422,-0.003631395514708897,-0.023280723622328886,0.09725178296655933,36.09446859390736,-100.26678939585686,84.22370748782159
2024-09-23 16:41:39.043243,43.26,35.945473,-0.0030841997366068195,-0.023479709566915436,0.09725178296655933,36.09446859390736,-96.25519929585457,80.21211738781929
2024-09-23 16:41:39.085864,43.26,35.945473,-0.0030841997366068195,-0.023479709566915436,0.09774922960030558,48.12595698684454,-104.27510100388527,76.200527287817
2024-09-23 16:41:39.099212,43.26,35.945524,-0.0033329230534799477,-0.023479709566915436,0.09774922960030558,48.12595698684454,-104.27510100388527,76.200527287817
2024-09-23 16:41:39.131211,43.26,35.945524,-0.0033329230534799477,-0.023280723622328886,0.09685382322919964,48.12595698684454,-104.27510100388527,76.200527287817
2024-09-23 16:41:39.142383,43.26,35.945616,-0.0033329230534799477,-0.023280723622328886,0.09685382322919964,40.106058693909645,-96.25519929585457,76.200527287817
2024-09-23 16:41:39.236013,43.26,35.945616,-0.0028852147413806935,-0.02308174982955575,0.0973512698629459,32.08287849390507,-104.27510100388527,80.21211738781929
2024-09-23 16:41:39.279581,43.26,35.945667,-0.002785727465249955,-0.023181236725942318,0.0973512698629459,32.08287849390507,-104.27510100388527,80.21211738781929
2024-09-23 16:41:39.290871,43.26,35.945667,-0.002785727465249955,-0.023181236725942318,0.0973015264147526,52.137550501942634,-100.26678939585686,80.21211738781929
2024-09-23 16:41:39.333587,43.26,35.945718,-0.0024872551938930902,-0.023280723622328886,0.09720203344245934,40.106058693909645,-100.26678939585686,80.21211738781929
2024-09-23 16:41:39.376941,43.26,35.945718,-0.0024872551938930902,-0.023280723622328886,0.09720203344245934,40.106058693909645,-100.26678939585686,80.21211738781929
2024-09-23 16:41:39.393415,43.26,35.945769,-0.0028852147413806935,-0.023728432883788564,0.0970030596496862,40.106058693909645,-100.26678939585686,80.21211738781929
