Ayaan's Suite
Timestamp,Sample Rate (Hz),Time,Ax,Ay,Az,Gx,Gy,Gz
2024-09-23 19:50:20.506741,0,47.267127,0.001442602149208022,-0.02303200030545576,0.0976994861521123,48.12595698684454,-96.25519929585457,80.21211738781929
2024-09-23 19:50:20.539159,0,47.267179,0.001442602149208022,-0.02303200030545576,0.0976994861521123,48.12595698684454,-96.25519929585457,80.21211738781929
2024-09-23 19:50:20.551656,0,47.267179,0.0009948937421727254,-0.02263404056809607,0.09755024973162574,48.12595698684454,-96.25519929585457,80.21211738781929
2024-09-23 19:50:20.594486,0,47.267229,0.0009451553255896806,-0.023181236725942318,0.09755024973162574,48.12595698684454,-96.25519929585457,80.21211738781929
2024-09-23 19:50:20.606882,0,47.267229,0.0009451553255896806,-0.023181236725942318,0.09779897304849887,52.137550501942634,-96.25519929585457,80.21211738781929
2024-09-23 19:50:20.638827,0,47.267229,0.0009451553255896806,-0.023181236725942318,0.09779897304849887,52.137550501942634,-96.25519929585457,72.1922225099802
2024-09-23 19:50:20.692232,0,47.26728,0.0009451553255896806,-0.02308174982955575,0.09710254654607277,48.12595698684454,-96.25519929585457,72.1922225099802
2024-09-23 19:50:20.704440,0,47.26728,0.0009451553255896806,-0.02308174982955575,0.09710254654607277,48.12595698684454,-96.25519929585457,72.1922225099802
2024-09-23 19:50:20.736966,0,47.267331,0.0009451553255896806,-0.02308174982955575,0.09710254654607277,48.12595698684454,-96.25519929585457,76.200527287817
2024-09-23 19:50:20.748516,0,47.267331,0.0012436275969465451,-0.022833026512682618,0.09784872257259886,36.09446859390736,-96.25519929585457,76.200527287817
2024-09-23 19:50:20.791253,0,47.267381,0.0009451553255896806,-0.023330473146428877,0.09755024973162574,36.09446859390736,-104.27510100388527,76.200527287817
2024-09-23 19:50:20.833786,0,47.267381,0.0009451553255896806,-0.023330473146428877,0.09755024973162574,36.09446859390736,-96.25519929585457,76.200527287817
2024-09-23 19:50:20.845802,0,47.267468,0.0005969341946851222,-0.02308174982955575,0.09755024973162574,36.09446859390736,-96.25519929585457,76.200527287817
2024-09-23 19:50:20.888272,0,47.267519,0.000845657606494293,-0.02308174982955575,0.0976994861521123,40.106058693909645,-88.23529758782387,72.1922225099802
2024-09-23 19:50:20.930468,0,47.267519,0.000845657606494293,-0.02338022115155219,0.09774922960030558,40.106058693909645,-88.23529758782387,72.1922225099802
2024-09-23 19:50:20.942205,0,47.267615,0.000845657606494293,-0.02338022115155219,0.09774922960030558,36.09446859390736,-96.25519929585457,80.21211738781929
2024-09-23 19:50:20.985303,0,47.267615,0.0008954064660419869,-0.023230986250042305,0.09715228999426605,44.11764879391193,-96.25519929585457,76.200527287817
2024-09-23 19:50:21.028424,0,47.267666,0.0007461703303635545,-0.023230986250042305,0.09715228999426605,44.11764879391193,-96.25519929585457,76.200527287817
2024-09-23 19:50:21.039458,0,47.267666,0.0007461703303635545,-0.02293251340906919,0.09725178296655933,44.11764879391193,-92.24360919585227,76.200527287817
2024-09-23 19:50:21.082432,0,47.267717,0.0011938787373988514,-0.02313149783467906,0.09685382322919964,44.11764879391193,-92.24360919585227,80.21211738781929
2024-09-23 19:50:21.094553,0,47.267717,0.0011938787373988514,-0.02313149783467906,0.09685382322919964,40.106058693909645,-92.24360919585227,80.21211738781929
2024-09-23 19:50:21.126898,0,47.267717,0.0011938787373988514,-0.02313149783467906,0.09685382322919964,40.106058693909645,-92.24360919585227,76.200527287817
2024-09-23 19:50:21.138553,0,47.267768,0.001044642601720419,-0.02308174982955575,0.09755024973162574,40.106058693909645,-92.24360919585227,76.200527287817
2024-09-23 19:50:21.180940,0,47.267818,0.0007461703303635545,-0.023479709566915436,0.09755024973162574,52.137550501942634,-96.25519929585457,80.21211738781929
2024-09-23 19:50:21.223221,0,47.267818,0.0007461703303635545,-0.023479709566915436,0.09759999317981902,44.11764879391193,-96.25519929585457,80.21211738781929
2024-09-23 19:50:21.234659,0,47.267869,0.0009948937421727254,-0.023479709566915436,0.09759999317981902,44.11764879391193,-96.25519929585457,80.21211738781929
2024-09-23 19:50:21.277637,0,47.267869,0.0009948937421727254,-0.02338022115155219,0.09740101331113918,40.106058693909645,-92.24360919585227,76.200527287817
2024-09-23 19:50:21.289430,0,47.267956,0.0009948937421727254,-0.02338022115155219,0.09740101331113918,40.106058693909645,-92.24360919585227,76.200527287817
2024-09-23 19:50:21.321638,0,47.267956,0.000845657606494293,-0.023181236725942318,0.09740101331113918,40.106058693909645,-92.24360919585227,76.200527287817
2024-09-23 19:50:21.333247,0,47.267956,0.000845657606494293,-0.023181236725942318,0.09755024973162574,44.11764879391193,-92.24360919585227,80.21211738781929
2024-09-23 19:50:21.376799,0,47.268007,0.0005471957306340564,-0.023579196463302005,0.09740101331113918,36.09446859390736,-92.24360919585227,80.21211738781929
2024-09-23 19:50:21.419692,0,47.268058,0.0009451553255896806,-0.023579196463302005,0.09740101331113918,36.09446859390736,-92.24360919585227,72.1922225099802
2024-09-23 19:50:21.430726,0,47.268058,0.0009451553255896806,-0.02278327698858263,0.09779897304849887,36.09446859390736,-92.24360919585227,72.1922225099802
2024-09-23 19:50:21.472623,0,47.268109,0.000845657606494293,-0.022833026512682618,0.09779897304849887,36.09446859390736,-100.26678939585686,72.1922225099802
2024-09-23 19:50:21.484793,0,47.268109,0.000845657606494293,-0.022833026512682618,0.0976994861521123,36.09446859390736,-100.26678939585686,72.1922225099802
2024-09-23 19:50:21.516544,43.09,47.268109,0.000845657606494293,-0.022833026512682618,0.0976994861521123,48.12595698684454,-96.25519929585457,72.1922225099802
2024-09-23 19:50:21.528380,43.09,47.26816,0.0006964318663124887,-0.023330473146428877,0.0976994861521123,48.12595698684454,-96.25519929585457,76.200527287817
2024-09-23 19:50:21.571163,43.09,47.26821,0.0009451553255896806,-0.023330473146428877,0.09789846602079214,52.137550501942634,-96.25519929585457,72.1922225099802
2024-09-23 19:50:21.664613,43.09,47.26821,0.0009451553255896806,-0.023330473146428877,0.09750050628343246,40.106058693909645,-92.24360919585227,72.1922225099802
2024-09-23 19:50:21.676573,43.09,47.268297,0.0009451553255896806,-0.023330473146428877,0.09750050628343246,40.106058693909645,-92.24360919585227,76.200527287817
2024-09-23 19:50:21.708782,43.09,47.268297,0.001044642601720419,-0.023330473146428877,0.09750050628343246,40.106058693909645,-92.24360919585227,76.200527287817
2024-09-23 19:50:21.719884,43.09,47.268297,0.001044642601720419,-0.023280723622328886,0.0970030596496862,40.106058693909645,-96.25519929585457,76.200527287817
2024-09-23 19:50:21.763225,43.09,47.268349,0.0007959191899112484,-0.023330473146428877,0.09635636444363997,40.106058693909645,-96.25519929585457,76.200527287817
2024-09-23 19:50:21.774952,43.09,47.268349,0.0007959191899112484,-0.023330473146428877,0.09635636444363997,40.106058693909645,-92.24360919585227,76.200527287817
2024-09-23 19:50:21.808694,43.09,47.268399,0.0007959191899112484,-0.023330473146428877,0.09635636444363997,40.106058693909645,-92.24360919585227,76.200527287817
2024-09-23 19:50:21.820568,43.09,47.268399,0.0006466830067647949,-0.0228827638849692,0.0973512698629459,40.106058693909645,-92.24360919585227,76.200527287817
2024-09-23 19:50:21.863393,43.09,47.268399,0.0006466830067647949,-0.0228827638849692,0.0973512698629459,40.106058693909645,-100.26678939585686,76.200527287817
2024-09-23 19:50:21.906442,43.09,47.26845,0.0007461703303635545,-0.0228827638849692,0.0973512698629459,40.106058693909645,-100.26678939585686,76.200527287817
2024-09-23 19:50:21.918182,43.09,47.26845,0.0007461703303635545,-0.023230986250042305,0.09745075675933246,40.106058693909645,-100.26678939585686,76.200527287817
2024-09-23 19:50:21.961753,43.09,47.268543,0.0007461703303635545,-0.02293251340906919,0.09794820946898543,36.09446859390736,-100.26678939585686,76.200527287817
2024-09-23 19:50:22.003657,43.09,47.268543,0.0007461703303635545,-0.02293251340906919,0.09794820946898543,36.09446859390736,-92.24360919585227,72.1922225099802
2024-09-23 19:50:22.015161,43.09,47.268594,0.0007461703303635545,-0.023280723622328886,0.09725178296655933,36.09446859390736,-92.24360919585227,72.1922225099802
2024-09-23 19:50:22.059075,43.09,47.268687,0.0009451553255896806,-0.023330473146428877,0.09725178296655933,40.106058693909645,-92.24360919585227,76.200527287817
2024-09-23 19:50:22.101592,43.09,47.268687,0.0009451553255896806,-0.023330473146428877,0.09755024973162574,44.11764879391193,-92.24360919585227,76.200527287817
2024-09-23 19:50:22.112967,43.09,47.268738,0.0011938787373988514,-0.023330473146428877,0.09755024973162574,44.11764879391193,-96.25519929585457,64.16903547978401
2024-09-23 19:50:22.155783,43.09,47.268833,0.0011938787373988514,-0.023280723622328886,0.0976994861521123,40.106058693909645,-96.25519929585457,84.22370748782159
2024-09-23 19:50:22.199627,43.09,47.268833,0.0007959191899112484,-0.02313149783467906,0.09794820946898543,40.106058693909645,-96.25519929585457,84.22370748782159
2024-09-23 19:50:22.211462,43.09,47.268833,0.0007959191899112484,-0.02313149783467906,0.09794820946898543,40.106058693909645,-96.25519929585457,76.200527287817
2024-09-23 19:50:22.254122,43.09,47.268885,0.0007959191899112484,-0.023181236725942318,0.09809744588947199,40.106058693909645,-96.25519929585457,76.200527287817
2024-09-23 19:50:22.296070,43.09,47.268936,0.0007959191899112484,-0.023181236725942318,0.09809744588947199,40.106058693909645,-96.25519929585457,80.21211738781929
2024-09-23 19:50:22.307866,43.09,47.268936,0.0008954064660419869,-0.02308174982955575,0.09774922960030558,36.09446859390736,-96.25519929585457,80.21211738781929
2024-09-23 19:50:22.351525,43.09,47.268986,0.0006466830067647949,-0.023728432883788564,0.09715228999426605,36.09446859390736,-92.24360919585227,76.200527287817
2024-09-23 19:50:22.393769,43.09,47.268986,0.0006466830067647949,-0.023728432883788564,0.09715228999426605,36.09446859390736,-96.25519929585457,76.200527287817
2024-09-23 19:50:22.405770,43.09,47.269037,0.00044769805900669,-0.0228827638849692,0.09715228999426605,36.09446859390736,-96.25519929585457,76.200527287817
2024-09-23 19:50:22.449264,43.09,47.269088,0.0005471957306340564,-0.0228827638849692,0.09779897304849887,36.09446859390736,-104.27510100388527,80.21211738781929
2024-09-23 19:50:22.491691,43.09,47.269088,0.0005471957306340564,-0.023181236725942318,0.0970030596496862,44.11764879391193,-104.27510100388527,80.21211738781929
2024-09-23 19:50:22.503775,43.09,47.269088,0.0005471957306340564,-0.023181236725942318,0.0970030596496862,44.11764879391193,-92.24360919585227,80.21211738781929
2024-09-23 19:50:22.587808,39.75,47.269088,0.0005471957306340564,-0.023181236725942318,0.0970030596496862,44.11764879391193,-92.24360919585227,72.1922225099802
2024-09-23 19:50:22.599958,39.75,47.269175,0.0006964318663124887,-0.022733528983459317,0.09745075675933246,40.106058693909645,-92.24360919585227,72.1922225099802
2024-09-23 19:50:22.643074,39.75,47.269175,0.0006964318663124887,-0.022733528983459317,0.09745075675933246,40.106058693909645,-96.25519929585457,72.1922225099802
2024-09-23 19:50:22.685415,39.75,47.269226,0.0006964318663124887,-0.022733528983459317,0.09745075675933246,40.106058693909645,-96.25519929585457,80.21211738781929
2024-09-23 19:50:22.697556,39.75,47.269226,0.0005471957306340564,-0.022733528983459317,0.09745075675933246,40.106058693909645,-96.25519929585457,80.21211738781929
2024-09-23 19:50:22.741708,39.75,47.269277,0.0005471957306340564,-0.023181236725942318,0.09774922960030558,52.137550501942634,-92.24360919585227,76.200527287817
2024-09-23 19:50:22.785592,39.75,47.269277,0.0007959191899112484,-0.023330473146428877,0.09784872257259886,52.137550501942634,-92.24360919585227,76.200527287817
2024-09-23 19:50:22.796709,39.75,47.269277,0.0007959191899112484,-0.023330473146428877,0.09784872257259886,44.11764879391193,-96.25519929585457,80.21211738781929
2024-09-23 19:50:22.839245,39.75,47.269328,0.0012933660135295898,-0.02308174982955575,0.09750050628343246,32.08287849390507,-96.25519929585457,80.21211738781929
2024-09-23 19:50:22.881915,39.75,47.269378,0.0004974468710863627,-0.02308174982955575,0.09750050628343246,32.08287849390507,-96.25519929585457,80.21211738781929
2024-09-23 19:50:22.892907,39.75,47.269378,0.0004974468710863627,-0.02362894446842532,0.09759999317981902,44.11764879391193,-96.25519929585457,80.21211738781929
2024-09-23 19:50:22.936657,39.75,47.269516,0.001044642601720419,-0.02397715620066169,0.09715228999426605,44.11764879391193,-100.26678939585686,80.21211738781929
2024-09-23 19:50:22.978944,39.75,47.269516,0.001044642601720419,-0.02397715620066169,0.09715228999426605,44.11764879391193,-92.24360919585227,80.21211738781929
2024-09-23 19:50:22.990633,39.75,47.269616,0.000845657606494293,-0.02308174982955575,0.09715228999426605,44.11764879391193,-92.24360919585227,80.21211738781929
2024-09-23 19:50:23.033482,39.75,47.269666,0.0006964318663124887,-0.02308174982955575,0.09740101331113918,48.12595698684454,-100.26678939585686,76.200527287817
2024-09-23 19:50:23.075706,39.75,47.269666,0.0006964318663124887,-0.022833026512682618,0.09745075675933246,48.12595698684454,-100.26678939585686,76.200527287817
2024-09-23 19:50:23.087155,39.75,47.26976,0.0006964318663124887,-0.022833026512682618,0.09745075675933246,32.08287849390507,-92.24360919585227,80.21211738781929
2024-09-23 19:50:23.129801,39.75,47.26976,0.0005471957306340564,-0.022982261414192504,0.09794820946898543,36.09446859390736,-88.23529758782387,80.21211738781929
2024-09-23 19:50:23.141643,39.75,47.26976,0.0005471957306340564,-0.022982261414192504,0.09794820946898543,36.09446859390736,-88.23529758782387,76.200527287817
2024-09-23 19:50:23.174198,39.75,47.269811,0.001044642601720419,-0.022982261414192504,0.09794820946898543,36.09446859390736,-88.23529758782387,76.200527287817
2024-09-23 19:50:23.185593,39.75,47.269811,0.001044642601720419,-0.02303200030545576,0.0970030596496862,48.12595698684454,-88.23529758782387,76.200527287817
2024-09-23 19:50:23.227175,39.75,47.269862,0.000845657606494293,-0.023330473146428877,0.09715228999426605,48.12595698684454,-88.23529758782387,80.21211738781929
2024-09-23 19:50:23.239037,39.75,47.269862,0.000845657606494293,-0.023330473146428877,0.09715228999426605,44.11764879391193,-88.23529758782387,80.21211738781929
2024-09-23 19:50:23.270985,39.75,47.269862,0.000845657606494293,-0.023330473146428877,0.09715228999426605,44.11764879391193,-92.24360919585227,80.21211738781929
2024-09-23 19:50:23.282441,39.75,47.269913,0.0005969341946851222,-0.02313149783467906,0.09745075675933246,44.11764879391193,-92.24360919585227,80.21211738781929
2024-09-23 19:50:23.324230,39.75,47.269963,0.00034821073540793035,-0.02313149783467906,0.09745075675933246,36.09446859390736,-92.24360919585227,76.200527287817
2024-09-23 19:50:23.335866,39.75,47.269963,0.00034821073540793035,-0.023230986250042305,0.09745075675933246,36.09446859390736,-92.24360919585227,76.200527287817
2024-09-23 19:50:23.368735,39.75,47.269963,0.00034821073540793035,-0.023230986250042305,0.0973015264147526,40.106058693909645,-92.24360919585227,76.200527287817
2024-09-23 19:50:23.380201,39.75,47.270014,0.0006466830067647949,-0.023230986250042305,0.0973015264147526,40.106058693909645,-92.24360919585227,76.200527287817
2024-09-23 19:50:23.422151,39.75,47.270014,0.0006466830067647949,-0.023728432883788564,0.0976994861521123,44.11764879391193,-92.24360919585227,72.1922225099802
2024-09-23 19:50:23.433883,39.75,47.270101,0.0006466830067647949,-0.023728432883788564,0.0976994861521123,44.11764879391193,-92.24360919585227,72.1922225099802
2024-09-23 19:50:23.466202,39.75,47.270101,0.00029846189959424716,-0.02268379009219606,0.0976994861521123,44.11764879391193,-92.24360919585227,72.1922225099802
2024-09-23 19:50:23.478100,39.75,47.270101,0.00029846189959424716,-0.02268379009219606,0.09764974270391902,36.09446859390736,-92.24360919585227,76.200527287817
2024-09-23 19:50:23.520457,39.75,47.270153,0.000845657606494293,-0.02303200030545576,0.09715228999426605,36.09446859390736,-92.24360919585227,76.200527287817
2024-09-23 19:50:23.532056,39.75,47.270153,0.000845657606494293,-0.02303200030545576,0.09715228999426605,36.09446859390736,-100.26678939585686,76.200527287817
2024-09-23 19:50:23.564683,39.75,47.270203,0.0007959191899112484,-0.02303200030545576,0.09715228999426605,36.09446859390736,-100.26678939585686,76.200527287817
2024-09-23 19:50:23.576623,39.75,47.270203,0.0007959191899112484,-0.023230986250042305,0.09750050628343246,40.106058693909645,-100.26678939585686,76.200527287817
2024-09-23 19:50:23.620633,41.35,47.270254,0.0006466830067647949,-0.023280723622328886,0.09745075675933246,40.106058693909645,-100.26678939585686,76.200527287817
2024-09-23 19:50:23.662913,41.35,47.270254,0.0006466830067647949,-0.023280723622328886,0.09745075675933246,48.12595698684454,-100.26678939585686,76.200527287817
2024-09-23 19:50:23.756930,41.35,47.270254,0.0006466830067647949,-0.023280723622328886,0.09745075675933246,48.12595698684454,-96.25519929585457,76.200527287817
2024-09-23 19:50:23.768531,41.35,47.270304,0.0005969341946851222,-0.02293251340906919,0.0973512698629459,48.12595698684454,-96.25519929585457,76.200527287817
2024-09-23 19:50:23.812208,41.35,47.270355,0.0005969341946851222,-0.02293251340906919,0.0973512698629459,32.08287849390507,-100.26678939585686,76.200527287817
2024-09-23 19:50:23.823839,41.35,47.270355,0.0010943914612681128,-0.02293251340906919,0.0973512698629459,32.08287849390507,-100.26678939585686,76.200527287817
2024-09-23 19:50:23.856000,41.35,47.270355,0.0010943914612681128,-0.02293251340906919,0.09740101331113918,32.08287849390507,-100.26678939585686,76.200527287817
2024-09-23 19:50:23.867139,41.35,47.270442,0.0005471957306340564,-0.02293251340906919,0.09740101331113918,40.106058693909645,-96.25519929585457,76.200527287817
2024-09-23 19:50:23.910860,41.35,47.270494,0.0005471957306340564,-0.02338022115155219,0.09710254654607277,36.09446859390736,-92.24360919585227,80.21211738781929
2024-09-23 19:50:23.953930,41.35,47.270494,0.0009948937421727254,-0.023280723622328886,0.09710254654607277,36.09446859390736,-92.24360919585227,80.21211738781929
2024-09-23 19:50:23.965210,41.35,47.270494,0.0009948937421727254,-0.023280723622328886,0.09755024973162574,44.11764879391193,-92.24360919585227,76.200527287817
2024-09-23 19:50:24.008136,41.35,47.270638,0.0005969341946851222,-0.023429960042815445,0.0973512698629459,36.09446859390736,-92.24360919585227,76.200527287817
2024-09-23 19:50:24.051903,41.35,47.270689,0.0005969341946851222,-0.023429960042815445,0.0973512698629459,36.09446859390736,-92.24360919585227,76.200527287817
2024-09-23 19:50:24.063249,41.35,47.270689,0.0005969341946851222,-0.022833026512682618,0.09750050628343246,40.106058693909645,-92.24360919585227,76.200527287817
2024-09-23 19:50:24.106127,41.35,47.27074,0.0009948937421727254,-0.02263404056809607,0.09750050628343246,40.106058693909645,-96.25519929585457,76.200527287817
2024-09-23 19:50:24.117742,41.35,47.27074,0.0009948937421727254,-0.02263404056809607,0.09705279702197278,40.106058693909645,-96.25519929585457,76.200527287817
2024-09-23 19:50:24.150379,41.35,47.27074,0.0009948937421727254,-0.02263404056809607,0.09705279702197278,40.106058693909645,-92.24360919585227,80.21211738781929
2024-09-23 19:50:24.161895,41.35,47.270791,0.0005471957306340564,-0.02308174982955575,0.09705279702197278,40.106058693909645,-92.24360919585227,80.21211738781929
2024-09-23 19:50:24.204345,41.35,47.270841,0.0005969341946851222,-0.02308174982955575,0.09710254654607277,32.08287849390507,-88.23529758782387,84.22370748782159
2024-09-23 19:50:24.246345,41.35,47.270841,0.0005969341946851222,-0.023181236725942318,0.09710254654607277,32.08287849390507,-88.23529758782387,84.22370748782159
2024-09-23 19:50:24.257684,41.35,47.27093,0.0005969341946851222,-0.023181236725942318,0.09710254654607277,44.11764879391193,-100.26678939585686,76.200527287817
2024-09-23 19:50:24.300416,41.35,47.27093,0.0004974468710863627,-0.023181236725942318,0.09740101331113918,48.12595698684454,-96.25519929585457,76.200527287817
2024-09-23 19:50:24.312129,41.35,47.27093,0.0004974468710863627,-0.023181236725942318,0.09740101331113918,48.12595698684454,-96.25519929585457,72.1922225099802
2024-09-23 19:50:24.344814,41.35,47.270981,0.0005471957306340564,-0.02338022115155219,0.09740101331113918,48.12595698684454,-96.25519929585457,72.1922225099802
2024-09-23 19:50:24.397564,41.35,47.271032,0.0005471957306340564,-0.02338022115155219,0.09764974270391902,40.106058693909645,-92.24360919585227,72.1922225099802
2024-09-23 19:50:24.409781,41.35,47.271032,0.0005471957306340564,-0.02338022115155219,0.09764974270391902,40.106058693909645,-92.24360919585227,72.1922225099802
2024-09-23 19:50:24.443187,41.35,47.271032,0.0005471957306340564,-0.023181236725942318,0.09755024973162574,36.09446859390736,-92.24360919585227,72.1922225099802
2024-09-23 19:50:24.454890,41.35,47.271083,0.0005471957306340564,-0.023181236725942318,0.09755024973162574,36.09446859390736,-96.25519929585457,84.22370748782159
2024-09-23 19:50:24.497776,41.35,47.271083,0.0005471957306340564,-0.023579196463302005,0.09774922960030558,44.11764879391193,-100.26678939585686,72.1922225099802
2024-09-23 19:50:24.540010,41.35,47.271133,0.0007959191899112484,-0.02338022115155219,0.09774922960030558,44.11764879391193,-100.26678939585686,72.1922225099802
2024-09-23 19:50:24.551783,41.35,47.271133,0.0007959191899112484,-0.02338022115155219,0.09675432418099966,52.137550501942634,-92.24360919585227,72.1922225099802
2024-09-23 19:50:24.595468,41.35,47.271184,0.0004974468710863627,-0.023330473146428877,0.09740101331113918,44.11764879391193,-92.24360919585227,80.21211738781929
2024-09-23 19:50:24.637794,40.59,47.271273,0.0004974468710863627,-0.023330473146428877,0.09740101331113918,44.11764879391193,-96.25519929585457,76.200527287817
2024-09-23 19:50:24.649191,40.59,47.271273,0.0007959191899112484,-0.0228827638849692,0.09750050628343246,44.11764879391193,-96.25519929585457,76.200527287817
2024-09-23 19:50:24.692277,40.59,47.271273,0.0007959191899112484,-0.0228827638849692,0.09750050628343246,32.08287849390507,-92.24360919585227,76.200527287817
2024-09-23 19:50:24.734544,40.59,47.271323,0.0005471957306340564,-0.0228827638849692,0.09750050628343246,32.08287849390507,-92.24360919585227,76.200527287817
2024-09-23 19:50:24.746183,40.59,47.271323,0.0005471957306340564,-0.02367869399252531,0.0976994861521123,28.07457030097246,-92.24360919585227,76.200527287817
2024-09-23 19:50:24.789148,40.59,47.271374,0.00044769805900669,-0.023280723622328886,0.09715228999426605,28.07457030097246,-96.25519929585457,80.21211738781929
2024-09-23 19:50:24.832601,40.59,47.271374,0.00044769805900669,-0.023280723622328886,0.09715228999426605,52.137550501942634,-100.26678939585686,76.200527287817
2024-09-23 19:50:24.844268,40.59,47.271466,0.0003979595949556242,-0.02278327698858263,0.09715228999426605,52.137550501942634,-100.26678939585686,76.200527287817
2024-09-23 19:50:24.886723,40.59,47.271517,0.0011441298778511575,-0.02278327698858263,0.0976994861521123,40.106058693909645,-96.25519929585457,76.200527287817
2024-09-23 19:50:24.928540,40.59,47.271517,0.0011441298778511575,-0.022982261414192504,0.09740101331113918,40.106058693909645,-96.25519929585457,76.200527287817
2024-09-23 19:50:24.939781,40.59,47.271568,0.0011441298778511575,-0.022982261414192504,0.09740101331113918,40.106058693909645,-96.25519929585457,80.21211738781929
2024-09-23 19:50:24.982326,40.59,47.271568,0.00034821073540793035,-0.02352945757203875,0.09725178296655933,48.12595698684454,-92.24360919585227,80.21211738781929
2024-09-23 19:50:24.994079,40.59,47.271568,0.00034821073540793035,-0.02352945757203875,0.09725178296655933,48.12595698684454,-92.24360919585227,80.21211738781929
2024-09-23 19:50:25.026304,40.59,47.271661,0.00034821073540793035,-0.02352945757203875,0.09725178296655933,48.12595698684454,-92.24360919585227,80.21211738781929
2024-09-23 19:50:25.037594,40.59,47.271661,0.0007461703303635545,-0.02352945757203875,0.09740101331113918,36.09446859390736,-96.25519929585457,80.21211738781929
2024-09-23 19:50:25.081286,40.59,47.271713,0.0007461703303635545,-0.02303200030545576,0.09764974270391902,40.106058693909645,-96.25519929585457,84.22370748782159
2024-09-23 19:50:25.123604,40.59,47.271713,0.0007461703303635545,-0.02303200030545576,0.09764974270391902,40.106058693909645,-96.25519929585457,76.200527287817
2024-09-23 19:50:25.135018,40.59,47.271763,0.0006466830067647949,-0.022733528983459317,0.0973512698629459,40.106058693909645,-96.25519929585457,76.200527287817
2024-09-23 19:50:25.176991,40.59,47.271814,0.0007461703303635545,-0.022733528983459317,0.0973512698629459,40.106058693909645,-96.25519929585457,76.200527287817
2024-09-23 19:50:25.189062,40.59,47.271814,0.0007461703303635545,-0.023479709566915436,0.0973512698629459,40.106058693909645,-96.25519929585457,76.200527287817
2024-09-23 19:50:25.221786,40.59,47.271814,0.0007461703303635545,-0.023479709566915436,0.09705279702197278,36.09446859390736,-96.25519929585457,76.200527287817
2024-09-23 19:50:25.233268,40.59,47.271865,0.0006964318663124887,-0.023479709566915436,0.09705279702197278,36.09446859390736,-92.24360919585227,72.1922225099802
2024-09-23 19:50:25.275535,40.59,47.271865,0.0006964318663124887,-0.023330473146428877,0.09784872257259886,44.11764879391193,-92.24360919585227,72.1922225099802
2024-09-23 19:50:25.287226,40.59,47.271953,0.0006964318663124887,-0.023330473146428877,0.09784872257259886,44.11764879391193,-92.24360919585227,72.1922225099802
2024-09-23 19:50:25.319994,40.59,47.271953,0.00034821073540793035,-0.023181236725942318,0.09774922960030558,44.11764879391193,-92.24360919585227,72.1922225099802
2024-09-23 19:50:25.331879,40.59,47.271953,0.00034821073540793035,-0.023181236725942318,0.09774922960030558,40.106058693909645,-100.26678939585686,76.200527287817
2024-09-23 19:50:25.374580,40.59,47.272005,0.0006964318663124887,-0.022982261414192504,0.0976994861521123,36.09446859390736,-96.25519929585457,76.200527287817
2024-09-23 19:50:25.416644,40.59,47.272056,0.0004974468710863627,-0.022982261414192504,0.0976994861521123,36.09446859390736,-96.25519929585457,68.18063240997792
2024-09-23 19:50:25.470728,40.59,47.272106,0.0004974468710863627,-0.0228827638849692,0.09759999317981902,40.106058693909645,-96.25519929585457,76.200527287817
2024-09-23 19:50:25.513707,40.59,47.272106,0.0012933660135295898,-0.022733528983459317,0.09759999317981902,40.106058693909645,-96.25519929585457,76.200527287817
2024-09-23 19:50:25.525710,40.59,47.272106,0.0012933660135295898,-0.022733528983459317,0.09740101331113918,44.11764879391193,-88.23529758782387,76.200527287817
2024-09-23 19:50:25.568619,40.59,47.272157,0.0007959191899112484,-0.023230986250042305,0.09720203344245934,40.106058693909645,-88.23529758782387,76.200527287817
2024-09-23 19:50:25.611749,40.59,47.272157,0.0007959191899112484,-0.023230986250042305,0.09720203344245934,40.106058693909645,-92.24360919585227,84.22370748782159
2024-09-23 19:50:25.622991,40.59,47.272208,0.0006964318663124887,-0.02308174982955575,0.09779897304849887,40.106058693909645,-92.24360919585227,84.22370748782159
2024-09-23 19:50:25.665483,40.65,47.272295,0.0011938787373988514,-0.02303200030545576,0.09779897304849887,44.11764879391193,-92.24360919585227,76.200527287817
2024-09-23 19:50:25.708308,40.65,47.272295,0.0011938787373988514,-0.02303200030545576,0.09779897304849887,48.12595698684454,-92.24360919585227,76.200527287817
2024-09-23 19:50:25.761088,40.65,47.272295,0.0011938787373988514,-0.02303200030545576,0.09779897304849887,48.12595698684454,-96.25519929585457,80.21211738781929
2024-09-23 19:50:25.814077,40.65,47.272346,0.0007461703303635545,-0.02367869399252531,0.09784872257259886,40.106058693909645,-96.25519929585457,80.21211738781929
2024-09-23 19:50:25.858341,40.65,47.272397,0.0007959191899112484,-0.02367869399252531,0.09784872257259886,40.106058693909645,-96.25519929585457,76.200527287817
2024-09-23 19:50:25.870201,40.65,47.272397,0.0007959191899112484,-0.02338022115155219,0.09814718933766527,52.137550501942634,-96.25519929585457,76.200527287817
2024-09-23 19:50:25.902493,40.65,47.272397,0.0007959191899112484,-0.02338022115155219,0.09814718933766527,52.137550501942634,-92.24360919585227,76.200527287817
2024-09-23 19:50:25.914150,40.65,47.27249,0.0006964318663124887,-0.02313149783467906,0.09794820946898543,52.137550501942634,-92.24360919585227,76.200527287817
2024-09-23 19:50:25.956793,40.65,47.272542,0.0005969341946851222,-0.02313149783467906,0.09794820946898543,44.11764879391193,-100.26678939585686,76.200527287817
2024-09-23 19:50:25.969031,40.65,47.272542,0.0005969341946851222,-0.023479709566915436,0.09794820946898543,44.11764879391193,-100.26678939585686,76.200527287817
2024-09-23 19:50:26.002683,40.65,47.272542,0.0005969341946851222,-0.023479709566915436,0.09705279702197278,44.11764879391193,-92.24360919585227,76.200527287817
2024-09-23 19:50:26.013587,40.65,47.272636,0.0008954064660419869,-0.023479709566915436,0.09705279702197278,44.11764879391193,-92.24360919585227,76.200527287817
2024-09-23 19:50:26.056590,40.65,47.272733,0.0008954064660419869,-0.0225345536717095,0.09710254654607277,48.12595698684454,-88.23529758782387,80.21211738781929
2024-09-23 19:50:26.098441,40.65,47.272733,0.0011441298778511575,-0.023230986250042305,0.09710254654607277,48.12595698684454,-88.23529758782387,80.21211738781929
2024-09-23 19:50:26.110135,40.65,47.272733,0.0011441298778511575,-0.023230986250042305,0.09764974270391902,36.09446859390736,-108.28669110388756,64.16903547978401
2024-09-23 19:50:26.147052,40.65,47.272785,0.0011441298778511575,-0.023230986250042305,0.09764974270391902,36.09446859390736,-108.28669110388756,64.16903547978401
2024-09-23 19:50:26.158066,40.65,47.272785,0.0011441298778511575,-0.023728432883788564,0.09715228999426605,44.11764879391193,-96.25519929585457,64.16903547978401
2024-09-23 19:50:26.200036,40.65,47.272836,0.0006964318663124887,-0.023429960042815445,0.09715228999426605,44.11764879391193,-96.25519929585457,68.18063240997792
2024-09-23 19:50:26.212054,40.65,47.272836,0.0006964318663124887,-0.023429960042815445,0.09740101331113918,32.08287849390507,-96.25519929585457,68.18063240997792
2024-09-23 19:50:26.244721,40.65,47.272836,0.0006964318663124887,-0.023429960042815445,0.09740101331113918,32.08287849390507,-100.26678939585686,76.200527287817
2024-09-23 19:50:26.256031,40.65,47.272886,0.0007461703303635545,-0.0228827638849692,0.0973015264147526,32.08287849390507,-100.26678939585686,76.200527287817
2024-09-23 19:50:26.298838,40.65,47.272937,0.0005471957306340564,-0.0228827638849692,0.0973015264147526,32.08287849390507,-92.24360919585227,72.1922225099802
2024-09-23 19:50:26.310572,40.65,47.272937,0.0005471957306340564,-0.02338022115155219,0.0973015264147526,32.08287849390507,-92.24360919585227,72.1922225099802
2024-09-23 19:50:26.344288,40.65,47.272937,0.0005471957306340564,-0.02338022115155219,0.09720203344245934,40.106058693909645,-100.26678939585686,72.1922225099802
2024-09-23 19:50:26.355559,40.65,47.272988,0.00014922575204880957,-0.02338022115155219,0.09720203344245934,40.106058693909645,-100.26678939585686,80.21211738781929
2024-09-23 19:50:26.397852,40.65,47.273075,0.00014922575204880957,-0.02313149783467906,0.09685382322919964,56.14914060194492,-100.26678939585686,76.200527287817
2024-09-23 19:50:26.440629,40.65,47.273075,0.0009451553255896806,-0.02308174982955575,0.09685382322919964,56.14914060194492,-100.26678939585686,76.200527287817
2024-09-23 19:50:26.452687,40.65,47.273075,0.0009451553255896806,-0.02308174982955575,0.09750050628343246,40.106058693909645,-96.25519929585457,76.200527287817
2024-09-23 19:50:26.496606,40.65,47.273126,0.0007959191899112484,-0.023728432883788564,0.09705279702197278,36.09446859390736,-92.24360919585227,76.200527287817
2024-09-23 19:50:26.540329,40.65,47.273177,0.0007959191899112484,-0.02352945757203875,0.09705279702197278,36.09446859390736,-92.24360919585227,84.22370748782159
2024-09-23 19:50:26.553559,40.65,47.273177,0.0007959191899112484,-0.02352945757203875,0.0976994861521123,40.106058693909645,-92.24360919585227,84.22370748782159
2024-09-23 19:50:26.585686,40.65,47.273177,0.0007959191899112484,-0.02352945757203875,0.0976994861521123,40.106058693909645,-88.23529758782387,72.1922225099802
2024-09-23 19:50:26.597073,40.65,47.273227,0.00024872343554318134,-0.02308174982955575,0.09750050628343246,40.106058693909645,-88.23529758782387,72.1922225099802
2024-09-23 19:50:26.639771,40.65,47.273278,0.00034821073540793035,-0.02308174982955575,0.09750050628343246,52.137550501942634,-92.24360919585227,76.200527287817
2024-09-23 19:50:26.651237,40.65,47.273278,0.00034821073540793035,-0.023181236725942318,0.09750050628343246,52.137550501942634,-92.24360919585227,76.200527287817
2024-09-23 19:50:26.683296,41.08,47.273278,0.00034821073540793035,-0.023181236725942318,0.09725178296655933,32.08287849390507,-92.24360919585227,76.200527287817
2024-09-23 19:50:26.694723,41.08,47.273329,0.00029846189959424716,-0.023181236725942318,0.09725178296655933,32.08287849390507,-88.23529758782387,80.21211738781929
2024-09-23 19:50:26.737046,41.08,47.273329,0.00029846189959424716,-0.02313149783467906,0.09774922960030558,36.09446859390736,-88.23529758782387,80.21211738781929
2024-09-23 19:50:26.780366,41.08,47.273329,0.00029846189959424716,-0.02313149783467906,0.09774922960030558,36.09446859390736,-92.24360919585227,72.1922225099802
2024-09-23 19:50:26.793045,41.08,47.273416,0.0007959191899112484,-0.023230986250042305,0.09764974270391902,36.09446859390736,-92.24360919585227,72.1922225099802
2024-09-23 19:50:26.835982,41.08,47.273467,0.000845657606494293,-0.023280723622328886,0.09764974270391902,40.106058693909645,-96.25519929585457,76.200527287817
2024-09-23 19:50:26.878639,41.08,47.273467,0.000845657606494293,-0.023280723622328886,0.09745075675933246,44.11764879391193,-96.25519929585457,76.200527287817
2024-09-23 19:50:26.889785,41.08,47.273518,0.0009948937421727254,-0.023280723622328886,0.09745075675933246,44.11764879391193,-88.23529758782387,84.22370748782159
2024-09-23 19:50:26.932679,41.08,47.273518,0.0009948937421727254,-0.02293251340906919,0.09755024973162574,44.11764879391193,-88.23529758782387,76.200527287817
2024-09-23 19:50:26.944392,41.08,47.273569,0.0009948937421727254,-0.02293251340906919,0.09755024973162574,44.11764879391193,-88.23529758782387,76.200527287817
2024-09-23 19:50:26.976188,41.08,47.273569,0.0005471957306340564,-0.023330473146428877,0.09755024973162574,44.11764879391193,-88.23529758782387,76.200527287817
2024-09-23 19:50:26.987665,41.08,47.273569,0.0005471957306340564,-0.023330473146428877,0.09759999317981902,40.106058693909645,-96.25519929585457,72.1922225099802
2024-09-23 19:50:27.030584,41.08,47.27366,0.00024872343554318134,-0.023579196463302005,0.09715228999426605,40.106058693909645,-88.23529758782387,72.1922225099802
2024-09-23 19:50:27.073166,41.08,47.273712,0.00024872343554318134,-0.023579196463302005,0.09715228999426605,40.106058693909645,-88.23529758782387,76.200527287817
2024-09-23 19:50:27.084840,41.08,47.273712,0.000845657606494293,-0.02308174982955575,0.09755024973162574,44.11764879391193,-88.23529758782387,76.200527287817
2024-09-23 19:50:27.126892,41.08,47.273762,0.0011938787373988514,-0.02367869399252531,0.09755024973162574,44.11764879391193,-88.23529758782387,76.200527287817
2024-09-23 19:50:27.138535,41.08,47.273762,0.0011938787373988514,-0.02367869399252531,0.09705279702197278,44.11764879391193,-88.23529758782387,76.200527287817
2024-09-23 19:50:27.170705,41.08,47.273762,0.0011938787373988514,-0.02367869399252531,0.09705279702197278,40.106058693909645,-92.24360919585227,76.200527287817
2024-09-23 19:50:27.182429,41.08,47.273813,0.000845657606494293,-0.023330473146428877,0.09705279702197278,40.106058693909645,-92.24360919585227,80.21211738781929
2024-09-23 19:50:27.225162,41.08,47.273864,0.000845657606494293,-0.023330473146428877,0.09715228999426605,40.106058693909645,-88.23529758782387,76.200527287817
2024-09-23 19:50:27.236730,41.08,47.273864,0.00034821073540793035,-0.023330473146428877,0.09715228999426605,40.106058693909645,-88.23529758782387,76.200527287817
2024-09-23 19:50:27.268579,41.08,47.273864,0.00034821073540793035,-0.02338022115155219,0.0976994861521123,40.106058693909645,-88.23529758782387,76.200527287817
2024-09-23 19:50:27.281763,41.08,47.273952,0.00034821073540793035,-0.02338022115155219,0.0976994861521123,44.11764879391193,-100.26678939585686,76.200527287817
2024-09-23 19:50:27.324321,41.08,47.273952,0.0009451553255896806,-0.023181236725942318,0.09759999317981902,44.11764879391193,-96.25519929585457,76.200527287817
2024-09-23 19:50:27.367868,41.08,47.274004,0.0011441298778511575,-0.02338022115155219,0.09759999317981902,44.11764879391193,-96.25519929585457,76.200527287817
2024-09-23 19:50:27.379246,41.08,47.274004,0.0011441298778511575,-0.02338022115155219,0.09789846602079214,44.11764879391193,-96.25519929585457,76.200527287817
2024-09-23 19:50:27.422508,41.08,47.274054,0.0012436275969465451,-0.02352945757203875,0.09784872257259886,44.11764879391193,-96.25519929585457,76.200527287817
2024-09-23 19:50:27.464928,41.08,47.274105,0.0012436275969465451,-0.02352945757203875,0.09784872257259886,44.11764879391193,-92.24360919585227,76.200527287817
2024-09-23 19:50:27.476496,41.08,47.274105,0.000845657606494293,-0.02293251340906919,0.09720203344245934,44.11764879391193,-92.24360919585227,76.200527287817
2024-09-23 19:50:27.519193,41.08,47.274156,0.0007959191899112484,-0.023230986250042305,0.09720203344245934,40.106058693909645,-92.24360919585227,76.200527287817
2024-09-23 19:50:27.562450,41.08,47.274156,0.0007959191899112484,-0.023230986250042305,0.09784872257259886,48.12595698684454,-92.24360919585227,76.200527287817
2024-09-23 19:50:27.574012,41.08,47.274206,0.0005969341946851222,-0.023230986250042305,0.09784872257259886,48.12595698684454,-92.24360919585227,72.1922225099802
2024-09-23 19:50:27.616678,41.08,47.274293,0.0005969341946851222,-0.02278327698858263,0.09740101331113918,40.106058693909645,-92.24360919585227,80.21211738781929
2024-09-23 19:50:27.658986,41.08,47.274293,0.00044769805900669,-0.023181236725942318,0.09740101331113918,40.106058693909645,-92.24360919585227,80.21211738781929
2024-09-23 19:50:27.671020,41.08,47.274293,0.00044769805900669,-0.023181236725942318,0.09695331012558621,40.106058693909645,-92.24360919585227,80.21211738781929
2024-09-23 19:50:27.714065,41.17,47.274345,0.0006466830067647949,-0.023280723622328886,0.0976994861521123,40.106058693909645,-84.22370748782159,80.21211738781929
2024-09-23 19:50:27.757574,41.17,47.274396,0.00034821073540793035,-0.023280723622328886,0.0976994861521123,40.106058693909645,-84.22370748782159,80.21211738781929
2024-09-23 19:50:27.810638,41.17,47.274446,0.00034821073540793035,-0.02278327698858263,0.09759999317981902,40.106058693909645,-92.24360919585227,80.21211738781929
2024-09-23 19:50:27.853737,41.17,47.274446,0.0007461703303635545,-0.023181236725942318,0.09759999317981902,40.106058693909645,-92.24360919585227,80.21211738781929
2024-09-23 19:50:27.864979,41.17,47.274446,0.0007461703303635545,-0.023181236725942318,0.09725178296655933,44.11764879391193,-100.26678939585686,80.21211738781929
2024-09-23 19:50:27.907854,41.17,47.274497,0.0007461703303635545,-0.023579196463302005,0.09675432418099966,40.106058693909645,-100.26678939585686,80.21211738781929
2024-09-23 19:50:27.919649,41.17,47.274497,0.0007461703303635545,-0.023579196463302005,0.09675432418099966,40.106058693909645,-104.27510100388527,80.21211738781929
2024-09-23 19:50:27.953230,41.17,47.274548,0.0009948937421727254,-0.023579196463302005,0.09675432418099966,40.106058693909645,-104.27510100388527,80.21211738781929
2024-09-23 19:50:27.964793,41.17,47.274548,0.0009948937421727254,-0.023429960042815445,0.09720203344245934,36.09446859390736,-104.27510100388527,80.21211738781929
2024-09-23 19:50:28.007287,41.17,47.274635,0.0009451553255896806,-0.02367869399252531,0.09755024973162574,36.09446859390736,-92.24360919585227,76.200527287817
2024-09-23 19:50:28.049117,41.17,47.274635,0.0009451553255896806,-0.02367869399252531,0.09755024973162574,44.11764879391193,-92.24360919585227,76.200527287817
2024-09-23 19:50:28.103309,41.17,47.274687,0.0005969341946851222,-0.02303200030545576,0.09755024973162574,44.11764879391193,-88.23529758782387,76.200527287817
2024-09-23 19:50:28.115778,41.17,47.274687,0.0005969341946851222,-0.02303200030545576,0.09755024973162574,44.11764879391193,-88.23529758782387,76.200527287817
2024-09-23 19:50:28.149237,41.17,47.274687,0.0005969341946851222,-0.02303200030545576,0.09755024973162574,40.106058693909645,-88.23529758782387,76.200527287817
2024-09-23 19:50:28.161946,41.17,47.274737,0.0006466830067647949,-0.023280723622328886,0.09755024973162574,40.106058693909645,-88.23529758782387,76.200527287817
2024-09-23 19:50:28.194461,41.17,47.274737,0.0006466830067647949,-0.023280723622328886,0.09755024973162574,44.11764879391193,-88.23529758782387,76.200527287817
2024-09-23 19:50:28.205653,41.17,47.27483,0.0008954064660419869,-0.023280723622328886,0.09755024973162574,44.11764879391193,-96.25519929585457,80.21211738781929
2024-09-23 19:50:28.247526,41.17,47.27483,0.0008954064660419869,-0.023181236725942318,0.09750050628343246,40.106058693909645,-92.24360919585227,76.200527287817
2024-09-23 19:50:28.259200,41.17,47.274881,0.0008954064660419869,-0.023181236725942318,0.09750050628343246,40.106058693909645,-92.24360919585227,76.200527287817
2024-09-23 19:50:28.291878,41.17,47.274881,0.00029846189959424716,-0.02303200030545576,0.09750050628343246,40.106058693909645,-92.24360919585227,76.200527287817
2024-09-23 19:50:28.303281,41.17,47.274881,0.00029846189959424716,-0.02303200030545576,0.09755024973162574,36.09446859390736,-104.27510100388527,80.21211738781929
2024-09-23 19:50:28.345406,41.17,47.274976,0.001044642601720419,-0.023181236725942318,0.09690356060148622,36.09446859390736,-104.27510100388527,80.21211738781929
2024-09-23 19:50:28.357011,41.17,47.274976,0.001044642601720419,-0.023181236725942318,0.09690356060148622,36.09446859390736,-96.25519929585457,80.21211738781929
2024-09-23 19:50:28.390013,41.17,47.275028,0.001044642601720419,-0.023181236725942318,0.09690356060148622,36.09446859390736,-96.25519929585457,80.21211738781929
2024-09-23 19:50:28.402111,41.17,47.275028,0.0005471957306340564,-0.0225345536717095,0.09720203344245934,36.09446859390736,-96.25519929585457,80.21211738781929
2024-09-23 19:50:28.445389,41.17,47.275078,0.0004974468710863627,-0.02268379009219606,0.09745075675933246,36.09446859390736,-104.27510100388527,76.200527287817
2024-09-23 19:50:28.488506,41.17,47.275078,0.0004974468710863627,-0.02268379009219606,0.09745075675933246,48.12595698684454,-96.25519929585457,80.21211738781929
2024-09-23 19:50:28.499476,41.17,47.275129,0.00034821073540793035,-0.022484804147609512,0.09745075675933246,48.12595698684454,-96.25519929585457,80.21211738781929
2024-09-23 19:50:28.541988,41.17,47.27518,0.00034821073540793035,-0.022484804147609512,0.09755024973162574,52.137550501942634,-108.28669110388756,68.18063240997792
2024-09-23 19:50:28.553775,41.17,47.27518,0.0008954064660419869,-0.022484804147609512,0.09755024973162574,52.137550501942634,-108.28669110388756,68.18063240997792
2024-09-23 19:50:28.586844,41.17,47.27518,0.0008954064660419869,-0.023230986250042305,0.09740101331113918,48.12595698684454,-108.28669110388756,68.18063240997792
2024-09-23 19:50:28.599572,41.17,47.275268,0.0008954064660419869,-0.023230986250042305,0.09740101331113918,48.12595698684454,-88.23529758782387,76.200527287817
2024-09-23 19:50:28.631479,41.17,47.275268,0.0010943914612681128,-0.023230986250042305,0.09740101331113918,48.12595698684454,-88.23529758782387,76.200527287817
2024-09-23 19:50:28.642880,41.17,47.275268,0.0010943914612681128,-0.022833026512682618,0.09710254654607277,56.14914060194492,-88.23529758782387,76.200527287817
2024-09-23 19:50:28.686355,41.17,47.27532,0.0006466830067647949,-0.02268379009219606,0.09764974270391902,48.12595698684454,-88.23529758782387,76.200527287817
2024-09-23 19:50:28.698262,41.17,47.27532,0.0006466830067647949,-0.02268379009219606,0.09764974270391902,48.12595698684454,-100.26678939585686,76.200527287817
2024-09-23 19:50:28.730392,41.44,47.275371,0.0006466830067647949,-0.02268379009219606,0.09764974270391902,48.12595698684454,-100.26678939585686,68.18063240997792
2024-09-23 19:50:28.742178,41.44,47.275371,0.0009451553255896806,-0.02278327698858263,0.09740101331113918,40.106058693909645,-100.26678939585686,68.18063240997792
2024-09-23 19:50:28.784829,41.44,47.275421,0.0007461703303635545,-0.02278327698858263,0.09740101331113918,40.106058693909645,-96.25519929585457,80.21211738781929
2024-09-23 19:50:28.827852,41.44,47.275421,0.0007461703303635545,-0.023181236725942318,0.09740101331113918,40.106058693909645,-96.25519929585457,80.21211738781929
2024-09-23 19:50:28.839577,41.44,47.275472,0.0007461703303635545,-0.023181236725942318,0.09764974270391902,40.106058693909645,-96.25519929585457,80.21211738781929
2024-09-23 19:50:28.882226,41.44,47.275472,0.00034821073540793035,-0.0228827638849692,0.09720203344245934,40.106058693909645,-88.23529758782387,80.21211738781929
2024-09-23 19:50:28.894403,41.44,47.275472,0.00034821073540793035,-0.0228827638849692,0.09720203344245934,40.106058693909645,-88.23529758782387,76.200527287817
2024-09-23 19:50:28.926625,41.44,47.275523,0.0004974468710863627,-0.0228827638849692,0.09720203344245934,40.106058693909645,-88.23529758782387,76.200527287817
2024-09-23 19:50:28.938465,41.44,47.275523,0.0004974468710863627,-0.023280723622328886,0.09750050628343246,44.11764879391193,-92.24360919585227,76.200527287817
2024-09-23 19:50:28.981871,41.44,47.27561,0.0011441298778511575,-0.02338022115155219,0.0973512698629459,44.11764879391193,-92.24360919585227,76.200527287817
2024-09-23 19:50:29.024750,41.44,47.275661,0.0011441298778511575,-0.02338022115155219,0.0973512698629459,44.11764879391193,-96.25519929585457,76.200527287817
2024-09-23 19:50:29.036850,41.44,47.275661,0.0008954064660419869,-0.023330473146428877,0.09755024973162574,44.11764879391193,-96.25519929585457,76.200527287817
2024-09-23 19:50:29.080814,41.44,47.275712,0.0006466830067647949,-0.022982261414192504,0.09755024973162574,32.08287849390507,-100.26678939585686,76.200527287817
2024-09-23 19:50:29.124015,41.44,47.275712,0.0006466830067647949,-0.022982261414192504,0.09695331012558621,32.08287849390507,-96.25519929585457,80.21211738781929
2024-09-23 19:50:29.135503,41.44,47.275763,0.0007461703303635545,-0.022982261414192504,0.09695331012558621,32.08287849390507,-96.25519929585457,80.21211738781929
2024-09-23 19:50:29.168964,41.44,47.275763,0.0007461703303635545,-0.022833026512682618,0.09695331012558621,32.08287849390507,-96.25519929585457,80.21211738781929
2024-09-23 19:50:29.180190,41.44,47.275853,0.0007461703303635545,-0.022833026512682618,0.0973512698629459,40.106058693909645,-92.24360919585227,72.1922225099802
2024-09-23 19:50:29.222874,41.44,47.275853,0.0006466830067647949,-0.023429960042815445,0.09695331012558621,40.106058693909645,-96.25519929585457,72.1922225099802
2024-09-23 19:50:29.234507,41.44,47.275853,0.0006466830067647949,-0.023429960042815445,0.09695331012558621,40.106058693909645,-96.25519929585457,68.18063240997792
2024-09-23 19:50:29.267903,41.44,47.275905,0.00034821073540793035,-0.02293251340906919,0.09695331012558621,40.106058693909645,-96.25519929585457,68.18063240997792
2024-09-23 19:50:29.280163,41.44,47.275905,0.00034821073540793035,-0.02293251340906919,0.09710254654607277,40.106058693909645,-88.23529758782387,68.18063240997792
2024-09-23 19:50:29.323631,41.44,47.275956,0.00044769805900669,-0.023429960042815445,0.0973015264147526,36.09446859390736,-88.23529758782387,80.21211738781929
2024-09-23 19:50:29.366423,41.44,47.276006,0.00044769805900669,-0.023429960042815445,0.0973015264147526,36.09446859390736,-92.24360919585227,80.21211738781929
2024-09-23 19:50:29.378004,41.44,47.276006,0.000845657606494293,-0.02303200030545576,0.09789846602079214,36.09446859390736,-92.24360919585227,80.21211738781929
2024-09-23 19:50:29.421248,41.44,47.276057,0.000845657606494293,-0.02303200030545576,0.09789846602079214,40.106058693909645,-96.25519929585457,76.200527287817
2024-09-23 19:50:29.463794,41.44,47.276057,0.0012436275969465451,-0.02308174982955575,0.09789846602079214,40.106058693909645,-96.25519929585457,76.200527287817
2024-09-23 19:50:29.475742,41.44,47.276057,0.0012436275969465451,-0.02308174982955575,0.09755024973162574,44.11764879391193,-92.24360919585227,80.21211738781929
2024-09-23 19:50:29.518226,41.44,47.276108,0.0006964318663124887,-0.022982261414192504,0.0973512698629459,36.09446859390736,-92.24360919585227,80.21211738781929
2024-09-23 19:50:29.562262,41.44,47.276195,0.00044769805900669,-0.022982261414192504,0.0973512698629459,36.09446859390736,-92.24360919585227,76.200527287817
2024-09-23 19:50:29.573386,41.44,47.276195,0.00044769805900669,-0.023230986250042305,0.09715228999426605,40.106058693909645,-92.24360919585227,76.200527287817
2024-09-23 19:50:29.616765,41.44,47.276246,0.00044769805900669,-0.02278327698858263,0.09755024973162574,40.106058693909645,-88.23529758782387,72.1922225099802
2024-09-23 19:50:29.659185,41.44,47.276246,0.00044769805900669,-0.02278327698858263,0.09755024973162574,40.106058693909645,-92.24360919585227,80.21211738781929
2024-09-23 19:50:29.670642,41.44,47.276297,0.0007461703303635545,-0.02293251340906919,0.09755024973162574,40.106058693909645,-92.24360919585227,80.21211738781929
2024-09-23 19:50:29.713572,41.44,47.276348,0.0004974468710863627,-0.02293251340906919,0.09715228999426605,36.09446859390736,-96.25519929585457,76.200527287817
2024-09-23 19:50:29.755891,41.38,47.276348,0.0004974468710863627,-0.022833026512682618,0.09695331012558621,32.08287849390507,-96.25519929585457,76.200527287817
2024-09-23 19:50:29.767166,41.38,47.276438,0.0004974468710863627,-0.022833026512682618,0.09695331012558621,32.08287849390507,-92.24360919585227,72.1922225099802
2024-09-23 19:50:29.809819,41.38,47.276438,0.0007461703303635545,-0.022982261414192504,0.0970030596496862,48.12595698684454,-88.23529758782387,72.1922225099802
2024-09-23 19:50:29.852378,41.38,47.27649,0.0007461703303635545,-0.022982261414192504,0.0970030596496862,48.12595698684454,-88.23529758782387,76.200527287817
2024-09-23 19:50:29.863732,41.38,47.27649,0.00034821073540793035,-0.02308174982955575,0.09779897304849887,56.14914060194492,-88.23529758782387,76.200527287817
2024-09-23 19:50:29.906708,41.38,47.276541,0.0007959191899112484,-0.023230986250042305,0.09779897304849887,56.14914060194492,-96.25519929585457,76.200527287817
2024-09-23 19:50:29.918738,41.38,47.276541,0.0007959191899112484,-0.023230986250042305,0.09740101331113918,56.14914060194492,-96.25519929585457,76.200527287817
2024-09-23 19:50:29.951562,41.38,47.276541,0.0007959191899112484,-0.023230986250042305,0.09740101331113918,44.11764879391193,-100.26678939585686,76.200527287817
2024-09-23 19:50:29.963025,41.38,47.276591,0.0006964318663124887,-0.023280723622328886,0.09740101331113918,44.11764879391193,-100.26678939585686,76.200527287817
2024-09-23 19:50:30.006073,41.38,47.276591,0.0006964318663124887,-0.023280723622328886,0.09774922960030558,40.106058693909645,-96.25519929585457,76.200527287817
2024-09-23 19:50:30.049160,41.38,47.276642,0.0005471957306340564,-0.023280723622328886,0.09774922960030558,40.106058693909645,-96.25519929585457,84.22370748782159
2024-09-23 19:50:30.061392,41.38,47.276642,0.0005471957306340564,-0.023479709566915436,0.09745075675933246,40.106058693909645,-96.25519929585457,84.22370748782159
2024-09-23 19:50:30.094036,41.38,47.276642,0.0005471957306340564,-0.023479709566915436,0.09745075675933246,40.106058693909645,-96.25519929585457,84.22370748782159
2024-09-23 19:50:30.105171,41.38,47.276693,0.0007959191899112484,-0.02313149783467906,0.09774922960030558,40.106058693909645,-96.25519929585457,80.21211738781929
2024-09-23 19:50:30.147682,41.38,47.27678,0.0007959191899112484,-0.02313149783467906,0.09774922960030558,36.09446859390736,-96.25519929585457,76.200527287817
2024-09-23 19:50:30.159134,41.38,47.27678,0.0011938787373988514,-0.023479709566915436,0.09774922960030558,36.09446859390736,-96.25519929585457,76.200527287817
2024-09-23 19:50:30.191318,41.38,47.27678,0.0011938787373988514,-0.023479709566915436,0.09720203344245934,36.09446859390736,-96.25519929585457,76.200527287817
2024-09-23 19:50:30.202529,41.38,47.276832,0.001044642601720419,-0.023479709566915436,0.09720203344245934,40.106058693909645,-96.25519929585457,76.200527287817
2024-09-23 19:50:30.245728,41.38,47.276832,0.001044642601720419,-0.023280723622328886,0.09740101331113918,36.09446859390736,-96.25519929585457,76.200527287817
2024-09-23 19:50:30.257441,41.38,47.276926,0.001044642601720419,-0.023280723622328886,0.09740101331113918,36.09446859390736,-96.25519929585457,76.200527287817
2024-09-23 19:50:30.289310,41.38,47.276926,0.0006964318663124887,-0.023280723622328886,0.09740101331113918,36.09446859390736,-96.25519929585457,76.200527287817
2024-09-23 19:50:30.301214,41.38,47.276926,0.0006964318663124887,-0.02293251340906919,0.09745075675933246,40.106058693909645,-96.25519929585457,76.200527287817
2024-09-23 19:50:30.343866,41.38,47.276977,0.0006964318663124887,-0.023429960042815445,0.09764974270391902,40.106058693909645,-96.25519929585457,76.200527287817
2024-09-23 19:50:30.355164,41.38,47.276977,0.0006964318663124887,-0.023429960042815445,0.09764974270391902,52.137550501942634,-96.25519929585457,76.200527287817
2024-09-23 19:50:30.386996,41.38,47.276977,0.0006964318663124887,-0.023429960042815445,0.09764974270391902,52.137550501942634,-96.25519929585457,72.1922225099802
2024-09-23 19:50:30.398903,41.38,47.277028,0.00034821073540793035,-0.022982261414192504,0.09779897304849887,44.11764879391193,-96.25519929585457,72.1922225099802
2024-09-23 19:50:30.441759,41.38,47.277079,0.0001989745997294981,-0.023579196463302005,0.09779897304849887,44.11764879391193,-104.27510100388527,76.200527287817
2024-09-23 19:50:30.453428,41.38,47.277079,0.0001989745997294981,-0.023579196463302005,0.09740101331113918,44.11764879391193,-104.27510100388527,76.200527287817
2024-09-23 19:50:30.486220,41.38,47.277079,0.0001989745997294981,-0.023579196463302005,0.09740101331113918,40.106058693909645,-96.25519929585457,76.200527287817
2024-09-23 19:50:30.497327,41.38,47.277129,0.0009948937421727254,-0.023230986250042305,0.09740101331113918,40.106058693909645,-96.25519929585457,76.200527287817
2024-09-23 19:50:30.539760,41.38,47.27718,0.0009948937421727254,-0.023230986250042305,0.098047696365372,36.09446859390736,-92.24360919585227,76.200527287817
2024-09-23 19:50:30.551863,41.38,47.27718,0.0008954064660419869,-0.023230986250042305,0.098047696365372,36.09446859390736,-92.24360919585227,76.200527287817
2024-09-23 19:50:30.584408,41.38,47.27718,0.0008954064660419869,-0.023280723622328886,0.0973512698629459,36.09446859390736,-92.24360919585227,76.200527287817
2024-09-23 19:50:30.596191,41.38,47.277267,0.0008954064660419869,-0.023280723622328886,0.0973512698629459,44.11764879391193,-88.23529758782387,76.200527287817
2024-09-23 19:50:30.638223,41.38,47.277267,0.0005969341946851222,-0.023280723622328886,0.0973512698629459,44.11764879391193,-88.23529758782387,76.200527287817
2024-09-23 19:50:30.680643,41.38,47.277267,0.0005969341946851222,-0.023280723622328886,0.09759999317981902,40.106058693909645,-88.23529758782387,76.200527287817
2024-09-23 19:50:30.692297,41.38,47.277319,0.0005969341946851222,-0.023280723622328886,0.09759999317981902,40.106058693909645,-96.25519929585457,72.1922225099802
2024-09-23 19:50:30.734630,41.38,47.277319,0.0005969341946851222,-0.023181236725942318,0.09740101331113918,44.11764879391193,-92.24360919585227,72.1922225099802
2024-09-23 19:50:30.746309,41.38,47.277369,0.0005969341946851222,-0.023181236725942318,0.09740101331113918,44.11764879391193,-92.24360919585227,72.1922225099802
2024-09-23 19:50:30.778176,41.84,47.277369,0.0006466830067647949,-0.023181236725942318,0.09740101331113918,44.11764879391193,-92.24360919585227,72.1922225099802
2024-09-23 19:50:30.789680,41.84,47.277369,0.0006466830067647949,-0.023280723622328886,0.09794820946898543,36.09446859390736,-92.24360919585227,80.21211738781929
2024-09-23 19:50:30.832536,41.84,47.27742,0.0008954064660419869,-0.023181236725942318,0.09774922960030558,48.12595698684454,-92.24360919585227,80.21211738781929
2024-09-23 19:50:30.844595,41.84,47.27742,0.0008954064660419869,-0.023181236725942318,0.09774922960030558,48.12595698684454,-96.25519929585457,80.21211738781929
2024-09-23 19:50:30.877702,41.84,47.277471,0.0006964318663124887,-0.023181236725942318,0.09774922960030558,48.12595698684454,-96.25519929585457,72.1922225099802
2024-09-23 19:50:30.889114,41.84,47.277471,0.0006964318663124887,-0.023479709566915436,0.09740101331113918,44.11764879391193,-96.25519929585457,72.1922225099802
2024-09-23 19:50:30.931045,41.84,47.277561,0.0001989745997294981,-0.02278327698858263,0.09740101331113918,44.11764879391193,-92.24360919585227,76.200527287817
2024-09-23 19:50:30.973877,41.84,47.277561,0.0001989745997294981,-0.02278327698858263,0.09740101331113918,32.08287849390507,-100.26678939585686,76.200527287817
2024-09-23 19:50:30.984870,41.84,47.277612,0.0009948937421727254,-0.02352945757203875,0.09740101331113918,32.08287849390507,-100.26678939585686,76.200527287817
2024-09-23 19:50:31.027281,41.84,47.277612,0.0009948937421727254,-0.02352945757203875,0.0976994861521123,40.106058693909645,-96.25519929585457,80.21211738781929
2024-09-23 19:50:31.039615,41.84,47.277663,0.0007461703303635545,-0.02352945757203875,0.0976994861521123,40.106058693909645,-96.25519929585457,80.21211738781929
2024-09-23 19:50:31.072369,41.84,47.277663,0.0007461703303635545,-0.02303200030545576,0.09774922960030558,36.09446859390736,-96.25519929585457,80.21211738781929
2024-09-23 19:50:31.083362,41.84,47.277755,0.0007461703303635545,-0.02303200030545576,0.09774922960030558,36.09446859390736,-92.24360919585227,72.1922225099802
2024-09-23 19:50:31.125997,41.84,47.277755,0.0007959191899112484,-0.022982261414192504,0.0970030596496862,36.09446859390736,-96.25519929585457,84.22370748782159
2024-09-23 19:50:31.168844,41.84,47.277807,0.0006466830067647949,-0.022982261414192504,0.0970030596496862,36.09446859390736,-96.25519929585457,84.22370748782159
2024-09-23 19:50:31.181154,41.84,47.277807,0.0006466830067647949,-0.023230986250042305,0.09764974270391902,40.106058693909645,-92.24360919585227,84.22370748782159
2024-09-23 19:50:31.224332,41.84,47.277858,0.0005969341946851222,-0.023330473146428877,0.09789846602079214,36.09446859390736,-92.24360919585227,76.200527287817
2024-09-23 19:50:31.266924,41.84,47.277908,0.0005969341946851222,-0.023330473146428877,0.09789846602079214,36.09446859390736,-96.25519929585457,76.200527287817
2024-09-23 19:50:31.278595,41.84,47.277908,0.0007461703303635545,-0.023330473146428877,0.09789846602079214,36.09446859390736,-96.25519929585457,76.200527287817
2024-09-23 19:50:31.363855,41.84,47.277908,0.0007461703303635545,-0.02278327698858263,0.09789846602079214,36.09446859390736,-96.25519929585457,76.200527287817
2024-09-23 19:50:31.375782,41.84,47.277959,0.0007461703303635545,-0.02278327698858263,0.09745075675933246,40.106058693909645,-88.23529758782387,80.21211738781929
2024-09-23 19:50:31.418806,41.84,47.277959,0.0010943914612681128,-0.02303200030545576,0.09784872257259886,36.09446859390736,-88.23529758782387,80.21211738781929
2024-09-23 19:50:31.430609,41.84,47.277959,0.0010943914612681128,-0.02303200030545576,0.09784872257259886,36.09446859390736,-88.23529758782387,80.21211738781929
2024-09-23 19:50:31.462753,41.84,47.278009,0.0006466830067647949,-0.023479709566915436,0.09784872257259886,36.09446859390736,-88.23529758782387,80.21211738781929
2024-09-23 19:50:31.474193,41.84,47.278009,0.0006466830067647949,-0.023479709566915436,0.09755024973162574,40.106058693909645,-92.24360919585227,80.21211738781929
2024-09-23 19:50:31.516593,41.84,47.278096,0.0007959191899112484,-0.02352945757203875,0.09740101331113918,48.12595698684454,-92.24360919585227,76.200527287817
2024-09-23 19:50:31.558873,41.84,47.278096,0.0007959191899112484,-0.02352945757203875,0.09740101331113918,48.12595698684454,-96.25519929585457,80.21211738781929
2024-09-23 19:50:31.570573,41.84,47.278147,0.0009451553255896806,-0.02338022115155219,0.09720203344245934,48.12595698684454,-96.25519929585457,80.21211738781929
2024-09-23 19:50:31.614701,41.84,47.278244,0.00024872343554318134,-0.02338022115155219,0.09720203344245934,36.09446859390736,-92.24360919585227,80.21211738781929
2024-09-23 19:50:31.657062,41.84,47.278244,0.00024872343554318134,-0.02338022115155219,0.09764974270391902,36.09446859390736,-96.25519929585457,80.21211738781929
2024-09-23 19:50:31.668510,41.84,47.278295,0.00044769805900669,-0.02338022115155219,0.09764974270391902,36.09446859390736,-96.25519929585457,76.200527287817
2024-09-23 19:50:31.712112,41.84,47.278388,0.00044769805900669,-0.02278327698858263,0.09705279702197278,48.12595698684454,-92.24360919585227,80.21211738781929
2024-09-23 19:50:31.754153,41.84,47.278388,0.0009948937421727254,-0.023579196463302005,0.09705279702197278,48.12595698684454,-92.24360919585227,80.21211738781929
2024-09-23 19:50:31.766140,41.84,47.278388,0.0009948937421727254,-0.023579196463302005,0.0970030596496862,40.106058693909645,-92.24360919585227,76.200527287817
2024-09-23 19:50:31.809314,41.61,47.27844,0.000845657606494293,-0.023181236725942318,0.09740101331113918,40.106058693909645,-88.23529758782387,76.200527287817
2024-09-23 19:50:31.853089,41.61,47.278491,0.0006466830067647949,-0.023181236725942318,0.09740101331113918,40.106058693909645,-88.23529758782387,88.23529758782387
2024-09-23 19:50:31.864851,41.61,47.278491,0.0006466830067647949,-0.02313149783467906,0.09745075675933246,36.09446859390736,-88.23529758782387,88.23529758782387
2024-09-23 19:50:31.906748,41.61,47.278541,0.001044642601720419,-0.02293251340906919,0.09740101331113918,36.09446859390736,-88.23529758782387,80.21211738781929
2024-09-23 19:50:31.949855,41.61,47.278541,0.001044642601720419,-0.02293251340906919,0.09740101331113918,32.08287849390507,-92.24360919585227,80.21211738781929
2024-09-23 19:50:32.003414,41.61,47.278592,0.0008954064660419869,-0.023429960042815445,0.09750050628343246,36.09446859390736,-92.24360919585227,80.21211738781929
2024-09-23 19:50:32.046264,41.61,47.278592,0.0008954064660419869,-0.023429960042815445,0.09750050628343246,36.09446859390736,-92.24360919585227,80.21211738781929
2024-09-23 19:50:32.057390,41.61,47.278643,0.0007959191899112484,-0.02313149783467906,0.09784872257259886,36.09446859390736,-92.24360919585227,80.21211738781929
2024-09-23 19:50:32.100045,41.61,47.27873,0.0005969341946851222,-0.02313149783467906,0.09784872257259886,36.09446859390736,-88.23529758782387,76.200527287817
2024-09-23 19:50:32.112217,41.61,47.27873,0.0005969341946851222,-0.023479709566915436,0.09784872257259886,36.09446859390736,-88.23529758782387,76.200527287817
2024-09-23 19:50:32.145010,41.61,47.27873,0.0005969341946851222,-0.023479709566915436,0.09740101331113918,40.106058693909645,-92.24360919585227,76.200527287817
2024-09-23 19:50:32.156564,41.61,47.278781,0.001044642601720419,-0.023479709566915436,0.09740101331113918,40.106058693909645,-92.24360919585227,76.200527287817
2024-09-23 19:50:32.198954,41.61,47.278832,0.001044642601720419,-0.023230986250042305,0.09745075675933246,44.11764879391193,-96.25519929585457,76.200527287817
2024-09-23 19:50:32.242794,41.61,47.278832,0.0004974468710863627,-0.023479709566915436,0.09764974270391902,44.11764879391193,-96.25519929585457,76.200527287817
2024-09-23 19:50:32.254198,41.61,47.278832,0.0004974468710863627,-0.023479709566915436,0.09764974270391902,36.09446859390736,-88.23529758782387,80.21211738781929
2024-09-23 19:50:32.296867,41.61,47.278925,0.0011441298778511575,-0.02293251340906919,0.09715228999426605,40.106058693909645,-88.23529758782387,80.21211738781929
2024-09-23 19:50:32.340084,41.61,47.278977,0.0006466830067647949,-0.02293251340906919,0.09715228999426605,40.106058693909645,-88.23529758782387,76.200527287817
2024-09-23 19:50:32.351798,41.61,47.278977,0.0006466830067647949,-0.02303200030545576,0.09745075675933246,44.11764879391193,-88.23529758782387,76.200527287817
2024-09-23 19:50:32.394839,41.61,47.279027,0.0014923510087557158,-0.022733528983459317,0.09759999317981902,44.11764879391193,-88.23529758782387,76.200527287817
2024-09-23 19:50:32.439166,41.61,47.279027,0.0014923510087557158,-0.022733528983459317,0.09759999317981902,36.09446859390736,-92.24360919585227,76.200527287817
2024-09-23 19:50:32.451079,41.61,47.279078,0.0006964318663124887,-0.02308174982955575,0.09759999317981902,36.09446859390736,-92.24360919585227,76.200527287817
2024-09-23 19:50:32.484124,41.61,47.279078,0.0006964318663124887,-0.02308174982955575,0.09715228999426605,40.106058693909645,-92.24360919585227,76.200527287817
2024-09-23 19:50:32.495228,41.61,47.279129,0.001044642601720419,-0.02308174982955575,0.09715228999426605,40.106058693909645,-96.25519929585457,76.200527287817
2024-09-23 19:50:32.589282,41.61,47.279217,0.001044642601720419,-0.02278327698858263,0.09784872257259886,40.106058693909645,-96.25519929585457,72.1922225099802
2024-09-23 19:50:32.632973,41.61,47.279217,0.0011441298778511575,-0.023429960042815445,0.09774922960030558,40.106058693909645,-96.25519929585457,72.1922225099802
2024-09-23 19:50:32.644444,41.61,47.279217,0.0011441298778511575,-0.023429960042815445,0.09774922960030558,44.11764879391193,-92.24360919585227,72.1922225099802
2024-09-23 19:50:32.687344,41.61,47.279269,0.0006964318663124887,-0.02352945757203875,0.09715228999426605,44.11764879391193,-96.25519929585457,72.1922225099802
2024-09-23 19:50:32.730418,41.61,47.279319,0.001044642601720419,-0.02352945757203875,0.09715228999426605,44.11764879391193,-96.25519929585457,76.200527287817
2024-09-23 19:50:32.741972,41.61,47.279319,0.001044642601720419,-0.0228827638849692,0.09715228999426605,40.106058693909645,-96.25519929585457,76.200527287817
2024-09-23 19:50:32.826140,41.6,47.279319,0.001044642601720419,-0.0228827638849692,0.09715228999426605,40.106058693909645,-96.25519929585457,76.200527287817
2024-09-23 19:50:32.837146,41.6,47.27937,0.00029846189959424716,-0.024076653729884996,0.0973512698629459,40.106058693909645,-96.25519929585457,76.200527287817
2024-09-23 19:50:32.879546,41.6,47.279464,0.0006964318663124887,-0.024076653729884996,0.0973512698629459,44.11764879391193,-96.25519929585457,84.22370748782159
2024-09-23 19:50:32.891335,41.6,47.279464,0.0006964318663124887,-0.02263404056809607,0.0973512698629459,44.11764879391193,-96.25519929585457,84.22370748782159
2024-09-23 19:50:32.923923,41.6,47.279464,0.0006964318663124887,-0.02263404056809607,0.09725178296655933,44.11764879391193,-96.25519929585457,84.22370748782159
2024-09-23 19:50:32.935919,41.6,47.279515,0.0010943914612681128,-0.02263404056809607,0.09725178296655933,44.11764879391193,-100.26678939585686,80.21211738781929
2024-09-23 19:50:32.978752,41.6,47.279515,0.0010943914612681128,-0.023181236725942318,0.09789846602079214,36.09446859390736,-100.26678939585686,76.200527287817
2024-09-23 19:50:32.990402,41.6,47.279607,0.0010943914612681128,-0.023181236725942318,0.09789846602079214,36.09446859390736,-100.26678939585686,76.200527287817
2024-09-23 19:50:33.022957,41.6,47.279607,0.0008954064660419869,-0.02293251340906919,0.09750050628343246,36.09446859390736,-100.26678939585686,76.200527287817
2024-09-23 19:50:33.034473,41.6,47.279607,0.0008954064660419869,-0.02293251340906919,0.09750050628343246,44.11764879391193,-96.25519929585457,68.18063240997792
2024-09-23 19:50:33.077357,41.6,47.279705,0.0003979595949556242,-0.023877669304275123,0.09695331012558621,40.106058693909645,-100.26678939585686,68.18063240997792
2024-09-23 19:50:33.120255,41.6,47.279757,0.0010943914612681128,-0.023877669304275123,0.09695331012558621,40.106058693909645,-100.26678939585686,72.1922225099802
2024-09-23 19:50:33.132270,41.6,47.279757,0.0010943914612681128,-0.02263404056809607,0.09720203344245934,48.12595698684454,-100.26678939585686,72.1922225099802
2024-09-23 19:50:33.165903,41.6,47.279757,0.0010943914612681128,-0.02263404056809607,0.09720203344245934,48.12595698684454,-92.24360919585227,72.1922225099802
2024-09-23 19:50:33.177348,41.6,47.279757,0.0010943914612681128,-0.02263404056809607,0.09720203344245934,48.12595698684454,-92.24360919585227,76.200527287817
2024-09-23 19:50:33.219452,41.6,47.279807,0.0011938787373988514,-0.02308174982955575,0.09680407370509965,48.12595698684454,-92.24360919585227,76.200527287817
2024-09-23 19:50:33.230491,41.6,47.279807,0.0011938787373988514,-0.02308174982955575,0.09680407370509965,40.106058693909645,-96.25519929585457,76.200527287817
2024-09-23 19:50:33.263135,41.6,47.279807,0.0011938787373988514,-0.02308174982955575,0.09680407370509965,40.106058693909645,-96.25519929585457,76.200527287817
2024-09-23 19:50:33.274177,41.6,47.279858,0.0005969341946851222,-0.02313149783467906,0.09720203344245934,32.08287849390507,-96.25519929585457,76.200527287817
2024-09-23 19:50:33.316918,41.6,47.279909,0.001044642601720419,-0.02313149783467906,0.09720203344245934,32.08287849390507,-96.25519929585457,72.1922225099802
2024-09-23 19:50:33.327933,41.6,47.279909,0.001044642601720419,-0.0228827638849692,0.0976994861521123,32.08287849390507,-96.25519929585457,72.1922225099802
2024-09-23 19:50:33.360248,41.6,47.279909,0.001044642601720419,-0.0228827638849692,0.0976994861521123,44.11764879391193,-96.25519929585457,72.1922225099802
2024-09-23 19:50:33.372085,41.6,47.279997,0.0006964318663124887,-0.02278327698858263,0.0976994861521123,44.11764879391193,-88.23529758782387,76.200527287817
2024-09-23 19:50:33.414708,41.6,47.279997,0.0006964318663124887,-0.02278327698858263,0.09675432418099966,48.12595698684454,-96.25519929585457,76.200527287817
2024-09-23 19:50:33.426142,41.6,47.280048,0.0005471957306340564,-0.02278327698858263,0.09675432418099966,48.12595698684454,-96.25519929585457,76.200527287817
2024-09-23 19:50:33.459195,41.6,47.280048,0.0005471957306340564,-0.02308174982955575,0.09675432418099966,48.12595698684454,-96.25519929585457,76.200527287817
2024-09-23 19:50:33.470837,41.6,47.280143,0.0005471957306340564,-0.02308174982955575,0.09725178296655933,48.12595698684454,-96.25519929585457,80.21211738781929
2024-09-23 19:50:33.513876,41.6,47.280143,0.0006466830067647949,-0.023330473146428877,0.09705279702197278,48.12595698684454,-96.25519929585457,80.21211738781929
2024-09-23 19:50:33.526432,41.6,47.280143,0.0006466830067647949,-0.023330473146428877,0.09705279702197278,48.12595698684454,-96.25519929585457,84.22370748782159
2024-09-23 19:50:33.558191,41.6,47.280195,0.000845657606494293,-0.023330473146428877,0.09705279702197278,48.12595698684454,-96.25519929585457,84.22370748782159
2024-09-23 19:50:33.569762,41.6,47.280195,0.000845657606494293,-0.022833026512682618,0.09725178296655933,48.12595698684454,-92.24360919585227,84.22370748782159
2024-09-23 19:50:33.611834,41.6,47.280246,0.0006964318663124887,-0.023778180888911878,0.0973512698629459,48.12595698684454,-92.24360919585227,88.23529758782387
2024-09-23 19:50:33.623705,41.6,47.280246,0.0006964318663124887,-0.023778180888911878,0.0973512698629459,44.11764879391193,-92.24360919585227,88.23529758782387
2024-09-23 19:50:33.655577,41.6,47.280246,0.0006964318663124887,-0.023778180888911878,0.0973512698629459,44.11764879391193,-96.25519929585457,80.21211738781929
2024-09-23 19:50:33.666669,41.6,47.280296,0.0013431148730772837,-0.02293251340906919,0.09725178296655933,44.11764879391193,-96.25519929585457,80.21211738781929
2024-09-23 19:50:33.708607,41.6,47.280347,0.00034821073540793035,-0.02293251340906919,0.09725178296655933,8.019899146708847,-96.25519929585457,80.21211738781929
2024-09-23 19:50:33.720527,41.6,47.280347,0.00034821073540793035,-0.023181236725942318,0.09725178296655933,8.019899146708847,-96.25519929585457,80.21211738781929
2024-09-23 19:50:33.752483,41.6,47.280347,0.00034821073540793035,-0.023181236725942318,0.09779897304849887,8.019899146708847,-96.25519929585457,80.21211738781929
2024-09-23 19:50:33.764154,41.6,47.280398,0.0008954064660419869,-0.023181236725942318,0.09779897304849887,32.08287849390507,-100.26678939585686,76.200527287817
2024-09-23 19:50:33.848504,41.75,47.280398,0.0008954064660419869,-0.023330473146428877,0.09779897304849887,32.08287849390507,-100.26678939585686,76.200527287817
2024-09-23 19:50:33.860116,41.75,47.280485,0.0008954064660419869,-0.023330473146428877,0.09725178296655933,52.137550501942634,-100.26678939585686,76.200527287817
2024-09-23 19:50:33.904098,41.75,47.280485,0.0009451553255896806,-0.02367869399252531,0.09710254654607277,40.106058693909645,-84.22370748782159,80.21211738781929
2024-09-23 19:50:33.949386,41.75,47.280536,0.0005471957306340564,-0.02367869399252531,0.09710254654607277,40.106058693909645,-84.22370748782159,80.21211738781929
2024-09-23 19:50:33.962129,41.75,47.280536,0.0005471957306340564,-0.02313149783467906,0.09784872257259886,44.11764879391193,-84.22370748782159,80.21211738781929
2024-09-23 19:50:33.994374,41.75,47.280536,0.0005471957306340564,-0.02313149783467906,0.09784872257259886,44.11764879391193,-84.22370748782159,72.1922225099802
2024-09-23 19:50:34.005881,41.75,47.280587,0.0008954064660419869,-0.02303200030545576,0.09705279702197278,52.137550501942634,-84.22370748782159,72.1922225099802
2024-09-23 19:50:34.048282,41.75,47.280638,0.00034821073540793035,-0.02303200030545576,0.09705279702197278,52.137550501942634,-92.24360919585227,72.1922225099802
2024-09-23 19:50:34.060072,41.75,47.280638,0.00034821073540793035,-0.02303200030545576,0.09750050628343246,52.137550501942634,-92.24360919585227,72.1922225099802
2024-09-23 19:50:34.092913,41.75,47.280638,0.00034821073540793035,-0.02303200030545576,0.09750050628343246,44.11764879391193,-92.24360919585227,72.1922225099802
2024-09-23 19:50:34.104902,41.75,47.280731,0.0007959191899112484,-0.023181236725942318,0.09750050628343246,44.11764879391193,-96.25519929585457,76.200527287817
2024-09-23 19:50:34.148046,41.75,47.280781,0.0007959191899112484,-0.023181236725942318,0.0973015264147526,36.09446859390736,-100.26678939585686,76.200527287817
2024-09-23 19:50:34.159724,41.75,47.280781,0.0008954064660419869,-0.023181236725942318,0.0973015264147526,36.09446859390736,-100.26678939585686,76.200527287817
2024-09-23 19:50:34.192107,41.75,47.280781,0.0008954064660419869,-0.02293251340906919,0.09759999317981902,36.09446859390736,-100.26678939585686,76.200527287817
2024-09-23 19:50:34.203875,41.75,47.280875,0.0008954064660419869,-0.02293251340906919,0.09759999317981902,52.137550501942634,-88.23529758782387,76.200527287817
2024-09-23 19:50:34.246942,41.75,47.280875,0.0007461703303635545,-0.02313149783467906,0.09720203344245934,52.137550501942634,-100.26678939585686,72.1922225099802
2024-09-23 19:50:34.289139,41.75,47.280926,0.00024872343554318134,-0.02313149783467906,0.09720203344245934,52.137550501942634,-100.26678939585686,72.1922225099802
2024-09-23 19:50:34.301073,41.75,47.280926,0.00024872343554318134,-0.02268379009219606,0.09705279702197278,40.106058693909645,-100.26678939585686,72.1922225099802
2024-09-23 19:50:34.344916,41.75,47.280977,0.0011938787373988514,-0.023778180888911878,0.09745075675933246,32.08287849390507,-100.26678939585686,76.200527287817
2024-09-23 19:50:34.386851,41.75,47.280977,0.0011938787373988514,-0.023778180888911878,0.09745075675933246,32.08287849390507,-96.25519929585457,80.21211738781929
2024-09-23 19:50:34.397946,41.75,47.281028,0.0004974468710863627,-0.023778180888911878,0.09725178296655933,32.08287849390507,-96.25519929585457,80.21211738781929
2024-09-23 19:50:34.440399,41.75,47.281078,0.0009948937421727254,-0.023778180888911878,0.09725178296655933,40.106058693909645,-88.23529758782387,80.21211738781929
2024-09-23 19:50:34.452544,41.75,47.281078,0.0009948937421727254,-0.02308174982955575,0.09725178296655933,40.106058693909645,-88.23529758782387,80.21211738781929
2024-09-23 19:50:34.484750,41.75,47.281078,0.0009948937421727254,-0.02308174982955575,0.09725178296655933,44.11764879391193,-88.23529758782387,80.21211738781929
2024-09-23 19:50:34.495924,41.75,47.281129,0.001044642601720419,-0.02308174982955575,0.09725178296655933,44.11764879391193,-88.23529758782387,72.1922225099802
2024-09-23 19:50:34.538122,41.75,47.281216,0.001044642601720419,-0.023778180888911878,0.09774922960030558,40.106058693909645,-96.25519929585457,76.200527287817
2024-09-23 19:50:34.580769,41.75,47.281216,0.0003979595949556242,-0.023330473146428877,0.09774922960030558,40.106058693909645,-96.25519929585457,76.200527287817
2024-09-23 19:50:34.592891,41.75,47.281216,0.0003979595949556242,-0.023330473146428877,0.09764974270391902,44.11764879391193,-100.26678939585686,76.200527287817
2024-09-23 19:50:34.635827,41.75,47.281268,0.0006466830067647949,-0.023181236725942318,0.09745075675933246,44.11764879391193,-96.25519929585457,76.200527287817
2024-09-23 19:50:34.678526,41.75,47.281318,0.0006466830067647949,-0.023181236725942318,0.09745075675933246,44.11764879391193,-96.25519929585457,76.200527287817
2024-09-23 19:50:34.689851,41.75,47.281318,0.001044642601720419,-0.02367869399252531,0.09774922960030558,44.11764879391193,-96.25519929585457,76.200527287817
2024-09-23 19:50:34.733175,41.75,47.281369,0.0005969341946851222,-0.02303200030545576,0.09829641968224512,44.11764879391193,-96.25519929585457,68.18063240997792
2024-09-23 19:50:34.776315,41.75,47.281369,0.0005969341946851222,-0.02303200030545576,0.09829641968224512,40.106058693909645,-92.24360919585227,68.18063240997792
2024-09-23 19:50:34.787967,41.75,47.281419,0.0007959191899112484,-0.02293251340906919,0.09829641968224512,40.106058693909645,-92.24360919585227,72.1922225099802
2024-09-23 19:50:34.874100,42.01,47.281419,0.0007959191899112484,-0.02293251340906919,0.09705279702197278,48.12595698684454,-92.24360919585227,72.1922225099802
2024-09-23 19:50:34.886325,42.01,47.28147,0.0007959191899112484,-0.02293251340906919,0.09705279702197278,48.12595698684454,-92.24360919585227,76.200527287817
2024-09-23 19:50:34.928944,42.01,47.28147,0.0007959191899112484,-0.023330473146428877,0.0970030596496862,40.106058693909645,-96.25519929585457,76.200527287817
2024-09-23 19:50:34.940396,42.01,47.281557,0.0007959191899112484,-0.023330473146428877,0.0970030596496862,40.106058693909645,-96.25519929585457,76.200527287817
2024-09-23 19:50:34.972972,42.01,47.281557,0.0011441298778511575,-0.02362894446842532,0.09750050628343246,40.106058693909645,-96.25519929585457,76.200527287817
2024-09-23 19:50:34.984084,42.01,47.281557,0.0011441298778511575,-0.02362894446842532,0.09750050628343246,36.09446859390736,-100.26678939585686,76.200527287817
2024-09-23 19:50:35.027425,42.01,47.281609,0.0006466830067647949,-0.02338022115155219,0.09759999317981902,44.11764879391193,-88.23529758782387,76.200527287817
2024-09-23 19:50:35.070307,42.01,47.281659,0.0011938787373988514,-0.02338022115155219,0.09759999317981902,44.11764879391193,-88.23529758782387,80.21211738781929
2024-09-23 19:50:35.081704,42.01,47.281659,0.0011938787373988514,-0.0228827638849692,0.0973015264147526,48.12595698684454,-88.23529758782387,80.21211738781929
2024-09-23 19:50:35.124668,42.01,47.281754,0.000845657606494293,-0.023280723622328886,0.09794820946898543,48.12595698684454,-96.25519929585457,76.200527287817
2024-09-23 19:50:35.169715,42.01,47.281805,0.000845657606494293,-0.023280723622328886,0.09794820946898543,40.106058693909645,-104.27510100388527,68.18063240997792
2024-09-23 19:50:35.181815,42.01,47.281805,0.0009451553255896806,-0.02338022115155219,0.09794820946898543,40.106058693909645,-104.27510100388527,68.18063240997792
2024-09-23 19:50:35.213798,42.01,47.281805,0.0009451553255896806,-0.02338022115155219,0.09789846602079214,40.106058693909645,-104.27510100388527,68.18063240997792
2024-09-23 19:50:35.225393,42.01,47.281855,0.0005471957306340564,-0.02338022115155219,0.09789846602079214,48.12595698684454,-92.24360919585227,76.200527287817
2024-09-23 19:50:35.267970,42.01,47.281855,0.0005471957306340564,-0.02313149783467906,0.09710254654607277,40.106058693909645,-96.25519929585457,76.200527287817
2024-09-23 19:50:35.279600,42.01,47.281947,0.0005471957306340564,-0.02313149783467906,0.09710254654607277,40.106058693909645,-96.25519929585457,76.200527287817
2024-09-23 19:50:35.312640,42.01,47.281947,0.0005471957306340564,-0.023330473146428877,0.09710254654607277,40.106058693909645,-96.25519929585457,76.200527287817
2024-09-23 19:50:35.323506,42.01,47.281947,0.0005471957306340564,-0.023330473146428877,0.0976994861521123,32.08287849390507,-96.25519929585457,76.200527287817
2024-09-23 19:50:35.366004,42.01,47.281999,0.001044642601720419,-0.02308174982955575,0.09764974270391902,40.106058693909645,-96.25519929585457,76.200527287817
2024-09-23 19:50:35.378607,42.01,47.281999,0.001044642601720419,-0.02308174982955575,0.09764974270391902,40.106058693909645,-92.24360919585227,76.200527287817
2024-09-23 19:50:35.410759,42.01,47.282049,0.001044642601720419,-0.02308174982955575,0.09764974270391902,40.106058693909645,-92.24360919585227,76.200527287817
2024-09-23 19:50:35.422076,42.01,47.282049,0.0004974468710863627,-0.023330473146428877,0.09710254654607277,44.11764879391193,-92.24360919585227,76.200527287817
2024-09-23 19:50:35.464648,42.01,47.2821,0.00014922575204880957,-0.023579196463302005,0.09710254654607277,44.11764879391193,-96.25519929585457,76.200527287817
2024-09-23 19:50:35.507403,42.01,47.2821,0.00014922575204880957,-0.023579196463302005,0.09710254654607277,44.11764879391193,-96.25519929585457,76.200527287817
2024-09-23 19:50:35.519315,42.01,47.282151,0.0012933660135295898,-0.023728432883788564,0.09710254654607277,44.11764879391193,-96.25519929585457,76.200527287817
2024-09-23 19:50:35.562463,42.01,47.282201,0.00034821073540793035,-0.023728432883788564,0.09750050628343246,52.137550501942634,-88.23529758782387,80.21211738781929
2024-09-23 19:50:35.604547,42.01,47.282201,0.00034821073540793035,-0.0228827638849692,0.09764974270391902,52.137550501942634,-88.23529758782387,80.21211738781929
2024-09-23 19:50:35.616273,42.01,47.282289,0.00034821073540793035,-0.0228827638849692,0.09764974270391902,36.09446859390736,-92.24360919585227,76.200527287817
2024-09-23 19:50:35.658469,42.01,47.282289,0.000845657606494293,-0.023330473146428877,0.09715228999426605,28.07457030097246,-92.24360919585227,76.200527287817
2024-09-23 19:50:35.670154,42.01,47.282289,0.000845657606494293,-0.023330473146428877,0.09715228999426605,28.07457030097246,-92.24360919585227,72.1922225099802
2024-09-23 19:50:35.702494,42.01,47.28234,0.0005471957306340564,-0.023330473146428877,0.09715228999426605,28.07457030097246,-92.24360919585227,72.1922225099802
2024-09-23 19:50:35.714930,42.01,47.28234,0.0005471957306340564,-0.02308174982955575,0.09705279702197278,40.106058693909645,-92.24360919585227,72.1922225099802
2024-09-23 19:50:35.757201,42.01,47.282391,0.0007959191899112484,-0.022833026512682618,0.09720203344245934,40.106058693909645,-92.24360919585227,76.200527287817
2024-09-23 19:50:35.800599,42.01,47.282391,0.0007959191899112484,-0.022833026512682618,0.09720203344245934,40.106058693909645,-92.24360919585227,76.200527287817
2024-09-23 19:50:35.812106,42.01,47.282441,0.0007461703303635545,-0.022982261414192504,0.0973512698629459,40.106058693909645,-92.24360919585227,76.200527287817
2024-09-23 19:50:35.854051,42.01,47.282492,0.0011938787373988514,-0.022982261414192504,0.0973512698629459,52.137550501942634,-100.26678939585686,84.22370748782159
2024-09-23 19:50:35.866026,42.01,47.282492,0.0011938787373988514,-0.02293251340906919,0.0973512698629459,52.137550501942634,-100.26678939585686,84.22370748782159
2024-09-23 19:50:35.899174,42.41,47.282492,0.0011938787373988514,-0.02293251340906919,0.0973512698629459,44.11764879391193,-84.22370748782159,84.22370748782159
2024-09-23 19:50:35.910765,42.41,47.282543,0.0007959191899112484,-0.02293251340906919,0.0973512698629459,44.11764879391193,-84.22370748782159,92.24360919585227
2024-09-23 19:50:35.953385,42.41,47.28263,0.0007959191899112484,-0.02308174982955575,0.09784872257259886,44.11764879391193,-96.25519929585457,76.200527287817
2024-09-23 19:50:35.995433,42.41,47.28263,0.000845657606494293,-0.022982261414192504,0.09784872257259886,44.11764879391193,-96.25519929585457,76.200527287817
2024-09-23 19:50:36.007515,42.41,47.28263,0.000845657606494293,-0.022982261414192504,0.09745075675933246,40.106058693909645,-100.26678939585686,76.200527287817
2024-09-23 19:50:36.050805,42.41,47.282681,0.0012436275969465451,-0.02278327698858263,0.09710254654607277,36.09446859390736,-96.25519929585457,76.200527287817
2024-09-23 19:50:36.093739,42.41,47.282732,0.0007461703303635545,-0.02278327698858263,0.09710254654607277,36.09446859390736,-96.25519929585457,84.22370748782159
2024-09-23 19:50:36.105605,42.41,47.282732,0.0007461703303635545,-0.023280723622328886,0.09764974270391902,40.106058693909645,-96.25519929585457,84.22370748782159
2024-09-23 19:50:36.148288,42.41,47.282783,0.0010943914612681128,-0.023579196463302005,0.09705279702197278,40.106058693909645,-92.24360919585227,80.21211738781929
2024-09-23 19:50:36.190126,42.41,47.282783,0.0010943914612681128,-0.023579196463302005,0.09705279702197278,44.11764879391193,-88.23529758782387,80.21211738781929
2024-09-23 19:50:36.202125,42.41,47.282833,0.000845657606494293,-0.02338022115155219,0.09705279702197278,44.11764879391193,-88.23529758782387,72.1922225099802
2024-09-23 19:50:36.243959,42.41,47.282884,0.000845657606494293,-0.02338022115155219,0.09740101331113918,32.08287849390507,-96.25519929585457,80.21211738781929
2024-09-23 19:50:36.256151,42.41,47.282884,0.00029846189959424716,-0.02338022115155219,0.09740101331113918,32.08287849390507,-96.25519929585457,80.21211738781929
2024-09-23 19:50:36.288723,42.41,47.282884,0.00029846189959424716,-0.023479709566915436,0.09720203344245934,32.08287849390507,-96.25519929585457,80.21211738781929
2024-09-23 19:50:36.300242,42.41,47.282972,0.00029846189959424716,-0.023479709566915436,0.09720203344245934,36.09446859390736,-96.25519929585457,80.21211738781929
2024-09-23 19:50:36.342382,42.41,47.282972,0.0008954064660419869,-0.02303200030545576,0.0973512698629459,44.11764879391193,-100.26678939585686,80.21211738781929
2024-09-23 19:50:36.384719,42.41,47.283023,0.0006964318663124887,-0.02303200030545576,0.0973512698629459,44.11764879391193,-100.26678939585686,80.21211738781929
2024-09-23 19:50:36.396189,42.41,47.283023,0.0006964318663124887,-0.02238531725122294,0.09745075675933246,44.11764879391193,-92.24360919585227,80.21211738781929
2024-09-23 19:50:36.439046,42.41,47.283074,0.0004974468710863627,-0.0228827638849692,0.09725178296655933,44.11764879391193,-92.24360919585227,80.21211738781929
2024-09-23 19:50:36.450796,42.41,47.283074,0.0004974468710863627,-0.0228827638849692,0.09725178296655933,36.09446859390736,-92.24360919585227,80.21211738781929
2024-09-23 19:50:36.482971,42.41,47.283074,0.0004974468710863627,-0.0228827638849692,0.09725178296655933,36.09446859390736,-92.24360919585227,80.21211738781929
2024-09-23 19:50:36.494083,42.41,47.283124,0.0004974468710863627,-0.023230986250042305,0.09710254654607277,36.09446859390736,-92.24360919585227,80.21211738781929
2024-09-23 19:50:36.537337,42.41,47.283175,0.0006964318663124887,-0.023230986250042305,0.09710254654607277,40.106058693909645,-88.23529758782387,76.200527287817
2024-09-23 19:50:36.549041,42.41,47.283175,0.0006964318663124887,-0.022833026512682618,0.09710254654607277,40.106058693909645,-88.23529758782387,76.200527287817
2024-09-23 19:50:36.581441,42.41,47.283175,0.0006964318663124887,-0.022833026512682618,0.0976994861521123,48.12595698684454,-88.23529758782387,76.200527287817
2024-09-23 19:50:36.592459,42.41,47.283226,0.0013431148730772837,-0.022833026512682618,0.0976994861521123,48.12595698684454,-96.25519929585457,72.1922225099802
2024-09-23 19:50:36.635049,42.41,47.283312,0.0013431148730772837,-0.023479709566915436,0.0973015264147526,44.11764879391193,-88.23529758782387,80.21211738781929
2024-09-23 19:50:36.679164,42.41,47.283312,0.0007461703303635545,-0.024026904205785005,0.0973512698629459,44.11764879391193,-88.23529758782387,80.21211738781929
2024-09-23 19:50:36.690668,42.41,47.283312,0.0007461703303635545,-0.024026904205785005,0.0973512698629459,36.09446859390736,-88.23529758782387,72.1922225099802
2024-09-23 19:50:36.733478,42.41,47.283364,0.0011938787373988514,-0.023579196463302005,0.09745075675933246,40.106058693909645,-96.25519929585457,72.1922225099802
2024-09-23 19:50:36.776987,42.41,47.283414,0.0006466830067647949,-0.023579196463302005,0.09745075675933246,40.106058693909645,-96.25519929585457,72.1922225099802
2024-09-23 19:50:36.789204,42.41,47.283414,0.0006466830067647949,-0.02278327698858263,0.09789846602079214,36.09446859390736,-96.25519929585457,72.1922225099802
2024-09-23 19:50:36.821667,42.41,47.283414,0.0006466830067647949,-0.02278327698858263,0.09789846602079214,36.09446859390736,-92.24360919585227,72.1922225099802
2024-09-23 19:50:36.833107,42.41,47.283465,0.0007959191899112484,-0.02308174982955575,0.09740101331113918,36.09446859390736,-92.24360919585227,88.23529758782387
2024-09-23 19:50:36.875509,42.41,47.283465,0.0007959191899112484,-0.02308174982955575,0.09740101331113918,44.11764879391193,-100.26678939585686,76.200527287817
2024-09-23 19:50:36.886501,42.41,47.283516,0.0007959191899112484,-0.022833026512682618,0.09740101331113918,44.11764879391193,-100.26678939585686,76.200527287817
2024-09-23 19:50:36.919340,42.4,47.283516,0.0007959191899112484,-0.022833026512682618,0.09750050628343246,44.11764879391193,-100.26678939585686,76.200527287817
2024-09-23 19:50:36.930858,42.4,47.283566,0.0011441298778511575,-0.022833026512682618,0.09750050628343246,36.09446859390736,-96.25519929585457,76.200527287817
2024-09-23 19:50:36.972785,42.4,47.283566,0.0011441298778511575,-0.02338022115155219,0.09774922960030558,36.09446859390736,-100.26678939585686,76.200527287817
2024-09-23 19:50:36.984272,42.4,47.283654,0.0011441298778511575,-0.02338022115155219,0.09774922960030558,36.09446859390736,-100.26678939585686,76.200527287817
2024-09-23 19:50:37.027243,42.4,47.283654,0.0007959191899112484,-0.023181236725942318,0.09774922960030558,40.106058693909645,-92.24360919585227,76.200527287817
2024-09-23 19:50:37.070360,42.4,47.283705,0.0006964318663124887,-0.023330473146428877,0.09774922960030558,40.106058693909645,-92.24360919585227,76.200527287817
2024-09-23 19:50:37.081761,42.4,47.283705,0.0006964318663124887,-0.023330473146428877,0.0976994861521123,44.11764879391193,-96.25519929585457,76.200527287817
2024-09-23 19:50:37.113974,42.4,47.283705,0.0006964318663124887,-0.023330473146428877,0.0976994861521123,44.11764879391193,-96.25519929585457,80.21211738781929
2024-09-23 19:50:37.125757,42.4,47.283756,0.0007461703303635545,-0.02313149783467906,0.0976994861521123,44.11764879391193,-96.25519929585457,80.21211738781929
2024-09-23 19:50:37.167529,42.4,47.283756,0.0007461703303635545,-0.02313149783467906,0.09740101331113918,44.11764879391193,-100.26678939585686,76.200527287817
2024-09-23 19:50:37.179111,42.4,47.283806,0.0013928637326249774,-0.02313149783467906,0.09740101331113918,44.11764879391193,-100.26678939585686,76.200527287817
2024-09-23 19:50:37.211397,42.4,47.283806,0.0013928637326249774,-0.02338022115155219,0.09740101331113918,44.11764879391193,-100.26678939585686,76.200527287817
2024-09-23 19:50:37.222775,42.4,47.283858,0.0013928637326249774,-0.02338022115155219,0.09750050628343246,44.11764879391193,-92.24360919585227,76.200527287817
2024-09-23 19:50:37.265861,42.4,47.283858,0.001044642601720419,-0.02352945757203875,0.09779897304849887,60.15744537978172,-92.24360919585227,76.200527287817
2024-09-23 19:50:37.277700,42.4,47.283858,0.001044642601720419,-0.02352945757203875,0.09779897304849887,60.15744537978172,-96.25519929585457,80.21211738781929
2024-09-23 19:50:37.310509,42.4,47.283908,0.001044642601720419,-0.02352945757203875,0.09779897304849887,60.15744537978172,-96.25519929585457,80.21211738781929
2024-09-23 19:50:37.322226,42.4,47.283908,0.0007959191899112484,-0.02362894446842532,0.09740101331113918,44.11764879391193,-96.25519929585457,80.21211738781929
2024-09-23 19:50:37.363956,42.4,47.283995,0.000845657606494293,-0.023230986250042305,0.09705279702197278,44.11764879391193,-96.25519929585457,80.21211738781929
2024-09-23 19:50:37.375597,42.4,47.283995,0.000845657606494293,-0.023230986250042305,0.09705279702197278,48.12595698684454,-96.25519929585457,80.21211738781929
2024-09-23 19:50:37.407702,42.4,47.283995,0.000845657606494293,-0.023230986250042305,0.09705279702197278,48.12595698684454,-96.25519929585457,80.21211738781929
2024-09-23 19:50:37.419567,42.4,47.284046,0.0005969341946851222,-0.0228827638849692,0.09680407370509965,48.12595698684454,-96.25519929585457,80.21211738781929
2024-09-23 19:50:37.462820,42.4,47.284097,0.0005969341946851222,-0.0228827638849692,0.09680407370509965,44.11764879391193,-96.25519929585457,76.200527287817
2024-09-23 19:50:37.474799,42.4,47.284097,0.0005969341946851222,-0.02268379009219606,0.09680407370509965,44.11764879391193,-96.25519929585457,76.200527287817
2024-09-23 19:50:37.507152,42.4,47.284097,0.0005969341946851222,-0.02268379009219606,0.09705279702197278,52.137550501942634,-96.25519929585457,76.200527287817
2024-09-23 19:50:37.518937,42.4,47.284148,0.0005969341946851222,-0.02268379009219606,0.09705279702197278,52.137550501942634,-88.23529758782387,80.21211738781929
2024-09-23 19:50:37.561912,42.4,47.284238,0.0005969341946851222,-0.023181236725942318,0.09685382322919964,48.12595698684454,-96.25519929585457,76.200527287817
2024-09-23 19:50:37.604968,42.4,47.284238,0.00034821073540793035,-0.023181236725942318,0.09745075675933246,48.12595698684454,-96.25519929585457,76.200527287817
2024-09-23 19:50:37.616220,42.4,47.284238,0.00034821073540793035,-0.023181236725942318,0.09745075675933246,44.11764879391193,-92.24360919585227,76.200527287817
2024-09-23 19:50:37.658763,42.4,47.28429,0.0007461703303635545,-0.023330473146428877,0.09750050628343246,36.09446859390736,-92.24360919585227,76.200527287817
2024-09-23 19:50:37.670848,42.4,47.28429,0.0007461703303635545,-0.023330473146428877,0.09750050628343246,36.09446859390736,-100.26678939585686,76.200527287817
2024-09-23 19:50:37.703489,42.4,47.284341,0.0006466830067647949,-0.023330473146428877,0.09750050628343246,36.09446859390736,-100.26678939585686,76.200527287817
2024-09-23 19:50:37.715265,42.4,47.284341,0.0006466830067647949,-0.023280723622328886,0.0973512698629459,40.106058693909645,-100.26678939585686,76.200527287817
2024-09-23 19:50:37.758268,42.4,47.284391,0.0007959191899112484,-0.02338022115155219,0.09745075675933246,40.106058693909645,-100.26678939585686,68.18063240997792
2024-09-23 19:50:37.800130,42.4,47.284391,0.0007959191899112484,-0.02338022115155219,0.09745075675933246,52.137550501942634,-104.27510100388527,68.18063240997792
2024-09-23 19:50:37.811979,42.4,47.284442,0.0007959191899112484,-0.02338022115155219,0.09745075675933246,52.137550501942634,-104.27510100388527,76.200527287817
2024-09-23 19:50:37.854558,42.4,47.284493,9.948729986474904e-05,-0.02338022115155219,0.09705279702197278,32.08287849390507,-100.26678939585686,76.200527287817
2024-09-23 19:50:37.896917,42.4,47.284493,9.948729986474904e-05,-0.023778180888911878,0.0973015264147526,32.08287849390507,-100.26678939585686,76.200527287817
2024-09-23 19:50:37.908139,42.4,47.28458,9.948729986474904e-05,-0.023778180888911878,0.0973015264147526,32.08287849390507,-92.24360919585227,76.200527287817
2024-09-23 19:50:37.950964,42.69,47.28458,0.0009451553255896806,-0.0228827638849692,0.09745075675933246,40.106058693909645,-92.24360919585227,76.200527287817
2024-09-23 19:50:37.993379,42.69,47.284631,0.0006964318663124887,-0.0228827638849692,0.09745075675933246,40.106058693909645,-92.24360919585227,76.200527287817
2024-09-23 19:50:38.004675,42.69,47.284631,0.0006964318663124887,-0.023429960042815445,0.09705279702197278,36.09446859390736,-96.25519929585457,76.200527287817
2024-09-23 19:50:38.046949,42.69,47.284682,0.00044769805900669,-0.022584292562972758,0.09705279702197278,36.09446859390736,-96.25519929585457,76.200527287817
2024-09-23 19:50:38.060555,42.69,47.284682,0.00044769805900669,-0.022584292562972758,0.09750050628343246,48.12595698684454,-96.25519929585457,76.200527287817
2024-09-23 19:50:38.093035,42.69,47.284733,0.00044769805900669,-0.022584292562972758,0.09750050628343246,48.12595698684454,-100.26678939585686,76.200527287817
2024-09-23 19:50:38.104421,42.69,47.284733,0.0001989745997294981,-0.022484804147609512,0.09764974270391902,48.12595698684454,-100.26678939585686,76.200527287817
2024-09-23 19:50:38.146590,42.69,47.284783,0.0011441298778511575,-0.02352945757203875,0.09764974270391902,44.11764879391193,-104.27510100388527,76.200527287817
2024-09-23 19:50:38.188627,42.69,47.284783,0.0011441298778511575,-0.02352945757203875,0.09779897304849887,36.09446859390736,-104.27510100388527,76.200527287817
2024-09-23 19:50:38.201448,42.69,47.284834,0.00044769805900669,-0.02352945757203875,0.09779897304849887,36.09446859390736,-96.25519929585457,80.21211738781929
2024-09-23 19:50:38.243548,42.69,47.284921,0.00044769805900669,-0.022982261414192504,0.09740101331113918,36.09446859390736,-96.25519929585457,72.1922225099802
2024-09-23 19:50:38.286329,42.69,47.284921,0.0007461703303635545,-0.023230986250042305,0.09740101331113918,36.09446859390736,-96.25519929585457,72.1922225099802
2024-09-23 19:50:38.297382,42.69,47.284921,0.0007461703303635545,-0.023230986250042305,0.09745075675933246,40.106058693909645,-92.24360919585227,76.200527287817
2024-09-23 19:50:38.340635,42.69,47.284973,0.0007461703303635545,-0.023230986250042305,0.09745075675933246,40.106058693909645,-92.24360919585227,76.200527287817
2024-09-23 19:50:38.383004,42.69,47.284973,0.0004974468710863627,-0.023230986250042305,0.09745075675933246,40.106058693909645,-92.24360919585227,76.200527287817
2024-09-23 19:50:38.394891,42.69,47.284973,0.0004974468710863627,-0.023230986250042305,0.0970030596496862,44.11764879391193,-104.27510100388527,80.21211738781929
2024-09-23 19:50:38.437687,42.69,47.285023,0.0007461703303635545,-0.02313149783467906,0.09645586349183995,40.106058693909645,-104.27510100388527,80.21211738781929
2024-09-23 19:50:38.450013,42.69,47.285023,0.0007461703303635545,-0.02313149783467906,0.09645586349183995,40.106058693909645,-96.25519929585457,80.21211738781929
2024-09-23 19:50:38.482350,42.69,47.285074,0.00044769805900669,-0.02313149783467906,0.09645586349183995,40.106058693909645,-96.25519929585457,76.200527287817
2024-09-23 19:50:38.493553,42.69,47.285074,0.00044769805900669,-0.023429960042815445,0.09745075675933246,40.106058693909645,-96.25519929585457,76.200527287817
2024-09-23 19:50:38.536065,42.69,47.285125,0.0006466830067647949,-0.02308174982955575,0.09764974270391902,40.106058693909645,-88.23529758782387,80.21211738781929
2024-09-23 19:50:38.578856,42.69,47.285125,0.0006466830067647949,-0.02308174982955575,0.09764974270391902,44.11764879391193,-88.23529758782387,80.21211738781929
2024-09-23 19:50:38.591095,42.69,47.285175,0.0007959191899112484,-0.02313149783467906,0.09764974270391902,44.11764879391193,-88.23529758782387,80.21211738781929
2024-09-23 19:50:38.633784,42.69,47.285265,0.0007959191899112484,-0.02313149783467906,0.09819693278585856,48.12595698684454,-96.25519929585457,84.22370748782159
2024-09-23 19:50:38.645247,42.69,47.285265,0.001044642601720419,-0.02313149783467906,0.09819693278585856,48.12595698684454,-96.25519929585457,84.22370748782159
2024-09-23 19:50:38.677902,42.69,47.285265,0.001044642601720419,-0.02293251340906919,0.09680407370509965,40.106058693909645,-96.25519929585457,84.22370748782159
2024-09-23 19:50:38.689368,42.69,47.28536,0.001044642601720419,-0.02293251340906919,0.09680407370509965,40.106058693909645,-96.25519929585457,76.200527287817
2024-09-23 19:50:38.732153,42.69,47.28536,0.0011938787373988514,-0.02352945757203875,0.0976994861521123,40.106058693909645,-92.24360919585227,80.21211738781929
2024-09-23 19:50:38.775050,42.69,47.285411,0.0004974468710863627,-0.02268379009219606,0.0976994861521123,40.106058693909645,-92.24360919585227,80.21211738781929
2024-09-23 19:50:38.786855,42.69,47.285411,0.0004974468710863627,-0.02268379009219606,0.0970030596496862,40.106058693909645,-96.25519929585457,80.21211738781929
2024-09-23 19:50:38.829698,42.69,47.285462,0.0009948937421727254,-0.02268379009219606,0.0973015264147526,40.106058693909645,-96.25519929585457,84.22370748782159
2024-09-23 19:50:38.873602,42.69,47.285513,0.0009948937421727254,-0.02268379009219606,0.0973015264147526,40.106058693909645,-100.26678939585686,72.1922225099802
2024-09-23 19:50:38.884684,42.69,47.285513,0.0007959191899112484,-0.022833026512682618,0.09645586349183995,40.106058693909645,-100.26678939585686,72.1922225099802
2024-09-23 19:50:38.969563,42.28,47.285513,0.0007959191899112484,-0.022833026512682618,0.09645586349183995,40.106058693909645,-92.24360919585227,72.1922225099802
2024-09-23 19:50:38.981333,42.28,47.285563,0.0003979595949556242,-0.02293251340906919,0.09645586349183995,40.106058693909645,-92.24360919585227,76.200527287817
2024-09-23 19:50:39.024520,42.28,47.285614,0.0007461703303635545,-0.02293251340906919,0.0973015264147526,36.09446859390736,-96.25519929585457,76.200527287817
2024-09-23 19:50:39.067707,42.28,47.285614,0.0007461703303635545,-0.022833026512682618,0.0976994861521123,20.05138839341998,-96.25519929585457,76.200527287817
2024-09-23 19:50:39.078755,42.28,47.285701,0.0007461703303635545,-0.022833026512682618,0.0976994861521123,20.05138839341998,-92.24360919585227,84.22370748782159
2024-09-23 19:50:39.122054,42.28,47.285701,0.0007959191899112484,-0.0228827638849692,0.09824668230995855,36.09446859390736,-96.25519929585457,76.200527287817
2024-09-23 19:50:39.164875,42.28,47.285753,0.0009451553255896806,-0.02313149783467906,0.09824668230995855,36.09446859390736,-96.25519929585457,76.200527287817
2024-09-23 19:50:39.176420,42.28,47.285753,0.0009451553255896806,-0.02313149783467906,0.09799795899308542,36.09446859390736,-92.24360919585227,76.200527287817
2024-09-23 19:50:39.218471,42.28,47.285848,0.0005969341946851222,-0.02338022115155219,0.09750050628343246,40.106058693909645,-92.24360919585227,76.200527287817
2024-09-23 19:50:39.261042,42.28,47.285848,0.0005969341946851222,-0.02338022115155219,0.09750050628343246,40.106058693909645,-96.25519929585457,80.21211738781929
2024-09-23 19:50:39.272394,42.28,47.2859,0.000845657606494293,-0.023728432883788564,0.09774922960030558,40.106058693909645,-96.25519929585457,80.21211738781929
2024-09-23 19:50:39.314338,42.28,47.28595,0.0006964318663124887,-0.023728432883788564,0.09774922960030558,48.12595698684454,-100.26678939585686,76.200527287817
2024-09-23 19:50:39.326023,42.28,47.28595,0.0006964318663124887,-0.02338022115155219,0.09774922960030558,48.12595698684454,-100.26678939585686,76.200527287817
2024-09-23 19:50:39.358802,42.28,47.28595,0.0006964318663124887,-0.02338022115155219,0.09764974270391902,48.12595698684454,-100.26678939585686,76.200527287817
2024-09-23 19:50:39.369934,42.28,47.286001,0.0006466830067647949,-0.02338022115155219,0.09764974270391902,48.12595698684454,-96.25519929585457,76.200527287817
2024-09-23 19:50:39.412675,42.28,47.286001,0.0006466830067647949,-0.02338022115155219,0.09740101331113918,40.106058693909645,-96.25519929585457,76.200527287817
2024-09-23 19:50:39.424823,42.28,47.286091,0.0006466830067647949,-0.02338022115155219,0.09740101331113918,40.106058693909645,-96.25519929585457,76.200527287817
2024-09-23 19:50:39.456475,42.28,47.286091,0.0004974468710863627,-0.022982261414192504,0.09740101331113918,40.106058693909645,-96.25519929585457,76.200527287817
2024-09-23 19:50:39.468490,42.28,47.286091,0.0004974468710863627,-0.022982261414192504,0.09725178296655933,40.106058693909645,-104.27510100388527,76.200527287817
2024-09-23 19:50:39.510648,42.28,47.286143,0.0011938787373988514,-0.02352945757203875,0.09779897304849887,44.11764879391193,-104.27510100388527,76.200527287817
2024-09-23 19:50:39.522300,42.28,47.286143,0.0011938787373988514,-0.02352945757203875,0.09779897304849887,44.11764879391193,-88.23529758782387,76.200527287817
2024-09-23 19:50:39.554906,42.28,47.286193,0.0011938787373988514,-0.02352945757203875,0.09779897304849887,44.11764879391193,-88.23529758782387,72.1922225099802
2024-09-23 19:50:39.566250,42.28,47.286193,0.0005969341946851222,-0.02338022115155219,0.09750050628343246,24.06297849342227,-88.23529758782387,72.1922225099802
2024-09-23 19:50:39.610133,42.28,47.286244,0.0006466830067647949,-0.023429960042815445,0.09715228999426605,24.06297849342227,-92.24360919585227,80.21211738781929
2024-09-23 19:50:39.653720,42.28,47.286244,0.0006466830067647949,-0.023429960042815445,0.09715228999426605,44.11764879391193,-92.24360919585227,76.200527287817
2024-09-23 19:50:39.665650,42.28,47.286295,0.0006466830067647949,-0.02293251340906919,0.09715228999426605,44.11764879391193,-92.24360919585227,76.200527287817
2024-09-23 19:50:39.697975,42.28,47.286295,0.0006466830067647949,-0.02293251340906919,0.09755024973162574,44.11764879391193,-92.24360919585227,76.200527287817
2024-09-23 19:50:39.710065,42.28,47.286345,0.0007461703303635545,-0.02293251340906919,0.09755024973162574,40.106058693909645,-92.24360919585227,80.21211738781929
2024-09-23 19:50:39.753123,42.28,47.286345,0.0007461703303635545,-0.02278327698858263,0.09720203344245934,32.08287849390507,-96.25519929585457,76.200527287817
2024-09-23 19:50:39.764863,42.28,47.286432,0.0007461703303635545,-0.02278327698858263,0.09720203344245934,32.08287849390507,-96.25519929585457,76.200527287817
2024-09-23 19:50:39.796989,42.28,47.286432,0.001044642601720419,-0.02278327698858263,0.09720203344245934,32.08287849390507,-96.25519929585457,76.200527287817
2024-09-23 19:50:39.808842,42.28,47.286432,0.001044642601720419,-0.023280723622328886,0.09784872257259886,48.12595698684454,-96.25519929585457,72.1922225099802
2024-09-23 19:50:39.851702,42.28,47.286484,0.0007959191899112484,-0.02293251340906919,0.09725178296655933,48.12595698684454,-96.25519929585457,72.1922225099802
2024-09-23 19:50:39.895260,42.28,47.286484,0.0007959191899112484,-0.02293251340906919,0.09725178296655933,48.12595698684454,-96.25519929585457,72.1922225099802
2024-09-23 19:50:39.907108,42.28,47.286535,0.0009948937421727254,-0.023479709566915436,0.09725178296655933,48.12595698684454,-96.25519929585457,76.200527287817
2024-09-23 19:50:39.949081,42.28,47.286585,0.0009948937421727254,-0.023479709566915436,0.0973512698629459,48.12595698684454,-88.23529758782387,88.23529758782387
2024-09-23 19:50:39.961456,42.28,47.286585,0.00024872343554318134,-0.023479709566915436,0.0973512698629459,48.12595698684454,-88.23529758782387,88.23529758782387
2024-09-23 19:50:39.993783,42.68,47.286585,0.00024872343554318134,-0.02313149783467906,0.09695331012558621,40.106058693909645,-88.23529758782387,88.23529758782387
2024-09-23 19:50:40.005632,42.68,47.286636,0.00024872343554318134,-0.02313149783467906,0.09695331012558621,40.106058693909645,-96.25519929585457,80.21211738781929
2024-09-23 19:50:40.048713,42.68,47.286636,0.0009948937421727254,-0.02293251340906919,0.09745075675933246,44.11764879391193,-92.24360919585227,80.21211738781929
2024-09-23 19:50:40.090438,42.68,47.286687,0.001044642601720419,-0.02293251340906919,0.09745075675933246,44.11764879391193,-92.24360919585227,80.21211738781929
2024-09-23 19:50:40.102185,42.68,47.286687,0.001044642601720419,-0.023479709566915436,0.09764974270391902,40.106058693909645,-84.22370748782159,80.21211738781929
2024-09-23 19:50:40.144650,42.68,47.286775,0.00034821073540793035,-0.022833026512682618,0.09685382322919964,40.106058693909645,-84.22370748782159,84.22370748782159
2024-09-23 19:50:40.156387,42.68,47.286775,0.00034821073540793035,-0.022833026512682618,0.09685382322919964,32.08287849390507,-84.22370748782159,84.22370748782159
2024-09-23 19:50:40.187991,42.68,47.286775,0.00034821073540793035,-0.022833026512682618,0.09685382322919964,32.08287849390507,-88.23529758782387,84.22370748782159
2024-09-23 19:50:40.198985,42.68,47.286826,0.000845657606494293,-0.022833026512682618,0.09690356060148622,32.08287849390507,-88.23529758782387,80.21211738781929
2024-09-23 19:50:40.242783,42.68,47.286877,0.0006964318663124887,-0.022982261414192504,0.09690356060148622,16.039798293417693,-100.26678939585686,80.21211738781929
2024-09-23 19:50:40.285160,42.68,47.286877,0.0006964318663124887,-0.022982261414192504,0.09745075675933246,20.05138839341998,-100.26678939585686,80.21211738781929
2024-09-23 19:50:40.296310,42.68,47.286927,0.00029846189959424716,-0.022982261414192504,0.09745075675933246,20.05138839341998,-92.24360919585227,80.21211738781929
2024-09-23 19:50:40.338307,42.68,47.286927,0.00029846189959424716,-0.023877669304275123,0.09755024973162574,48.12595698684454,-92.24360919585227,80.21211738781929
2024-09-23 19:50:40.350357,42.68,47.287018,0.00029846189959424716,-0.023877669304275123,0.09755024973162574,48.12595698684454,-92.24360919585227,80.21211738781929
2024-09-23 19:50:40.382199,42.68,47.287018,0.0007959191899112484,-0.023181236725942318,0.09755024973162574,48.12595698684454,-92.24360919585227,80.21211738781929
2024-09-23 19:50:40.393836,42.68,47.287018,0.0007959191899112484,-0.023181236725942318,0.09764974270391902,44.11764879391193,-92.24360919585227,76.200527287817
2024-09-23 19:50:40.435682,42.68,47.287069,0.0003979595949556242,-0.023330473146428877,0.09725178296655933,40.106058693909645,-92.24360919585227,76.200527287817
2024-09-23 19:50:40.447331,42.68,47.287069,0.0003979595949556242,-0.023330473146428877,0.09725178296655933,40.106058693909645,-104.27510100388527,76.200527287817
2024-09-23 19:50:40.480847,42.68,47.28712,0.0003979595949556242,-0.023330473146428877,0.09725178296655933,40.106058693909645,-104.27510100388527,72.1922225099802
2024-09-23 19:50:40.492034,42.68,47.28712,0.0006466830067647949,-0.023479709566915436,0.09705279702197278,36.09446859390736,-104.27510100388527,72.1922225099802
2024-09-23 19:50:40.534460,42.68,47.28717,0.000845657606494293,-0.02268379009219606,0.09705279702197278,36.09446859390736,-100.26678939585686,76.200527287817
2024-09-23 19:50:40.546093,42.68,47.28717,0.000845657606494293,-0.02268379009219606,0.09715228999426605,36.09446859390736,-100.26678939585686,76.200527287817
2024-09-23 19:50:40.577946,42.68,47.28717,0.000845657606494293,-0.02268379009219606,0.09715228999426605,44.11764879391193,-96.25519929585457,76.200527287817
2024-09-23 19:50:40.589929,42.68,47.287221,0.0006964318663124887,-0.02278327698858263,0.09715228999426605,44.11764879391193,-96.25519929585457,80.21211738781929
2024-09-23 19:50:40.633233,42.68,47.287272,0.0006964318663124887,-0.02278327698858263,0.0973015264147526,36.09446859390736,-92.24360919585227,76.200527287817
2024-09-23 19:50:40.644791,42.68,47.287272,0.0007461703303635545,-0.02278327698858263,0.0973015264147526,36.09446859390736,-92.24360919585227,76.200527287817
2024-09-23 19:50:40.677296,42.68,47.287272,0.0007461703303635545,-0.023230986250042305,0.09764974270391902,36.09446859390736,-92.24360919585227,76.200527287817
2024-09-23 19:50:40.688405,42.68,47.287359,0.0007461703303635545,-0.023230986250042305,0.09764974270391902,36.09446859390736,-88.23529758782387,80.21211738781929
2024-09-23 19:50:40.731785,42.68,47.287359,0.0009948937421727254,-0.02352945757203875,0.09750050628343246,20.05138839341998,-96.25519929585457,80.21211738781929
2024-09-23 19:50:40.773725,42.68,47.28741,0.0006466830067647949,-0.023827930413011865,0.09750050628343246,20.05138839341998,-96.25519929585457,80.21211738781929
2024-09-23 19:50:40.785213,42.68,47.28741,0.0006466830067647949,-0.023827930413011865,0.0966050877605131,-28.07457030097246,-100.26678939585686,80.21211738781929
2024-09-23 19:50:40.827539,42.68,47.287461,4.973845218406054e-05,-0.02313149783467906,0.09814718933766527,12.031489246711136,-100.26678939585686,80.21211738781929
2024-09-23 19:50:40.871227,42.68,47.287511,4.973845218406054e-05,-0.02313149783467906,0.09814718933766527,12.031489246711136,-92.24360919585227,88.23529758782387
2024-09-23 19:50:40.883388,42.68,47.287511,0.001044642601720419,-0.023728432883788564,0.09784872257259886,12.031489246711136,-92.24360919585227,88.23529758782387
2024-09-23 19:50:40.925275,42.68,47.287562,0.0009451553255896806,-0.02303200030545576,0.09784872257259886,40.106058693909645,-92.24360919585227,76.200527287817
2024-09-23 19:50:40.968370,42.68,47.287562,0.0009451553255896806,-0.02303200030545576,0.09745075675933246,44.11764879391193,-96.25519929585457,76.200527287817
2024-09-23 19:50:41.021394,42.36,47.287613,0.0006964318663124887,-0.0228827638849692,0.09725178296655933,44.11764879391193,-96.25519929585457,76.200527287817
2024-09-23 19:50:41.033620,42.36,47.287613,0.0006964318663124887,-0.0228827638849692,0.09725178296655933,44.11764879391193,-96.25519929585457,76.200527287817
2024-09-23 19:50:41.066868,42.36,47.2877,0.0006964318663124887,-0.0228827638849692,0.09725178296655933,44.11764879391193,-88.23529758782387,80.21211738781929
2024-09-23 19:50:41.078362,42.36,47.2877,0.0011938787373988514,-0.02362894446842532,0.0973512698629459,44.11764879391193,-88.23529758782387,80.21211738781929
2024-09-23 19:50:41.122151,42.36,47.287752,0.0009451553255896806,-0.022982261414192504,0.0973512698629459,40.106058693909645,-92.24360919585227,76.200527287817
2024-09-23 19:50:41.164438,42.36,47.287752,0.0009451553255896806,-0.022982261414192504,0.09705279702197278,36.09446859390736,-88.23529758782387,76.200527287817
2024-09-23 19:50:41.175803,42.36,47.287802,0.001044642601720419,-0.022982261414192504,0.09705279702197278,36.09446859390736,-88.23529758782387,76.200527287817
2024-09-23 19:50:41.218390,42.36,47.287802,0.001044642601720419,-0.023181236725942318,0.09745075675933246,44.11764879391193,-92.24360919585227,76.200527287817
2024-09-23 19:50:41.230509,42.36,47.287853,0.001044642601720419,-0.023181236725942318,0.09745075675933246,44.11764879391193,-92.24360919585227,76.200527287817
2024-09-23 19:50:41.263855,42.36,47.287853,0.0008954064660419869,-0.02278327698858263,0.0973015264147526,40.106058693909645,-92.24360919585227,76.200527287817
2024-09-23 19:50:41.275570,42.36,47.287853,0.0008954064660419869,-0.02278327698858263,0.0973015264147526,40.106058693909645,-96.25519929585457,76.200527287817
2024-09-23 19:50:41.307048,42.36,47.287944,0.0008954064660419869,-0.02278327698858263,0.0973015264147526,40.106058693909645,-96.25519929585457,76.200527287817
2024-09-23 19:50:41.318796,42.36,47.287944,0.0007461703303635545,-0.022982261414192504,0.09745075675933246,44.11764879391193,-96.25519929585457,76.200527287817
2024-09-23 19:50:41.362145,42.36,47.287996,0.0003979595949556242,-0.02303200030545576,0.09720203344245934,44.11764879391193,-96.25519929585457,76.200527287817
2024-09-23 19:50:41.373918,42.36,47.287996,0.0003979595949556242,-0.02303200030545576,0.09720203344245934,36.09446859390736,-96.25519929585457,76.200527287817
2024-09-23 19:50:41.406211,42.36,47.287996,0.0003979595949556242,-0.02303200030545576,0.09720203344245934,36.09446859390736,-96.25519929585457,76.200527287817
2024-09-23 19:50:41.417690,42.36,47.288046,0.0006964318663124887,-0.023280723622328886,0.0973512698629459,36.09446859390736,-96.25519929585457,76.200527287817
2024-09-23 19:50:41.459558,42.36,47.288097,0.0009451553255896806,-0.023280723622328886,0.0973512698629459,40.106058693909645,-92.24360919585227,76.200527287817
2024-09-23 19:50:41.471230,42.36,47.288097,0.0009451553255896806,-0.02278327698858263,0.0973512698629459,40.106058693909645,-92.24360919585227,76.200527287817
2024-09-23 19:50:41.504266,42.36,47.288097,0.0009451553255896806,-0.02278327698858263,0.09695331012558621,36.09446859390736,-92.24360919585227,76.200527287817
2024-09-23 19:50:41.516263,42.36,47.288148,0.0011441298778511575,-0.02278327698858263,0.09695331012558621,36.09446859390736,-100.26678939585686,72.1922225099802
2024-09-23 19:50:41.558789,42.36,47.288236,0.0011441298778511575,-0.022982261414192504,0.09755024973162574,44.11764879391193,-96.25519929585457,76.200527287817
2024-09-23 19:50:41.601571,42.36,47.288236,0.000845657606494293,-0.023280723622328886,0.09755024973162574,44.11764879391193,-96.25519929585457,76.200527287817
2024-09-23 19:50:41.613477,42.36,47.288236,0.000845657606494293,-0.023280723622328886,0.09774922960030558,40.106058693909645,-92.24360919585227,76.200527287817
2024-09-23 19:50:41.655673,42.36,47.288288,0.0012436275969465451,-0.023429960042815445,0.09745075675933246,40.106058693909645,-92.24360919585227,76.200527287817
2024-09-23 19:50:41.667718,42.36,47.288288,0.0012436275969465451,-0.023429960042815445,0.09745075675933246,40.106058693909645,-88.23529758782387,76.200527287817
2024-09-23 19:50:41.700572,42.36,47.288338,0.0006964318663124887,-0.023429960042815445,0.09745075675933246,40.106058693909645,-88.23529758782387,80.21211738781929
2024-09-23 19:50:41.712419,42.36,47.288338,0.0006964318663124887,-0.023728432883788564,0.09710254654607277,36.09446859390736,-88.23529758782387,80.21211738781929
2024-09-23 19:50:41.756464,42.36,47.288389,0.0013928637326249774,-0.02313149783467906,0.09864464204731824,36.09446859390736,-92.24360919585227,72.1922225099802
2024-09-23 19:50:41.799667,42.36,47.28844,0.0013928637326249774,-0.02313149783467906,0.09864464204731824,52.137550501942634,-96.25519929585457,76.200527287817
2024-09-23 19:50:41.810595,42.36,47.28844,0.0007461703303635545,-0.02263404056809607,0.09864464204731824,52.137550501942634,-96.25519929585457,76.200527287817
2024-09-23 19:50:41.853092,42.36,47.28849,0.0006466830067647949,-0.02263404056809607,0.09764974270391902,92.24360919585227,-92.24360919585227,72.1922225099802
2024-09-23 19:50:41.896044,42.36,47.28849,0.0006466830067647949,-0.023230986250042305,0.09685382322919964,60.15744537978172,-92.24360919585227,72.1922225099802
2024-09-23 19:50:41.907128,42.36,47.288577,0.0006466830067647949,-0.023230986250042305,0.09685382322919964,60.15744537978172,-92.24360919585227,76.200527287817
2024-09-23 19:50:41.950216,42.36,47.288577,0.0011938787373988514,-0.023181236725942318,0.09759999317981902,44.11764879391193,-92.24360919585227,84.22370748782159
2024-09-23 19:50:41.992308,42.36,47.288629,0.0001989745997294981,-0.023181236725942318,0.09759999317981902,44.11764879391193,-92.24360919585227,84.22370748782159
2024-09-23 19:50:42.004355,42.36,47.288629,0.0001989745997294981,-0.023827930413011865,0.09720203344245934,36.09446859390736,-104.27510100388527,84.22370748782159
2024-09-23 19:50:42.046995,42.68,47.28868,0.0003979595949556242,-0.02313149783467906,0.09774922960030558,36.09446859390736,-104.27510100388527,80.21211738781929
2024-09-23 19:50:42.058772,42.68,47.28868,0.0003979595949556242,-0.02313149783467906,0.09774922960030558,40.106058693909645,-104.27510100388527,80.21211738781929
2024-09-23 19:50:42.090864,42.68,47.28873,0.0003979595949556242,-0.02313149783467906,0.09774922960030558,40.106058693909645,-96.25519929585457,76.200527287817
2024-09-23 19:50:42.102396,42.68,47.28873,0.0011938787373988514,-0.0228827638849692,0.09750050628343246,40.106058693909645,-96.25519929585457,76.200527287817
