Ayaan's Suite
Timestamp,Sample Rate (Hz),Time,Ax,Ay,Az,Gx,Gy,Gz
2024-09-23 01:44:52.516077,0,7.715458,-0.013232416455291218,0.02152558556633501,1.01737645544894,0.3062460483703762,-1.203097164625302,-1.3693696416858583
2024-09-23 01:44:52.548791,0,7.715458,-0.013232416455291218,0.02152558556633501,1.011034569852092,0.2186980663477443,-1.0805987452771515,-1.3693696416858583
2024-09-23 01:44:52.561567,0,7.715558,-0.013537308491698099,0.02152558556633501,1.011034569852092,0.2186980663477443,-1.0805987452771515,-1.426207081187144
2024-09-23 01:44:52.593406,0,7.715558,-0.013537308491698099,0.021708563015730736,1.011034569852092,0.2186980663477443,-1.0805987452771515,-1.426207081187144
2024-09-23 01:44:52.605360,0,7.715653,-0.013537308491698099,0.021708563015730736,1.0104856967439952,0.3849704900474288,-1.1855647030871361,-1.4218526205908506
2024-09-23 01:44:52.699534,0,7.715653,-0.012744546969488612,0.019452293288574063,1.0159129882563631,0.27994727602181957,-1.1506142924420535,-1.3737241022821516
2024-09-23 01:44:52.742241,0,7.715705,-0.013598266544692013,0.019452293288574063,1.0159129882563631,0.27994727602181957,-1.1506142924420535,-1.3737241022821516
2024-09-23 01:44:52.753887,0,7.715705,-0.013598266544692013,0.018781549643789714,1.0119492611510794,0.2843590461946093,-1.1506142924420535,-1.3737241022821516
2024-09-23 01:44:52.796182,0,7.715755,-0.01042742096077533,0.017439959063807027,1.0134127283436565,0.2843590461946093,-1.1506142924420535,-1.3868447936475277
2024-09-23 01:44:52.808233,0,7.715755,-0.01042742096077533,0.017439959063807027,1.0134127283436565,0.3411964856958948,-1.1506142924420535,-1.3868447936475277
2024-09-23 01:44:52.840365,0,7.715755,-0.01042742096077533,0.017439959063807027,1.0134127283436565,0.3411964856958948,-1.0499454856518655,-1.4524485706396402
2024-09-23 01:44:52.851352,0,7.715806,-0.011403058160943235,0.022867176146317694,1.0157908868352208,0.3411964856958948,-1.0499454856518655,-1.4524485706396402
2024-09-23 01:44:52.894270,0,7.715857,-0.014512945691866003,0.022867176146317694,1.0157908868352208,0.35872900059493257,-1.1724439050000162,-1.404320052330941
2024-09-23 01:44:52.905652,0,7.715857,-0.014512945691866003,0.01890346574977754,1.0157908868352208,0.35872900059493257,-1.1724439050000162,-1.404320052330941
2024-09-23 01:44:52.937336,0,7.715857,-0.014512945691866003,0.01890346574977754,1.0101198785531047,0.3368419984191656,-1.1724439050000162,-1.404320052330941
2024-09-23 01:44:52.948647,0,7.715948,-0.013903160100075569,0.01890346574977754,1.0101198785531047,0.3368419984191656,-1.1374934943549335,-1.3780785628784449
2024-09-23 01:44:52.990345,0,7.715948,-0.013903160100075569,0.02176952106872465,1.0143883731387076,0.3368419984191656,-1.203097164625302,-1.426207081187144
2024-09-23 01:44:53.002427,0,7.716043,-0.013903160100075569,0.02176952106872465,1.0143883731387076,0.3368419984191656,-1.203097164625302,-1.426207081187144
2024-09-23 01:44:53.035013,0,7.716043,-0.010000509527966639,0.020062078880364497,1.0143883731387076,0.3368419984191656,-1.203097164625302,-1.426207081187144
2024-09-23 01:44:53.046253,0,7.716043,-0.010000509527966639,0.020062078880364497,1.0153031616522024,0.27994727602181957,-1.1506142924420535,-1.4306188513599336
2024-09-23 01:44:53.089561,0,7.716095,-0.014208053655459124,0.020793883868556746,1.0131688171448936,0.3062460483703762,-1.1724439050000162,-1.4306188513599336
2024-09-23 01:44:53.132434,0,7.716145,-0.014208053655459124,0.020793883868556746,1.0131688171448936,0.3062460483703762,-1.1724439050000162,-1.4437395427253097
2024-09-23 01:44:53.144113,0,7.716145,-0.012744546969488612,0.019879204721382753,1.0134736818397203,0.3499627431454137,-1.1724439050000162,-1.4437395427253097
2024-09-23 01:44:53.186873,0,7.716196,-0.014269113479890346,0.021708563015730736,1.0157908868352208,0.3499627431454137,-1.2293386540777982,-1.4306188513599336
2024-09-23 01:44:53.229453,0,7.716196,-0.014269113479890346,0.021708563015730736,1.0157908868352208,0.3237212803733535,-1.1549687530383468,-1.4306188513599336
2024-09-23 01:44:53.241148,0,7.716247,-0.014695923141261731,0.019086441680196593,1.0157908868352208,0.3237212803733535,-1.1549687530383468,-1.448094003321603
2024-09-23 01:44:53.284199,0,7.716298,-0.012012843752733671,0.019086441680196593,1.0117664006628877,0.3062460483703762,-1.1068402347296475,-1.3474826128296553
2024-09-23 01:44:53.326806,0,7.716298,-0.012012843752733671,0.019086441680196593,1.0120712653577144,0.3062460483703762,-1.1068402347296475,-1.3474826128296553
2024-09-23 01:44:53.338315,0,7.716385,-0.012012843752733671,0.019086441680196593,1.0120712653577144,0.31060053564710544,-1.207451731943339,-1.4218526205908506
2024-09-23 01:44:53.381277,0,7.716385,-0.011037206552565765,0.019208359305161096,1.015668979843093,0.3237212803733535,-1.1462025222692638,-1.4218526205908506
2024-09-23 01:44:53.393472,0,7.716385,-0.011037206552565765,0.019208359305161096,1.015668979843093,0.3237212803733535,-1.1462025222692638,-1.3649578715130686
2024-09-23 01:44:53.426301,0,7.716436,-0.010000509527966639,0.020001120827370582,1.015668979843093,0.3237212803733535,-1.1462025222692638,-1.3649578715130686
2024-09-23 01:44:53.438033,0,7.716436,-0.010000509527966639,0.020001120827370582,1.012498037044669,0.3630834878716618,-1.2424594521649182,-1.3649578715130686
2024-09-23 01:44:53.481930,0,7.716487,-0.011220081471035847,0.02207441310513153,1.0120102146471432,0.3149550229238346,-1.2424594521649182,-1.4087318225037306
2024-09-23 01:44:53.524840,43.11,7.716487,-0.011220081471035847,0.02207441310513153,1.0120102146471432,0.3149550229238346,-1.1724439050000162,-1.4087318225037306
2024-09-23 01:44:53.577911,43.11,7.716538,-0.011098165365048018,0.018598572194393984,1.0138396944596255,0.3368419984191656,-1.1724439050000162,-1.3780785628784449
2024-09-23 01:44:53.620313,43.11,7.716538,-0.011098165365048018,0.018598572194393984,1.0138396944596255,0.3368419984191656,-1.203097164625302,-1.4218526205908506
2024-09-23 01:44:53.631704,43.11,7.716589,-0.013537308491698099,0.02067186599113161,1.0139616014517532,0.3368419984191656,-1.203097164625302,-1.4218526205908506
2024-09-23 01:44:53.675778,43.11,7.71664,-0.01622038788022616,0.02213537267710212,1.0139616014517532,0.3368419984191656,-1.216217962712422,-1.474335492774099
2024-09-23 01:44:53.719123,43.11,7.71664,-0.01622038788022616,0.02213537267710212,1.012620041251304,0.37184974532118065,-1.1462025222692638,-1.474335492774099
2024-09-23 01:44:53.731014,43.11,7.716726,-0.01378124399408774,0.02213537267710212,1.012620041251304,0.37184974532118065,-1.1462025222692638,-1.4568603408124299
2024-09-23 01:44:53.764389,43.11,7.716726,-0.01378124399408774,0.022562284109910815,1.012620041251304,0.37184974532118065,-1.1462025222692638,-1.4568603408124299
2024-09-23 01:44:53.776168,43.11,7.716776,-0.01378124399408774,0.022562284109910815,1.0152421109416312,0.4330989549952559,-1.1943309338562191,-1.4174980532728136
2024-09-23 01:44:53.819408,43.11,7.716776,-0.015427726610477303,0.019025483627202678,1.0137175930384832,0.2318188110739924,-1.1199610328167677,-1.4174980532728136
2024-09-23 01:44:53.831075,43.11,7.716776,-0.015427726610477303,0.019025483627202678,1.0137175930384832,0.2318188110739924,-1.1199610328167677,-1.3780785628784449
2024-09-23 01:44:53.864586,43.11,7.716873,-0.012500713238536278,0.019025483627202678,1.0137175930384832,0.2318188110739924,-1.1199610328167677,-1.3780785628784449
2024-09-23 01:44:53.876318,43.11,7.716873,-0.012500713238536278,0.01975718684395762,1.0131688171448936,0.2843590461946093,-1.1068402347296475,-1.3780785628784449
2024-09-23 01:44:53.919230,43.11,7.716924,-0.012622630104012445,0.019940162774376668,1.0125589905407328,0.3499627431454137,-1.1068402347296475,-1.3737241022821516
2024-09-23 01:44:53.961268,43.11,7.716924,-0.012622630104012445,0.019940162774376668,1.0125589905407328,0.3499627431454137,-1.203097164625302,-1.3868447936475277
2024-09-23 01:44:53.972365,43.11,7.716975,-0.011707950956838454,0.019452293288574063,1.0151811574455674,0.3499627431454137,-1.203097164625302,-1.3868447936475277
2024-09-23 01:44:54.015617,43.11,7.717025,-0.01378124399408774,0.020427930488741967,1.0151811574455674,0.2537058132497594,-1.1418479549512268,-1.469981032177806
2024-09-23 01:44:54.058656,43.11,7.717025,-0.01378124399408774,0.020427930488741967,1.0119492611510794,0.3193667930966243,-1.1418479549512268,-1.469981032177806
2024-09-23 01:44:54.069710,43.11,7.717076,-0.017074107455429557,0.020427930488741967,1.0119492611510794,0.3193667930966243,-1.1374934943549335,-1.3693696416858583
2024-09-23 01:44:54.112514,43.11,7.717076,-0.017074107455429557,0.020062078880364497,1.01231507934197,0.38061600277069957,-1.1549687530383468,-1.3649578715130686
2024-09-23 01:44:54.124664,43.11,7.717165,-0.017074107455429557,0.020062078880364497,1.01231507934197,0.38061600277069957,-1.1549687530383468,-1.3649578715130686
2024-09-23 01:44:54.156386,43.11,7.717165,-0.010549337066763158,0.016769215419022678,1.01231507934197,0.38061600277069957,-1.1549687530383468,-1.3649578715130686
2024-09-23 01:44:54.167631,43.11,7.717165,-0.010549337066763158,0.016769215419022678,1.018534960732183,0.3456082558686845,-1.0849533125951887,-1.4524485706396402
2024-09-23 01:44:54.209410,43.11,7.717216,-0.013842202047081654,0.020610907938137694,1.0121931723498423,0.3280757409696467,-1.0849533125951887,-1.4524485706396402
2024-09-23 01:44:54.221059,43.11,7.717216,-0.013842202047081654,0.020610907938137694,1.0121931723498423,0.3280757409696467,-1.1199610328167677,-1.4524485706396402
2024-09-23 01:44:54.254028,43.11,7.717267,-0.013842202047081654,0.020610907938137694,1.0121931723498423,0.3280757409696467,-1.1199610328167677,-1.3999655917346479
2024-09-23 01:44:54.265469,43.11,7.717267,-0.013232416455291218,0.021281651582922046,1.011217527554791,0.3456082558686845,-1.1199610328167677,-1.3999655917346479
2024-09-23 01:44:54.308130,43.11,7.717318,-0.013903160100075569,0.02122069352992813,1.011217527554791,0.3456082558686845,-1.1637349838074296,-1.413086283100024
2024-09-23 01:44:54.319651,43.11,7.717318,-0.013903160100075569,0.02122069352992813,1.015668979843093,0.3456082558686845,-1.1637349838074296,-1.413086283100024
2024-09-23 01:44:54.354516,43.11,7.717368,-0.013903160100075569,0.02122069352992813,1.015668979843093,0.3324875378228724,-1.1855647030871361,-1.3124748926080763
2024-09-23 01:44:54.367206,43.11,7.717368,-0.010122528164880112,0.020306014382754138,1.015668979843093,0.3324875378228724,-1.1855647030871361,-1.3124748926080763
2024-09-23 01:44:54.399956,43.11,7.717368,-0.010122528164880112,0.020306014382754138,1.0170715907541132,0.3543172304221429,-1.1855647030871361,-1.3124748926080763
2024-09-23 01:44:54.411007,43.11,7.717419,-0.014695923141261731,0.020306014382754138,1.0170715907541132,0.3543172304221429,-1.1549687530383468,-1.2468139127612115
2024-09-23 01:44:54.453709,43.11,7.717419,-0.014695923141261731,0.020549948366167105,1.0153641151482662,0.2186980663477443,-1.1024857741333545,-1.3824903330512346
2024-09-23 01:44:54.465970,43.11,7.717506,-0.014695923141261731,0.020549948366167105,1.0153641151482662,0.2186980663477443,-1.1024857741333545,-1.3824903330512346
2024-09-23 01:44:54.498393,43.11,7.717506,-0.01445198763887209,0.020732824044125523,1.0151202039495033,0.2186980663477443,-1.1024857741333545,-1.3824903330512346
2024-09-23 01:44:54.509395,43.11,7.717506,-0.01445198763887209,0.020732824044125523,1.0151202039495033,0.38932495064372197,-1.1768557818945498,-1.4568603408124299
2024-09-23 01:44:54.551804,43.46,7.717557,-0.010854230622146716,0.01926931735815501,1.0138396944596255,0.3849704900474288,-1.1768557818945498,-1.4568603408124299
2024-09-23 01:44:54.563568,43.46,7.717557,-0.010854230622146716,0.01926931735815501,1.0138396944596255,0.3849704900474288,-1.0718325145080685,-1.4568603408124299
2024-09-23 01:44:54.595553,43.46,7.717608,-0.010854230622146716,0.01926931735815501,1.0138396944596255,0.3849704900474288,-1.0718325145080685,-1.4437395427253097
2024-09-23 01:44:54.648513,43.46,7.717608,-0.012744546969488612,0.02048899031317319,1.0153031616522024,0.40685746554275976,-1.1812102424908428,-1.4437395427253097
2024-09-23 01:44:54.660264,43.46,7.717608,-0.012744546969488612,0.02048899031317319,1.0153031616522024,0.40685746554275976,-1.1812102424908428,-1.5618261919006706
2024-09-23 01:44:54.692543,43.46,7.717659,-0.011403058160943235,0.02048899031317319,1.0153031616522024,0.40685746554275976,-1.1812102424908428,-1.5618261919006706
2024-09-23 01:44:54.703595,43.46,7.717659,-0.011403058160943235,0.019696228790963704,1.013778546534547,0.3280757409696467,-1.1855647030871361,-1.5618261919006706
2024-09-23 01:44:54.746870,43.46,7.71771,-0.011403058160943235,0.019696228790963704,1.013778546534547,0.3280757409696467,-1.1855647030871361,-1.43932777255252
2024-09-23 01:44:54.790105,43.46,7.71771,-0.01396421992450679,0.019452293288574063,1.013778546534547,0.3280757409696467,-1.1855647030871361,-1.43932777255252
2024-09-23 01:44:54.801178,43.46,7.71771,-0.01396421992450679,0.019452293288574063,1.0138396944596255,0.27559278874509036,-1.0937195433642715,-1.5136977803137153
2024-09-23 01:44:54.843456,43.46,7.71776,-0.01585453627184869,0.023903771399479513,1.0152421109416312,0.3499627431454137,-1.0937195433642715,-1.5136977803137153
2024-09-23 01:44:54.855638,43.46,7.71776,-0.01585453627184869,0.023903771399479513,1.0152421109416312,0.3499627431454137,-1.1768557818945498,-1.5136977803137153
2024-09-23 01:44:54.887737,43.46,7.717847,-0.01585453627184869,0.023903771399479513,1.0152421109416312,0.3499627431454137,-1.1768557818945498,-1.3562488435987383
2024-09-23 01:44:54.899636,43.46,7.717847,-0.013537308491698099,0.022196330730096036,1.01231507934197,0.3149550229238346,-1.1768557818945498,-1.3562488435987383
2024-09-23 01:44:54.983529,43.46,7.717847,-0.013537308491698099,0.022196330730096036,1.01231507934197,0.3149550229238346,-1.0455910250555724,-1.3562488435987383
2024-09-23 01:44:54.995686,43.46,7.717899,-0.01378124399408774,0.019574312684975875,1.0135347325502915,0.3149550229238346,-1.0455910250555724,-1.3868447936475277
2024-09-23 01:44:55.039249,43.46,7.717993,-0.014391029585878175,0.019574312684975875,1.0135347325502915,0.29747979092085736,-1.1330817241821438,-1.4306188513599336
2024-09-23 01:44:55.051884,43.46,7.717993,-0.014391029585878175,0.01890346574977754,1.0135347325502915,0.29747979092085736,-1.1330817241821438,-1.4306188513599336
2024-09-23 01:44:55.083934,43.46,7.717993,-0.014391029585878175,0.01890346574977754,1.0160348952484908,0.3499627431454137,-1.1199610328167677,-1.4306188513599336
2024-09-23 01:44:55.097948,43.46,7.718045,-0.013903160100075569,0.01890346574977754,1.0160348952484908,0.3499627431454137,-1.1199610328167677,-1.3868447936475277
2024-09-23 01:44:55.129893,43.46,7.718045,-0.013903160100075569,0.020610907938137694,1.0160348952484908,0.3499627431454137,-1.1199610328167677,-1.3868447936475277
2024-09-23 01:44:55.141826,43.46,7.71814,-0.013903160100075569,0.020610907938137694,1.014022554947817,0.35872900059493257,-1.1374934943549335,-1.3299501512914895
2024-09-23 01:44:55.184052,43.46,7.71814,-0.014025177977500705,0.020915799974544576,1.015486022140394,0.37184974532118065,-1.1549687530383468,-1.3299501512914895
2024-09-23 01:44:55.195737,43.46,7.71814,-0.014025177977500705,0.020915799974544576,1.015486022140394,0.37184974532118065,-1.1549687530383468,-1.3693696416858583
2024-09-23 01:44:55.228433,43.46,7.718238,-0.014147094083488534,0.020915799974544576,1.015486022140394,0.37184974532118065,-1.1549687530383468,-1.3693696416858583
2024-09-23 01:44:55.239712,43.46,7.718238,-0.014147094083488534,0.01926931735815501,1.0121931723498423,0.3674952580444515,-1.216217962712422,-1.3693696416858583
2024-09-23 01:44:55.281838,43.46,7.718289,-0.012134760618209839,0.018293680157987106,1.0117664006628877,0.3674952580444515,-1.216217962712422,-1.4087318225037306
2024-09-23 01:44:55.293575,43.46,7.718289,-0.012134760618209839,0.018293680157987106,1.0117664006628877,0.3456082558686845,-1.216217962712422,-1.4087318225037306
2024-09-23 01:44:55.325413,43.46,7.718289,-0.012134760618209839,0.018293680157987106,1.0117664006628877,0.3456082558686845,-1.1374934943549335,-1.3387163820605725
2024-09-23 01:44:55.337236,43.46,7.71834,-0.011707950956838454,0.02085484192155066,1.0176202694331955,0.3456082558686845,-1.1374934943549335,-1.3387163820605725
2024-09-23 01:44:55.380501,43.46,7.718391,-0.012744546969488612,0.02085484192155066,1.0176202694331955,0.3018342781975865,-1.1637349838074296,-1.3080631224352866
2024-09-23 01:44:55.393112,43.46,7.718391,-0.012744546969488612,0.01768389456619667,1.0176202694331955,0.3018342781975865,-1.1637349838074296,-1.3080631224352866
2024-09-23 01:44:55.426008,43.46,7.718391,-0.012744546969488612,0.01768389456619667,1.0138396944596255,0.27559278874509036,-1.1418479549512268,-1.3080631224352866
2024-09-23 01:44:55.437671,43.46,7.718442,-0.013232416455291218,0.01768389456619667,1.0138396944596255,0.27559278874509036,-1.1418479549512268,-1.461214801408723
2024-09-23 01:44:55.470813,43.46,7.718442,-0.013232416455291218,0.019940162774376668,1.0138396944596255,0.27559278874509036,-1.1418479549512268,-1.461214801408723
2024-09-23 01:44:55.482807,43.46,7.718529,-0.013232416455291218,0.019940162774376668,1.0103637897518674,0.3018342781975865,-1.1680894444037229,-1.3518370734259486
2024-09-23 01:44:55.525598,43.46,7.718529,-0.012805606793919833,0.020366972435748053,1.0128639524500669,0.29747979092085736,-1.1374934943549335,-1.3518370734259486
2024-09-23 01:44:55.537249,43.46,7.718529,-0.012805606793919833,0.020366972435748053,1.0128639524500669,0.29747979092085736,-1.1374934943549335,-1.4174980532728136
2024-09-23 01:44:55.570006,44.03,7.718581,-0.01408613603049462,0.020366972435748053,1.0128639524500669,0.29747979092085736,-1.1374934943549335,-1.4174980532728136
2024-09-23 01:44:55.581753,44.03,7.718581,-0.01408613603049462,0.01835463821098102,1.0157299333391567,0.2186980663477443,-1.15932321363464,-1.4174980532728136
2024-09-23 01:44:55.625412,44.03,7.718632,-0.014634963569291141,0.01963527073796979,1.0114614387535539,0.2186980663477443,-1.15932321363464,-1.3562488435987383
2024-09-23 01:44:55.637825,44.03,7.718632,-0.014634963569291141,0.01963527073796979,1.0114614387535539,0.3499627431454137,-1.15932321363464,-1.3562488435987383
2024-09-23 01:44:55.671528,44.03,7.718683,-0.013598266544692013,0.01963527073796979,1.0114614387535539,0.3499627431454137,-1.0762442846808582,-1.448094003321603
2024-09-23 01:44:55.684700,44.03,7.718683,-0.013598266544692013,0.020732824044125523,1.0164616669354454,0.3499627431454137,-1.0762442846808582,-1.448094003321603
2024-09-23 01:44:55.717306,44.03,7.718683,-0.013598266544692013,0.020732824044125523,1.0164616669354454,0.3324875378228724,-1.1637349838074296,-1.294999633924663
2024-09-23 01:44:55.728448,44.03,7.718734,-0.011890927646745842,0.021830479121718566,1.0164616669354454,0.3324875378228724,-1.1637349838074296,-1.294999633924663
2024-09-23 01:44:55.811266,44.03,7.718734,-0.011890927646745842,0.021830479121718566,1.0103028362558035,0.3324875378228724,-1.1637349838074296,-1.294999633924663
2024-09-23 01:44:55.823471,44.03,7.718785,-0.011890927646745842,0.021830479121718566,1.0103028362558035,0.35872900059493257,-1.1330817241821438,-1.509343212995678
2024-09-23 01:44:55.865691,44.03,7.718785,-0.012378695361111141,0.019818144896951533,1.0133517748475924,0.3456082558686845,-1.1330817241821438,-1.509343212995678
2024-09-23 01:44:55.877636,44.03,7.718785,-0.012378695361111141,0.019818144896951533,1.0133517748475924,0.3456082558686845,-1.1156065722204744,-1.4568603408124299
2024-09-23 01:44:55.909995,44.03,7.718871,-0.012378695361111141,0.019818144896951533,1.0133517748475924,0.3456082558686845,-1.1156065722204744,-1.4568603408124299
2024-09-23 01:44:55.921812,44.03,7.718871,-0.010549337066763158,0.020732824044125523,1.0152421109416312,0.29306802074806765,-1.0718325145080685,-1.4568603408124299
2024-09-23 01:44:55.965215,44.03,7.718922,-0.012317737308117227,0.020732824044125523,1.0114614387535539,0.29306802074806765,-1.0718325145080685,-1.4306188513599336
2024-09-23 01:44:55.977035,44.03,7.718922,-0.012317737308117227,0.020732824044125523,1.0114614387535539,0.42433269754573705,-1.0718325145080685,-1.4306188513599336
2024-09-23 01:44:56.008587,44.03,7.718922,-0.012317737308117227,0.020732824044125523,1.0114614387535539,0.42433269754573705,-1.1855647030871361,-1.469981032177806
2024-09-23 01:44:56.019982,44.03,7.718973,-0.014512945691866003,0.021464627513341095,1.0121322188537785,0.42433269754573705,-1.1855647030871361,-1.469981032177806
2024-09-23 01:44:56.061611,44.03,7.719068,-0.010000509527966639,0.021464627513341095,1.0121322188537785,0.27123832814879717,-1.1330817241821438,-1.461214801408723
2024-09-23 01:44:56.073750,44.03,7.719068,-0.010000509527966639,0.023050050305299438,1.0121322188537785,0.27123832814879717,-1.1330817241821438,-1.461214801408723
2024-09-23 01:44:56.105932,44.03,7.719068,-0.010000509527966639,0.023050050305299438,1.012802998954003,0.35872900059493257,-1.1330817241821438,-1.461214801408723
2024-09-23 01:44:56.117271,44.03,7.719118,-0.013903160100075569,0.023050050305299438,1.012802998954003,0.35872900059493257,-1.1199610328167677,-1.474335492774099
2024-09-23 01:44:56.160361,44.03,7.719118,-0.013903160100075569,0.019513251341567978,1.0126809947473678,0.3499627431454137,-1.0849533125951887,-1.483101830264926
2024-09-23 01:44:56.172128,44.03,7.719212,-0.013903160100075569,0.019513251341567978,1.0126809947473678,0.3499627431454137,-1.0849533125951887,-1.483101830264926
2024-09-23 01:44:56.204502,44.03,7.719212,-0.012073802565215924,0.019452293288574063,1.0126809947473678,0.3499627431454137,-1.0849533125951887,-1.483101830264926
2024-09-23 01:44:56.215661,44.03,7.719212,-0.012073802565215924,0.019452293288574063,1.0139616014517532,0.2668265312955715,-1.15932321363464,-1.4174980532728136
2024-09-23 01:44:56.258280,44.03,7.719264,-0.013232416455291218,0.020732824044125523,1.01542506864433,0.3456082558686845,-1.1987427040290088,-1.4174980532728136
2024-09-23 01:44:56.301258,44.03,7.719314,-0.013232416455291218,0.020732824044125523,1.01542506864433,0.3456082558686845,-1.1987427040290088,-1.4174980532728136
2024-09-23 01:44:56.313950,44.03,7.719314,-0.01042742096077533,0.02097675802753849,1.0166446246381442,0.3456082558686845,-1.1987427040290088,-1.4174980532728136
2024-09-23 01:44:56.356639,44.03,7.719365,-0.015000815177668611,0.021586543619328925,1.0166446246381442,0.3630834878716618,-1.0762442846808582,-1.474335492774099
2024-09-23 01:44:56.400431,44.03,7.719365,-0.015000815177668611,0.021586543619328925,1.0129859566567019,0.41997821026900783,-1.1943309338562191,-1.474335492774099
2024-09-23 01:44:56.412130,44.03,7.719416,-0.012256778495634975,0.021586543619328925,1.0129859566567019,0.41997821026900783,-1.1943309338562191,-1.434973311956227
2024-09-23 01:44:56.445482,44.03,7.719416,-0.012256778495634975,0.02207441310513153,1.0129859566567019,0.41997821026900783,-1.1943309338562191,-1.434973311956227
2024-09-23 01:44:56.456651,44.03,7.719467,-0.012256778495634975,0.02207441310513153,1.0115223922496177,0.4287444677185267,-1.1768557818945498,-1.3911993609655648
2024-09-23 01:44:56.499445,44.03,7.719467,-0.012134760618209839,0.020245056329760223,1.0144494238492787,0.2581175834225491,-1.1768557818945498,-1.3911993609655648
2024-09-23 01:44:56.511436,44.03,7.719467,-0.012134760618209839,0.020245056329760223,1.0144494238492787,0.2581175834225491,-1.1812102424908428,-1.4437395427253097
2024-09-23 01:44:56.544873,44.03,7.719553,-0.016769215419022678,0.020245056329760223,1.0144494238492787,0.2581175834225491,-1.1812102424908428,-1.4437395427253097
2024-09-23 01:44:56.556341,44.03,7.719553,-0.016769215419022678,0.02225739055452726,1.0058513839675016,0.3018342781975865,-1.1418479549512268,-1.4437395427253097
2024-09-23 01:44:56.598617,44.45,7.719605,-0.012134760618209839,0.02140366946034718,1.0103028362558035,0.3018342781975865,-1.1418479549512268,-1.4874562908612192
2024-09-23 01:44:56.610693,44.45,7.719605,-0.012134760618209839,0.02140366946034718,1.0103028362558035,0.2581175834225491,-1.1418479549512268,-1.4874562908612192
2024-09-23 01:44:56.642134,44.45,7.719605,-0.012134760618209839,0.02140366946034718,1.0103028362558035,0.2581175834225491,-1.1462025222692638,-1.4087318225037306
2024-09-23 01:44:56.653553,44.45,7.719656,-0.012134760618209839,0.019513251341567978,1.0130469101527657,0.2581175834225491,-1.1462025222692638,-1.4087318225037306
2024-09-23 01:44:56.697123,44.45,7.719706,-0.013476350438704184,0.020610907938137694,1.0130469101527657,0.3630834878716618,-1.1287272635858505,-1.4437395427253097
2024-09-23 01:44:56.739969,44.45,7.719706,-0.013476350438704184,0.020610907938137694,1.0134736818397203,0.3018342781975865,-1.1287272635858505,-1.4437395427253097
2024-09-23 01:44:56.751051,44.45,7.719757,-0.012073802565215924,0.020610907938137694,1.0134736818397203,0.3018342781975865,-1.1637349838074296,-1.413086283100024
2024-09-23 01:44:56.793416,44.45,7.719757,-0.012073802565215924,0.022684200215898644,1.0134736818397203,0.3018342781975865,-1.1637349838074296,-1.413086283100024
2024-09-23 01:44:56.836504,44.45,7.719757,-0.012073802565215924,0.022684200215898644,1.0128639524500669,0.3018342781975865,-1.1637349838074296,-1.413086283100024
2024-09-23 01:44:56.847955,44.45,7.719757,-0.012073802565215924,0.022684200215898644,1.0128639524500669,0.3499627431454137,-1.15932321363464,-1.43932777255252
2024-09-23 01:44:56.889841,44.45,7.719846,-0.015000815177668611,0.016586237969626952,1.014205512650516,0.3499627431454137,-1.15932321363464,-1.43932777255252
2024-09-23 01:44:56.901526,44.45,7.719846,-0.015000815177668611,0.016586237969626952,1.014205512650516,0.39809120809324083,-1.0062288442377,-1.43932777255252
2024-09-23 01:44:56.934280,44.45,7.719846,-0.015000815177668611,0.016586237969626952,1.014205512650516,0.39809120809324083,-1.0062288442377,-1.4655692620050162
2024-09-23 01:44:56.945669,44.45,7.719897,-0.012134760618209839,0.02067186599113161,1.0145713308414066,0.40244569536997005,-1.0062288442377,-1.4655692620050162
2024-09-23 01:44:56.989158,44.45,7.719948,-0.010671253932239326,0.016525279916633037,1.0145713308414066,0.40244569536997005,-1.1462025222692638,-1.3780785628784449
2024-09-23 01:44:57.001016,44.45,7.719948,-0.010671253932239326,0.016525279916633037,1.0157908868352208,0.40244569536997005,-1.1462025222692638,-1.3780785628784449
2024-09-23 01:44:57.033148,44.45,7.719948,-0.010671253932239326,0.016525279916633037,1.0157908868352208,0.3280757409696467,-1.1855647030871361,-1.3737241022821516
2024-09-23 01:44:57.045432,44.45,7.719999,-0.01256167205101853,0.02122069352992813,1.0157908868352208,0.3280757409696467,-1.1855647030871361,-1.3737241022821516
2024-09-23 01:44:57.088174,44.45,7.720091,-0.014878899071680782,0.02122069352992813,1.0112784810508548,0.29306802074806765,-1.1287272635858505,-1.3911993609655648
2024-09-23 01:44:57.130393,44.45,7.720091,-0.014878899071680782,0.019574312684975875,1.012498037044669,0.29306802074806765,-1.1287272635858505,-1.3911993609655648
2024-09-23 01:44:57.142129,44.45,7.720187,-0.014878899071680782,0.019574312684975875,1.012498037044669,0.3193667930966243,-1.1987427040290088,-1.4524485706396402
2024-09-23 01:44:57.185662,44.45,7.720187,-0.013049540777332799,0.02237930666051509,1.0165836711420804,0.37620423259790986,-1.0587118231426924,-1.461214801408723
2024-09-23 01:44:57.227768,44.45,7.720239,-0.01268358815700636,0.02237930666051509,1.0165836711420804,0.37620423259790986,-1.0587118231426924,-1.461214801408723
2024-09-23 01:44:57.239609,44.45,7.720239,-0.01268358815700636,0.01963527073796979,1.009266140750181,0.31060053564710544,-1.1549687530383468,-1.461214801408723
2024-09-23 01:44:57.281892,44.45,7.720289,-0.013049540777332799,0.01963527073796979,1.014144559154452,0.38061600277069957,-1.1549687530383468,-1.2993542012427002
2024-09-23 01:44:57.325694,44.45,7.72034,-0.013049540777332799,0.01963527073796979,1.014144559154452,0.38061600277069957,-1.014995075006783,-1.3824903330512346
2024-09-23 01:44:57.336604,44.45,7.72034,-0.010671253932239326,0.02097675802753849,1.0117664006628877,0.38061600277069957,-1.014995075006783,-1.3824903330512346
2024-09-23 01:44:57.378393,44.45,7.720391,-0.010671253932239326,0.02097675802753849,1.0117664006628877,0.38932495064372197,-1.1243154934130608,-1.4306188513599336
2024-09-23 01:44:57.389667,44.45,7.720391,-0.01256167205101853,0.020793883868556746,1.0117664006628877,0.38932495064372197,-1.1243154934130608,-1.4306188513599336
2024-09-23 01:44:57.422494,44.45,7.720391,-0.01256167205101853,0.020793883868556746,1.0121322188537785,0.3280757409696467,-1.1243154934130608,-1.4306188513599336
2024-09-23 01:44:57.434289,44.45,7.720442,-0.015000815177668611,0.020793883868556746,1.0121322188537785,0.3280757409696467,-1.0499454856518655,-1.4087318225037306
2024-09-23 01:44:57.476880,44.45,7.720529,-0.015000815177668611,0.02048899031317319,1.0131078636488298,0.3324875378228724,-1.1068402347296475,-1.4874562908612192
2024-09-23 01:44:57.519327,44.45,7.720529,-0.011524974266931064,0.02164760496273682,1.0131078636488298,0.3324875378228724,-1.1068402347296475,-1.4874562908612192
2024-09-23 01:44:57.530886,44.45,7.720529,-0.011524974266931064,0.02164760496273682,1.0148762927507406,0.3280757409696467,-1.0237041029211134,-1.5224640110827983
2024-09-23 01:44:57.574170,44.45,7.72058,-0.010793271809664462,0.018598572194393984,1.012498037044669,0.39373674749694765,-1.0237041029211134,-1.5224640110827983
2024-09-23 01:44:57.585906,44.45,7.72058,-0.010793271809664462,0.018598572194393984,1.012498037044669,0.39373674749694765,-1.0849533125951887,-1.5224640110827983
2024-09-23 01:44:57.617340,44.2,7.720631,-0.010793271809664462,0.018598572194393984,1.012498037044669,0.39373674749694765,-1.0849533125951887,-1.5136977803137153
2024-09-23 01:44:57.628600,44.2,7.720631,-0.012256778495634975,0.021159735476934217,1.0161568022406187,0.4330989549952559,-1.0849533125951887,-1.5136977803137153
2024-09-23 01:44:57.672228,44.2,7.720681,-0.011220081471035847,0.01890346574977754,1.011095523348156,0.4330989549952559,-1.1330817241821438,-1.3780785628784449
2024-09-23 01:44:57.714292,44.2,7.720681,-0.011220081471035847,0.01890346574977754,1.011095523348156,0.3674952580444515,-1.1637349838074296,-1.3780785628784449
2024-09-23 01:44:57.725939,44.2,7.720732,-0.013598266544692013,0.018842507696783625,1.011095523348156,0.3674952580444515,-1.1637349838074296,-1.3999655917346479
2024-09-23 01:44:57.768730,44.2,7.720783,-0.013598266544692013,0.018842507696783625,1.0143883731387076,0.3411964856958948,-1.1855647030871361,-1.4087318225037306
2024-09-23 01:44:57.781012,44.2,7.720783,-0.013049540777332799,0.018842507696783625,1.0143883731387076,0.3411964856958948,-1.1855647030871361,-1.4087318225037306
2024-09-23 01:44:57.814363,44.2,7.720783,-0.013049540777332799,0.018964423802771455,1.0139006479556893,0.3193667930966243,-1.1855647030871361,-1.4087318225037306
2024-09-23 01:44:57.825705,44.2,7.72087,-0.013049540777332799,0.018964423802771455,1.0139006479556893,0.3193667930966243,-1.1549687530383468,-1.4087318225037306
2024-09-23 01:44:57.867823,44.2,7.72087,-0.01341539238571027,0.023598879363072634,1.0101198785531047,0.3193667930966243,-1.1549687530383468,-1.4087318225037306
2024-09-23 01:44:57.909369,44.2,7.72087,-0.01341539238571027,0.023598879363072634,1.0101198785531047,0.3018342781975865,-1.1462025222692638,-1.4087318225037306
2024-09-23 01:44:57.921682,44.2,7.720921,-0.01164699290384454,0.018293680157987106,1.0101198785531047,0.3018342781975865,-1.1462025222692638,-1.3124748926080763
2024-09-23 01:44:57.963898,44.2,7.720972,-0.01164699290384454,0.018293680157987106,1.0122541258459061,0.3368419984191656,-1.2205724233087152,-1.434973311956227
2024-09-23 01:44:58.007317,44.2,7.720972,-0.010244444270867941,0.021464627513341095,1.0122541258459061,0.3368419984191656,-1.2205724233087152,-1.434973311956227
2024-09-23 01:44:58.018635,44.2,7.720972,-0.010244444270867941,0.021464627513341095,1.0165836711420804,0.2668265312955715,-1.0805987452771515,-1.3474826128296553
2024-09-23 01:44:58.062576,44.2,7.721023,-0.013354434332716355,0.020610907938137694,1.0101808320491685,0.2668265312955715,-1.0805987452771515,-1.3474826128296553
2024-09-23 01:44:58.074069,44.2,7.721023,-0.013354434332716355,0.020610907938137694,1.0101808320491685,0.2668265312955715,-1.014995075006783,-1.3474826128296553
2024-09-23 01:44:58.108243,44.2,7.721073,-0.014634963569291141,0.020610907938137694,1.0101808320491685,0.2668265312955715,-1.014995075006783,-1.3474826128296553
2024-09-23 01:44:58.119613,44.2,7.721073,-0.014634963569291141,0.020245056329760223,1.0125589905407328,0.2537058132497594,-1.014995075006783,-1.3474826128296553
2024-09-23 01:44:58.153419,44.2,7.721073,-0.014634963569291141,0.020245056329760223,1.0125589905407328,0.2537058132497594,-1.1549687530383468,-1.3693696416858583
2024-09-23 01:44:58.164819,44.2,7.721163,-0.012988480952901577,0.01750101888823825,1.0120712653577144,0.2537058132497594,-1.1549687530383468,-1.3693696416858583
2024-09-23 01:44:58.207005,44.2,7.721214,-0.013903160100075569,0.01750101888823825,1.0120712653577144,0.3456082558686845,-1.1068402347296475,-1.4218526205908506
2024-09-23 01:44:58.218707,44.2,7.721214,-0.013903160100075569,0.023903771399479513,1.0120712653577144,0.3456082558686845,-1.1068402347296475,-1.4218526205908506
2024-09-23 01:44:58.251163,44.2,7.721214,-0.013903160100075569,0.023903771399479513,1.0160958487445546,0.3280757409696467,-1.1068402347296475,-1.4218526205908506
2024-09-23 01:44:58.262495,44.2,7.721265,-0.010244444270867941,0.023903771399479513,1.0160958487445546,0.3280757409696467,-1.1637349838074296,-1.4524485706396402
2024-09-23 01:44:58.304908,44.2,7.721265,-0.010244444270867941,0.017074107455429557,1.014144559154452,0.38061600277069957,-1.0762442846808582,-1.43932777255252
2024-09-23 01:44:58.317035,44.2,7.721357,-0.010244444270867941,0.017074107455429557,1.014144559154452,0.38061600277069957,-1.0762442846808582,-1.43932777255252
2024-09-23 01:44:58.348773,44.2,7.721357,-0.013232416455291218,0.02201345505213762,1.014144559154452,0.38061600277069957,-1.0762442846808582,-1.43932777255252
2024-09-23 01:44:58.359910,44.2,7.721357,-0.013232416455291218,0.02201345505213762,1.0112784810508548,0.39809120809324083,-1.1330817241821438,-1.3474826128296553
2024-09-23 01:44:58.404417,44.2,7.721409,-0.012317737308117227,0.020306014382754138,1.0096319589410718,0.3411964856958948,-1.1680894444037229,-1.3474826128296553
2024-09-23 01:44:58.447693,44.2,7.721459,-0.012317737308117227,0.020306014382754138,1.0096319589410718,0.3411964856958948,-1.1680894444037229,-1.3693696416858583
2024-09-23 01:44:58.458770,44.2,7.721459,-0.01396421992450679,0.01939133523558015,1.0120712653577144,0.3280757409696467,-1.1680894444037229,-1.3693696416858583
2024-09-23 01:44:58.501857,44.2,7.72151,-0.012317737308117227,0.021037716080532405,1.0132298678554648,0.3280757409696467,-1.0762442846808582,-1.4524485706396402
2024-09-23 01:44:58.545170,44.2,7.72151,-0.012317737308117227,0.021037716080532405,1.0132298678554648,0.3149550229238346,-1.1330817241821438,-1.3868447936475277
2024-09-23 01:44:58.556402,44.2,7.721561,-0.012927522899907663,0.02207441310513153,1.0132298678554648,0.3149550229238346,-1.1330817241821438,-1.3868447936475277
2024-09-23 01:44:58.598779,44.2,7.721612,-0.012256778495634975,0.02207441310513153,1.0097540603622142,0.3630834878716618,-1.1068402347296475,-1.2905878637518733
2024-09-23 01:44:58.641399,43.99,7.721612,-0.012256778495634975,0.018781549643789714,1.0129859566567019,0.3630834878716618,-1.1068402347296475,-1.2905878637518733
2024-09-23 01:44:58.653465,43.99,7.721699,-0.012256778495634975,0.018781549643789714,1.0129859566567019,0.2668265312955715,-1.1768557818945498,-1.3474826128296553
2024-09-23 01:44:58.697171,43.99,7.721699,-0.012866564846913748,0.021281651582922046,1.014144559154452,0.35872900059493257,-1.0805987452771515,-1.461214801408723
2024-09-23 01:44:58.739686,43.99,7.72175,-0.011890927646745842,0.020732824044125523,1.014144559154452,0.35872900059493257,-1.0805987452771515,-1.461214801408723
2024-09-23 01:44:58.750919,43.99,7.72175,-0.011890927646745842,0.020732824044125523,1.0125589905407328,0.26247207069927825,-1.1330817241821438,-1.461214801408723
2024-09-23 01:44:58.794388,43.99,7.721801,-0.012073802565215924,0.021464627513341095,1.0192058380469147,0.29306802074806765,-1.1330817241821438,-1.43932777255252
2024-09-23 01:44:58.837162,43.99,7.721851,-0.012073802565215924,0.021464627513341095,1.0192058380469147,0.29306802074806765,-1.1943309338562191,-1.3824903330512346
2024-09-23 01:44:58.848629,43.99,7.721851,-0.013537308491698099,0.019025483627202678,1.0136566395424191,0.29306802074806765,-1.1943309338562191,-1.3824903330512346
2024-09-23 01:44:58.890845,43.99,7.721902,-0.011098165365048018,0.02122069352992813,1.0136566395424191,0.2318188110739924,-1.2293386540777982,-1.43932777255252
2024-09-23 01:44:58.933898,43.99,7.721902,-0.011098165365048018,0.02122069352992813,1.012802998954003,0.29306802074806765,-1.2293386540777982,-1.43932777255252
2024-09-23 01:44:58.945185,43.99,7.721953,-0.012012843752733671,0.02122069352992813,1.012802998954003,0.29306802074806765,-1.1987427040290088,-1.4174980532728136
2024-09-23 01:44:58.987930,43.99,7.72204,-0.012012843752733671,0.02012303845233509,1.0160958487445546,0.3499627431454137,-1.1287272635858505,-1.404320052330941
2024-09-23 01:44:59.030677,43.99,7.72204,-0.01378124399408774,0.02262324216290473,1.0160958487445546,0.3499627431454137,-1.1287272635858505,-1.404320052330941
2024-09-23 01:44:59.041958,43.99,7.72204,-0.01378124399408774,0.02262324216290473,1.0132298678554648,0.3368419984191656,-1.1943309338562191,-1.509343212995678
2024-09-23 01:44:59.084806,43.99,7.722091,-0.012805606793919833,0.02134260963591596,1.0103637897518674,0.3368419984191656,-1.1943309338562191,-1.509343212995678
2024-09-23 01:44:59.097328,43.99,7.722091,-0.012805606793919833,0.02134260963591596,1.0103637897518674,0.3149550229238346,-1.1724439050000162,-1.509343212995678
2024-09-23 01:44:59.130288,43.99,7.722142,-0.014512945691866003,0.02134260963591596,1.0103637897518674,0.3149550229238346,-1.1724439050000162,-1.4524485706396402
2024-09-23 01:44:59.141964,43.99,7.722142,-0.014512945691866003,0.021037716080532405,1.0121322188537785,0.3193667930966243,-1.1724439050000162,-1.4524485706396402
2024-09-23 01:44:59.184667,43.99,7.722193,-0.013110498830326714,0.02085484192155066,1.014022554947817,0.3193667930966243,-1.0980740039605648,-1.509343212995678
2024-09-23 01:44:59.227703,43.99,7.722193,-0.013110498830326714,0.02085484192155066,1.014022554947817,0.2318188110739924,-1.203097164625302,-1.483101830264926
2024-09-23 01:44:59.239256,43.99,7.722243,-0.014512945691866003,0.019940162774376668,1.014022554947817,0.2318188110739924,-1.203097164625302,-1.483101830264926
2024-09-23 01:44:59.281887,43.99,7.722294,-0.012622630104012445,0.019940162774376668,1.0147542885441054,0.2668265312955715,-1.1068402347296475,-1.43932777255252
2024-09-23 01:44:59.324487,43.99,7.722294,-0.012622630104012445,0.019879204721382753,1.015486022140394,0.2668265312955715,-1.1068402347296475,-1.43932777255252
2024-09-23 01:44:59.335552,43.99,7.722381,-0.012622630104012445,0.019879204721382753,1.015486022140394,0.29306802074806765,-1.1024857741333545,-1.3956111311383546
2024-09-23 01:44:59.377638,43.99,7.722381,-0.01481783924724956,0.021098777423940302,1.0130469101527657,0.3324875378228724,-1.1549687530383468,-1.3956111311383546
2024-09-23 01:44:59.389641,43.99,7.722381,-0.01481783924724956,0.021098777423940302,1.0130469101527657,0.3324875378228724,-1.1549687530383468,-1.483101830264926
2024-09-23 01:44:59.423256,43.99,7.722432,-0.011586034850850625,0.02207441310513153,1.0130469101527657,0.3324875378228724,-1.1549687530383468,-1.483101830264926
2024-09-23 01:44:59.435237,43.99,7.722432,-0.011586034850850625,0.02207441310513153,1.013778546534547,0.3149550229238346,-1.1462025222692638,-1.483101830264926
2024-09-23 01:44:59.477338,43.99,7.722483,-0.013049540777332799,0.022501222766502915,1.012925003160638,0.31060053564710544,-1.1462025222692638,-1.531230241851881
2024-09-23 01:44:59.520115,43.99,7.722534,-0.013049540777332799,0.022501222766502915,1.012925003160638,0.31060053564710544,-1.1943309338562191,-1.483101830264926
2024-09-23 01:44:59.532250,43.99,7.722534,-0.01622038788022616,0.017074107455429557,1.0112784810508548,0.31060053564710544,-1.1943309338562191,-1.483101830264926
2024-09-23 01:44:59.565381,43.99,7.722534,-0.01622038788022616,0.017074107455429557,1.0112784810508548,0.3499627431454137,-1.1943309338562191,-1.483101830264926
2024-09-23 01:44:59.577666,43.99,7.722585,-0.010488379013769245,0.019940162774376668,1.0112784810508548,0.3499627431454137,-1.1111946953259408,-1.4174980532728136
2024-09-23 01:44:59.619473,43.99,7.722585,-0.010488379013769245,0.019940162774376668,1.015546975636458,0.41121195281948897,-1.216217962712422,-1.3124748926080763
2024-09-23 01:44:59.630865,43.99,7.722635,-0.016281345933220073,0.019940162774376668,1.015546975636458,0.41121195281948897,-1.216217962712422,-1.3124748926080763
2024-09-23 01:44:59.664143,43.85,7.722635,-0.016281345933220073,0.020610907938137694,1.0134127283436565,0.41121195281948897,-1.216217962712422,-1.3124748926080763
2024-09-23 01:44:59.675764,43.85,7.722722,-0.016281345933220073,0.020610907938137694,1.0134127283436565,0.4374534422719851,-1.1243154934130608,-1.4568603408124299
2024-09-23 01:44:59.717828,43.85,7.722722,-0.012500713238536278,0.021952496999143704,1.0121322188537785,0.27559278874509036,-1.1243154934130608,-1.4568603408124299
2024-09-23 01:44:59.729002,43.85,7.722722,-0.012500713238536278,0.021952496999143704,1.0121322188537785,0.27559278874509036,-1.2424594521649182,-1.5136977803137153
2024-09-23 01:44:59.761938,43.85,7.722774,-0.01536666678604608,0.021952496999143704,1.0121322188537785,0.27559278874509036,-1.2424594521649182,-1.5136977803137153
2024-09-23 01:44:59.773833,43.85,7.722774,-0.01536666678604608,0.0187205915907958,1.0144494238492787,0.223109849860752,-1.1199610328167677,-1.5136977803137153
2024-09-23 01:44:59.816007,43.85,7.722824,-0.01365932788809991,0.021159735476934217,1.0144494238492787,0.223109849860752,-1.1199610328167677,-1.531230241851881
2024-09-23 01:44:59.827101,43.85,7.722824,-0.01365932788809991,0.021159735476934217,1.0135956860463553,0.2362305812467821,-1.1199610328167677,-1.531230241851881
2024-09-23 01:44:59.858661,43.85,7.722824,-0.01365932788809991,0.021159735476934217,1.0135956860463553,0.2362305812467821,-1.2336931146740913,-1.531230241851881
2024-09-23 01:44:59.869826,43.85,7.722875,-0.012927522899907663,0.02097675802753849,1.0111565740587272,0.2362305812467821,-1.2336931146740913,-1.434973311956227
2024-09-23 01:44:59.912763,43.85,7.722926,-0.010061467580960552,0.02097675802753849,1.0111565740587272,0.3018342781975865,-1.1724439050000162,-1.3562488435987383
2024-09-23 01:44:59.924496,43.85,7.722926,-0.010061467580960552,0.020306014382754138,1.0111565740587272,0.3018342781975865,-1.1724439050000162,-1.3562488435987383
2024-09-23 01:44:59.956124,43.85,7.722926,-0.010061467580960552,0.020306014382754138,1.0152421109416312,0.3018342781975865,-1.1724439050000162,-1.3562488435987383
2024-09-23 01:44:59.967952,43.85,7.722977,-0.012927522899907663,0.020306014382754138,1.0152421109416312,0.3149550229238346,-1.1549687530383468,-1.4218526205908506
2024-09-23 01:45:00.011097,43.85,7.722977,-0.012927522899907663,0.021281651582922046,1.0109126628599643,0.31060053564710544,-1.15932321363464,-1.474335492774099
2024-09-23 01:45:00.023305,43.85,7.723063,-0.012927522899907663,0.021281651582922046,1.0109126628599643,0.31060053564710544,-1.15932321363464,-1.474335492774099
2024-09-23 01:45:00.056594,43.85,7.723063,-0.014756881194255646,0.019513251341567978,1.0139616014517532,0.31060053564710544,-1.15932321363464,-1.474335492774099
2024-09-23 01:45:00.068537,43.85,7.723063,-0.014756881194255646,0.019513251341567978,1.0139616014517532,0.2143435924112331,-1.2643463742993772,-1.3824903330512346
2024-09-23 01:45:00.102076,43.85,7.723115,-0.014756881194255646,0.019513251341567978,1.0139616014517532,0.2143435924112331,-1.2643463742993772,-1.3824903330512346
2024-09-23 01:45:00.113048,43.85,7.723115,-0.01445198763887209,0.02237930666051509,1.015546975636458,0.3237212803733535,-1.0980740039605648,-1.3824903330512346
2024-09-23 01:45:00.156552,43.85,7.723166,-0.010671253932239326,0.02012303845233509,1.0117664006628877,0.3237212803733535,-1.0980740039605648,-1.4306188513599336
2024-09-23 01:45:00.168266,43.85,7.723166,-0.010671253932239326,0.02012303845233509,1.0117664006628877,0.3849704900474288,-1.0980740039605648,-1.4306188513599336
2024-09-23 01:45:00.200285,43.85,7.723166,-0.010671253932239326,0.02012303845233509,1.0117664006628877,0.3849704900474288,-1.0980740039605648,-1.4306188513599336
2024-09-23 01:45:00.211718,43.85,7.723216,-0.010488379013769245,0.02067186599113161,1.0112784810508548,0.3849704900474288,-1.0980740039605648,-1.404320052330941
2024-09-23 01:45:00.255181,43.85,7.723267,-0.01042742096077533,0.02067186599113161,1.0112784810508548,0.26247207069927825,-1.1287272635858505,-1.4874562908612192
2024-09-23 01:45:00.267312,43.85,7.723267,-0.01042742096077533,0.021464627513341095,1.0112784810508548,0.26247207069927825,-1.1287272635858505,-1.4874562908612192
2024-09-23 01:45:00.299805,43.85,7.723267,-0.01042742096077533,0.021464627513341095,1.012742045457939,0.3193667930966243,-1.0893650827679784,-1.4874562908612192
2024-09-23 01:45:00.310850,43.85,7.723318,-0.010976248499571852,0.021464627513341095,1.012742045457939,0.3193667930966243,-1.0893650827679784,-1.474335492774099
2024-09-23 01:45:00.353094,43.85,7.723405,-0.010976248499571852,0.023964729452473427,1.0128639524500669,0.3237212803733535,-1.1855647030871361,-1.434973311956227
2024-09-23 01:45:00.396126,43.85,7.723405,-0.009451681989170117,0.019818144896951533,1.0128639524500669,0.3237212803733535,-1.1855647030871361,-1.434973311956227
2024-09-23 01:45:00.407785,43.85,7.723405,-0.009451681989170117,0.019818144896951533,1.0133517748475924,0.29747979092085736,-1.2336931146740913,-1.531230241851881
2024-09-23 01:45:00.450063,43.85,7.723456,-0.012378695361111141,0.01914740125216718,1.0158518403312846,0.26247207069927825,-1.2336931146740913,-1.531230241851881
2024-09-23 01:45:00.462091,43.85,7.723456,-0.012378695361111141,0.01914740125216718,1.0158518403312846,0.26247207069927825,-1.1987427040290088,-1.531230241851881
2024-09-23 01:45:00.494818,43.85,7.723507,-0.011586034850850625,0.01914740125216718,1.0158518403312846,0.26247207069927825,-1.1987427040290088,-1.3824903330512346
2024-09-23 01:45:00.506622,43.85,7.723507,-0.011586034850850625,0.023233027754695164,1.0107297051572652,0.3630834878716618,-1.1987427040290088,-1.3824903330512346
2024-09-23 01:45:00.549375,43.85,7.723558,-0.012744546969488612,0.022440264713509,1.015668979843093,0.3630834878716618,-1.1024857741333545,-1.3255955839734523
2024-09-23 01:45:00.591175,43.85,7.723558,-0.012744546969488612,0.022440264713509,1.015668979843093,0.3543172304221429,-1.1156065722204744,-1.3255955839734523
2024-09-23 01:45:00.602325,43.85,7.723609,-0.01445198763887209,0.022318348607521174,1.015668979843093,0.3543172304221429,-1.1156065722204744,-1.426207081187144
2024-09-23 01:45:00.644904,43.85,7.723659,-0.01445198763887209,0.022318348607521174,1.014144559154452,0.27994727602181957,-1.1549687530383468,-1.3999655917346479
2024-09-23 01:45:00.657214,43.85,7.723659,-0.010793271809664462,0.022318348607521174,1.014144559154452,0.27994727602181957,-1.1549687530383468,-1.3999655917346479
2024-09-23 01:45:00.689971,44.22,7.723659,-0.010793271809664462,0.018781549643789714,1.0109126628599643,0.3324875378228724,-1.1549687530383468,-1.3999655917346479
2024-09-23 01:45:00.701795,44.22,7.723746,-0.010793271809664462,0.018781549643789714,1.0109126628599643,0.3324875378228724,-1.1068402347296475,-1.4787472629468887
2024-09-23 01:45:00.744337,44.22,7.723746,-0.011281142054955407,0.018964423802771455,1.0143274196426437,0.28871353347133843,-1.1855647030871361,-1.4306188513599336
2024-09-23 01:45:00.786485,44.22,7.723797,-0.009146789193274898,0.018964423802771455,1.0143274196426437,0.28871353347133843,-1.1855647030871361,-1.4306188513599336
2024-09-23 01:45:00.798494,44.22,7.723797,-0.009146789193274898,0.02140366946034718,1.012742045457939,0.29747979092085736,-1.1111946953259408,-1.4306188513599336
2024-09-23 01:45:00.841145,44.22,7.723848,-0.014634963569291141,0.02152558556633501,1.0162788064472537,0.29747979092085736,-1.1111946953259408,-1.3911993609655648
2024-09-23 01:45:00.852914,44.22,7.723848,-0.014634963569291141,0.02152558556633501,1.0162788064472537,0.3324875378228724,-1.1111946953259408,-1.3911993609655648
2024-09-23 01:45:00.936942,44.22,7.723899,-0.016159429827232244,0.02201345505213762,1.0162788064472537,0.3324875378228724,-1.0937195433642715,-1.491868061034009
2024-09-23 01:45:00.949842,44.22,7.723899,-0.016159429827232244,0.02201345505213762,1.0118883076550156,0.3324875378228724,-1.0937195433642715,-1.491868061034009
2024-09-23 01:45:00.982717,44.22,7.723899,-0.016159429827232244,0.02201345505213762,1.0118883076550156,0.2843590461946093,-1.1111946953259408,-1.3911993609655648
2024-09-23 01:45:00.994296,44.22,7.72395,-0.01146401621393715,0.02018409827676631,1.0118883076550156,0.2843590461946093,-1.1111946953259408,-1.3911993609655648
2024-09-23 01:45:01.037915,44.22,7.724,-0.014025177977500705,0.02018409827676631,1.0118273541589518,0.2668265312955715,-1.1287272635858505,-1.3518370734259486
2024-09-23 01:45:01.080104,44.22,7.724,-0.014025177977500705,0.019879204721382753,1.0130469101527657,0.31060053564710544,-1.1287272635858505,-1.3518370734259486
2024-09-23 01:45:01.093156,44.22,7.724087,-0.014025177977500705,0.019879204721382753,1.0130469101527657,0.31060053564710544,-1.1418479549512268,-1.4437395427253097
2024-09-23 01:45:01.126488,44.22,7.724087,-0.013476350438704184,0.021830479121718566,1.0130469101527657,0.31060053564710544,-1.1418479549512268,-1.4437395427253097
2024-09-23 01:45:01.138344,44.22,7.724087,-0.013476350438704184,0.021830479121718566,1.0152421109416312,0.3324875378228724,-1.216217962712422,-1.43932777255252
2024-09-23 01:45:01.180892,44.22,7.724185,-0.01408613603049462,0.021586543619328925,1.0131688171448936,0.3193667930966243,-1.1724439050000162,-1.43932777255252
2024-09-23 01:45:01.224056,44.22,7.724185,-0.01408613603049462,0.021586543619328925,1.0131688171448936,0.3193667930966243,-1.1724439050000162,-1.4568603408124299
2024-09-23 01:45:01.236167,44.22,7.724237,-0.01256167205101853,0.023415901913676908,1.014144559154452,0.27123832814879717,-1.1724439050000162,-1.4568603408124299
2024-09-23 01:45:01.279985,44.22,7.724287,-0.011768909009832369,0.018415698035412244,1.014144559154452,0.27123832814879717,-1.1506142924420535,-1.413086283100024
2024-09-23 01:45:01.291627,44.22,7.724287,-0.011768909009832369,0.018415698035412244,1.0115223922496177,0.27123832814879717,-1.1506142924420535,-1.413086283100024
2024-09-23 01:45:01.323495,44.22,7.724287,-0.011768909009832369,0.018415698035412244,1.0115223922496177,0.3368419984191656,-1.014995075006783,-1.3999655917346479
2024-09-23 01:45:01.335322,44.22,7.724338,-0.016464321863639123,0.018781549643789714,1.0115223922496177,0.3368419984191656,-1.014995075006783,-1.3999655917346479
2024-09-23 01:45:01.378312,44.22,7.724389,-0.01341539238571027,0.018781549643789714,1.0131688171448936,0.3499627431454137,-1.1156065722204744,-1.509343212995678
2024-09-23 01:45:01.421873,44.22,7.724389,-0.01341539238571027,0.020915799974544576,1.0136566395424191,0.3237212803733535,-1.1156065722204744,-1.509343212995678
2024-09-23 01:45:01.432917,44.22,7.724477,-0.01341539238571027,0.020915799974544576,1.0136566395424191,0.3237212803733535,-1.15932321363464,-1.474335492774099
2024-09-23 01:45:01.475653,44.22,7.724477,-0.01445198763887209,0.01939133523558015,1.0109126628599643,0.3149550229238346,-1.1549687530383468,-1.43932777255252
2024-09-23 01:45:01.518795,44.22,7.724529,-0.012073802565215924,0.019330377182586234,1.0109126628599643,0.3149550229238346,-1.1549687530383468,-1.43932777255252
2024-09-23 01:45:01.529889,44.22,7.724529,-0.012073802565215924,0.019330377182586234,1.0165227176460165,0.3543172304221429,-1.1724439050000162,-1.43932777255252
2024-09-23 01:45:01.571997,44.22,7.724579,-0.013354434332716355,0.019330377182586234,1.0165227176460165,0.3543172304221429,-1.1724439050000162,-1.3911993609655648
2024-09-23 01:45:01.614289,44.22,7.724579,-0.013354434332716355,0.020427930488741967,1.014022554947817,0.3543172304221429,-1.1724439050000162,-1.3911993609655648
2024-09-23 01:45:01.626297,44.22,7.72463,-0.013354434332716355,0.020427930488741967,1.014022554947817,0.31060053564710544,-1.0762442846808582,-1.4524485706396402
2024-09-23 01:45:01.670383,44.22,7.72463,-0.010000509527966639,0.02164760496273682,1.0120712653577144,0.3193667930966243,-1.1987427040290088,-1.4524485706396402
2024-09-23 01:45:01.682139,44.22,7.72463,-0.010000509527966639,0.02164760496273682,1.0120712653577144,0.3193667930966243,-1.1987427040290088,-1.5224640110827983
2024-09-23 01:45:01.714619,43.75,7.724681,-0.010793271809664462,0.018171764051999276,1.0120712653577144,0.3193667930966243,-1.1987427040290088,-1.5224640110827983
2024-09-23 01:45:01.725993,43.75,7.724681,-0.010793271809664462,0.018171764051999276,1.0087784155671629,0.28871353347133843,-1.1987427040290088,-1.5224640110827983
2024-09-23 01:45:01.769117,43.75,7.724732,-0.01341539238571027,0.021098777423940302,1.0125589905407328,0.3018342781975865,-1.1987427040290088,-1.4218526205908506
2024-09-23 01:45:01.812235,43.75,7.724818,-0.007744342331735609,0.021098777423940302,1.0125589905407328,0.3018342781975865,-1.1418479549512268,-1.4524485706396402
2024-09-23 01:45:01.823120,43.75,7.724818,-0.007744342331735609,0.01811080599900536,1.0112784810508548,0.3018342781975865,-1.1418479549512268,-1.4524485706396402
2024-09-23 01:45:01.867385,43.75,7.724818,-0.007744342331735609,0.01811080599900536,1.0112784810508548,0.2843590461946093,-1.2862334031555802,-1.461214801408723
2024-09-23 01:45:01.960806,43.75,7.72487,-0.007744342331735609,0.01811080599900536,1.0112784810508548,0.2843590461946093,-1.2862334031555802,-1.461214801408723
2024-09-23 01:45:02.004147,43.75,7.72487,-0.014391029585878175,0.01811080599900536,1.0112784810508548,0.2843590461946093,-1.2862334031555802,-1.461214801408723
2024-09-23 01:45:02.015519,43.75,7.72487,-0.014391029585878175,0.023233027754695164,1.0149982969573756,0.3193667930966243,-1.2424594521649182,-1.4568603408124299
2024-09-23 01:45:02.058571,43.75,7.724921,-0.01268358815700636,0.021037716080532405,1.0114614387535539,0.35872900059493257,-1.2424594521649182,-1.4568603408124299
2024-09-23 01:45:02.070585,43.75,7.724921,-0.01268358815700636,0.021037716080532405,1.0114614387535539,0.35872900059493257,-1.1111946953259408,-1.4568603408124299
2024-09-23 01:45:02.102713,43.75,7.725013,-0.01268358815700636,0.021037716080532405,1.0114614387535539,0.35872900059493257,-1.1111946953259408,-1.3868447936475277
2024-09-23 01:45:02.114601,43.75,7.725013,-0.013720285941093825,0.017744852619190586,1.0140835084438808,0.3324875378228724,-1.1111946953259408,-1.3868447936475277
2024-09-23 01:45:02.157960,43.75,7.725065,-0.012927522899907663,0.020306014382754138,1.0133517748475924,0.3324875378228724,-1.0762442846808582,-1.4174980532728136
2024-09-23 01:45:02.200241,43.75,7.725065,-0.012927522899907663,0.020306014382754138,1.0133517748475924,0.24499683869630098,-1.1506142924420535,-1.4174980532728136
2024-09-23 01:45:02.211714,43.75,7.725116,-0.01256167205101853,0.022501222766502915,1.0133517748475924,0.24499683869630098,-1.1506142924420535,-1.3693696416858583
2024-09-23 01:45:02.254920,43.75,7.72526,-0.01256167205101853,0.022501222766502915,1.009510051948944,0.3543172304221429,-1.216217962712422,-1.43932777255252
2024-09-23 01:45:02.266367,43.75,7.72526,-0.011768909009832369,0.022501222766502915,1.009510051948944,0.3543172304221429,-1.216217962712422,-1.43932777255252
2024-09-23 01:45:02.299378,43.75,7.72526,-0.011768909009832369,0.02237930666051509,1.0125589905407328,0.31060053564710544,-1.216217962712422,-1.43932777255252
2024-09-23 01:45:02.310528,43.75,7.725355,-0.011768909009832369,0.02237930666051509,1.0125589905407328,0.31060053564710544,-1.1199610328167677,-1.43932777255252
2024-09-23 01:45:02.354055,43.75,7.725355,-0.009329765883182288,0.02213537267710212,1.0116442992417454,0.3062460483703762,-1.1199610328167677,-1.43932777255252
2024-09-23 01:45:02.395824,43.75,7.725406,-0.009329765883182288,0.02213537267710212,1.0116442992417454,0.3062460483703762,-1.1899764732599258,-1.448094003321603
2024-09-23 01:45:02.406819,43.75,7.725406,-0.010366361136344109,0.021830479121718566,1.0089003225592905,0.3062460483703762,-1.1899764732599258,-1.448094003321603
2024-09-23 01:45:02.450211,43.75,7.725457,-0.013293374508285133,0.020549948366167105,1.0089003225592905,0.2668265312955715,-1.1462025222692638,-1.3299501512914895
2024-09-23 01:45:02.494218,43.75,7.725457,-0.013293374508285133,0.020549948366167105,1.014144559154452,0.29306802074806765,-1.0718325145080685,-1.3299501512914895
2024-09-23 01:45:02.505412,43.75,7.725508,-0.008780937584897428,0.020549948366167105,1.014144559154452,0.29306802074806765,-1.0718325145080685,-1.3999655917346479
2024-09-23 01:45:02.547564,43.75,7.725558,-0.008780937584897428,0.02140366946034718,1.01542506864433,0.3280757409696467,-1.028115873093903,-1.294999633924663
2024-09-23 01:45:02.589407,43.75,7.725558,-0.014878899071680782,0.021037716080532405,1.01542506864433,0.3280757409696467,-1.028115873093903,-1.294999633924663
2024-09-23 01:45:02.600920,43.75,7.725558,-0.014878899071680782,0.021037716080532405,1.0135956860463553,0.3368419984191656,-1.0893650827679784,-1.4568603408124299
2024-09-23 01:45:02.644081,43.75,7.725648,-0.012256778495634975,0.02280611632188647,1.0102418827597397,0.40244569536997005,-1.0893650827679784,-1.4568603408124299
2024-09-23 01:45:02.655702,43.75,7.725648,-0.012256778495634975,0.02280611632188647,1.0102418827597397,0.40244569536997005,-1.0455910250555724,-1.4568603408124299
2024-09-23 01:45:02.687746,43.75,7.725699,-0.012256778495634975,0.02280611632188647,1.0102418827597397,0.40244569536997005,-1.0455910250555724,-1.4087318225037306
2024-09-23 01:45:02.699606,43.75,7.725699,-0.010183486217874026,0.020549948366167105,1.0134127283436565,0.18810211629895493,-1.0455910250555724,-1.4087318225037306
2024-09-23 01:45:02.742233,43.47,7.72575,-0.013537308491698099,0.02201345505213762,1.012925003160638,0.18810211629895493,-1.0630662837389857,-1.3299501512914895
2024-09-23 01:45:02.784487,43.47,7.72575,-0.013537308491698099,0.02201345505213762,1.012925003160638,0.26247207069927825,-1.0368247942864894,-1.3299501512914895
2024-09-23 01:45:02.796220,43.47,7.725801,-0.013110498830326714,0.020062078880364497,1.012925003160638,0.26247207069927825,-1.0368247942864894,-1.4218526205908506
2024-09-23 01:45:02.838492,43.47,7.725851,-0.013110498830326714,0.020062078880364497,1.013778546534547,0.2362305812467821,-1.1549687530383468,-1.413086283100024
2024-09-23 01:45:02.850593,43.47,7.725851,-0.013537308491698099,0.020062078880364497,1.013778546534547,0.2362305812467821,-1.1549687530383468,-1.413086283100024
2024-09-23 01:45:02.883115,43.47,7.725851,-0.013537308491698099,0.021952496999143704,1.0120712653577144,0.2362305812467821,-1.1549687530383468,-1.413086283100024
2024-09-23 01:45:02.894783,43.47,7.72594,-0.013537308491698099,0.021952496999143704,1.0120712653577144,0.39809120809324083,-1.1506142924420535,-1.3518370734259486
2024-09-23 01:45:02.937448,43.47,7.72594,-0.012073802565215924,0.02012303845233509,1.0150592504534395,0.3018342781975865,-1.15932321363464,-1.3518370734259486
2024-09-23 01:45:02.949463,43.47,7.72594,-0.012073802565215924,0.02012303845233509,1.0150592504534395,0.3018342781975865,-1.15932321363464,-1.3212411233771593
2024-09-23 01:45:02.982322,43.47,7.725991,-0.012073802565215924,0.02012303845233509,1.0150592504534395,0.3018342781975865,-1.15932321363464,-1.3212411233771593
2024-09-23 01:45:03.034631,43.47,7.725991,-0.014147094083488534,0.02097675802753849,1.0143274196426437,0.37620423259790986,-1.1024857741333545,-1.434973311956227
2024-09-23 01:45:03.078066,43.47,7.726042,-0.013171458402297304,0.02097675802753849,1.0143274196426437,0.37620423259790986,-1.1024857741333545,-1.434973311956227
2024-09-23 01:45:03.093972,43.47,7.726042,-0.013171458402297304,0.020915799974544576,1.015973941752427,0.35872900059493257,-1.1243154934130608,-1.434973311956227
2024-09-23 01:45:03.127050,43.47,7.726093,-0.013171458402297304,0.020915799974544576,1.015973941752427,0.35872900059493257,-1.1243154934130608,-1.3911993609655648
2024-09-23 01:45:03.138726,43.47,7.726093,-0.01256167205101853,0.020001120827370582,1.014205512650516,0.2362305812467821,-1.1243154934130608,-1.3911993609655648
2024-09-23 01:45:03.180714,43.47,7.726143,-0.012988480952901577,0.02207441310513153,1.0131688171448936,0.2362305812467821,-1.0762442846808582,-1.404320052330941
2024-09-23 01:45:03.223581,43.47,7.726143,-0.012988480952901577,0.02207441310513153,1.0131688171448936,0.2362305812467821,-1.0105833048339934,-1.404320052330941
2024-09-23 01:45:03.235477,43.47,7.726194,-0.010000509527966639,0.025001426477072555,1.0131688171448936,0.2362305812467821,-1.0105833048339934,-1.2643463742993772
2024-09-23 01:45:03.278224,43.47,7.726284,-0.011768909009832369,0.025001426477072555,1.0136566395424191,0.3411964856958948,-1.15932321363464,-1.4306188513599336
2024-09-23 01:45:03.320636,43.47,7.726284,-0.011768909009832369,0.01890346574977754,1.0152421109416312,0.3411964856958948,-1.15932321363464,-1.4306188513599336
2024-09-23 01:45:03.332329,43.47,7.726378,-0.011768909009832369,0.01890346574977754,1.0152421109416312,0.3018342781975865,-1.1549687530383468,-1.3474826128296553
2024-09-23 01:45:03.375123,43.47,7.726378,-0.011586034850850625,0.01768389456619667,1.0120712653577144,0.24935132597303017,-1.1199610328167677,-1.3474826128296553
2024-09-23 01:45:03.386740,43.47,7.726378,-0.011586034850850625,0.01768389456619667,1.0120712653577144,0.24935132597303017,-1.1199610328167677,-1.3255955839734523
2024-09-23 01:45:03.418661,43.47,7.72643,-0.012378695361111141,0.01768389456619667,1.0120712653577144,0.24935132597303017,-1.1199610328167677,-1.3255955839734523
2024-09-23 01:45:03.430371,43.47,7.72643,-0.012378695361111141,0.018964423802771455,1.011217527554791,0.3237212803733535,-1.2118635021161288,-1.3255955839734523
2024-09-23 01:45:03.474255,43.47,7.726481,-0.012317737308117227,0.020793883868556746,1.0124370835486052,0.27559278874509036,-1.2118635021161288,-1.509343212995678
2024-09-23 01:45:03.517058,43.47,7.726531,-0.012317737308117227,0.020793883868556746,1.0124370835486052,0.27559278874509036,-1.1768557818945498,-1.504988752399385
2024-09-23 01:45:03.528291,43.47,7.726531,-0.01219582044264106,0.020549948366167105,1.0152421109416312,0.27559278874509036,-1.1768557818945498,-1.504988752399385
2024-09-23 01:45:03.571060,43.47,7.726582,-0.010976248499571852,0.020062078880364497,1.0152421109416312,0.3849704900474288,-1.1287272635858505,-1.504988752399385
2024-09-23 01:45:03.614595,43.47,7.726582,-0.010976248499571852,0.020062078880364497,1.015486022140394,0.39373674749694765,-1.1943309338562191,-1.504988752399385
2024-09-23 01:45:03.625735,43.47,7.726633,-0.012256778495634975,0.020062078880364497,1.015486022140394,0.39373674749694765,-1.1943309338562191,-1.4174980532728136
2024-09-23 01:45:03.668032,43.47,7.72672,-0.012256778495634975,0.021708563015730736,1.01231507934197,0.4287444677185267,-1.1024857741333545,-1.413086283100024
2024-09-23 01:45:03.711198,43.47,7.72672,-0.012805606793919833,0.023476961738108128,1.01231507934197,0.4287444677185267,-1.1024857741333545,-1.413086283100024
2024-09-23 01:45:03.723626,43.47,7.72672,-0.012805606793919833,0.023476961738108128,1.0140835084438808,0.2843590461946093,-1.1330817241821438,-1.504988752399385
2024-09-23 01:45:03.766938,43.25,7.726771,-0.014512945691866003,0.020427930488741967,1.0152421109416312,0.29747979092085736,-1.0762442846808582,-1.504988752399385
2024-09-23 01:45:03.809235,43.25,7.726822,-0.01268358815700636,0.020427930488741967,1.0152421109416312,0.29747979092085736,-1.0762442846808582,-1.3824903330512346
2024-09-23 01:45:03.820609,43.25,7.726822,-0.01268358815700636,0.02176952106872465,1.012802998954003,0.40685746554275976,-1.0762442846808582,-1.3824903330512346
2024-09-23 01:45:03.863551,43.25,7.726873,-0.01341539238571027,0.021037716080532405,1.0101198785531047,0.40685746554275976,-1.1330817241821438,-1.3693696416858583
2024-09-23 01:45:03.905386,43.25,7.726873,-0.01341539238571027,0.021037716080532405,1.0101198785531047,0.38932495064372197,-1.2118635021161288,-1.3693696416858583
2024-09-23 01:45:03.917133,43.25,7.726923,-0.008902956221810903,0.022440264713509,1.0101198785531047,0.38932495064372197,-1.2118635021161288,-1.3956111311383546
2024-09-23 01:45:03.960176,43.25,7.726974,-0.008902956221810903,0.022440264713509,1.0115833457456815,0.3411964856958948,-1.0937195433642715,-1.3649578715130686
2024-09-23 01:45:03.973919,43.25,7.726974,-0.010793271809664462,0.022440264713509,1.0115833457456815,0.3411964856958948,-1.0937195433642715,-1.3649578715130686
2024-09-23 01:45:04.006839,43.25,7.726974,-0.010793271809664462,0.02225739055452726,1.015486022140394,0.3543172304221429,-1.0937195433642715,-1.3649578715130686
2024-09-23 01:45:04.060983,43.25,7.727061,-0.010610295879245411,0.021586543619328925,1.0131688171448936,0.3543172304221429,-1.1943309338562191,-1.5355847024481744
2024-09-23 01:45:04.104183,43.25,7.727113,-0.010610295879245411,0.021586543619328925,1.0131688171448936,0.37620423259790986,-1.0193495356030762,-1.4306188513599336
2024-09-23 01:45:04.115867,43.25,7.727113,-0.013476350438704184,0.01914740125216718,1.0131688171448936,0.37620423259790986,-1.0193495356030762,-1.4306188513599336
2024-09-23 01:45:04.147510,43.25,7.727113,-0.013476350438704184,0.01914740125216718,1.0151202039495033,0.37620423259790986,-1.0193495356030762,-1.4306188513599336
2024-09-23 01:45:04.159096,43.25,7.727163,-0.012500713238536278,0.01914740125216718,1.0151202039495033,0.39373674749694765,-1.1374934943549335,-1.4568603408124299
2024-09-23 01:45:04.201323,43.25,7.727163,-0.012500713238536278,0.018598572194393984,1.0135956860463553,0.38061600277069957,-1.1374934943549335,-1.4568603408124299
2024-09-23 01:45:04.213981,43.25,7.727214,-0.012500713238536278,0.018598572194393984,1.0135956860463553,0.38061600277069957,-1.1724439050000162,-1.413086283100024
2024-09-23 01:45:04.247520,43.25,7.727214,-0.01378124399408774,0.023537919791102042,1.0135956860463553,0.38061600277069957,-1.1724439050000162,-1.413086283100024
2024-09-23 01:45:04.258507,43.25,7.727214,-0.01378124399408774,0.023537919791102042,1.0126809947473678,0.3324875378228724,-1.1943309338562191,-1.434973311956227
2024-09-23 01:45:04.301160,43.25,7.727305,-0.014147094083488534,0.01853761414140007,1.0181691425412924,0.3324875378228724,-1.1943309338562191,-1.434973311956227
2024-09-23 01:45:04.343574,43.25,7.727305,-0.014147094083488534,0.01853761414140007,1.0181691425412924,0.3499627431454137,-1.1943309338562191,-1.434973311956227
2024-09-23 01:45:04.355654,43.25,7.727357,-0.010305402323861856,0.02176952106872465,1.0181691425412924,0.3499627431454137,-1.1287272635858505,-1.4306188513599336
2024-09-23 01:45:04.398572,43.25,7.727407,-0.010305402323861856,0.02176952106872465,1.012620041251304,0.3324875378228724,-1.2336931146740913,-1.3737241022821516
2024-09-23 01:45:04.410397,43.25,7.727407,-0.011524974266931064,0.02176952106872465,1.012620041251304,0.3324875378228724,-1.2336931146740913,-1.3737241022821516
2024-09-23 01:45:04.442325,43.25,7.727407,-0.011524974266931064,0.018842507696783625,1.0139616014517532,0.3324875378228724,-1.2336931146740913,-1.3737241022821516
2024-09-23 01:45:04.453701,43.25,7.727407,-0.011524974266931064,0.018842507696783625,1.0139616014517532,0.3499627431454137,-1.203097164625302,-1.3999655917346479
2024-09-23 01:45:04.497548,43.25,7.727458,-0.011768909009832369,0.018476656088406155,1.0146933350480416,0.3193667930966243,-1.1549687530383468,-1.3999655917346479
2024-09-23 01:45:04.541432,43.25,7.727509,-0.012988480952901577,0.018476656088406155,1.0146933350480416,0.3193667930966243,-1.1549687530383468,-1.4655692620050162
2024-09-23 01:45:04.552931,43.25,7.727509,-0.012988480952901577,0.01823272210499319,1.0093881449568163,0.3368419984191656,-1.1549687530383468,-1.4655692620050162
2024-09-23 01:45:04.595768,43.25,7.727598,-0.012866564846913748,0.02097675802753849,1.012802998954003,0.3368419984191656,-1.1680894444037229,-1.3911993609655648
2024-09-23 01:45:04.638245,43.25,7.727598,-0.012866564846913748,0.02097675802753849,1.012802998954003,0.3411964856958948,-1.1506142924420535,-1.3868447936475277
2024-09-23 01:45:04.650115,43.25,7.727649,-0.015976452377836518,0.019330377182586234,1.012802998954003,0.3411964856958948,-1.1506142924420535,-1.3868447936475277
2024-09-23 01:45:04.692046,43.25,7.7277,-0.015183792627064338,0.019330377182586234,1.0117664006628877,0.29747979092085736,-1.0937195433642715,-1.4174980532728136
2024-09-23 01:45:04.734731,43.25,7.7277,-0.015183792627064338,0.019208359305161096,1.012802998954003,0.29747979092085736,-1.0937195433642715,-1.4174980532728136
2024-09-23 01:45:04.746092,43.25,7.727793,-0.015183792627064338,0.019208359305161096,1.012802998954003,0.3237212803733535,-1.1637349838074296,-1.3649578715130686
2024-09-23 01:45:04.789291,42.98,7.727793,-0.011159123418041933,0.02097675802753849,1.0099369208504057,0.3499627431454137,-1.1899764732599258,-1.3780785628784449
2024-09-23 01:45:04.832514,42.98,7.727844,-0.014878899071680782,0.02097675802753849,1.0099369208504057,0.3499627431454137,-1.1899764732599258,-1.3780785628784449
2024-09-23 01:45:04.843836,42.98,7.727844,-0.014878899071680782,0.02201345505213762,1.0143274196426437,0.3018342781975865,-1.0587118231426924,-1.3780785628784449
2024-09-23 01:45:04.888214,42.98,7.727895,-0.011768909009832369,0.018964423802771455,1.0088393690632267,0.3018342781975865,-1.0587118231426924,-1.3606034109167755
2024-09-23 01:45:04.930323,42.98,7.727895,-0.011768909009832369,0.018964423802771455,1.0088393690632267,0.3018342781975865,-1.1506142924420535,-1.3518370734259486
2024-09-23 01:45:04.941268,42.98,7.727945,-0.014208053655459124,0.019330377182586234,1.0109736163560281,0.3018342781975865,-1.1506142924420535,-1.3518370734259486
2024-09-23 01:45:04.983608,42.98,7.727996,-0.01433007153288426,0.019330377182586234,1.0109736163560281,0.3018342781975865,-1.1943309338562191,-1.491868061034009
2024-09-23 01:45:04.995817,42.98,7.727996,-0.01433007153288426,0.02048899031317319,1.0109736163560281,0.3018342781975865,-1.1943309338562191,-1.491868061034009
2024-09-23 01:45:05.028451,42.98,7.727996,-0.01433007153288426,0.02048899031317319,1.0148762927507406,0.3149550229238346,-1.0805987452771515,-1.491868061034009
2024-09-23 01:45:05.040238,42.98,7.728047,-0.01664729931303485,0.02048899031317319,1.0148762927507406,0.3149550229238346,-1.0805987452771515,-1.4524485706396402
2024-09-23 01:45:05.082413,42.98,7.728134,-0.01664729931303485,0.02262324216290473,1.0131688171448936,0.3149550229238346,-1.1768557818945498,-1.3999655917346479
2024-09-23 01:45:05.124842,42.98,7.728134,-0.012378695361111141,0.019879204721382753,1.0131688171448936,0.3149550229238346,-1.1768557818945498,-1.3999655917346479
2024-09-23 01:45:05.136345,42.98,7.728134,-0.012378695361111141,0.019879204721382753,1.0130469101527657,0.3849704900474288,-1.1506142924420535,-1.3474826128296553
2024-09-23 01:45:05.178852,42.98,7.728185,-0.013537308491698099,0.01890346574977754,1.0153641151482662,0.3368419984191656,-1.1506142924420535,-1.3474826128296553
2024-09-23 01:45:05.190681,42.98,7.728185,-0.013537308491698099,0.01890346574977754,1.0153641151482662,0.3368419984191656,-1.1243154934130608,-1.3474826128296553
2024-09-23 01:45:05.222515,42.98,7.728236,-0.013537308491698099,0.01890346574977754,1.0153641151482662,0.3368419984191656,-1.1243154934130608,-1.413086283100024
2024-09-23 01:45:05.233630,42.98,7.728236,-0.014391029585878175,0.01811080599900536,1.0120712653577144,0.29747979092085736,-1.1243154934130608,-1.413086283100024
2024-09-23 01:45:05.278182,42.98,7.728287,-0.009390723936176203,0.02176952106872465,1.0120712653577144,0.29747979092085736,-1.0674780539117754,-1.3562488435987383
2024-09-23 01:45:05.289460,42.98,7.728287,-0.009390723936176203,0.02176952106872465,1.0131078636488298,0.29747979092085736,-1.0674780539117754,-1.3562488435987383
2024-09-23 01:45:05.321353,42.98,7.728287,-0.009390723936176203,0.02176952106872465,1.0131078636488298,0.3193667930966243,-1.0193495356030762,-1.3911993609655648
2024-09-23 01:45:05.332567,42.98,7.728337,-0.014512945691866003,0.018598572194393984,1.0131078636488298,0.3193667930966243,-1.0193495356030762,-1.3911993609655648
2024-09-23 01:45:05.375571,42.98,7.728388,-0.01408613603049462,0.018598572194393984,1.012620041251304,0.3543172304221429,-1.1199610328167677,-1.4568603408124299
2024-09-23 01:45:05.419502,42.98,7.728388,-0.01408613603049462,0.020366972435748053,1.012498037044669,0.26247207069927825,-1.1199610328167677,-1.4568603408124299
2024-09-23 01:45:05.430825,42.98,7.728475,-0.01408613603049462,0.020366972435748053,1.012498037044669,0.26247207069927825,-1.1637349838074296,-1.469981032177806
2024-09-23 01:45:05.474323,42.98,7.728475,-0.010610295879245411,0.02176952106872465,1.0139006479556893,0.29306802074806765,-1.1549687530383468,-1.5005769822265953
2024-09-23 01:45:05.516122,42.98,7.728526,-0.013354434332716355,0.02012303845233509,1.0139006479556893,0.29306802074806765,-1.1549687530383468,-1.5005769822265953
2024-09-23 01:45:05.528281,42.98,7.728526,-0.013354434332716355,0.02012303845233509,1.0178032271358946,0.2537058132497594,-1.0543573625463993,-1.5005769822265953
2024-09-23 01:45:05.571411,42.98,7.728577,-0.010549337066763158,0.018293680157987106,1.014022554947817,0.3324875378228724,-1.0543573625463993,-1.483101830264926
2024-09-23 01:45:05.613128,42.98,7.728628,-0.010549337066763158,0.018293680157987106,1.014022554947817,0.3324875378228724,-1.1243154934130608,-1.504988752399385
2024-09-23 01:45:05.624357,42.98,7.728628,-0.013354434332716355,0.02085484192155066,1.0135956860463553,0.3324875378228724,-1.1243154934130608,-1.504988752399385
2024-09-23 01:45:05.667075,42.98,7.728679,-0.014939857124674697,0.023050050305299438,1.0135956860463553,0.3630834878716618,-1.0937195433642715,-1.4874562908612192
2024-09-23 01:45:05.709135,42.98,7.728679,-0.014939857124674697,0.023050050305299438,1.012925003160638,0.38061600277069957,-1.0937195433642715,-1.4874562908612192
2024-09-23 01:45:05.720978,42.98,7.728729,-0.015915494324842603,0.023050050305299438,1.012925003160638,0.38061600277069957,-1.1243154934130608,-1.426207081187144
2024-09-23 01:45:05.762829,42.98,7.728729,-0.015915494324842603,0.02237930666051509,1.012802998954003,0.3368419984191656,-1.0849533125951887,-1.4655692620050162
2024-09-23 01:45:05.774852,42.98,7.728816,-0.015915494324842603,0.02237930666051509,1.012802998954003,0.3368419984191656,-1.0849533125951887,-1.4655692620050162
2024-09-23 01:45:05.806726,42.69,7.728816,-0.011768909009832369,0.020915799974544576,1.012802998954003,0.3368419984191656,-1.0849533125951887,-1.4655692620050162
2024-09-23 01:45:05.818320,42.69,7.728816,-0.011768909009832369,0.020915799974544576,1.0132908213515286,0.37620423259790986,-1.1374934943549335,-1.448094003321603
2024-09-23 01:45:05.860561,42.69,7.728868,-0.012134760618209839,0.02207441310513153,1.0119492611510794,0.3674952580444515,-1.1374934943549335,-1.448094003321603
2024-09-23 01:45:05.872791,42.69,7.728868,-0.012134760618209839,0.02207441310513153,1.0119492611510794,0.3674952580444515,-1.1724439050000162,-1.448094003321603
2024-09-23 01:45:05.906760,42.69,7.728918,-0.01433007153288426,0.02207441310513153,1.0119492611510794,0.3674952580444515,-1.1724439050000162,-1.4306188513599336
2024-09-23 01:45:05.918323,42.69,7.728918,-0.01433007153288426,0.02176952106872465,1.011095523348156,0.41121195281948897,-1.1724439050000162,-1.4306188513599336
2024-09-23 01:45:05.960727,42.69,7.728969,-0.01445198763887209,0.019452293288574063,1.0145713308414066,0.41121195281948897,-1.1506142924420535,-1.461214801408723
2024-09-23 01:45:06.002590,42.69,7.728969,-0.01445198763887209,0.019452293288574063,1.0145713308414066,0.29747979092085736,-1.15932321363464,-1.461214801408723
2024-09-23 01:45:06.014456,42.69,7.72902,-0.01268358815700636,0.021098777423940302,1.0145713308414066,0.29747979092085736,-1.15932321363464,-1.3649578715130686
2024-09-23 01:45:06.056815,42.69,7.729071,-0.01268358815700636,0.021098777423940302,1.0129859566567019,0.31060053564710544,-1.1243154934130608,-1.434973311956227
2024-09-23 01:45:06.068660,42.69,7.729071,-0.014756881194255646,0.021098777423940302,1.0129859566567019,0.31060053564710544,-1.1243154934130608,-1.434973311956227
2024-09-23 01:45:06.100511,42.69,7.729071,-0.014756881194255646,0.021952496999143704,1.0109126628599643,0.31060053564710544,-1.1243154934130608,-1.434973311956227
2024-09-23 01:45:06.112210,42.69,7.729157,-0.014756881194255646,0.021952496999143704,1.0109126628599643,0.24499683869630098,-1.0762442846808582,-1.434973311956227
2024-09-23 01:45:06.155778,42.69,7.729157,-0.013537308491698099,0.020915799974544576,1.0135347325502915,0.39809120809324083,-1.1462025222692638,-1.404320052330941
2024-09-23 01:45:06.199972,42.69,7.729209,-0.013354434332716355,0.021037716080532405,1.0135347325502915,0.39809120809324083,-1.1462025222692638,-1.404320052330941
2024-09-23 01:45:06.211843,42.69,7.729209,-0.013354434332716355,0.021037716080532405,1.0115833457456815,0.24499683869630098,-1.1156065722204744,-1.404320052330941
2024-09-23 01:45:06.243451,42.69,7.729209,-0.013354434332716355,0.021037716080532405,1.0115833457456815,0.24499683869630098,-1.1156065722204744,-1.3780785628784449
2024-09-23 01:45:06.255495,42.69,7.72926,-0.015549642716465131,0.018476656088406155,1.0163397599433175,0.3149550229238346,-1.1156065722204744,-1.3780785628784449
2024-09-23 01:45:06.299003,42.69,7.72931,-0.010671253932239326,0.018476656088406155,1.0163397599433175,0.3149550229238346,-1.1506142924420535,-1.404320052330941
2024-09-23 01:45:06.310407,42.69,7.72931,-0.010671253932239326,0.020062078880364497,1.0140835084438808,0.3149550229238346,-1.1506142924420535,-1.404320052330941
2024-09-23 01:45:06.342312,42.69,7.72931,-0.010671253932239326,0.020062078880364497,1.0140835084438808,0.3280757409696467,-1.1506142924420535,-1.404320052330941
2024-09-23 01:45:06.353794,42.69,7.729361,-0.01365932788809991,0.02140366946034718,1.0140835084438808,0.3280757409696467,-1.0412365644592791,-1.491868061034009
2024-09-23 01:45:06.396571,42.69,7.729412,-0.01365932788809991,0.02140366946034718,1.0143274196426437,0.3237212803733535,-1.0805987452771515,-1.4437395427253097
2024-09-23 01:45:06.408503,42.69,7.729412,-0.012134760618209839,0.02140366946034718,1.0143274196426437,0.3237212803733535,-1.0805987452771515,-1.4437395427253097
2024-09-23 01:45:06.440154,42.69,7.729412,-0.012134760618209839,0.018598572194393984,1.0143274196426437,0.3237212803733535,-1.0805987452771515,-1.4437395427253097
2024-09-23 01:45:06.451370,42.69,7.729498,-0.012134760618209839,0.018598572194393984,1.0144494238492787,0.40244569536997005,-1.1418479549512268,-1.448094003321603
2024-09-23 01:45:06.493880,42.69,7.729498,-0.012500713238536278,0.020732824044125523,1.0148762927507406,0.3630834878716618,-1.0412365644592791,-1.448094003321603
2024-09-23 01:45:06.505909,42.69,7.729498,-0.012500713238536278,0.020732824044125523,1.0148762927507406,0.3630834878716618,-1.0412365644592791,-1.491868061034009
2024-09-23 01:45:06.538378,42.69,7.72955,-0.010793271809664462,0.020732824044125523,1.0148762927507406,0.3630834878716618,-1.0412365644592791,-1.491868061034009
2024-09-23 01:45:06.549689,42.69,7.72955,-0.010793271809664462,0.02152558556633501,1.010668654446694,0.3411964856958948,-1.2205724233087152,-1.491868061034009
2024-09-23 01:45:06.592105,42.69,7.729601,-0.01268358815700636,0.019940162774376668,1.0137175930384832,0.3411964856958948,-1.2205724233087152,-1.3780785628784449
2024-09-23 01:45:06.603817,42.69,7.729601,-0.01268358815700636,0.019940162774376668,1.0137175930384832,0.24935132597303017,-1.2205724233087152,-1.3780785628784449
2024-09-23 01:45:06.635815,42.69,7.729601,-0.01268358815700636,0.019940162774376668,1.0137175930384832,0.24935132597303017,-1.207451731943339,-1.43932777255252
2024-09-23 01:45:06.647347,42.69,7.729652,-0.01365932788809991,0.019452293288574063,1.0149372462468045,0.24935132597303017,-1.207451731943339,-1.43932777255252
2024-09-23 01:45:06.689297,42.69,7.729702,-0.011098165365048018,0.019452293288574063,1.0149372462468045,0.3368419984191656,-1.1199610328167677,-1.3824903330512346
2024-09-23 01:45:06.701060,42.69,7.729702,-0.011098165365048018,0.019513251341567978,1.0149372462468045,0.3368419984191656,-1.1199610328167677,-1.3824903330512346
2024-09-23 01:45:06.733136,42.69,7.729702,-0.011098165365048018,0.019513251341567978,1.0128639524500669,0.40244569536997005,-1.1199610328167677,-1.3824903330512346
2024-09-23 01:45:06.744993,42.69,7.729753,-0.014634963569291141,0.019513251341567978,1.0128639524500669,0.40244569536997005,-1.1374934943549335,-1.3474826128296553
2024-09-23 01:45:06.787708,42.69,7.729753,-0.014634963569291141,0.021159735476934217,1.0121931723498423,0.3849704900474288,-1.1855647030871361,-1.483101830264926
2024-09-23 01:45:06.799654,42.69,7.72984,-0.014634963569291141,0.021159735476934217,1.0121931723498423,0.3849704900474288,-1.1855647030871361,-1.483101830264926
2024-09-23 01:45:06.833477,42.79,7.72984,-0.012622630104012445,0.020427930488741967,1.0145713308414066,0.3849704900474288,-1.1855647030871361,-1.483101830264926
2024-09-23 01:45:06.845196,42.79,7.72984,-0.012622630104012445,0.020427930488741967,1.0145713308414066,0.28871353347133843,-1.1812102424908428,-1.3824903330512346
2024-09-23 01:45:06.878082,42.79,7.729891,-0.012622630104012445,0.020427930488741967,1.0145713308414066,0.28871353347133843,-1.1812102424908428,-1.3824903330512346
2024-09-23 01:45:06.890078,42.79,7.729891,-0.011524974266931064,0.021830479121718566,1.012742045457939,0.3456082558686845,-1.1987427040290088,-1.3824903330512346
2024-09-23 01:45:06.932899,42.79,7.729942,-0.01481783924724956,0.019330377182586234,1.0117664006628877,0.3456082558686845,-1.1987427040290088,-1.4524485706396402
2024-09-23 01:45:06.944793,42.79,7.729942,-0.01481783924724956,0.019330377182586234,1.0117664006628877,0.3280757409696467,-1.1987427040290088,-1.4524485706396402
2024-09-23 01:45:06.977366,42.79,7.729942,-0.01481783924724956,0.019330377182586234,1.0117664006628877,0.3280757409696467,-1.1637349838074296,-1.43932777255252
2024-09-23 01:45:06.989615,42.79,7.729993,-0.015305708733052167,0.018049744655597465,1.0115833457456815,0.3280757409696467,-1.1637349838074296,-1.43932777255252
2024-09-23 01:45:07.033557,42.79,7.730044,-0.014878899071680782,0.02134260963591596,1.0115833457456815,0.3237212803733535,-1.1330817241821438,-1.426207081187144
2024-09-23 01:45:07.076217,42.79,7.730044,-0.014878899071680782,0.02134260963591596,1.0138396944596255,0.3237212803733535,-1.1330817241821438,-1.426207081187144
2024-09-23 01:45:07.128717,42.79,7.730044,-0.014878899071680782,0.02134260963591596,1.0138396944596255,0.3193667930966243,-1.1024857741333545,-1.426207081187144
2024-09-23 01:45:07.171601,42.79,7.730044,-0.014878899071680782,0.02134260963591596,1.0138396944596255,0.3193667930966243,-1.1024857741333545,-1.4437395427253097
2024-09-23 01:45:07.182702,42.79,7.730095,-0.013293374508285133,0.019818144896951533,1.015608026347029,0.3543172304221429,-1.1024857741333545,-1.4437395427253097
2024-09-23 01:45:07.226435,42.79,7.730181,-0.01164699290384454,0.020306014382754138,1.015608026347029,0.3543172304221429,-1.1330817241821438,-1.426207081187144
2024-09-23 01:45:07.238300,42.79,7.730181,-0.01164699290384454,0.020306014382754138,1.0150592504534395,0.3543172304221429,-1.1330817241821438,-1.426207081187144
2024-09-23 01:45:07.270817,42.79,7.730181,-0.01164699290384454,0.020306014382754138,1.0150592504534395,0.27559278874509036,-1.1768557818945498,-1.426207081187144
2024-09-23 01:45:07.282207,42.79,7.730233,-0.013842202047081654,0.020732824044125523,1.0150592504534395,0.27559278874509036,-1.1768557818945498,-1.4306188513599336
2024-09-23 01:45:07.325378,42.79,7.730283,-0.01445198763887209,0.020732824044125523,1.0150592504534395,0.31060053564710544,-1.2424594521649182,-1.4174980532728136
2024-09-23 01:45:07.367633,42.79,7.730283,-0.01445198763887209,0.02097675802753849,1.012620041251304,0.31060053564710544,-1.2424594521649182,-1.4174980532728136
2024-09-23 01:45:07.381032,42.79,7.730425,-0.01445198763887209,0.02097675802753849,1.012620041251304,0.35872900059493257,-1.216217962712422,-1.461214801408723
2024-09-23 01:45:07.424475,42.79,7.730425,-0.0076832825073043865,0.017439959063807027,1.0128639524500669,0.3630834878716618,-1.1943309338562191,-1.474335492774099
2024-09-23 01:45:07.466547,42.79,7.730477,-0.012744546969488612,0.02122069352992813,1.0128639524500669,0.3630834878716618,-1.1943309338562191,-1.474335492774099
2024-09-23 01:45:07.478150,42.79,7.730477,-0.012744546969488612,0.02122069352992813,1.0135956860463553,0.37620423259790986,-1.238104991568625,-1.474335492774099
2024-09-23 01:45:07.512772,42.79,7.730477,-0.012744546969488612,0.02122069352992813,1.0135956860463553,0.37620423259790986,-1.238104991568625,-1.434973311956227
2024-09-23 01:45:07.523795,42.79,7.730528,-0.01256167205101853,0.01811080599900536,1.0134736818397203,0.3849704900474288,-1.238104991568625,-1.434973311956227
2024-09-23 01:45:07.566791,42.79,7.730578,-0.013476350438704184,0.02048899031317319,1.0134736818397203,0.3849704900474288,-1.1637349838074296,-1.413086283100024
2024-09-23 01:45:07.578901,42.79,7.730578,-0.013476350438704184,0.02048899031317319,1.0145713308414066,0.3849704900474288,-1.1637349838074296,-1.413086283100024
2024-09-23 01:45:07.611880,42.79,7.730578,-0.013476350438704184,0.02048899031317319,1.0145713308414066,0.37184974532118065,-1.1330817241821438,-1.3868447936475277
2024-09-23 01:45:07.623719,42.79,7.730629,-0.013537308491698099,0.02274515826889256,1.0145713308414066,0.37184974532118065,-1.1330817241821438,-1.3868447936475277
2024-09-23 01:45:07.666318,42.79,7.73068,-0.013537308491698099,0.02274515826889256,1.009815013858278,0.3674952580444515,-1.1943309338562191,-1.3868447936475277
2024-09-23 01:45:07.678210,42.79,7.73068,-0.01713506550842347,0.02274515826889256,1.009815013858278,0.3674952580444515,-1.1943309338562191,-1.3868447936475277
2024-09-23 01:45:07.710336,42.79,7.73068,-0.01713506550842347,0.017196025080394063,1.0134127283436565,0.3411964856958948,-1.1943309338562191,-1.3868447936475277
2024-09-23 01:45:07.722896,42.79,7.730766,-0.01713506550842347,0.017196025080394063,1.0134127283436565,0.3411964856958948,-1.1287272635858505,-1.3430708426568656
2024-09-23 01:45:07.757981,42.79,7.730766,-0.01445198763887209,0.020427930488741967,1.0134127283436565,0.3411964856958948,-1.1287272635858505,-1.3430708426568656
2024-09-23 01:45:07.769215,42.79,7.730766,-0.01445198763887209,0.020427930488741967,1.015546975636458,0.2362305812467821,-1.1111946953259408,-1.3299501512914895
2024-09-23 01:45:07.811889,42.79,7.730818,-0.012500713238536278,0.021708563015730736,1.012802998954003,0.2581175834225491,-1.0937195433642715,-1.3299501512914895
2024-09-23 01:45:07.854323,42.88,7.730868,-0.012500713238536278,0.021708563015730736,1.012802998954003,0.2581175834225491,-1.0937195433642715,-1.3737241022821516
2024-09-23 01:45:07.865915,42.88,7.730868,-0.01365932788809991,0.02365983741606655,1.0118273541589518,0.29747979092085736,-1.0937195433642715,-1.3737241022821516
2024-09-23 01:45:07.909065,42.88,7.730919,-0.013476350438704184,0.01914740125216718,1.0118273541589518,0.29747979092085736,-1.2118635021161288,-1.3999655917346479
2024-09-23 01:45:07.920876,42.88,7.730919,-0.013476350438704184,0.01914740125216718,1.0131688171448936,0.29747979092085736,-1.2118635021161288,-1.3999655917346479
2024-09-23 01:45:07.954082,42.88,7.730919,-0.013476350438704184,0.01914740125216718,1.0131688171448936,0.3193667930966243,-1.1724439050000162,-1.3999655917346479
2024-09-23 01:45:07.965246,42.88,7.73097,-0.012439653414105056,0.019452293288574063,1.0131688171448936,0.3193667930966243,-1.1724439050000162,-1.3999655917346479
2024-09-23 01:45:08.008635,42.88,7.73102,-0.014695923141261731,0.019452293288574063,1.0130469101527657,0.3237212803733535,-1.1243154934130608,-1.483101830264926
2024-09-23 01:45:08.052983,42.88,7.73102,-0.014695923141261731,0.021830479121718566,1.0130469101527657,0.3411964856958948,-1.1243154934130608,-1.483101830264926
2024-09-23 01:45:08.064474,42.88,7.731107,-0.014695923141261731,0.021830479121718566,1.0130469101527657,0.3411964856958948,-1.0324703336901964,-1.4568603408124299
2024-09-23 01:45:08.097575,42.88,7.731107,-0.010305402323861856,0.021830479121718566,1.0130469101527657,0.3411964856958948,-1.0324703336901964,-1.4568603408124299
2024-09-23 01:45:08.109630,42.88,7.731107,-0.010305402323861856,0.021464627513341095,1.0124370835486052,0.27994727602181957,-1.1855647030871361,-1.3387163820605725
2024-09-23 01:45:08.151851,42.88,7.731159,-0.01365932788809991,0.021464627513341095,1.0124370835486052,0.27994727602181957,-1.1855647030871361,-1.3387163820605725
2024-09-23 01:45:08.195715,42.88,7.731159,-0.01365932788809991,0.016769215419022678,1.0124370835486052,0.27994727602181957,-1.1855647030871361,-1.3387163820605725
2024-09-23 01:45:08.207655,42.88,7.73121,-0.01365932788809991,0.016769215419022678,1.0087173648565917,0.3674952580444515,-1.1812102424908428,-1.4306188513599336
2024-09-23 01:45:08.250819,42.88,7.73121,-0.010000509527966639,0.016769215419022678,1.0087173648565917,0.3674952580444515,-1.1812102424908428,-1.4306188513599336
2024-09-23 01:45:08.293361,42.88,7.73121,-0.010000509527966639,0.02134260963591596,1.0087173648565917,0.3674952580444515,-1.1812102424908428,-1.4306188513599336
2024-09-23 01:45:08.345734,42.88,7.73121,-0.010000509527966639,0.02134260963591596,1.015546975636458,0.4330989549952559,-1.0937195433642715,-1.4174980532728136
2024-09-23 01:45:08.357631,42.88,7.73126,-0.012378695361111141,0.02134260963591596,1.015546975636458,0.4330989549952559,-1.0937195433642715,-1.4174980532728136
2024-09-23 01:45:08.391222,42.88,7.73126,-0.012378695361111141,0.022501222766502915,1.0125589905407328,0.4330989549952559,-1.0937195433642715,-1.4174980532728136
2024-09-23 01:45:08.402409,42.88,7.731311,-0.012378695361111141,0.022501222766502915,1.0125589905407328,0.29747979092085736,-1.0630662837389857,-1.3780785628784449
2024-09-23 01:45:08.444558,42.88,7.731311,-0.016830173472016593,0.021830479121718566,1.0123761300525411,0.3018342781975865,-1.1156065722204744,-1.3780785628784449
2024-09-23 01:45:08.456798,42.88,7.731311,-0.016830173472016593,0.021830479121718566,1.0123761300525411,0.3018342781975865,-1.1156065722204744,-1.4087318225037306
2024-09-23 01:45:08.489692,42.88,7.731362,-0.01164699290384454,0.024269623007856983,1.0123761300525411,0.3018342781975865,-1.1156065722204744,-1.4087318225037306
2024-09-23 01:45:08.500680,42.88,7.731362,-0.01164699290384454,0.024269623007856983,1.0165227176460165,0.38932495064372197,-1.1899764732599258,-1.4087318225037306
2024-09-23 01:45:08.542993,42.88,7.731451,-0.011951885699739756,0.019879204721382753,1.0149982969573756,0.3456082558686845,-1.1899764732599258,-1.448094003321603
2024-09-23 01:45:08.585195,42.88,7.731451,-0.011951885699739756,0.019879204721382753,1.0149982969573756,0.3456082558686845,-1.1724439050000162,-1.448094003321603
2024-09-23 01:45:08.597154,42.88,7.731597,-0.012317737308117227,0.02140366946034718,1.0107906586533293,0.3456082558686845,-1.1724439050000162,-1.3474826128296553
2024-09-23 01:45:08.639920,42.88,7.731647,-0.008415086736008296,0.02140366946034718,1.0107906586533293,0.3499627431454137,-1.0762442846808582,-1.3956111311383546
2024-09-23 01:45:08.652028,42.88,7.731647,-0.008415086736008296,0.020732824044125523,1.0107906586533293,0.3499627431454137,-1.0762442846808582,-1.3956111311383546
2024-09-23 01:45:08.683922,42.88,7.731647,-0.008415086736008296,0.020732824044125523,1.0129859566567019,0.3149550229238346,-1.0762442846808582,-1.3956111311383546
2024-09-23 01:45:08.695370,42.88,7.731698,-0.013354434332716355,0.020732824044125523,1.0129859566567019,0.3149550229238346,-1.0849533125951887,-1.4174980532728136
2024-09-23 01:45:08.738064,42.88,7.73179,-0.013354434332716355,0.016586237969626952,1.0145103773453428,0.4287444677185267,-1.1506142924420535,-1.4087318225037306
2024-09-23 01:45:08.782178,42.88,7.73179,-0.013110498830326714,0.020306014382754138,1.0145103773453428,0.4287444677185267,-1.1506142924420535,-1.4087318225037306
2024-09-23 01:45:08.794098,42.88,7.73179,-0.013110498830326714,0.020306014382754138,1.0118273541589518,0.31060053564710544,-1.1637349838074296,-1.3649578715130686
2024-09-23 01:45:08.836954,42.88,7.731841,-0.012805606793919833,0.019940162774376668,1.0103028362558035,0.3193667930966243,-1.1287272635858505,-1.3649578715130686
2024-09-23 01:45:08.879452,42.78,7.731892,-0.01481783924724956,0.019940162774376668,1.0103028362558035,0.3193667930966243,-1.1287272635858505,-1.3868447936475277
2024-09-23 01:45:08.890819,42.78,7.731892,-0.01481783924724956,0.02152558556633501,1.014022554947817,0.3849704900474288,-1.1287272635858505,-1.3868447936475277
2024-09-23 01:45:08.934110,42.78,7.731943,-0.014147094083488534,0.01835463821098102,1.0126809947473678,0.3849704900474288,-1.1812102424908428,-1.413086283100024
2024-09-23 01:45:08.976101,42.78,7.731943,-0.014147094083488534,0.01835463821098102,1.0126809947473678,0.3368419984191656,-0.9405678643908352,-1.413086283100024
2024-09-23 01:45:08.987507,42.78,7.731994,-0.01256167205101853,0.02012303845233509,1.0126809947473678,0.3368419984191656,-0.9405678643908352,-1.4437395427253097
2024-09-23 01:45:09.031192,42.78,7.732044,-0.01256167205101853,0.02012303845233509,1.0106077981651376,0.35872900059493257,-1.0587118231426924,-1.3868447936475277
2024-09-23 01:45:09.042705,42.78,7.732044,-0.011586034850850625,0.02012303845233509,1.0106077981651376,0.35872900059493257,-1.0587118231426924,-1.3868447936475277
2024-09-23 01:45:09.075430,42.78,7.732044,-0.011586034850850625,0.02207441310513153,1.0148762927507406,0.24935132597303017,-1.0587118231426924,-1.3868447936475277
2024-09-23 01:45:09.086835,42.78,7.732131,-0.011586034850850625,0.02207441310513153,1.0148762927507406,0.24935132597303017,-1.1156065722204744,-1.434973311956227
2024-09-23 01:45:09.119832,42.78,7.732131,-0.012622630104012445,0.02207441310513153,1.0148762927507406,0.24935132597303017,-1.1156065722204744,-1.434973311956227
2024-09-23 01:45:09.132197,42.78,7.732131,-0.012622630104012445,0.020732824044125523,1.0145103773453428,0.2843590461946093,-1.0849533125951887,-1.434973311956227
2024-09-23 01:45:09.175346,42.78,7.732183,-0.01481783924724956,0.02237930666051509,1.014022554947817,0.3193667930966243,-1.0849533125951887,-1.434973311956227
2024-09-23 01:45:09.187037,42.78,7.732183,-0.01481783924724956,0.02237930666051509,1.014022554947817,0.3193667930966243,-1.224984193481505,-1.434973311956227
2024-09-23 01:45:09.218771,42.78,7.732183,-0.01481783924724956,0.02237930666051509,1.014022554947817,0.3193667930966243,-1.224984193481505,-1.3824903330512346
2024-09-23 01:45:09.230900,42.78,7.732233,-0.01164699290384454,0.019086441680196593,1.0131688171448936,0.29747979092085736,-1.224984193481505,-1.3824903330512346
2024-09-23 01:45:09.273827,42.78,7.732284,-0.012866564846913748,0.01926931735815501,1.0131688171448936,0.29747979092085736,-1.203097164625302,-1.4524485706396402
2024-09-23 01:45:09.285845,42.78,7.732284,-0.012866564846913748,0.01926931735815501,1.0117053499523165,0.29747979092085736,-1.203097164625302,-1.4524485706396402
2024-09-23 01:45:09.319104,42.78,7.732284,-0.012866564846913748,0.01926931735815501,1.0117053499523165,0.3280757409696467,-1.2336931146740913,-1.474335492774099
2024-09-23 01:45:09.330673,42.78,7.732335,-0.010854230622146716,0.01890346574977754,1.0117053499523165,0.3280757409696467,-1.2336931146740913,-1.474335492774099
2024-09-23 01:45:09.374218,42.78,7.732386,-0.009939551474972724,0.01890346574977754,1.0117664006628877,0.3411964856958948,-1.2118635021161288,-1.3824903330512346
2024-09-23 01:45:09.416288,42.78,7.732386,-0.009939551474972724,0.021464627513341095,1.0114614387535539,0.3280757409696467,-1.2118635021161288,-1.3824903330512346
2024-09-23 01:45:09.428595,42.78,7.732472,-0.009939551474972724,0.021464627513341095,1.0114614387535539,0.3280757409696467,-1.1418479549512268,-1.461214801408723
2024-09-23 01:45:09.470699,42.78,7.732472,-0.013903160100075569,0.019696228790963704,1.011217527554791,0.3018342781975865,-1.2118635021161288,-1.4437395427253097
2024-09-23 01:45:09.513737,42.78,7.732524,-0.010244444270867941,0.020549948366167105,1.011217527554791,0.3018342781975865,-1.2118635021161288,-1.4437395427253097
2024-09-23 01:45:09.524936,42.78,7.732524,-0.010244444270867941,0.020549948366167105,1.0150592504534395,0.3280757409696467,-1.1943309338562191,-1.4437395427253097
2024-09-23 01:45:09.568537,42.78,7.732524,-0.010244444270867941,0.020549948366167105,1.0150592504534395,0.3280757409696467,-1.1943309338562191,-1.4087318225037306
2024-09-23 01:45:09.611596,42.78,7.732575,-0.010976248499571852,0.020306014382754138,1.0150592504534395,0.3280757409696467,-1.1943309338562191,-1.4087318225037306
2024-09-23 01:45:09.623204,42.78,7.732575,-0.010976248499571852,0.020306014382754138,1.0121322188537785,0.3543172304221429,-1.1287272635858505,-1.4087318225037306
2024-09-23 01:45:09.666499,42.78,7.732625,-0.014634963569291141,0.020001120827370582,1.0120102146471432,0.27994727602181957,-1.1287272635858505,-1.4218526205908506
2024-09-23 01:45:09.709594,42.78,7.732676,-0.014634963569291141,0.020001120827370582,1.0120102146471432,0.27994727602181957,-1.238104991568625,-1.3562488435987383
2024-09-23 01:45:09.720948,42.78,7.732676,-0.013842202047081654,0.019818144896951533,1.0144494238492787,0.27994727602181957,-1.238104991568625,-1.3562488435987383
2024-09-23 01:45:09.754375,42.78,7.732676,-0.013842202047081654,0.019818144896951533,1.0144494238492787,0.2274643237972632,-1.238104991568625,-1.3562488435987383
2024-09-23 01:45:09.765364,42.78,7.732727,-0.01445198763887209,0.018659531766364576,1.0144494238492787,0.2274643237972632,-1.1506142924420535,-1.3430708426568656
2024-09-23 01:45:09.808125,42.78,7.732727,-0.01445198763887209,0.018659531766364576,1.0132298678554648,0.3193667930966243,-1.1287272635858505,-1.3737241022821516
2024-09-23 01:45:09.820907,42.78,7.732814,-0.009512741813601339,0.018659531766364576,1.0132298678554648,0.3193667930966243,-1.1287272635858505,-1.3737241022821516
2024-09-23 01:45:09.853161,42.78,7.732814,-0.009512741813601339,0.02213537267710212,1.015486022140394,0.3193667930966243,-1.1287272635858505,-1.3737241022821516
2024-09-23 01:45:09.864937,42.78,7.732911,-0.009512741813601339,0.02213537267710212,1.015486022140394,0.35872900059493257,-1.0893650827679784,-1.4174980532728136
2024-09-23 01:45:09.907465,42.86,7.732911,-0.01268358815700636,0.019330377182586234,1.0121931723498423,0.4155664400962181,-1.0368247942864894,-1.4174980532728136
2024-09-23 01:45:09.919125,42.86,7.732911,-0.01268358815700636,0.019330377182586234,1.0121931723498423,0.4155664400962181,-1.0368247942864894,-1.3387163820605725
2024-09-23 01:45:09.951059,42.86,7.732963,-0.012012843752733671,0.019330377182586234,1.0121931723498423,0.4155664400962181,-1.0368247942864894,-1.3387163820605725
2024-09-23 01:45:09.962256,42.86,7.732963,-0.012012843752733671,0.02280611632188647,1.0153031616522024,0.3456082558686845,-1.1943309338562191,-1.3387163820605725
2024-09-23 01:45:10.004743,42.86,7.733013,-0.012012843752733671,0.023233027754695164,1.0111565740587272,0.3456082558686845,-1.1943309338562191,-1.3255955839734523
2024-09-23 01:45:10.016442,42.86,7.733013,-0.012012843752733671,0.023233027754695164,1.0111565740587272,0.2668265312955715,-1.1943309338562191,-1.3255955839734523
2024-09-23 01:45:10.048371,42.86,7.733013,-0.012012843752733671,0.023233027754695164,1.0111565740587272,0.2668265312955715,-1.0937195433642715,-1.5224640110827983
2024-09-23 01:45:10.059924,42.86,7.733064,-0.014512945691866003,0.020062078880364497,1.0148762927507406,0.2668265312955715,-1.0937195433642715,-1.5224640110827983
2024-09-23 01:45:10.101991,42.86,7.733115,-0.014512945691866003,0.020062078880364497,1.0148762927507406,0.26247207069927825,-1.0499454856518655,-1.496222521630302
2024-09-23 01:45:10.114521,42.86,7.733115,-0.01408613603049462,0.019086441680196593,1.0148762927507406,0.26247207069927825,-1.0499454856518655,-1.496222521630302
2024-09-23 01:45:10.146555,42.86,7.733115,-0.01408613603049462,0.019086441680196593,1.0147542885441054,0.29306802074806765,-1.0499454856518655,-1.496222521630302
2024-09-23 01:45:10.158078,42.86,7.733166,-0.015122834574070423,0.019086441680196593,1.0147542885441054,0.29306802074806765,-1.1024857741333545,-1.3649578715130686
2024-09-23 01:45:10.242484,42.86,7.733166,-0.015122834574070423,0.02085484192155066,1.0147542885441054,0.29306802074806765,-1.1024857741333545,-1.3649578715130686
2024-09-23 01:45:10.255409,42.86,7.733252,-0.015122834574070423,0.02085484192155066,1.0109736163560281,0.3368419984191656,-1.0980740039605648,-1.434973311956227
2024-09-23 01:45:10.299440,42.86,7.733252,-0.013171458402297304,0.022501222766502915,1.014144559154452,0.3237212803733535,-1.0980740039605648,-1.4524485706396402
2024-09-23 01:45:10.342740,42.86,7.733304,-0.012622630104012445,0.019208359305161096,1.014144559154452,0.3237212803733535,-1.0980740039605648,-1.4524485706396402
2024-09-23 01:45:10.355058,42.86,7.733304,-0.012622630104012445,0.019208359305161096,1.0152421109416312,0.3193667930966243,-1.1024857741333545,-1.4524485706396402
2024-09-23 01:45:10.387572,42.86,7.733304,-0.012622630104012445,0.019208359305161096,1.0152421109416312,0.3193667930966243,-1.1024857741333545,-1.426207081187144
2024-09-23 01:45:10.398743,42.86,7.733355,-0.012744546969488612,0.019879204721382753,1.0104856967439952,0.2537058132497594,-1.1024857741333545,-1.426207081187144
2024-09-23 01:45:10.440848,42.86,7.733405,-0.012744546969488612,0.019879204721382753,1.0104856967439952,0.2537058132497594,-1.15932321363464,-1.518109550486505
2024-09-23 01:45:10.452771,42.86,7.733405,-0.013049540777332799,0.02048899031317319,1.0111565740587272,0.2537058132497594,-1.15932321363464,-1.518109550486505
2024-09-23 01:45:10.495320,42.86,7.733498,-0.014939857124674697,0.020915799974544576,1.0111565740587272,0.3280757409696467,-1.0937195433642715,-1.3649578715130686
2024-09-23 01:45:10.539145,42.86,7.733498,-0.014939857124674697,0.020915799974544576,1.015486022140394,0.3674952580444515,-1.0980740039605648,-1.3649578715130686
2024-09-23 01:45:10.550794,42.86,7.733549,-0.015183792627064338,0.020915799974544576,1.015486022140394,0.3674952580444515,-1.0980740039605648,-1.509343212995678
2024-09-23 01:45:10.583121,42.86,7.733549,-0.015183792627064338,0.02140366946034718,1.015486022140394,0.3674952580444515,-1.0980740039605648,-1.509343212995678
2024-09-23 01:45:10.595276,42.86,7.733643,-0.015183792627064338,0.02140366946034718,1.0148762927507406,0.3280757409696467,-1.1418479549512268,-1.3299501512914895
2024-09-23 01:45:10.637725,42.86,7.733643,-0.013232416455291218,0.02237930666051509,1.011095523348156,0.3368419984191656,-1.1418479549512268,-1.3299501512914895
2024-09-23 01:45:10.649543,42.86,7.733643,-0.013232416455291218,0.02237930666051509,1.011095523348156,0.3368419984191656,-1.203097164625302,-1.4174980532728136
2024-09-23 01:45:10.682754,42.86,7.733694,-0.013537308491698099,0.02237930666051509,1.011095523348156,0.3368419984191656,-1.203097164625302,-1.4174980532728136
2024-09-23 01:45:10.693786,42.86,7.733694,-0.013537308491698099,0.020793883868556746,1.0136566395424191,0.3411964856958948,-1.0980740039605648,-1.4174980532728136
2024-09-23 01:45:10.736308,42.86,7.733745,-0.014025177977500705,0.019940162774376668,1.0114003880429827,0.3411964856958948,-1.0980740039605648,-1.426207081187144
2024-09-23 01:45:10.748157,42.86,7.733745,-0.014025177977500705,0.019940162774376668,1.0114003880429827,0.3062460483703762,-1.0980740039605648,-1.426207081187144
2024-09-23 01:45:10.780966,42.86,7.733795,-0.014025177977500705,0.019940162774376668,1.0114003880429827,0.3062460483703762,-1.0805987452771515,-1.3562488435987383
2024-09-23 01:45:10.792758,42.86,7.733795,-0.013537308491698099,0.019330377182586234,1.0147542885441054,0.3062460483703762,-1.0805987452771515,-1.3562488435987383
2024-09-23 01:45:10.835067,42.86,7.733846,-0.012988480952901577,0.02213537267710212,1.0147542885441054,0.3324875378228724,-1.1068402347296475,-1.3255955839734523
2024-09-23 01:45:10.878352,42.86,7.733846,-0.012988480952901577,0.02213537267710212,1.0157908868352208,0.3193667930966243,-1.0937195433642715,-1.3255955839734523
2024-09-23 01:45:10.890563,42.86,7.733897,-0.013598266544692013,0.02213537267710212,1.0157908868352208,0.3193667930966243,-1.0937195433642715,-1.448094003321603
2024-09-23 01:45:10.933047,42.56,7.733984,-0.013598266544692013,0.019452293288574063,1.0124370835486052,0.28871353347133843,-1.0587118231426924,-1.3956111311383546
2024-09-23 01:45:10.976267,42.56,7.733984,-0.014391029585878175,0.020915799974544576,1.0132298678554648,0.28871353347133843,-1.0587118231426924,-1.3956111311383546
2024-09-23 01:45:10.988781,42.56,7.733984,-0.014391029585878175,0.020915799974544576,1.0132298678554648,0.29747979092085736,-1.1287272635858505,-1.3824903330512346
2024-09-23 01:45:11.021695,42.56,7.734035,-0.014391029585878175,0.020915799974544576,1.0132298678554648,0.29747979092085736,-1.1287272635858505,-1.3824903330512346
2024-09-23 01:45:11.033607,42.56,7.734035,-0.013842202047081654,0.02274515826889256,1.0152421109416312,0.28871353347133843,-1.1943309338562191,-1.3824903330512346
2024-09-23 01:45:11.075598,42.56,7.734086,-0.012012843752733671,0.01939133523558015,1.0152421109416312,0.28871353347133843,-1.1943309338562191,-1.434973311956227
2024-09-23 01:45:11.086623,42.56,7.734086,-0.012012843752733671,0.01939133523558015,1.0104856967439952,0.3411964856958948,-1.1943309338562191,-1.434973311956227
2024-09-23 01:45:11.118900,42.56,7.734086,-0.012012843752733671,0.01939133523558015,1.0104856967439952,0.3411964856958948,-1.15932321363464,-1.434973311956227
2024-09-23 01:45:11.130096,42.56,7.734137,-0.013110498830326714,0.02280611632188647,1.0140835084438808,0.3411964856958948,-1.15932321363464,-1.4087318225037306
2024-09-23 01:45:11.224537,42.56,7.734187,-0.012622630104012445,0.020793883868556746,1.0140835084438808,0.37184974532118065,-1.0630662837389857,-1.461214801408723
2024-09-23 01:45:11.267464,42.56,7.734187,-0.012622630104012445,0.020793883868556746,1.0175593159371317,0.3062460483703762,-1.0630662837389857,-1.461214801408723
2024-09-23 01:45:11.278645,42.56,7.734238,-0.008537002841996126,0.020793883868556746,1.0175593159371317,0.3062460483703762,-1.0543573625463993,-1.3343619214642792
2024-09-23 01:45:11.321184,42.56,7.734238,-0.008537002841996126,0.021159735476934217,1.0134127283436565,0.3411964856958948,-1.1724439050000162,-1.448094003321603
2024-09-23 01:45:11.333374,42.56,7.734325,-0.008537002841996126,0.021159735476934217,1.0134127283436565,0.3411964856958948,-1.1724439050000162,-1.448094003321603
2024-09-23 01:45:11.366574,42.56,7.734325,-0.012805606793919833,0.024452598938276036,1.0121322188537785,0.3411964856958948,-1.1724439050000162,-1.448094003321603
2024-09-23 01:45:11.378438,42.56,7.734325,-0.012805606793919833,0.024452598938276036,1.0121322188537785,0.3411964856958948,-1.1768557818945498,-1.3868447936475277
2024-09-23 01:45:11.420466,42.56,7.734377,-0.01481783924724956,0.01926931735815501,1.0124370835486052,0.3149550229238346,-1.1111946953259408,-1.3868447936475277
2024-09-23 01:45:11.462545,42.56,7.734473,-0.01481783924724956,0.01926931735815501,1.0124370835486052,0.3149550229238346,-1.1111946953259408,-1.3649578715130686
2024-09-23 01:45:11.474646,42.56,7.734473,-0.016098470255261652,0.02067186599113161,1.0162178529511898,0.3193667930966243,-1.1111946953259408,-1.3649578715130686
2024-09-23 01:45:11.518147,42.56,7.734523,-0.010000509527966639,0.020732824044125523,1.0094490984528801,0.3193667930966243,-1.1243154934130608,-1.531230241851881
2024-09-23 01:45:11.561300,42.56,7.734523,-0.010000509527966639,0.020732824044125523,1.0094490984528801,0.3456082558686845,-1.0805987452771515,-1.539996472620964
2024-09-23 01:45:11.572548,42.56,7.734574,-0.014147094083488534,0.018781549643789714,1.0094490984528801,0.3456082558686845,-1.0805987452771515,-1.539996472620964
2024-09-23 01:45:11.615795,42.56,7.734625,-0.014512945691866003,0.018781549643789714,1.01542506864433,0.3411964856958948,-1.1680894444037229,-1.3387163820605725
2024-09-23 01:45:11.659297,42.56,7.734625,-0.014512945691866003,0.02225739055452726,1.0131078636488298,0.27994727602181957,-1.1680894444037229,-1.3387163820605725
2024-09-23 01:45:11.670354,42.56,7.734715,-0.014512945691866003,0.02225739055452726,1.0131078636488298,0.27994727602181957,-1.0193495356030762,-1.3824903330512346
2024-09-23 01:45:11.713238,42.56,7.734715,-0.015122834574070423,0.021159735476934217,1.0116442992417454,0.3543172304221429,-1.0893650827679784,-1.3430708426568656
2024-09-23 01:45:11.756470,42.56,7.734767,-0.012317737308117227,0.021098777423940302,1.0116442992417454,0.3543172304221429,-1.0893650827679784,-1.3430708426568656
2024-09-23 01:45:11.768360,42.56,7.734767,-0.012317737308117227,0.021098777423940302,1.0112784810508548,0.29747979092085736,-1.0849533125951887,-1.3430708426568656
2024-09-23 01:45:11.810792,42.56,7.734818,-0.014208053655459124,0.019696228790963704,1.0136566395424191,0.3499627431454137,-1.0849533125951887,-1.4524485706396402
2024-09-23 01:45:11.853574,42.56,7.734868,-0.014208053655459124,0.019696228790963704,1.0136566395424191,0.3499627431454137,-1.2205724233087152,-1.496222521630302
2024-09-23 01:45:11.866025,42.56,7.734868,-0.013598266544692013,0.017013149402435646,1.015546975636458,0.3499627431454137,-1.2205724233087152,-1.496222521630302
2024-09-23 01:45:11.909192,42.56,7.734919,-0.014147094083488534,0.021830479121718566,1.015546975636458,0.3630834878716618,-1.1506142924420535,-1.3824903330512346
2024-09-23 01:45:11.951410,42.49,7.734919,-0.014147094083488534,0.021830479121718566,1.014144559154452,0.3062460483703762,-1.1506142924420535,-1.3824903330512346
2024-09-23 01:45:11.963231,42.49,7.73497,-0.014025177977500705,0.021830479121718566,1.014144559154452,0.3062460483703762,-1.1506142924420535,-1.4306188513599336
2024-09-23 01:45:12.005781,42.49,7.735056,-0.014025177977500705,0.02237930666051509,1.0134127283436565,0.35872900059493257,-1.1506142924420535,-1.3299501512914895
2024-09-23 01:45:12.048113,42.49,7.735056,-0.011890927646745842,0.022318348607521174,1.0124370835486052,0.35872900059493257,-1.1506142924420535,-1.3299501512914895
2024-09-23 01:45:12.059023,42.49,7.735056,-0.011890927646745842,0.022318348607521174,1.0124370835486052,0.39373674749694765,-1.0893650827679784,-1.3430708426568656
2024-09-23 01:45:12.101930,42.49,7.735108,-0.015061773230662524,0.018842507696783625,1.0145713308414066,0.3674952580444515,-1.1506142924420535,-1.3430708426568656
2024-09-23 01:45:12.144445,42.49,7.735158,-0.015061773230662524,0.018842507696783625,1.0145713308414066,0.3674952580444515,-1.1506142924420535,-1.474335492774099
2024-09-23 01:45:12.155995,42.49,7.735158,-0.017805912443621806,0.017196025080394063,1.0102418827597397,0.3499627431454137,-1.1506142924420535,-1.474335492774099
2024-09-23 01:45:12.198637,42.49,7.735209,-0.013354434332716355,0.020610907938137694,1.0102418827597397,0.3499627431454137,-1.0237041029211134,-1.3999655917346479
2024-09-23 01:45:12.210820,42.49,7.735209,-0.013354434332716355,0.020610907938137694,1.0146933350480416,0.3499627431454137,-1.0237041029211134,-1.3999655917346479
2024-09-23 01:45:12.244022,42.49,7.735209,-0.013354434332716355,0.020610907938137694,1.0146933350480416,0.3411964856958948,-1.1855647030871361,-1.3824903330512346
2024-09-23 01:45:12.255515,42.49,7.73526,-0.012744546969488612,0.020915799974544576,1.0146933350480416,0.3411964856958948,-1.1855647030871361,-1.3824903330512346
2024-09-23 01:45:12.297903,42.49,7.735311,-0.011890927646745842,0.020915799974544576,1.0146322843374704,0.3674952580444515,-1.0237041029211134,-1.4787472629468887
2024-09-23 01:45:12.341307,42.49,7.735311,-0.011890927646745842,0.02048899031317319,1.012742045457939,0.35872900059493257,-1.0237041029211134,-1.4787472629468887
2024-09-23 01:45:12.353795,42.49,7.735397,-0.011890927646745842,0.02048899031317319,1.012742045457939,0.35872900059493257,-1.0718325145080685,-1.3824903330512346
2024-09-23 01:45:12.386422,42.49,7.735397,-0.015000815177668611,0.02048899031317319,1.012742045457939,0.35872900059493257,-1.0718325145080685,-1.3824903330512346
2024-09-23 01:45:12.398289,42.49,7.735397,-0.015000815177668611,0.017196025080394063,1.0121322188537785,0.3237212803733535,-1.1068402347296475,-1.413086283100024
2024-09-23 01:45:12.440155,42.49,7.735449,-0.015000815177668611,0.017196025080394063,1.0121322188537785,0.3237212803733535,-1.1068402347296475,-1.413086283100024
2024-09-23 01:45:12.492574,42.49,7.735449,-0.014574005516297226,0.020001120827370582,1.0165836711420804,0.3543172304221429,-1.1637349838074296,-1.413086283100024
2024-09-23 01:45:12.504790,42.49,7.735449,-0.014574005516297226,0.020001120827370582,1.0165836711420804,0.3543172304221429,-1.1637349838074296,-1.3124748926080763
2024-09-23 01:45:12.537116,42.49,7.7355,-0.010549337066763158,0.02439164088528212,1.0165836711420804,0.3543172304221429,-1.1637349838074296,-1.3124748926080763
2024-09-23 01:45:12.548596,42.49,7.7355,-0.010549337066763158,0.02439164088528212,1.012925003160638,0.3543172304221429,-1.2293386540777982,-1.3124748926080763
2024-09-23 01:45:12.591628,42.49,7.73555,-0.01433007153288426,0.020245056329760223,1.0109126628599643,0.2362305812467821,-1.2293386540777982,-1.3430708426568656
2024-09-23 01:45:12.633463,42.49,7.735601,-0.01433007153288426,0.020245056329760223,1.0109126628599643,0.2362305812467821,-1.1724439050000162,-1.4524485706396402
2024-09-23 01:45:12.645850,42.49,7.735601,-0.014939857124674697,0.020549948366167105,1.012620041251304,0.2362305812467821,-1.1724439050000162,-1.4524485706396402
2024-09-23 01:45:12.678607,42.49,7.735601,-0.014939857124674697,0.020549948366167105,1.012620041251304,0.3849704900474288,-1.1724439050000162,-1.4524485706396402
2024-09-23 01:45:12.690442,42.49,7.735652,-0.01182986782231462,0.02067186599113161,1.012620041251304,0.3849704900474288,-1.1068402347296475,-1.504988752399385
2024-09-23 01:45:12.733821,42.49,7.735741,-0.01182986782231462,0.02067186599113161,1.0099979715609768,0.3018342781975865,-1.1462025222692638,-1.4874562908612192
2024-09-23 01:45:12.745910,42.49,7.735741,-0.011586034850850625,0.02067186599113161,1.0099979715609768,0.3018342781975865,-1.1462025222692638,-1.4874562908612192
2024-09-23 01:45:12.777985,42.49,7.735741,-0.011586034850850625,0.019574312684975875,1.0164616669354454,0.3018342781975865,-1.1462025222692638,-1.4874562908612192
2024-09-23 01:45:12.789728,42.49,7.735836,-0.011586034850850625,0.019574312684975875,1.0164616669354454,0.3630834878716618,-1.1768557818945498,-1.5224640110827983
2024-09-23 01:45:12.832171,42.49,7.735836,-0.013903160100075569,0.019574312684975875,1.0126809947473678,0.37184974532118065,-1.1768557818945498,-1.5224640110827983
2024-09-23 01:45:12.844697,42.49,7.735836,-0.013903160100075569,0.019574312684975875,1.0126809947473678,0.37184974532118065,-1.1287272635858505,-1.448094003321603
2024-09-23 01:45:12.876852,42.49,7.735888,-0.015976452377836518,0.019574312684975875,1.0126809947473678,0.37184974532118065,-1.1287272635858505,-1.448094003321603
2024-09-23 01:45:12.888270,42.49,7.735888,-0.015976452377836518,0.02067186599113161,1.0145713308414066,0.3324875378228724,-1.1156065722204744,-1.448094003321603
2024-09-23 01:45:12.931157,42.49,7.735938,-0.013232416455291218,0.01963527073796979,1.0122541258459061,0.3324875378228724,-1.1156065722204744,-1.4087318225037306
2024-09-23 01:45:12.942492,42.49,7.735938,-0.013232416455291218,0.01963527073796979,1.0122541258459061,0.3456082558686845,-1.1156065722204744,-1.4087318225037306
2024-09-23 01:45:12.974808,42.8,7.735989,-0.013232416455291218,0.01963527073796979,1.0122541258459061,0.3456082558686845,-1.0499454856518655,-1.504988752399385
2024-09-23 01:45:12.986808,42.8,7.735989,-0.015061773230662524,0.019086441680196593,1.014022554947817,0.3456082558686845,-1.0499454856518655,-1.504988752399385
2024-09-23 01:45:13.029232,42.8,7.73604,-0.01341539238571027,0.021830479121718566,1.014022554947817,0.31060053564710544,-1.1549687530383468,-1.5224640110827983
2024-09-23 01:45:13.072842,42.8,7.73604,-0.01341539238571027,0.021830479121718566,1.0120712653577144,0.28871353347133843,-1.1855647030871361,-1.5224640110827983
2024-09-23 01:45:13.084550,42.8,7.736091,-0.009329765883182288,0.021830479121718566,1.0120712653577144,0.28871353347133843,-1.1855647030871361,-1.3737241022821516
2024-09-23 01:45:13.118581,42.8,7.736091,-0.009329765883182288,0.020306014382754138,1.0120712653577144,0.28871353347133843,-1.1855647030871361,-1.3737241022821516
2024-09-23 01:45:13.131384,42.8,7.736177,-0.009329765883182288,0.020306014382754138,1.0148152420401695,0.26247207069927825,-1.1680894444037229,-1.3299501512914895
2024-09-23 01:45:13.174554,42.8,7.736177,-0.011707950956838454,0.01939133523558015,1.012498037044669,0.3456082558686845,-1.1943309338562191,-1.404320052330941
2024-09-23 01:45:13.216643,42.8,7.736229,-0.011707950956838454,0.01939133523558015,1.012498037044669,0.3456082558686845,-1.1943309338562191,-1.404320052330941
2024-09-23 01:45:13.228462,42.8,7.736229,-0.013293374508285133,0.020062078880364497,1.0119492611510794,0.27559278874509036,-1.203097164625302,-1.404320052330941
2024-09-23 01:45:13.271157,42.8,7.73628,-0.012927522899907663,0.019208359305161096,1.011095523348156,0.27559278874509036,-1.203097164625302,-1.3824903330512346
2024-09-23 01:45:13.283121,42.8,7.73628,-0.012927522899907663,0.019208359305161096,1.011095523348156,0.3630834878716618,-1.203097164625302,-1.3824903330512346
2024-09-23 01:45:13.315934,42.8,7.73633,-0.012927522899907663,0.019208359305161096,1.011095523348156,0.3630834878716618,-1.1724439050000162,-1.4437395427253097
2024-09-23 01:45:13.327029,42.8,7.73633,-0.012622630104012445,0.019086441680196593,1.015668979843093,0.3630834878716618,-1.1724439050000162,-1.4437395427253097
2024-09-23 01:45:13.369705,42.8,7.736381,-0.009817635368984895,0.02201345505213762,1.015668979843093,0.3456082558686845,-1.1724439050000162,-1.3911993609655648
2024-09-23 01:45:13.411715,42.8,7.736381,-0.009817635368984895,0.02201345505213762,1.0133517748475924,0.3324875378228724,-1.1724439050000162,-1.3911993609655648
2024-09-23 01:45:13.423489,42.8,7.736432,-0.012378695361111141,0.02201345505213762,1.0133517748475924,0.3324875378228724,-1.1812102424908428,-1.4568603408124299
2024-09-23 01:45:13.465748,42.8,7.736432,-0.012378695361111141,0.016708257366028764,1.0148152420401695,0.35872900059493257,-1.15932321363464,-1.3999655917346479
2024-09-23 01:45:13.478412,42.8,7.736519,-0.012378695361111141,0.016708257366028764,1.0148152420401695,0.35872900059493257,-1.15932321363464,-1.3999655917346479
