Ayaan's Suite
Timestamp,Sample Rate (Hz),Time,Ax,Ay,Az,Gx,Gy,Gz
2024-09-23 05:33:55.407009,0,21.458748,-0.01268358815700636,0.018598572194393984,1.0134127283436565,0.3149550229238346,-1.0849533125951887,-1.404320052330941
2024-09-23 05:33:55.439453,0,21.458748,-0.01268358815700636,0.018598572194393984,1.0114614387535539,0.3149550229238346,-1.0849533125951887,-1.404320052330941
2024-09-23 05:33:55.450835,0,21.458798,-0.011037206552565765,0.018598572194393984,1.0114614387535539,0.29747979092085736,-1.1812102424908428,-1.3474826128296553
2024-09-23 05:33:55.492439,0,21.458798,-0.011037206552565765,0.01798878660260355,1.0152421109416312,0.29747979092085736,-1.1812102424908428,-1.3474826128296553
2024-09-23 05:33:55.503480,0,21.458891,-0.011037206552565765,0.01798878660260355,1.0152421109416312,0.29747979092085736,-1.0805987452771515,-1.3693696416858583
2024-09-23 05:33:55.545330,0,21.458891,-0.012622630104012445,0.019025483627202678,1.0116442992417454,0.3499627431454137,-1.1287272635858505,-1.3956111311383546
2024-09-23 05:33:55.588372,0,21.458943,-0.012500713238536278,0.019025483627202678,1.0116442992417454,0.3499627431454137,-1.1287272635858505,-1.3956111311383546
2024-09-23 05:33:55.599845,0,21.458943,-0.012500713238536278,0.02439164088528212,1.0147542885441054,0.31060053564710544,-1.15932321363464,-1.3956111311383546
2024-09-23 05:33:55.641668,0,21.458993,-0.014634963569291141,0.017927828549609635,1.0157299333391567,0.31060053564710544,-1.15932321363464,-1.4524485706396402
2024-09-23 05:33:55.653305,0,21.458993,-0.014634963569291141,0.017927828549609635,1.0157299333391567,0.27994727602181957,-1.15932321363464,-1.4524485706396402
2024-09-23 05:33:55.685749,0,21.458993,-0.014634963569291141,0.017927828549609635,1.0157299333391567,0.27994727602181957,-1.224984193481505,-1.3080631224352866
2024-09-23 05:33:55.697089,0,21.459044,-0.01408613603049462,0.020306014382754138,1.013778546534547,0.27994727602181957,-1.224984193481505,-1.3080631224352866
2024-09-23 05:33:55.738926,0,21.459095,-0.012988480952901577,0.020306014382754138,1.013778546534547,0.3543172304221429,-1.1374934943549335,-1.43932777255252
2024-09-23 05:33:55.750534,0,21.459095,-0.012988480952901577,0.02122069352992813,1.013778546534547,0.3543172304221429,-1.1374934943549335,-1.43932777255252
2024-09-23 05:33:55.782878,0,21.459095,-0.012988480952901577,0.02122069352992813,1.0139616014517532,0.3018342781975865,-1.1374934943549335,-1.43932777255252
2024-09-23 05:33:55.794646,0,21.459145,-0.013232416455291218,0.02122069352992813,1.0139616014517532,0.3018342781975865,-1.1637349838074296,-1.413086283100024
2024-09-23 05:33:55.837306,0,21.459145,-0.013232416455291218,0.019452293288574063,1.0130469101527657,0.3237212803733535,-1.1068402347296475,-1.461214801408723
2024-09-23 05:33:55.849064,0,21.459232,-0.013232416455291218,0.019452293288574063,1.0130469101527657,0.3237212803733535,-1.1068402347296475,-1.461214801408723
2024-09-23 05:33:55.880867,0,21.459232,-0.013720285941093825,0.02225739055452726,1.0130469101527657,0.3237212803733535,-1.1068402347296475,-1.461214801408723
2024-09-23 05:33:55.891961,0,21.459232,-0.013720285941093825,0.02225739055452726,1.012620041251304,0.3411964856958948,-1.0499454856518655,-1.4087318225037306
2024-09-23 05:33:55.934988,0,21.459284,-0.013903160100075569,0.01939133523558015,1.0124370835486052,0.37184974532118065,-1.0499454856518655,-1.4087318225037306
2024-09-23 05:33:55.946619,0,21.459284,-0.013903160100075569,0.01939133523558015,1.0124370835486052,0.37184974532118065,-1.2205724233087152,-1.4087318225037306
2024-09-23 05:33:55.978203,0,21.459334,-0.013903160100075569,0.01939133523558015,1.0124370835486052,0.37184974532118065,-1.2205724233087152,-1.461214801408723
2024-09-23 05:33:55.989344,0,21.459334,-0.013354434332716355,0.02134260963591596,1.0121931723498423,0.40244569536997005,-1.2205724233087152,-1.461214801408723
2024-09-23 05:33:56.031423,0,21.459385,-0.012805606793919833,0.02134260963591596,1.0121931723498423,0.40244569536997005,-1.014995075006783,-1.3037086618389935
2024-09-23 05:33:56.044156,0,21.459385,-0.012805606793919833,0.019879204721382753,1.0158518403312846,0.40244569536997005,-1.014995075006783,-1.3037086618389935
2024-09-23 05:33:56.078825,0,21.459385,-0.012805606793919833,0.019879204721382753,1.0158518403312846,0.3062460483703762,-1.1156065722204744,-1.3824903330512346
2024-09-23 05:33:56.090589,0,21.459436,-0.01182986782231462,0.019330377182586234,1.0158518403312846,0.3062460483703762,-1.1156065722204744,-1.3824903330512346
2024-09-23 05:33:56.122325,0,21.459436,-0.01182986782231462,0.019330377182586234,1.0109736163560281,0.3062460483703762,-1.1156065722204744,-1.3824903330512346
2024-09-23 05:33:56.133748,0,21.459487,-0.013476350438704184,0.019330377182586234,1.0109736163560281,0.3237212803733535,-1.0762442846808582,-1.404320052330941
2024-09-23 05:33:56.177600,0,21.459487,-0.013476350438704184,0.019208359305161096,1.0134127283436565,0.29306802074806765,-1.1855647030871361,-1.469981032177806
2024-09-23 05:33:56.189139,0,21.459573,-0.013476350438704184,0.019208359305161096,1.0134127283436565,0.29306802074806765,-1.1855647030871361,-1.469981032177806
2024-09-23 05:33:56.220885,0,21.459573,-0.015122834574070423,0.019208359305161096,1.0134127283436565,0.29306802074806765,-1.1855647030871361,-1.469981032177806
2024-09-23 05:33:56.232308,0,21.459573,-0.015122834574070423,0.020001120827370582,1.012742045457939,0.2668265312955715,-1.1462025222692638,-1.3299501512914895
2024-09-23 05:33:56.273990,0,21.459625,-0.013537308491698099,0.021708563015730736,1.012742045457939,0.2668265312955715,-1.1462025222692638,-1.3299501512914895
2024-09-23 05:33:56.285641,0,21.459625,-0.013537308491698099,0.021708563015730736,1.0145103773453428,0.3456082558686845,-1.216217962712422,-1.3299501512914895
2024-09-23 05:33:56.319625,0,21.459625,-0.013537308491698099,0.021708563015730736,1.0145103773453428,0.3456082558686845,-1.216217962712422,-1.413086283100024
2024-09-23 05:33:56.330959,0,21.459676,-0.013537308491698099,0.018171764051999276,1.012620041251304,0.3368419984191656,-1.216217962712422,-1.413086283100024
2024-09-23 05:33:56.373168,0,21.459727,-0.01536666678604608,0.021037716080532405,1.012620041251304,0.3368419984191656,-0.993108152872324,-1.461214801408723
2024-09-23 05:33:56.384929,0,21.459727,-0.01536666678604608,0.021037716080532405,1.0120102146471432,0.3368419984191656,-0.993108152872324,-1.461214801408723
2024-09-23 05:33:56.418189,48.91,21.459727,-0.01536666678604608,0.021037716080532405,1.0120102146471432,0.27559278874509036,-1.1768557818945498,-1.426207081187144
2024-09-23 05:33:56.429936,48.91,21.459777,-0.01536666678604608,0.021037716080532405,1.0120102146471432,0.27559278874509036,-1.1768557818945498,-1.426207081187144
2024-09-23 05:33:56.473020,48.91,21.459777,-0.015671560341429636,0.01926931735815501,1.012620041251304,0.27994727602181957,-1.1418479549512268,-1.461214801408723
2024-09-23 05:33:56.516031,48.91,21.459828,-0.012073802565215924,0.022928134199311608,1.012620041251304,0.27994727602181957,-1.1418479549512268,-1.461214801408723
2024-09-23 05:33:56.527937,48.91,21.459828,-0.012073802565215924,0.022928134199311608,1.009815013858278,0.3193667930966243,-1.1068402347296475,-1.461214801408723
2024-09-23 05:33:56.571235,48.91,21.459915,-0.011037206552565765,0.01914740125216718,1.01542506864433,0.2581175834225491,-1.1068402347296475,-1.3999655917346479
2024-09-23 05:33:56.613159,48.91,21.459966,-0.011037206552565765,0.01914740125216718,1.01542506864433,0.2581175834225491,-1.1111946953259408,-1.448094003321603
2024-09-23 05:33:56.624211,48.91,21.459966,-0.01341539238571027,0.01835463821098102,1.0090832802619896,0.2581175834225491,-1.1111946953259408,-1.448094003321603
2024-09-23 05:33:56.667420,48.91,21.460017,-0.013598266544692013,0.02262324216290473,1.0090832802619896,0.3499627431454137,-1.15932321363464,-1.4437395427253097
2024-09-23 05:33:56.710673,48.91,21.460017,-0.013598266544692013,0.02262324216290473,1.0151202039495033,0.3280757409696467,-1.15932321363464,-1.4437395427253097
2024-09-23 05:33:56.722323,48.91,21.460068,-0.012134760618209839,0.02262324216290473,1.0151202039495033,0.3280757409696467,-1.1637349838074296,-1.2862334031555802
2024-09-23 05:33:56.765160,48.91,21.460158,-0.012134760618209839,0.017744852619190586,1.0116442992417454,0.27559278874509036,-1.1287272635858505,-1.3824903330512346
2024-09-23 05:33:56.808405,48.91,21.460158,-0.010122528164880112,0.018415698035412244,1.0116442992417454,0.27559278874509036,-1.1287272635858505,-1.3824903330512346
2024-09-23 05:33:56.820269,48.91,21.460158,-0.010122528164880112,0.018415698035412244,1.0121931723498423,0.3499627431454137,-1.1243154934130608,-1.3649578715130686
2024-09-23 05:33:56.862810,48.91,21.46021,-0.014208053655459124,0.018415698035412244,1.0115223922496177,0.39373674749694765,-1.1680894444037229,-1.3649578715130686
2024-09-23 05:33:56.906277,48.91,21.460261,-0.015671560341429636,0.018415698035412244,1.0115223922496177,0.39373674749694765,-1.1680894444037229,-1.4655692620050162
2024-09-23 05:33:56.917844,48.91,21.460261,-0.015671560341429636,0.021830479121718566,1.0126809947473678,0.38932495064372197,-1.1680894444037229,-1.4655692620050162
2024-09-23 05:33:56.961226,48.91,21.460312,-0.01219582044264106,0.02152558556633501,1.015668979843093,0.38932495064372197,-1.2774671723864972,-1.43932777255252
2024-09-23 05:33:57.003175,48.91,21.460312,-0.01219582044264106,0.02152558556633501,1.015668979843093,0.3630834878716618,-1.1330817241821438,-1.43932777255252
2024-09-23 05:33:57.014633,48.91,21.460362,-0.014695923141261731,0.019025483627202678,1.015668979843093,0.3630834878716618,-1.1330817241821438,-1.3999655917346479
2024-09-23 05:33:57.057993,48.91,21.460413,-0.015976452377836518,0.019025483627202678,1.0146933350480416,0.2843590461946093,-1.0718325145080685,-1.3824903330512346
2024-09-23 05:33:57.100642,48.91,21.460413,-0.015976452377836518,0.02274515826889256,1.012742045457939,0.2843590461946093,-1.0718325145080685,-1.3824903330512346
2024-09-23 05:33:57.112253,48.91,21.460413,-0.015976452377836518,0.02274515826889256,1.012742045457939,0.3630834878716618,-1.1243154934130608,-1.4437395427253097
2024-09-23 05:33:57.155350,48.91,21.4605,-0.012622630104012445,0.01768389456619667,1.0116442992417454,0.3499627431454137,-1.1768557818945498,-1.4437395427253097
2024-09-23 05:33:57.197945,48.91,21.460551,-0.015061773230662524,0.01768389456619667,1.0116442992417454,0.3499627431454137,-1.1768557818945498,-1.4218526205908506
2024-09-23 05:33:57.209205,48.91,21.460551,-0.015061773230662524,0.017927828549609635,1.015608026347029,0.3499627431454137,-1.1768557818945498,-1.4218526205908506
2024-09-23 05:33:57.251305,48.91,21.460602,-0.015305708733052167,0.018964423802771455,1.015608026347029,0.3499627431454137,-1.0499454856518655,-1.3299501512914895
2024-09-23 05:33:57.262924,48.91,21.460602,-0.015305708733052167,0.018964423802771455,1.0104247432479314,0.3499627431454137,-1.0499454856518655,-1.3299501512914895
2024-09-23 05:33:57.294849,48.91,21.460602,-0.015305708733052167,0.018964423802771455,1.0104247432479314,0.3280757409696467,-1.207451731943339,-1.3299501512914895
2024-09-23 05:33:57.306057,48.91,21.460653,-0.015183792627064338,0.022867176146317694,1.0104247432479314,0.3280757409696467,-1.207451731943339,-1.4787472629468887
2024-09-23 05:33:57.348139,48.91,21.460704,-0.015183792627064338,0.022867176146317694,1.012498037044669,0.27994727602181957,-1.1330817241821438,-1.504988752399385
2024-09-23 05:33:57.359955,48.91,21.460704,-0.015915494324842603,0.022867176146317694,1.012498037044669,0.27994727602181957,-1.1330817241821438,-1.504988752399385
2024-09-23 05:33:57.391923,48.91,21.460704,-0.015915494324842603,0.018598572194393984,1.0112784810508548,0.27994727602181957,-1.1330817241821438,-1.504988752399385
2024-09-23 05:33:57.403308,48.91,21.460792,-0.015915494324842603,0.018598572194393984,1.0112784810508548,0.27559278874509036,-1.1724439050000162,-1.3649578715130686
2024-09-23 05:33:57.446667,44.87,21.460792,-0.013903160100075569,0.01786687049661572,1.0132908213515286,0.28871353347133843,-1.216217962712422,-1.4218526205908506
2024-09-23 05:33:57.489188,44.87,21.460844,-0.010488379013769245,0.01786687049661572,1.0132908213515286,0.28871353347133843,-1.216217962712422,-1.4218526205908506
2024-09-23 05:33:57.500891,44.87,21.460844,-0.010488379013769245,0.02122069352992813,1.0104856967439952,0.28871353347133843,-1.0849533125951887,-1.4218526205908506
2024-09-23 05:33:57.544511,44.87,21.460895,-0.011098165365048018,0.021464627513341095,1.0117053499523165,0.39373674749694765,-1.0849533125951887,-1.3956111311383546
2024-09-23 05:33:57.586731,44.87,21.460895,-0.011098165365048018,0.021464627513341095,1.0117053499523165,0.39373674749694765,-1.2205724233087152,-1.4787472629468887
2024-09-23 05:33:57.598264,44.87,21.460945,-0.016037512202267738,0.021281651582922046,1.0117664006628877,0.39373674749694765,-1.2205724233087152,-1.4787472629468887
2024-09-23 05:33:57.640868,44.87,21.460996,-0.011707950956838454,0.021281651582922046,1.0117664006628877,0.3674952580444515,-1.2336931146740913,-1.3956111311383546
2024-09-23 05:33:57.652902,44.87,21.460996,-0.011707950956838454,0.019513251341567978,1.0117664006628877,0.3674952580444515,-1.2336931146740913,-1.3956111311383546
2024-09-23 05:33:57.686347,44.87,21.460996,-0.011707950956838454,0.019513251341567978,1.0148152420401695,0.29747979092085736,-1.0849533125951887,-1.3956111311383546
2024-09-23 05:33:57.697760,44.87,21.461047,-0.01365932788809991,0.019513251341567978,1.0148152420401695,0.29747979092085736,-1.0849533125951887,-1.3956111311383546
2024-09-23 05:33:57.740491,44.87,21.461134,-0.01365932788809991,0.01798878660260355,1.0122541258459061,0.40244569536997005,-1.1418479549512268,-1.4087318225037306
2024-09-23 05:33:57.783936,44.87,21.461134,-0.01622038788022616,0.020366972435748053,1.0117664006628877,0.40244569536997005,-1.1418479549512268,-1.4087318225037306
2024-09-23 05:33:57.795686,44.87,21.461134,-0.01622038788022616,0.020366972435748053,1.0117664006628877,0.31060053564710544,-1.2293386540777982,-1.404320052330941
2024-09-23 05:33:57.830176,44.87,21.461185,-0.01622038788022616,0.020366972435748053,1.0117664006628877,0.31060053564710544,-1.2293386540777982,-1.404320052330941
2024-09-23 05:33:57.841977,44.87,21.461185,-0.013049540777332799,0.019940162774376668,1.0145103773453428,0.3062460483703762,-1.1768557818945498,-1.404320052330941
2024-09-23 05:33:57.884367,44.87,21.461236,-0.01622038788022616,0.021159735476934217,1.014205512650516,0.3062460483703762,-1.1768557818945498,-1.3911993609655648
2024-09-23 05:33:57.896469,44.87,21.461236,-0.01622038788022616,0.021159735476934217,1.014205512650516,0.2843590461946093,-1.1768557818945498,-1.3911993609655648
2024-09-23 05:33:57.928184,44.87,21.461236,-0.01622038788022616,0.021159735476934217,1.014205512650516,0.2843590461946093,-1.0105833048339934,-1.4306188513599336
2024-09-23 05:33:57.939065,44.87,21.461287,-0.015671560341429636,0.019452293288574063,1.0132908213515286,0.2843590461946093,-1.0105833048339934,-1.4306188513599336
2024-09-23 05:33:57.981787,44.87,21.461337,-0.015671560341429636,0.019452293288574063,1.0132908213515286,0.3062460483703762,-1.0412365644592791,-1.3562488435987383
2024-09-23 05:33:57.993396,44.87,21.461337,-0.012622630104012445,0.020062078880364497,1.0132908213515286,0.3062460483703762,-1.0412365644592791,-1.3562488435987383
2024-09-23 05:33:58.025980,44.87,21.461337,-0.012622630104012445,0.020062078880364497,1.012925003160638,0.29306802074806765,-1.0412365644592791,-1.3562488435987383
2024-09-23 05:33:58.037107,44.87,21.461388,-0.01481783924724956,0.020062078880364497,1.012925003160638,0.29306802074806765,-1.2424594521649182,-1.3212411233771593
2024-09-23 05:33:58.078864,44.87,21.461388,-0.01481783924724956,0.017257084904825287,1.012925003160638,0.31060053564710544,-1.1899764732599258,-1.2862334031555802
2024-09-23 05:33:58.090770,44.87,21.461475,-0.01481783924724956,0.017257084904825287,1.012925003160638,0.31060053564710544,-1.1899764732599258,-1.2862334031555802
2024-09-23 05:33:58.123142,44.87,21.461475,-0.013049540777332799,0.021098777423940302,1.012925003160638,0.31060053564710544,-1.1899764732599258,-1.2862334031555802
2024-09-23 05:33:58.135566,44.87,21.461475,-0.013049540777332799,0.021098777423940302,1.0121322188537785,0.38061600277069957,-1.2118635021161288,-1.3693696416858583
2024-09-23 05:33:58.177976,44.87,21.461527,-0.016342405757651293,0.02365983741606655,1.018413053740055,0.3456082558686845,-1.1243154934130608,-1.3693696416858583
2024-09-23 05:33:58.220380,44.87,21.461577,-0.016342405757651293,0.02365983741606655,1.018413053740055,0.3456082558686845,-1.1243154934130608,-1.3606034109167755
2024-09-23 05:33:58.231912,44.87,21.461577,-0.01445198763887209,0.019513251341567978,1.0117664006628877,0.3237212803733535,-1.1243154934130608,-1.3606034109167755
2024-09-23 05:33:58.275617,44.87,21.461628,-0.01433007153288426,0.019452293288574063,1.015668979843093,0.3237212803733535,-1.1899764732599258,-1.3168293532043696
2024-09-23 05:33:58.317872,44.87,21.461628,-0.01433007153288426,0.019452293288574063,1.015668979843093,0.3237212803733535,-1.0849533125951887,-1.3168293532043696
2024-09-23 05:33:58.329272,44.87,21.461679,-0.012500713238536278,0.019330377182586234,1.015668979843093,0.3237212803733535,-1.0849533125951887,-1.3606034109167755
2024-09-23 05:33:58.422962,44.87,21.46173,-0.014025177977500705,0.019330377182586234,1.0090832802619896,0.37184974532118065,-1.1462025222692638,-1.3343619214642792
2024-09-23 05:33:58.466618,43.64,21.46173,-0.014025177977500705,0.020427930488741967,1.0114614387535539,0.3368419984191656,-1.1462025222692638,-1.3343619214642792
2024-09-23 05:33:58.478016,43.64,21.461816,-0.014025177977500705,0.020427930488741967,1.0114614387535539,0.3368419984191656,-1.1111946953259408,-1.3387163820605725
2024-09-23 05:33:58.520171,43.64,21.461816,-0.014695923141261731,0.02134260963591596,1.0105467474545664,0.3674952580444515,-1.0937195433642715,-1.4087318225037306
2024-09-23 05:33:58.561824,43.64,21.461868,-0.011342100107949322,0.02134260963591596,1.0105467474545664,0.3674952580444515,-1.0937195433642715,-1.4087318225037306
2024-09-23 05:33:58.573623,43.64,21.461868,-0.011342100107949322,0.018476656088406155,1.0151202039495033,0.3849704900474288,-1.1724439050000162,-1.4087318225037306
2024-09-23 05:33:58.616227,43.64,21.461919,-0.015793578218854774,0.02018409827676631,1.0149372462468045,0.3849704900474288,-1.1724439050000162,-1.4306188513599336
2024-09-23 05:33:58.628270,43.64,21.461919,-0.015793578218854774,0.02018409827676631,1.0149372462468045,0.29306802074806765,-1.1724439050000162,-1.4306188513599336
2024-09-23 05:33:58.659656,43.64,21.461919,-0.015793578218854774,0.02018409827676631,1.0149372462468045,0.29306802074806765,-1.1156065722204744,-1.491868061034009
2024-09-23 05:33:58.670722,43.64,21.462013,-0.012317737308117227,0.018171764051999276,1.011217527554791,0.29306802074806765,-1.1156065722204744,-1.491868061034009
2024-09-23 05:33:58.715031,43.64,21.462064,-0.016159429827232244,0.020062078880364497,1.011217527554791,0.3062460483703762,-1.1724439050000162,-1.4218526205908506
2024-09-23 05:33:58.757822,43.64,21.462064,-0.016159429827232244,0.020062078880364497,1.0122541258459061,0.28871353347133843,-1.1855647030871361,-1.4218526205908506
2024-09-23 05:33:58.769185,43.64,21.462114,-0.015427726610477303,0.020062078880364497,1.0122541258459061,0.28871353347133843,-1.1855647030871361,-1.404320052330941
2024-09-23 05:33:58.811846,43.64,21.462114,-0.015427726610477303,0.016525279916633037,1.0167666288447792,0.3149550229238346,-0.8968511162549258,-1.4218526205908506
2024-09-23 05:33:58.823599,43.64,21.462206,-0.015427726610477303,0.016525279916633037,1.0167666288447792,0.3149550229238346,-0.8968511162549258,-1.4218526205908506
2024-09-23 05:33:58.856466,43.64,21.462206,-0.014391029585878175,0.017074107455429557,1.0167666288447792,0.3149550229238346,-0.8968511162549258,-1.4218526205908506
2024-09-23 05:33:58.868437,43.64,21.462206,-0.014391029585878175,0.017074107455429557,1.0152421109416312,0.26247207069927825,-1.1287272635858505,-1.426207081187144
2024-09-23 05:33:58.911424,43.64,21.462258,-0.01341539238571027,0.019818144896951533,1.0124370835486052,0.2668265312955715,-1.0762442846808582,-1.426207081187144
2024-09-23 05:33:58.952981,43.64,21.462308,-0.01408613603049462,0.019818144896951533,1.0124370835486052,0.2668265312955715,-1.0762442846808582,-1.3037086618389935
2024-09-23 05:33:58.964959,43.64,21.462308,-0.01408613603049462,0.020915799974544576,1.0124370835486052,0.2668265312955715,-1.0762442846808582,-1.3037086618389935
2024-09-23 05:33:59.007833,43.64,21.462359,-0.01365932788809991,0.020915799974544576,1.0148762927507406,0.37184974532118065,-1.0849533125951887,-1.4087318225037306
2024-09-23 05:33:59.050951,43.64,21.462359,-0.01365932788809991,0.023598879363072634,1.0092051872541172,0.3237212803733535,-1.0849533125951887,-1.4087318225037306
2024-09-23 05:33:59.062731,43.64,21.462359,-0.01365932788809991,0.023598879363072634,1.0092051872541172,0.3237212803733535,-1.1199610328167677,-1.4087318225037306
2024-09-23 05:33:59.106106,43.64,21.46241,-0.013049540777332799,0.017744852619190586,1.0153031616522024,0.3018342781975865,-1.1199610328167677,-1.426207081187144
2024-09-23 05:33:59.148496,43.64,21.462461,-0.013049540777332799,0.017744852619190586,1.0153031616522024,0.3018342781975865,-1.1812102424908428,-1.4306188513599336
2024-09-23 05:33:59.160255,43.64,21.462461,-0.010183486217874026,0.019940162774376668,1.0176202694331955,0.3018342781975865,-1.1812102424908428,-1.4306188513599336
2024-09-23 05:33:59.202777,43.64,21.462548,-0.013232416455291218,0.022989092252305523,1.0176202694331955,0.31060053564710544,-1.1068402347296475,-1.3562488435987383
2024-09-23 05:33:59.246166,43.64,21.462548,-0.013232416455291218,0.022989092252305523,1.0136566395424191,0.3149550229238346,-1.1287272635858505,-1.3562488435987383
2024-09-23 05:33:59.257812,43.64,21.462599,-0.011890927646745842,0.022989092252305523,1.0136566395424191,0.3149550229238346,-1.1287272635858505,-1.3124748926080763
2024-09-23 05:33:59.300490,43.64,21.46265,-0.011890927646745842,0.02280611632188647,1.0132908213515286,0.3018342781975865,-1.1637349838074296,-1.3255955839734523
2024-09-23 05:33:59.343249,43.64,21.46265,-0.014574005516297226,0.018598572194393984,1.014022554947817,0.3018342781975865,-1.1637349838074296,-1.3255955839734523
2024-09-23 05:33:59.354904,43.64,21.46265,-0.014574005516297226,0.018598572194393984,1.014022554947817,0.3324875378228724,-1.1199610328167677,-1.413086283100024
2024-09-23 05:33:59.397691,43.64,21.462743,-0.01481783924724956,0.02067186599113161,1.0138396944596255,0.3368419984191656,-1.1374934943549335,-1.413086283100024
2024-09-23 05:33:59.440420,43.64,21.462794,-0.01481783924724956,0.02067186599113161,1.0138396944596255,0.3368419984191656,-1.1374934943549335,-1.553117270708084
2024-09-23 05:33:59.451667,43.64,21.462794,-0.013720285941093825,0.02067186599113161,1.0143274196426437,0.3280757409696467,-1.1374934943549335,-1.553117270708084
2024-09-23 05:33:59.495425,42.94,21.462845,-0.016159429827232244,0.01890346574977754,1.0134736818397203,0.3280757409696467,-1.0630662837389857,-1.4218526205908506
2024-09-23 05:33:59.540813,42.94,21.462896,-0.01536666678604608,0.01890346574977754,1.0134736818397203,0.35872900059493257,-1.1943309338562191,-1.3780785628784449
2024-09-23 05:33:59.552509,42.94,21.462896,-0.01536666678604608,0.017257084904825287,1.0134736818397203,0.35872900059493257,-1.1943309338562191,-1.3780785628784449
2024-09-23 05:33:59.586099,42.94,21.462896,-0.01536666678604608,0.017257084904825287,1.00969310686615,0.29747979092085736,-1.1943309338562191,-1.3780785628784449
2024-09-23 05:33:59.597342,42.94,21.462947,-0.014634963569291141,0.017257084904825287,1.00969310686615,0.29747979092085736,-1.0980740039605648,-1.43932777255252
2024-09-23 05:33:59.639865,42.94,21.462947,-0.014634963569291141,0.020793883868556746,1.0132298678554648,0.3062460483703762,-1.0980740039605648,-1.43932777255252
2024-09-23 05:33:59.683265,42.94,21.462947,-0.014634963569291141,0.020793883868556746,1.0132298678554648,0.3062460483703762,-1.0630662837389857,-1.483101830264926
2024-09-23 05:33:59.695574,42.94,21.463035,-0.014025177977500705,0.01914740125216718,1.0176202694331955,0.3062460483703762,-1.0630662837389857,-1.483101830264926
2024-09-23 05:33:59.738727,42.94,21.463035,-0.014025177977500705,0.01914740125216718,1.0176202694331955,0.2537058132497594,-1.0587118231426924,-1.483101830264926
2024-09-23 05:33:59.781014,42.94,21.463087,-0.014025177977500705,0.01914740125216718,1.0176202694331955,0.2537058132497594,-1.0587118231426924,-1.404320052330941
2024-09-23 05:33:59.792140,42.94,21.463087,-0.011159123418041933,0.018171764051999276,1.0157299333391567,0.3149550229238346,-1.0587118231426924,-1.404320052330941
2024-09-23 05:33:59.835230,42.94,21.463138,-0.01164699290384454,0.018964423802771455,1.0157299333391567,0.3149550229238346,-1.1462025222692638,-1.504988752399385
2024-09-23 05:33:59.847014,42.94,21.463138,-0.01164699290384454,0.018964423802771455,1.01426646614658,0.3149550229238346,-1.1462025222692638,-1.504988752399385
2024-09-23 05:33:59.878975,42.94,21.463138,-0.01164699290384454,0.018964423802771455,1.01426646614658,0.2362305812467821,-1.1506142924420535,-1.504988752399385
2024-09-23 05:33:59.890241,42.94,21.463188,-0.015183792627064338,0.021159735476934217,1.01426646614658,0.2362305812467821,-1.1506142924420535,-1.474335492774099
2024-09-23 05:33:59.932886,42.94,21.463279,-0.014147094083488534,0.021159735476934217,1.0096319589410718,0.3499627431454137,-1.1899764732599258,-1.3255955839734523
2024-09-23 05:33:59.975482,42.94,21.463279,-0.014147094083488534,0.020915799974544576,1.0130469101527657,0.3499627431454137,-1.1899764732599258,-1.3255955839734523
2024-09-23 05:33:59.986746,42.94,21.46333,-0.014147094083488534,0.020915799974544576,1.0130469101527657,0.26247207069927825,-1.2205724233087152,-1.3562488435987383
2024-09-23 05:34:00.028848,42.94,21.46333,-0.01408613603049462,0.01939133523558015,1.014022554947817,0.3280757409696467,-1.259991913703084,-1.3562488435987383
2024-09-23 05:34:00.040635,42.94,21.46333,-0.01408613603049462,0.01939133523558015,1.014022554947817,0.3280757409696467,-1.259991913703084,-1.3911993609655648
2024-09-23 05:34:00.073019,42.94,21.463425,-0.013293374508285133,0.01939133523558015,1.014022554947817,0.3280757409696467,-1.259991913703084,-1.3911993609655648
2024-09-23 05:34:00.084424,42.94,21.463425,-0.013293374508285133,0.016159429827232244,1.01231507934197,0.3324875378228724,-1.1768557818945498,-1.3911993609655648
2024-09-23 05:34:00.126984,42.94,21.463477,-0.013598266544692013,0.018781549643789714,1.011217527554791,0.3324875378228724,-1.1768557818945498,-1.426207081187144
2024-09-23 05:34:00.138899,42.94,21.463477,-0.013598266544692013,0.018781549643789714,1.011217527554791,0.28871353347133843,-1.1768557818945498,-1.426207081187144
2024-09-23 05:34:00.170898,42.94,21.463477,-0.013598266544692013,0.018781549643789714,1.011217527554791,0.28871353347133843,-1.1987427040290088,-1.3518370734259486
2024-09-23 05:34:00.183055,42.94,21.463527,-0.012073802565215924,0.019330377182586234,1.0101198785531047,0.28871353347133843,-1.1987427040290088,-1.3518370734259486
2024-09-23 05:34:00.226735,42.94,21.463578,-0.015915494324842603,0.02097675802753849,1.0101198785531047,0.2581175834225491,-1.1855647030871361,-1.3474826128296553
2024-09-23 05:34:00.269850,42.94,21.463578,-0.015915494324842603,0.02097675802753849,1.017254451242305,0.3411964856958948,-1.1855647030871361,-1.3474826128296553
2024-09-23 05:34:00.280943,42.94,21.463629,-0.013720285941093825,0.02097675802753849,1.017254451242305,0.3411964856958948,-1.0893650827679784,-1.3999655917346479
2024-09-23 05:34:00.323983,42.94,21.463718,-0.013720285941093825,0.020610907938137694,1.0146933350480416,0.27123832814879717,-1.15932321363464,-1.5005769822265953
2024-09-23 05:34:00.367256,42.94,21.463718,-0.013354434332716355,0.020062078880364497,1.0114614387535539,0.27123832814879717,-1.15932321363464,-1.5005769822265953
2024-09-23 05:34:00.378849,42.94,21.463718,-0.013354434332716355,0.020062078880364497,1.0114614387535539,0.2843590461946093,-1.1724439050000162,-1.404320052330941
2024-09-23 05:34:00.421657,42.94,21.463769,-0.01378124399408774,0.02140366946034718,1.0131078636488298,0.29747979092085736,-1.1374934943549335,-1.404320052330941
2024-09-23 05:34:00.464838,42.94,21.46382,-0.01408613603049462,0.02140366946034718,1.0131078636488298,0.29747979092085736,-1.1374934943549335,-1.4087318225037306
2024-09-23 05:34:00.476561,42.94,21.46382,-0.01408613603049462,0.022928134199311608,1.01426646614658,0.3368419984191656,-1.1374934943549335,-1.4087318225037306
2024-09-23 05:34:00.519208,42.75,21.46387,-0.012012843752733671,0.019452293288574063,1.0100589250570406,0.3368419984191656,-1.1855647030871361,-1.4524485706396402
2024-09-23 05:34:00.562319,42.75,21.46387,-0.012012843752733671,0.019452293288574063,1.0100589250570406,0.41121195281948897,-1.1943309338562191,-1.43932777255252
2024-09-23 05:34:00.574994,42.75,21.463921,-0.012256778495634975,0.02201345505213762,1.0100589250570406,0.41121195281948897,-1.1943309338562191,-1.43932777255252
2024-09-23 05:34:00.607276,42.75,21.463921,-0.012256778495634975,0.02201345505213762,1.0143274196426437,0.41121195281948897,-1.1943309338562191,-1.43932777255252
2024-09-23 05:34:00.618303,42.75,21.463972,-0.018415698035412244,0.02201345505213762,1.0143274196426437,0.35872900059493257,-1.1374934943549335,-1.3737241022821516
2024-09-23 05:34:00.661671,42.75,21.463972,-0.018415698035412244,0.020245056329760223,1.0116442992417454,0.3368419984191656,-1.1243154934130608,-1.3737241022821516
2024-09-23 05:34:00.673612,42.75,21.464059,-0.018415698035412244,0.020245056329760223,1.0116442992417454,0.3368419984191656,-1.1243154934130608,-1.434973311956227
2024-09-23 05:34:00.706408,42.75,21.464059,-0.012439653414105056,0.020245056329760223,1.0116442992417454,0.3368419984191656,-1.1243154934130608,-1.434973311956227
2024-09-23 05:34:00.717422,42.75,21.464059,-0.012439653414105056,0.01622038788022616,1.0120712653577144,0.3062460483703762,-1.15932321363464,-1.3693696416858583
2024-09-23 05:34:00.759360,42.75,21.46411,-0.010976248499571852,0.02237930666051509,1.0134127283436565,0.3062460483703762,-1.15932321363464,-1.3693696416858583
2024-09-23 05:34:00.771127,42.75,21.46411,-0.010976248499571852,0.02237930666051509,1.0134127283436565,0.37620423259790986,-1.1068402347296475,-1.3693696416858583
2024-09-23 05:34:00.802835,42.75,21.46411,-0.010976248499571852,0.02237930666051509,1.0134127283436565,0.37620423259790986,-1.1068402347296475,-1.3868447936475277
2024-09-23 05:34:00.817985,42.75,21.464161,-0.012378695361111141,0.020549948366167105,1.0093270942462451,0.3237212803733535,-1.1068402347296475,-1.3868447936475277
2024-09-23 05:34:00.861467,42.75,21.464212,-0.012805606793919833,0.021830479121718566,1.0108517093639005,0.3237212803733535,-1.1199610328167677,-1.3212411233771593
2024-09-23 05:34:00.904082,42.75,21.464212,-0.012805606793919833,0.021830479121718566,1.0108517093639005,0.3499627431454137,-1.1068402347296475,-1.3212411233771593
2024-09-23 05:34:00.915940,42.75,21.464262,-0.012256778495634975,0.018415698035412244,1.0108517093639005,0.3499627431454137,-1.1068402347296475,-1.3911993609655648
2024-09-23 05:34:00.950009,42.75,21.464262,-0.012256778495634975,0.018415698035412244,1.0134127283436565,0.3499627431454137,-1.1068402347296475,-1.3911993609655648
2024-09-23 05:34:00.961100,42.75,21.464313,-0.014391029585878175,0.018415698035412244,1.0134127283436565,0.37620423259790986,-1.1724439050000162,-1.483101830264926
2024-09-23 05:34:01.003892,42.75,21.464313,-0.014391029585878175,0.02085484192155066,1.0109736163560281,0.3324875378228724,-1.1068402347296475,-1.483101830264926
2024-09-23 05:34:01.016365,42.75,21.4644,-0.014391029585878175,0.02085484192155066,1.0109736163560281,0.3324875378228724,-1.1068402347296475,-1.3430708426568656
2024-09-23 05:34:01.049366,42.75,21.4644,-0.010183486217874026,0.020366972435748053,1.0101198785531047,0.3324875378228724,-1.1068402347296475,-1.3430708426568656
2024-09-23 05:34:01.060573,42.75,21.4644,-0.010183486217874026,0.020366972435748053,1.0101198785531047,0.3237212803733535,-1.216217962712422,-1.3956111311383546
2024-09-23 05:34:01.102832,42.75,21.464451,-0.014695923141261731,0.019330377182586234,1.0160958487445546,0.3674952580444515,-1.216217962712422,-1.3956111311383546
2024-09-23 05:34:01.114455,42.75,21.464451,-0.014695923141261731,0.019330377182586234,1.0160958487445546,0.3674952580444515,-1.15932321363464,-1.3956111311383546
2024-09-23 05:34:01.146006,42.75,21.464502,-0.014695923141261731,0.019330377182586234,1.0160958487445546,0.3674952580444515,-1.15932321363464,-1.3824903330512346
2024-09-23 05:34:01.157772,42.75,21.464502,-0.014025177977500705,0.02048899031317319,1.0131078636488298,0.3237212803733535,-1.15932321363464,-1.3824903330512346
2024-09-23 05:34:01.200562,42.75,21.464553,-0.016525279916633037,0.018049744655597465,1.0134127283436565,0.3237212803733535,-1.1156065722204744,-1.4306188513599336
2024-09-23 05:34:01.242697,42.75,21.464553,-0.016525279916633037,0.018049744655597465,1.0134127283436565,0.39809120809324083,-1.0412365644592791,-1.4306188513599336
2024-09-23 05:34:01.254333,42.75,21.464604,-0.01182986782231462,0.021830479121718566,1.0134127283436565,0.39809120809324083,-1.0412365644592791,-1.3168293532043696
2024-09-23 05:34:01.297719,42.75,21.464654,-0.01536666678604608,0.021830479121718566,1.0129859566567019,0.3193667930966243,-1.1724439050000162,-1.413086283100024
2024-09-23 05:34:01.340413,42.75,21.464654,-0.01536666678604608,0.02225739055452726,1.0101198785531047,0.3193667930966243,-1.1724439050000162,-1.413086283100024
2024-09-23 05:34:01.351829,42.75,21.464741,-0.01536666678604608,0.02225739055452726,1.0101198785531047,0.3193667930966243,-1.207451731943339,-1.434973311956227
2024-09-23 05:34:01.393964,42.75,21.464741,-0.015000815177668611,0.023050050305299438,1.0135956860463553,0.2581175834225491,-1.207451731943339,-1.434973311956227
2024-09-23 05:34:01.406516,42.75,21.464741,-0.015000815177668611,0.023050050305299438,1.0135956860463553,0.2581175834225491,-1.1024857741333545,-1.404320052330941
2024-09-23 05:34:01.438432,42.75,21.464793,-0.01341539238571027,0.023050050305299438,1.0135956860463553,0.2581175834225491,-1.1024857741333545,-1.404320052330941
2024-09-23 05:34:01.450395,42.75,21.464793,-0.01341539238571027,0.021159735476934217,1.0113394345469187,0.3018342781975865,-1.1068402347296475,-1.404320052330941
2024-09-23 05:34:01.492891,42.75,21.464843,-0.012500713238536278,0.020427930488741967,1.0103637897518674,0.3018342781975865,-1.1068402347296475,-1.4874562908612192
2024-09-23 05:34:01.536623,43.0,21.464894,-0.012500713238536278,0.020427930488741967,1.0103637897518674,0.3018342781975865,-1.0630662837389857,-1.3737241022821516
2024-09-23 05:34:01.548181,43.0,21.464894,-0.01256167205101853,0.02207441310513153,1.0157908868352208,0.3018342781975865,-1.0630662837389857,-1.3737241022821516
2024-09-23 05:34:01.591203,43.0,21.464945,-0.013171458402297304,0.019696228790963704,1.0157908868352208,0.3499627431454137,-1.15932321363464,-1.4087318225037306
2024-09-23 05:34:01.633625,43.0,21.464945,-0.013171458402297304,0.019696228790963704,1.0102418827597397,0.3630834878716618,-1.15932321363464,-1.4087318225037306
2024-09-23 05:34:01.645117,43.0,21.464996,-0.014634963569291141,0.019696228790963704,1.0102418827597397,0.3630834878716618,-1.1374934943549335,-1.4437395427253097
2024-09-23 05:34:01.688134,43.0,21.464996,-0.014634963569291141,0.017379001010813116,1.012620041251304,0.35872900059493257,-1.0762442846808582,-1.434973311956227
2024-09-23 05:34:01.700009,43.0,21.465082,-0.014634963569291141,0.017379001010813116,1.012620041251304,0.35872900059493257,-1.0762442846808582,-1.434973311956227
2024-09-23 05:34:01.732149,43.0,21.465082,-0.016342405757651293,0.018293680157987106,1.0134736818397203,0.35872900059493257,-1.0762442846808582,-1.434973311956227
2024-09-23 05:34:01.743840,43.0,21.465082,-0.016342405757651293,0.018293680157987106,1.0134736818397203,0.3849704900474288,-1.1724439050000162,-1.434973311956227
2024-09-23 05:34:01.786611,43.0,21.465134,-0.01536666678604608,0.019574312684975875,1.0123761300525411,0.29306802074806765,-1.1680894444037229,-1.434973311956227
2024-09-23 05:34:01.829992,43.0,21.465185,-0.01341539238571027,0.019574312684975875,1.0123761300525411,0.29306802074806765,-1.1680894444037229,-1.434973311956227
2024-09-23 05:34:01.841703,43.0,21.465185,-0.01341539238571027,0.019940162774376668,1.0128639524500669,0.2362305812467821,-1.1680894444037229,-1.434973311956227
2024-09-23 05:34:01.884372,43.0,21.465235,-0.013720285941093825,0.018293680157987106,1.009815013858278,0.2362305812467821,-1.0762442846808582,-1.43932777255252
2024-09-23 05:34:01.926037,43.0,21.465235,-0.013720285941093825,0.018293680157987106,1.009815013858278,0.3630834878716618,-1.207451731943339,-1.43932777255252
2024-09-23 05:34:01.937833,43.0,21.465286,-0.01268358815700636,0.02512334410203706,1.009815013858278,0.3630834878716618,-1.207451731943339,-1.4087318225037306
2024-09-23 05:34:01.980765,43.0,21.465337,-0.01268358815700636,0.02512334410203706,1.0140835084438808,0.27994727602181957,-1.1768557818945498,-1.4218526205908506
2024-09-23 05:34:01.992540,43.0,21.465337,-0.011037206552565765,0.02512334410203706,1.0140835084438808,0.27994727602181957,-1.1768557818945498,-1.4218526205908506
2024-09-23 05:34:02.024984,43.0,21.465337,-0.011037206552565765,0.01975718684395762,1.0182911467479274,0.29306802074806765,-1.1768557818945498,-1.4218526205908506
2024-09-23 05:34:02.036388,43.0,21.465424,-0.011037206552565765,0.01975718684395762,1.0182911467479274,0.29306802074806765,-1.1111946953259408,-1.518109550486505
2024-09-23 05:34:02.079682,43.0,21.465424,-0.01585453627184869,0.021464627513341095,1.0158518403312846,0.38932495064372197,-1.1330817241821438,-1.4087318225037306
2024-09-23 05:34:02.122133,43.0,21.465475,-0.010976248499571852,0.01823272210499319,1.0158518403312846,0.38932495064372197,-1.1330817241821438,-1.4087318225037306
2024-09-23 05:34:02.133963,43.0,21.465475,-0.010976248499571852,0.01823272210499319,1.011034569852092,0.3324875378228724,-1.1812102424908428,-1.4087318225037306
2024-09-23 05:34:02.176474,43.0,21.465526,-0.015000815177668611,0.019025483627202678,1.0135956860463553,0.3324875378228724,-1.1812102424908428,-1.3911993609655648
2024-09-23 05:34:02.220215,43.0,21.465577,-0.015000815177668611,0.019025483627202678,1.0135956860463553,0.3324875378228724,-1.1899764732599258,-1.3474826128296553
2024-09-23 05:34:02.231485,43.0,21.465577,-0.012256778495634975,0.018964423802771455,1.011217527554791,0.3324875378228724,-1.1899764732599258,-1.3474826128296553
2024-09-23 05:34:02.273900,43.0,21.465627,-0.01664729931303485,0.016098470255261652,1.011217527554791,0.3368419984191656,-1.1637349838074296,-1.3868447936475277
2024-09-23 05:34:02.318374,43.0,21.465627,-0.01664729931303485,0.016098470255261652,1.015608026347029,0.29747979092085736,-1.1549687530383468,-1.3518370734259486
2024-09-23 05:34:02.329765,43.0,21.465678,-0.01341539238571027,0.016098470255261652,1.015608026347029,0.29747979092085736,-1.1549687530383468,-1.3518370734259486
2024-09-23 05:34:02.361815,43.0,21.465678,-0.01341539238571027,0.018964423802771455,1.015608026347029,0.29747979092085736,-1.1549687530383468,-1.3518370734259486
2024-09-23 05:34:02.415088,43.0,21.465678,-0.01341539238571027,0.018964423802771455,1.0203033898340939,0.3456082558686845,-1.1374934943549335,-1.3518370734259486
2024-09-23 05:34:02.426255,43.0,21.465765,-0.01256167205101853,0.018964423802771455,1.0203033898340939,0.3456082558686845,-1.1374934943549335,-1.4568603408124299
2024-09-23 05:34:02.469850,43.0,21.465765,-0.01256167205101853,0.01768389456619667,1.0203033898340939,0.3456082558686845,-1.1374934943549335,-1.4568603408124299
2024-09-23 05:34:02.512671,43.0,21.465765,-0.01256167205101853,0.01768389456619667,1.015608026347029,0.2362305812467821,-1.1374934943549335,-1.4568603408124299
2024-09-23 05:34:02.524529,43.0,21.465817,-0.012866564846913748,0.01768389456619667,1.015608026347029,0.2362305812467821,-1.2424594521649182,-1.474335492774099
2024-09-23 05:34:02.568004,42.67,21.465867,-0.012866564846913748,0.02213537267710212,1.0149372462468045,0.3062460483703762,-1.1680894444037229,-1.491868061034009
2024-09-23 05:34:02.610957,42.67,21.465867,-0.013354434332716355,0.01786687049661572,1.0132298678554648,0.3062460483703762,-1.1680894444037229,-1.491868061034009
2024-09-23 05:34:02.622397,42.67,21.465867,-0.013354434332716355,0.01786687049661572,1.0132298678554648,0.38932495064372197,-1.1724439050000162,-1.3387163820605725
2024-09-23 05:34:02.654544,42.67,21.465918,-0.013354434332716355,0.01786687049661572,1.0132298678554648,0.38932495064372197,-1.1724439050000162,-1.3387163820605725
2024-09-23 05:34:02.666215,42.67,21.465918,-0.015244750680058252,0.020793883868556746,1.0167666288447792,0.3674952580444515,-1.1462025222692638,-1.3387163820605725
2024-09-23 05:34:02.709138,42.67,21.46601,-0.013476350438704184,0.02140366946034718,1.0167666288447792,0.3674952580444515,-1.1462025222692638,-1.469981032177806
2024-09-23 05:34:02.720965,42.67,21.46601,-0.013476350438704184,0.02140366946034718,1.0143883731387076,0.27123832814879717,-1.1462025222692638,-1.469981032177806
2024-09-23 05:34:02.754000,42.67,21.46601,-0.013476350438704184,0.02140366946034718,1.0143883731387076,0.27123832814879717,-1.0543573625463993,-1.469981032177806
2024-09-23 05:34:02.765778,42.67,21.466108,-0.014939857124674697,0.021281651582922046,1.0129859566567019,0.27123832814879717,-1.0543573625463993,-1.4524485706396402
2024-09-23 05:34:02.807774,42.67,21.466159,-0.016342405757651293,0.021281651582922046,1.0129859566567019,0.3149550229238346,-1.1330817241821438,-1.4306188513599336
2024-09-23 05:34:02.819690,42.67,21.466159,-0.016342405757651293,0.02018409827676631,1.0129859566567019,0.3149550229238346,-1.1330817241821438,-1.4306188513599336
2024-09-23 05:34:02.853130,42.67,21.466159,-0.016342405757651293,0.02018409827676631,1.011217527554791,0.3499627431454137,-1.0980740039605648,-1.4306188513599336
2024-09-23 05:34:02.864489,42.67,21.466209,-0.011281142054955407,0.02018409827676631,1.011217527554791,0.3499627431454137,-1.0980740039605648,-1.4087318225037306
2024-09-23 05:34:02.906588,42.67,21.466209,-0.011281142054955407,0.017744852619190586,1.0151811574455674,0.3280757409696467,-1.1812102424908428,-1.3693696416858583
2024-09-23 05:34:02.918385,42.67,21.466301,-0.011281142054955407,0.017744852619190586,1.0151811574455674,0.3280757409696467,-1.1812102424908428,-1.3693696416858583
2024-09-23 05:34:02.950160,42.67,21.466301,-0.01408613603049462,0.01890346574977754,1.0151811574455674,0.3280757409696467,-1.1812102424908428,-1.3693696416858583
2024-09-23 05:34:02.962337,42.67,21.466301,-0.01408613603049462,0.01890346574977754,1.0182300960373563,0.3237212803733535,-1.1287272635858505,-1.3299501512914895
2024-09-23 05:34:03.006116,42.67,21.466353,-0.010549337066763158,0.02140366946034718,1.0133517748475924,0.41121195281948897,-1.1287272635858505,-1.3299501512914895
2024-09-23 05:34:03.048352,42.67,21.466404,-0.010549337066763158,0.02140366946034718,1.0133517748475924,0.41121195281948897,-1.1287272635858505,-1.3693696416858583
2024-09-23 05:34:03.059605,42.67,21.466404,-0.013171458402297304,0.017561976941232165,1.0140835084438808,0.3280757409696467,-1.1287272635858505,-1.3693696416858583
2024-09-23 05:34:03.102067,42.67,21.466454,-0.012439653414105056,0.018659531766364576,1.0140835084438808,0.3280757409696467,-1.1156065722204744,-1.4174980532728136
2024-09-23 05:34:03.113758,42.67,21.466454,-0.012439653414105056,0.018659531766364576,1.0090222295514184,0.3280757409696467,-1.1156065722204744,-1.4174980532728136
2024-09-23 05:34:03.145981,42.67,21.466454,-0.012439653414105056,0.018659531766364576,1.0090222295514184,0.3368419984191656,-1.1637349838074296,-1.4874562908612192
2024-09-23 05:34:03.156916,42.67,21.466505,-0.013476350438704184,0.02280611632188647,1.0090222295514184,0.3368419984191656,-1.1637349838074296,-1.4874562908612192
2024-09-23 05:34:03.199197,42.67,21.466556,-0.01585453627184869,0.02280611632188647,1.0162178529511898,0.3062460483703762,-1.216217962712422,-1.4524485706396402
2024-09-23 05:34:03.243148,42.67,21.466556,-0.01585453627184869,0.0173180429578192,1.0128639524500669,0.3674952580444515,-1.216217962712422,-1.4524485706396402
2024-09-23 05:34:03.254405,42.67,21.466643,-0.01585453627184869,0.0173180429578192,1.0128639524500669,0.3674952580444515,-1.1724439050000162,-1.3780785628784449
2024-09-23 05:34:03.296884,42.67,21.466643,-0.011403058160943235,0.015793578218854774,1.0117053499523165,0.3456082558686845,-1.15932321363464,-1.461214801408723
2024-09-23 05:34:03.338958,42.67,21.466694,-0.01622038788022616,0.015793578218854774,1.0117053499523165,0.3456082558686845,-1.15932321363464,-1.461214801408723
2024-09-23 05:34:03.350676,42.67,21.466694,-0.01622038788022616,0.01664729931303485,1.0126809947473678,0.38932495064372197,-1.2118635021161288,-1.461214801408723
2024-09-23 05:34:03.392796,42.67,21.466745,-0.014695923141261731,0.020427930488741967,1.0097540603622142,0.38932495064372197,-1.2118635021161288,-1.5136977803137153
2024-09-23 05:34:03.404538,42.67,21.466745,-0.014695923141261731,0.020427930488741967,1.0097540603622142,0.3149550229238346,-1.2118635021161288,-1.5136977803137153
2024-09-23 05:34:03.437267,42.67,21.466745,-0.014695923141261731,0.020427930488741967,1.0097540603622142,0.3149550229238346,-1.216217962712422,-1.5005769822265953
2024-09-23 05:34:03.449141,42.67,21.466796,-0.01378124399408774,0.020366972435748053,1.0114614387535539,0.3149550229238346,-1.216217962712422,-1.5005769822265953
2024-09-23 05:34:03.492275,42.67,21.466846,-0.015000815177668611,0.020366972435748053,1.0114614387535539,0.3018342781975865,-1.1111946953259408,-1.3562488435987383
2024-09-23 05:34:03.535918,42.67,21.466846,-0.015000815177668611,0.019208359305161096,1.0162788064472537,0.3018342781975865,-1.1111946953259408,-1.3562488435987383
2024-09-23 05:34:03.547991,42.67,21.466897,-0.015000815177668611,0.019208359305161096,1.0162788064472537,0.3193667930966243,-1.1899764732599258,-1.3255955839734523
2024-09-23 05:34:03.590405,42.84,21.466897,-0.01341539238571027,0.022684200215898644,1.015608026347029,0.3280757409696467,-1.2468139127612115,-1.448094003321603
2024-09-23 05:34:03.633609,42.84,21.466984,-0.014391029585878175,0.021159735476934217,1.015608026347029,0.3280757409696467,-1.2468139127612115,-1.448094003321603
2024-09-23 05:34:03.645405,42.84,21.466984,-0.014391029585878175,0.021159735476934217,1.0090832802619896,0.27559278874509036,-1.2424594521649182,-1.448094003321603
2024-09-23 05:34:03.687990,42.84,21.467035,-0.01268358815700636,0.018415698035412244,1.0121322188537785,0.38061600277069957,-1.2424594521649182,-1.474335492774099
2024-09-23 05:34:03.729839,42.84,21.467035,-0.01268358815700636,0.018415698035412244,1.0121322188537785,0.38061600277069957,-1.0587118231426924,-1.509343212995678
2024-09-23 05:34:03.741434,42.84,21.467086,-0.01219582044264106,0.022196330730096036,1.0122541258459061,0.38061600277069957,-1.0587118231426924,-1.509343212995678
2024-09-23 05:34:03.785345,42.84,21.467137,-0.015244750680058252,0.021098777423940302,1.0122541258459061,0.2581175834225491,-1.0018170740649104,-1.469981032177806
2024-09-23 05:34:03.828008,42.84,21.467137,-0.015244750680058252,0.021098777423940302,1.0098759673543418,0.3324875378228724,-1.1156065722204744,-1.469981032177806
2024-09-23 05:34:03.839646,42.84,21.467188,-0.015244750680058252,0.021098777423940302,1.0098759673543418,0.3324875378228724,-1.1156065722204744,-1.3649578715130686
2024-09-23 05:34:03.882867,42.84,21.467188,-0.010793271809664462,0.01939133523558015,1.0150592504534395,0.3368419984191656,-1.15932321363464,-1.3606034109167755
2024-09-23 05:34:03.925200,42.84,21.467277,-0.012439653414105056,0.01939133523558015,1.0150592504534395,0.3368419984191656,-1.15932321363464,-1.3606034109167755
2024-09-23 05:34:03.936934,42.84,21.467277,-0.012439653414105056,0.017379001010813116,1.0116442992417454,0.2668265312955715,-1.2293386540777982,-1.3606034109167755
2024-09-23 05:34:03.979131,42.84,21.467328,-0.01573262016586086,0.016891131525010507,1.0131688171448936,0.2668265312955715,-1.2293386540777982,-1.504988752399385
2024-09-23 05:34:03.991373,42.84,21.467328,-0.01573262016586086,0.016891131525010507,1.0131688171448936,0.3411964856958948,-1.2293386540777982,-1.504988752399385
2024-09-23 05:34:04.024850,42.84,21.467379,-0.01573262016586086,0.016891131525010507,1.0131688171448936,0.3411964856958948,-1.0499454856518655,-1.4174980532728136
2024-09-23 05:34:04.035845,42.84,21.467379,-0.015976452377836518,0.018476656088406155,1.0169495865474782,0.3411964856958948,-1.0499454856518655,-1.4174980532728136
2024-09-23 05:34:04.078995,42.84,21.467429,-0.014512945691866003,0.02085484192155066,1.0169495865474782,0.2537058132497594,-1.0105833048339934,-1.4087318225037306
2024-09-23 05:34:04.122763,42.84,21.467429,-0.014512945691866003,0.02085484192155066,1.0149372462468045,0.3630834878716618,-1.0237041029211134,-1.4306188513599336
2024-09-23 05:34:04.134423,42.84,21.46748,-0.011951885699739756,0.02085484192155066,1.0149372462468045,0.3630834878716618,-1.0237041029211134,-1.4306188513599336
2024-09-23 05:34:04.167979,42.84,21.46748,-0.011951885699739756,0.01926931735815501,1.0119492611510794,0.3630834878716618,-1.0237041029211134,-1.4306188513599336
2024-09-23 05:34:04.178894,42.84,21.467569,-0.011951885699739756,0.01926931735815501,1.0119492611510794,0.2843590461946093,-1.1899764732599258,-1.2862334031555802
2024-09-23 05:34:04.221652,42.84,21.467569,-0.012317737308117227,0.01926931735815501,1.0119492611510794,0.2843590461946093,-1.1899764732599258,-1.2862334031555802
2024-09-23 05:34:04.263590,42.84,21.467569,-0.012317737308117227,0.021464627513341095,1.0119492611510794,0.2843590461946093,-1.1899764732599258,-1.2862334031555802
2024-09-23 05:34:04.275056,42.84,21.46762,-0.012317737308117227,0.021464627513341095,1.0160348952484908,0.37620423259790986,-1.0674780539117754,-1.3430708426568656
2024-09-23 05:34:04.318030,42.84,21.46762,-0.010915188675140628,0.01975718684395762,1.0117053499523165,0.3193667930966243,-1.0674780539117754,-1.3430708426568656
2024-09-23 05:34:04.329074,42.84,21.46762,-0.010915188675140628,0.01975718684395762,1.0117053499523165,0.3193667930966243,-1.0499454856518655,-1.3693696416858583
2024-09-23 05:34:04.361107,42.84,21.467671,-0.010915188675140628,0.01975718684395762,1.0117053499523165,0.3193667930966243,-1.0499454856518655,-1.3693696416858583
2024-09-23 05:34:04.372754,42.84,21.467671,-0.014878899071680782,0.019025483627202678,1.0125589905407328,0.41997821026900783,-1.1111946953259408,-1.3693696416858583
2024-09-23 05:34:04.415564,42.84,21.467722,-0.013720285941093825,0.024635576387671762,1.0125589905407328,0.41997821026900783,-1.1111946953259408,-1.3693696416858583
2024-09-23 05:34:04.426561,42.84,21.467722,-0.013720285941093825,0.024635576387671762,1.0147542885441054,0.42433269754573705,-1.1111946953259408,-1.3693696416858583
2024-09-23 05:34:04.458351,42.84,21.467722,-0.013720285941093825,0.024635576387671762,1.0147542885441054,0.42433269754573705,-1.1680894444037229,-1.3693696416858583
2024-09-23 05:34:04.469673,42.84,21.467773,-0.015976452377836518,0.021037716080532405,1.0117664006628877,0.42433269754573705,-1.1680894444037229,-1.404320052330941
2024-09-23 05:34:04.511374,42.84,21.467773,-0.015976452377836518,0.021037716080532405,1.0117664006628877,0.446219699721504,-1.1987427040290088,-1.4524485706396402
2024-09-23 05:34:04.565262,42.84,21.467863,-0.013293374508285133,0.02201345505213762,1.0099369208504057,0.3543172304221429,-1.0193495356030762,-1.4524485706396402
2024-09-23 05:34:04.607237,42.67,21.467914,-0.013293374508285133,0.02201345505213762,1.0099369208504057,0.3543172304221429,-1.0193495356030762,-1.294999633924663
2024-09-23 05:34:04.618374,42.67,21.467914,-0.014512945691866003,0.02048899031317319,1.0146933350480416,0.37620423259790986,-1.0193495356030762,-1.294999633924663
2024-09-23 05:34:04.661725,42.67,21.468007,-0.014939857124674697,0.01963527073796979,1.0111565740587272,0.37620423259790986,-1.1812102424908428,-1.3911993609655648
2024-09-23 05:34:04.704459,42.67,21.468007,-0.014939857124674697,0.01963527073796979,1.0111565740587272,0.3280757409696467,-1.1899764732599258,-1.3911993609655648
2024-09-23 05:34:04.716125,42.67,21.468059,-0.012622630104012445,0.020306014382754138,1.0111565740587272,0.3280757409696467,-1.1899764732599258,-1.4174980532728136
2024-09-23 05:34:04.757986,42.67,21.468059,-0.012622630104012445,0.020306014382754138,1.011095523348156,0.3018342781975865,-1.1899764732599258,-1.4174980532728136
2024-09-23 05:34:04.802372,42.67,21.468059,-0.012622630104012445,0.020306014382754138,1.011095523348156,0.3018342781975865,-1.0499454856518655,-1.461214801408723
2024-09-23 05:34:04.813419,42.67,21.46811,-0.01365932788809991,0.019208359305161096,1.0106077981651376,0.3018342781975865,-1.0499454856518655,-1.461214801408723
2024-09-23 05:34:04.855897,42.67,21.468203,-0.015244750680058252,0.019208359305161096,1.0106077981651376,0.4155664400962181,-1.1199610328167677,-1.496222521630302
2024-09-23 05:34:04.867870,42.67,21.468203,-0.015244750680058252,0.020610907938137694,1.0106077981651376,0.4155664400962181,-1.1199610328167677,-1.496222521630302
2024-09-23 05:34:04.899946,42.67,21.468203,-0.015244750680058252,0.020610907938137694,1.0132298678554648,0.2668265312955715,-1.1199610328167677,-1.496222521630302
2024-09-23 05:34:04.911035,42.67,21.468254,-0.013049540777332799,0.020610907938137694,1.0132298678554648,0.2668265312955715,-1.1855647030871361,-1.434973311956227
2024-09-23 05:34:04.953455,42.67,21.468254,-0.013049540777332799,0.018659531766364576,1.0121322188537785,0.4287444677185267,-1.1418479549512268,-1.496222521630302
2024-09-23 05:34:04.965616,42.67,21.468305,-0.013049540777332799,0.018659531766364576,1.0121322188537785,0.4287444677185267,-1.1418479549512268,-1.496222521630302
2024-09-23 05:34:04.997367,42.67,21.468305,-0.01164699290384454,0.022562284109910815,1.0121322188537785,0.4287444677185267,-1.1418479549512268,-1.496222521630302
2024-09-23 05:34:05.009382,42.67,21.468305,-0.01164699290384454,0.022562284109910815,1.01426646614658,0.31060053564710544,-1.1374934943549335,-1.3255955839734523
2024-09-23 05:34:05.052677,42.67,21.468398,-0.01481783924724956,0.020732824044125523,1.0133517748475924,0.39373674749694765,-1.1506142924420535,-1.3255955839734523
2024-09-23 05:34:05.095259,42.67,21.468398,-0.01481783924724956,0.020732824044125523,1.0133517748475924,0.39373674749694765,-1.1506142924420535,-1.3737241022821516
2024-09-23 05:34:05.199776,42.67,21.468449,-0.01481783924724956,0.020732824044125523,1.0133517748475924,0.39373674749694765,-1.1506142924420535,-1.3737241022821516
2024-09-23 05:34:05.242615,42.67,21.468449,-0.01341539238571027,0.019025483627202678,1.0153641151482662,0.39373674749694765,-1.1506142924420535,-1.3737241022821516
2024-09-23 05:34:05.254017,42.67,21.468449,-0.01341539238571027,0.019025483627202678,1.0153641151482662,0.27994727602181957,-1.1374934943549335,-1.3606034109167755
2024-09-23 05:34:05.296474,42.67,21.4685,-0.013720285941093825,0.02207441310513153,1.0095710054450078,0.31060053564710544,-1.0849533125951887,-1.3606034109167755
2024-09-23 05:34:05.338504,42.67,21.468551,-0.013720285941093825,0.02207441310513153,1.0095710054450078,0.31060053564710544,-1.0849533125951887,-1.3562488435987383
2024-09-23 05:34:05.349987,42.67,21.468551,-0.014634963569291141,0.020732824044125523,1.0151811574455674,0.3280757409696467,-1.0849533125951887,-1.3562488435987383
2024-09-23 05:34:05.392415,42.67,21.468602,-0.013049540777332799,0.02225739055452726,1.0151811574455674,0.3280757409696467,-1.15932321363464,-1.3956111311383546
2024-09-23 05:34:05.404562,42.67,21.468602,-0.013049540777332799,0.02225739055452726,1.0140835084438808,0.3280757409696467,-1.15932321363464,-1.3956111311383546
2024-09-23 05:34:05.436143,42.67,21.468602,-0.013049540777332799,0.02225739055452726,1.0140835084438808,0.28871353347133843,-1.0412365644592791,-1.3956111311383546
2024-09-23 05:34:05.447402,42.67,21.46869,-0.014147094083488534,0.01926931735815501,1.0140835084438808,0.28871353347133843,-1.0412365644592791,-1.404320052330941
2024-09-23 05:34:05.490373,42.67,21.468839,-0.015915494324842603,0.01926931735815501,1.010668654446694,0.2843590461946093,-1.1506142924420535,-1.413086283100024
2024-09-23 05:34:05.533902,42.67,21.468839,-0.015915494324842603,0.018415698035412244,1.0128639524500669,0.31060053564710544,-1.1506142924420535,-1.413086283100024
2024-09-23 05:34:05.545146,42.67,21.468934,-0.015915494324842603,0.018415698035412244,1.0128639524500669,0.31060053564710544,-1.0543573625463993,-1.4655692620050162
2024-09-23 05:34:05.587725,42.67,21.468934,-0.011890927646745842,0.017805912443621806,1.0167666288447792,0.3237212803733535,-1.1724439050000162,-1.3255955839734523
2024-09-23 05:34:05.630228,42.31,21.468985,-0.012500713238536278,0.017805912443621806,1.0167666288447792,0.3237212803733535,-1.1724439050000162,-1.3255955839734523
2024-09-23 05:34:05.641761,42.31,21.468985,-0.012500713238536278,0.01914740125216718,1.0132908213515286,0.39373674749694765,-1.1068402347296475,-1.3255955839734523
2024-09-23 05:34:05.684879,42.31,21.469036,-0.012073802565215924,0.020793883868556746,1.015668979843093,0.39373674749694765,-1.1068402347296475,-1.4174980532728136
2024-09-23 05:34:05.696786,42.31,21.469036,-0.012073802565215924,0.020793883868556746,1.015668979843093,0.28871353347133843,-1.1068402347296475,-1.4174980532728136
2024-09-23 05:34:05.729466,42.31,21.469087,-0.012073802565215924,0.020793883868556746,1.015668979843093,0.28871353347133843,-1.0062288442377,-1.5136977803137153
2024-09-23 05:34:05.741120,42.31,21.469087,-0.013293374508285133,0.017196025080394063,1.01231507934197,0.28871353347133843,-1.0062288442377,-1.5136977803137153
2024-09-23 05:34:05.783811,42.31,21.469138,-0.013049540777332799,0.021281651582922046,1.01231507934197,0.2581175834225491,-1.1637349838074296,-1.404320052330941
2024-09-23 05:34:05.825879,42.31,21.469138,-0.013049540777332799,0.021281651582922046,1.0112784810508548,0.3368419984191656,-1.1637349838074296,-1.404320052330941
2024-09-23 05:34:05.837878,42.31,21.469188,-0.013049540777332799,0.021281651582922046,1.0112784810508548,0.3368419984191656,-1.1724439050000162,-1.3956111311383546
2024-09-23 05:34:05.880902,42.31,21.469275,-0.013049540777332799,0.020062078880364497,1.0118883076550156,0.2537058132497594,-1.1549687530383468,-1.4174980532728136
2024-09-23 05:34:05.922915,42.31,21.469275,-0.012622630104012445,0.02225739055452726,1.0118883076550156,0.2537058132497594,-1.1549687530383468,-1.4174980532728136
2024-09-23 05:34:05.934389,42.31,21.469275,-0.012622630104012445,0.02225739055452726,1.011034569852092,0.35872900059493257,-1.1943309338562191,-1.3737241022821516
2024-09-23 05:34:05.978055,42.31,21.469327,-0.012805606793919833,0.019330377182586234,1.0134736818397203,0.37184974532118065,-1.2118635021161288,-1.3737241022821516
2024-09-23 05:34:06.020127,42.31,21.469377,-0.012805606793919833,0.019330377182586234,1.0134736818397203,0.37184974532118065,-1.2118635021161288,-1.3649578715130686
2024-09-23 05:34:06.031910,42.31,21.469377,-0.01378124399408774,0.017379001010813116,1.015546975636458,0.4418652124447748,-1.2118635021161288,-1.3649578715130686
2024-09-23 05:34:06.073781,42.31,21.469428,-0.018171764051999276,0.017379001010813116,1.015546975636458,0.4418652124447748,-1.15932321363464,-1.4306188513599336
2024-09-23 05:34:06.085435,42.31,21.469428,-0.018171764051999276,0.02085484192155066,1.013778546534547,0.4418652124447748,-1.15932321363464,-1.4306188513599336
2024-09-23 05:34:06.118383,42.31,21.469428,-0.018171764051999276,0.02085484192155066,1.013778546534547,0.2318188110739924,-1.2205724233087152,-1.4306188513599336
2024-09-23 05:34:06.129814,42.31,21.469479,-0.00987859342197881,0.020001120827370582,1.013778546534547,0.2318188110739924,-1.2205724233087152,-1.3430708426568656
2024-09-23 05:34:06.171862,42.31,21.469529,-0.00987859342197881,0.020001120827370582,1.0118883076550156,0.29306802074806765,-1.1943309338562191,-1.3343619214642792
2024-09-23 05:34:06.183471,42.31,21.469529,-0.013171458402297304,0.020001120827370582,1.0118883076550156,0.29306802074806765,-1.1943309338562191,-1.3343619214642792
2024-09-23 05:34:06.215514,42.31,21.469529,-0.013171458402297304,0.01926931735815501,1.0135347325502915,0.29306802074806765,-1.1943309338562191,-1.3343619214642792
2024-09-23 05:34:06.227060,42.31,21.469617,-0.013171458402297304,0.01926931735815501,1.0135347325502915,0.3062460483703762,-1.1506142924420535,-1.5224640110827983
2024-09-23 05:34:06.269639,42.31,21.469617,-0.015427726610477303,0.01823272210499319,1.0135347325502915,0.3062460483703762,-1.1506142924420535,-1.5224640110827983
2024-09-23 05:34:06.313074,42.31,21.469617,-0.015427726610477303,0.01823272210499319,1.012925003160638,0.3062460483703762,-1.1506142924420535,-1.5224640110827983
2024-09-23 05:34:06.325445,42.31,21.469668,-0.013537308491698099,0.01823272210499319,1.012925003160638,0.3062460483703762,-1.1068402347296475,-1.3387163820605725
2024-09-23 05:34:06.368869,42.31,21.469719,-0.013537308491698099,0.019879204721382753,1.00969310686615,0.3499627431454137,-1.1549687530383468,-1.3868447936475277
2024-09-23 05:34:06.410892,42.31,21.469719,-0.014025177977500705,0.020366972435748053,1.00969310686615,0.3499627431454137,-1.1549687530383468,-1.3868447936475277
2024-09-23 05:34:06.422037,42.31,21.469719,-0.014025177977500705,0.020366972435748053,1.0115833457456815,0.37184974532118065,-1.1024857741333545,-1.3168293532043696
2024-09-23 05:34:06.464915,42.31,21.469769,-0.015061773230662524,0.021281651582922046,1.012620041251304,0.3411964856958948,-1.1024857741333545,-1.3168293532043696
2024-09-23 05:34:06.476722,42.31,21.469769,-0.015061773230662524,0.021281651582922046,1.012620041251304,0.3411964856958948,-1.1156065722204744,-1.3168293532043696
2024-09-23 05:34:06.509648,42.31,21.46982,-0.01408613603049462,0.021281651582922046,1.012620041251304,0.3411964856958948,-1.1156065722204744,-1.4787472629468887
2024-09-23 05:34:06.521278,42.31,21.46982,-0.01408613603049462,0.021037716080532405,1.0106077981651376,0.41121195281948897,-1.1156065722204744,-1.4787472629468887
2024-09-23 05:34:06.563281,42.31,21.469911,-0.01481783924724956,0.02018409827676631,1.0123761300525411,0.41121195281948897,-1.1199610328167677,-1.3911993609655648
2024-09-23 05:34:06.607823,42.31,21.469911,-0.01481783924724956,0.02018409827676631,1.0123761300525411,0.3499627431454137,-1.0718325145080685,-1.3649578715130686
2024-09-23 05:34:06.618909,42.31,21.469961,-0.012988480952901577,0.020549948366167105,1.0123761300525411,0.3499627431454137,-1.0718325145080685,-1.3649578715130686
2024-09-23 05:34:06.661700,41.69,21.470012,-0.01256167205101853,0.020549948366167105,1.0147542885441054,0.3149550229238346,-1.0718325145080685,-1.413086283100024
2024-09-23 05:34:06.705189,41.69,21.470012,-0.01256167205101853,0.02085484192155066,1.0129859566567019,0.3280757409696467,-1.0718325145080685,-1.413086283100024
2024-09-23 05:34:06.717632,41.69,21.470104,-0.01256167205101853,0.02085484192155066,1.0129859566567019,0.3280757409696467,-1.1330817241821438,-1.496222521630302
2024-09-23 05:34:06.749943,41.69,21.470104,-0.01365932788809991,0.02085484192155066,1.0129859566567019,0.3280757409696467,-1.1330817241821438,-1.496222521630302
2024-09-23 05:34:06.761372,41.69,21.470104,-0.01365932788809991,0.018781549643789714,1.0153641151482662,0.39373674749694765,-1.0980740039605648,-1.5224640110827983
2024-09-23 05:34:06.803526,41.69,21.470155,-0.013049540777332799,0.02122069352992813,1.0183521002439913,0.39373674749694765,-1.0980740039605648,-1.5224640110827983
2024-09-23 05:34:06.815173,41.69,21.470155,-0.013049540777332799,0.02122069352992813,1.0183521002439913,0.3237212803733535,-1.1549687530383468,-1.5224640110827983
2024-09-23 05:34:06.847614,41.69,21.470155,-0.013049540777332799,0.02122069352992813,1.0183521002439913,0.3237212803733535,-1.1549687530383468,-1.404320052330941
2024-09-23 05:34:06.858834,41.69,21.470206,-0.011403058160943235,0.01811080599900536,1.0114614387535539,0.3237212803733535,-1.1549687530383468,-1.404320052330941
2024-09-23 05:34:06.900659,41.69,21.470257,-0.011403058160943235,0.01811080599900536,1.0114614387535539,0.3237212803733535,-1.1637349838074296,-1.3562488435987383
2024-09-23 05:34:06.911902,41.69,21.470257,-0.015061773230662524,0.022562284109910815,1.0139616014517532,0.3237212803733535,-1.1637349838074296,-1.3562488435987383
2024-09-23 05:34:06.955008,41.69,21.470308,-0.01219582044264106,0.02097675802753849,1.0139616014517532,0.3368419984191656,-1.0674780539117754,-1.3606034109167755
2024-09-23 05:34:06.997190,41.69,21.470308,-0.01219582044264106,0.02097675802753849,1.0139616014517532,0.3411964856958948,-1.1855647030871361,-1.3606034109167755
2024-09-23 05:34:07.008553,41.69,21.470358,-0.010976248499571852,0.02097675802753849,1.0139616014517532,0.3411964856958948,-1.1855647030871361,-1.4524485706396402
2024-09-23 05:34:07.051572,41.69,21.470445,-0.010976248499571852,0.019696228790963704,1.0108517093639005,0.37184974532118065,-1.1243154934130608,-1.3606034109167755
2024-09-23 05:34:07.094393,41.69,21.470445,-0.012012843752733671,0.016342405757651293,1.0128639524500669,0.37184974532118065,-1.1243154934130608,-1.3606034109167755
2024-09-23 05:34:07.105766,41.69,21.470445,-0.012012843752733671,0.016342405757651293,1.0128639524500669,0.40244569536997005,-1.1374934943549335,-1.404320052330941
2024-09-23 05:34:07.189294,41.69,21.470497,-0.012012843752733671,0.016342405757651293,1.0128639524500669,0.40244569536997005,-1.1374934943549335,-1.404320052330941
2024-09-23 05:34:07.201737,41.69,21.470497,-0.01408613603049462,0.01975718684395762,1.0128639524500669,0.40244569536997005,-1.1374934943549335,-1.404320052330941
2024-09-23 05:34:07.244477,41.69,21.470547,-0.01408613603049462,0.01975718684395762,1.015973941752427,0.24499683869630098,-1.1812102424908428,-1.3387163820605725
2024-09-23 05:34:07.256492,41.69,21.470547,-0.015671560341429636,0.01975718684395762,1.015973941752427,0.24499683869630098,-1.1812102424908428,-1.3387163820605725
2024-09-23 05:34:07.288419,41.69,21.470547,-0.015671560341429636,0.01939133523558015,1.0115833457456815,0.24499683869630098,-1.1812102424908428,-1.3387163820605725
2024-09-23 05:34:07.300286,41.69,21.470598,-0.015671560341429636,0.01939133523558015,1.0115833457456815,0.3018342781975865,-1.1111946953259408,-1.3780785628784449
2024-09-23 05:34:07.342355,41.69,21.470598,-0.012439653414105056,0.02097675802753849,1.0140835084438808,0.3674952580444515,-1.1855647030871361,-1.3780785628784449
2024-09-23 05:34:07.354562,41.69,21.470598,-0.012439653414105056,0.02097675802753849,1.0140835084438808,0.3674952580444515,-1.1855647030871361,-1.461214801408723
2024-09-23 05:34:07.387586,41.69,21.470649,-0.012317737308117227,0.019208359305161096,1.0140835084438808,0.3674952580444515,-1.1855647030871361,-1.461214801408723
2024-09-23 05:34:07.399244,41.69,21.470649,-0.012317737308117227,0.019208359305161096,1.0119492611510794,0.2537058132497594,-1.0587118231426924,-1.461214801408723
2024-09-23 05:34:07.441794,41.69,21.4707,-0.015244750680058252,0.019086441680196593,1.0107906586533293,0.27994727602181957,-1.0587118231426924,-1.434973311956227
2024-09-23 05:34:07.484324,41.69,21.470837,-0.015244750680058252,0.019086441680196593,1.0107906586533293,0.27994727602181957,-1.1199610328167677,-1.4218526205908506
2024-09-23 05:34:07.495594,41.69,21.470837,-0.015000815177668611,0.017927828549609635,1.0132908213515286,0.27994727602181957,-1.1199610328167677,-1.4218526205908506
2024-09-23 05:34:07.537921,41.69,21.470888,-0.015000815177668611,0.017927828549609635,1.0132908213515286,0.3193667930966243,-1.0762442846808582,-1.3780785628784449
2024-09-23 05:34:07.549712,41.69,21.470888,-0.012500713238536278,0.02012303845233509,1.0132908213515286,0.3193667930966243,-1.0762442846808582,-1.3780785628784449
2024-09-23 05:34:07.582337,41.69,21.470888,-0.012500713238536278,0.02012303845233509,1.0135956860463553,0.3849704900474288,-1.1024857741333545,-1.3780785628784449
2024-09-23 05:34:07.593846,41.69,21.470938,-0.01481783924724956,0.02012303845233509,1.0135956860463553,0.3849704900474288,-1.1024857741333545,-1.404320052330941
2024-09-23 05:34:07.636831,41.69,21.47103,-0.01481783924724956,0.02176952106872465,1.0143883731387076,0.3674952580444515,-1.1462025222692638,-1.3255955839734523
2024-09-23 05:34:07.679528,41.83,21.47103,-0.01378124399408774,0.01890346574977754,1.0143883731387076,0.3674952580444515,-1.1462025222692638,-1.3255955839734523
2024-09-23 05:34:07.690727,41.83,21.47103,-0.01378124399408774,0.01890346574977754,1.0143274196426437,0.3499627431454137,-1.1506142924420535,-1.404320052330941
2024-09-23 05:34:07.734086,41.83,21.471082,-0.015976452377836518,0.019086441680196593,1.009815013858278,0.24935132597303017,-1.0980740039605648,-1.404320052330941
2024-09-23 05:34:07.777255,41.83,21.471132,-0.014634963569291141,0.019086441680196593,1.009815013858278,0.24935132597303017,-1.0980740039605648,-1.3693696416858583
2024-09-23 05:34:07.788824,41.83,21.471132,-0.014634963569291141,0.020306014382754138,1.014205512650516,0.31060053564710544,-1.0980740039605648,-1.3693696416858583
2024-09-23 05:34:07.831647,41.83,21.471183,-0.015183792627064338,0.01939133523558015,1.014144559154452,0.31060053564710544,-1.2774671723864972,-1.4218526205908506
2024-09-23 05:34:07.874410,41.83,21.471183,-0.015183792627064338,0.01939133523558015,1.014144559154452,0.37620423259790986,-1.1724439050000162,-1.4218526205908506
2024-09-23 05:34:07.886428,41.83,21.471234,-0.015671560341429636,0.02201345505213762,1.014144559154452,0.37620423259790986,-1.1724439050000162,-1.4218526205908506
2024-09-23 05:34:07.929052,41.83,21.471285,-0.015305708733052167,0.02201345505213762,1.0095710054450078,0.3368419984191656,-1.1680894444037229,-1.294999633924663
2024-09-23 05:34:07.971887,41.83,21.471285,-0.015305708733052167,0.019452293288574063,1.0134736818397203,0.35872900059493257,-1.1680894444037229,-1.294999633924663
2024-09-23 05:34:07.982994,41.83,21.471371,-0.015305708733052167,0.019452293288574063,1.0134736818397203,0.35872900059493257,-1.0849533125951887,-1.3299501512914895
2024-09-23 05:34:08.025612,41.83,21.471371,-0.01433007153288426,0.020732824044125523,1.0115223922496177,0.3193667930966243,-1.1855647030871361,-1.3693696416858583
2024-09-23 05:34:08.068251,41.83,21.471423,-0.013049540777332799,0.020732824044125523,1.0115223922496177,0.3193667930966243,-1.1855647030871361,-1.3693696416858583
2024-09-23 05:34:08.079931,41.83,21.471423,-0.013049540777332799,0.020245056329760223,1.013778546534547,0.35872900059493257,-1.1068402347296475,-1.3693696416858583
2024-09-23 05:34:08.121731,41.83,21.471474,-0.01378124399408774,0.021159735476934217,1.0148152420401695,0.35872900059493257,-1.1068402347296475,-1.461214801408723
2024-09-23 05:34:08.133788,41.83,21.471474,-0.01378124399408774,0.021159735476934217,1.0148152420401695,0.35872900059493257,-1.1068402347296475,-1.461214801408723
2024-09-23 05:34:08.165984,41.83,21.471474,-0.01378124399408774,0.021159735476934217,1.0148152420401695,0.35872900059493257,-1.0587118231426924,-1.448094003321603
2024-09-23 05:34:08.177860,41.83,21.471524,-0.013537308491698099,0.01768389456619667,1.0121322188537785,0.35872900059493257,-1.0587118231426924,-1.448094003321603
2024-09-23 05:34:08.221222,41.83,21.471575,-0.011220081471035847,0.02085484192155066,1.0121322188537785,0.27994727602181957,-1.1506142924420535,-1.3649578715130686
2024-09-23 05:34:08.263347,41.83,21.471575,-0.011220081471035847,0.02085484192155066,1.0157299333391567,0.3149550229238346,-1.1506142924420535,-1.3649578715130686
2024-09-23 05:34:08.274691,41.83,21.471626,-0.011951885699739756,0.02085484192155066,1.0157299333391567,0.3149550229238346,-1.1637349838074296,-1.4087318225037306
2024-09-23 05:34:08.317830,41.83,21.471626,-0.011951885699739756,0.02085484192155066,1.014205512650516,0.40244569536997005,-1.0674780539117754,-1.4087318225037306
2024-09-23 05:34:08.359666,41.83,21.471626,-0.011951885699739756,0.02085484192155066,1.014205512650516,0.40244569536997005,-1.0674780539117754,-1.4568603408124299
2024-09-23 05:34:08.371256,41.83,21.471713,-0.015610600769459046,0.020366972435748053,1.0148762927507406,0.3456082558686845,-1.0674780539117754,-1.4568603408124299
2024-09-23 05:34:08.414655,41.83,21.471764,-0.015915494324842603,0.018476656088406155,1.0148762927507406,0.3456082558686845,-1.1855647030871361,-1.434973311956227
2024-09-23 05:34:08.426734,41.83,21.471764,-0.015915494324842603,0.018476656088406155,1.0131688171448936,0.3456082558686845,-1.1855647030871361,-1.434973311956227
2024-09-23 05:34:08.458270,41.83,21.471764,-0.015915494324842603,0.018476656088406155,1.0131688171448936,0.27123832814879717,-1.1111946953259408,-1.434973311956227
2024-09-23 05:34:08.470140,41.83,21.471815,-0.01146401621393715,0.022196330730096036,1.0131688171448936,0.27123832814879717,-1.1111946953259408,-1.43932777255252
2024-09-23 05:34:08.512877,41.83,21.471866,-0.010915188675140628,0.022196330730096036,1.0109736163560281,0.2143435924112331,-1.1156065722204744,-1.404320052330941
2024-09-23 05:34:08.555688,41.83,21.471866,-0.010915188675140628,0.018842507696783625,1.0157908868352208,0.2143435924112331,-1.1156065722204744,-1.404320052330941
2024-09-23 05:34:08.566641,41.83,21.471916,-0.010915188675140628,0.018842507696783625,1.0157908868352208,0.3368419984191656,-1.1374934943549335,-1.426207081187144
2024-09-23 05:34:08.609105,41.83,21.471916,-0.01481783924724956,0.019513251341567978,1.0120102146471432,0.3411964856958948,-1.1374934943549335,-1.426207081187144
2024-09-23 05:34:08.652063,41.83,21.471916,-0.01481783924724956,0.019513251341567978,1.0120102146471432,0.3411964856958948,-1.1899764732599258,-1.426207081187144
2024-09-23 05:34:08.663659,41.83,21.472006,-0.012744546969488612,0.02067186599113161,1.0109126628599643,0.3411964856958948,-1.1899764732599258,-1.474335492774099
2024-09-23 05:34:08.707206,41.8,21.472057,-0.012073802565215924,0.02067186599113161,1.0109126628599643,0.3368419984191656,-1.1374934943549335,-1.448094003321603
2024-09-23 05:34:08.719572,41.8,21.472057,-0.012073802565215924,0.020610907938137694,1.0109126628599643,0.3368419984191656,-1.1374934943549335,-1.448094003321603
2024-09-23 05:34:08.751088,41.8,21.472057,-0.012073802565215924,0.020610907938137694,1.013778546534547,0.27123832814879717,-1.1374934943549335,-1.448094003321603
2024-09-23 05:34:08.762355,41.8,21.472108,-0.016891131525010507,0.020610907938137694,1.013778546534547,0.27123832814879717,-1.1680894444037229,-1.469981032177806
2024-09-23 05:34:08.805788,41.8,21.472159,-0.016891131525010507,0.018964423802771455,1.0151202039495033,0.3149550229238346,-1.1812102424908428,-1.3606034109167755
2024-09-23 05:34:08.847970,41.8,21.472159,-0.014756881194255646,0.01811080599900536,1.0151202039495033,0.3149550229238346,-1.1812102424908428,-1.3606034109167755
2024-09-23 05:34:08.859829,41.8,21.472159,-0.014756881194255646,0.01811080599900536,1.0123761300525411,0.3499627431454137,-1.1637349838074296,-1.426207081187144
2024-09-23 05:34:08.902600,41.8,21.472249,-0.01396421992450679,0.018964423802771455,1.0151202039495033,0.2843590461946093,-1.3824903330512346,-1.426207081187144
2024-09-23 05:34:08.945052,41.8,21.472301,-0.01396421992450679,0.018964423802771455,1.0151202039495033,0.2843590461946093,-1.3824903330512346,-1.3518370734259486
2024-09-23 05:34:08.956181,41.8,21.472301,-0.01713506550842347,0.02097675802753849,1.0148762927507406,0.24935132597303017,-1.3824903330512346,-1.3518370734259486
2024-09-23 05:34:08.999435,41.8,21.472352,-0.015000815177668611,0.021098777423940302,1.0148762927507406,0.24935132597303017,-1.224984193481505,-1.4174980532728136
2024-09-23 05:34:09.011346,41.8,21.472352,-0.015000815177668611,0.021098777423940302,1.0145103773453428,0.24935132597303017,-1.224984193481505,-1.4174980532728136
2024-09-23 05:34:09.043340,41.8,21.472352,-0.015000815177668611,0.021098777423940302,1.0145103773453428,0.3674952580444515,-1.1287272635858505,-1.4174980532728136
2024-09-23 05:34:09.054436,41.8,21.472402,-0.012622630104012445,0.019879204721382753,1.0145103773453428,0.3674952580444515,-1.1287272635858505,-1.491868061034009
2024-09-23 05:34:09.097037,41.8,21.472453,-0.012622630104012445,0.019879204721382753,1.0106077981651376,0.3368419984191656,-1.0630662837389857,-1.3606034109167755
2024-09-23 05:34:09.109276,41.8,21.472453,-0.016525279916633037,0.019879204721382753,1.0106077981651376,0.3368419984191656,-1.0630662837389857,-1.3606034109167755
2024-09-23 05:34:09.141617,41.8,21.472453,-0.016525279916633037,0.0187205915907958,1.0134736818397203,0.3368419984191656,-1.0630662837389857,-1.3606034109167755
2024-09-23 05:34:09.153603,41.8,21.472542,-0.016525279916633037,0.0187205915907958,1.0134736818397203,0.41121195281948897,-1.0455910250555724,-1.3518370734259486
2024-09-23 05:34:09.196539,41.8,21.472542,-0.01914740125216718,0.019574312684975875,1.0128639524500669,0.3499627431454137,-1.1812102424908428,-1.426207081187144
2024-09-23 05:34:09.239842,41.8,21.472593,-0.012378695361111141,0.018598572194393984,1.0128639524500669,0.3499627431454137,-1.1812102424908428,-1.426207081187144
2024-09-23 05:34:09.251349,41.8,21.472593,-0.012378695361111141,0.018598572194393984,1.0083514494511938,0.3324875378228724,-1.0937195433642715,-1.426207081187144
2024-09-23 05:34:09.293952,41.8,21.472644,-0.012988480952901577,0.01939133523558015,1.0144494238492787,0.35872900059493257,-1.0937195433642715,-1.3693696416858583
2024-09-23 05:34:09.335850,41.8,21.472644,-0.012988480952901577,0.01939133523558015,1.0144494238492787,0.35872900059493257,-1.0674780539117754,-1.3737241022821516
2024-09-23 05:34:09.347560,41.8,21.472694,-0.014025177977500705,0.021037716080532405,1.00969310686615,0.35872900059493257,-1.0674780539117754,-1.3737241022821516
2024-09-23 05:34:09.389863,41.8,21.472745,-0.011159123418041933,0.021037716080532405,1.00969310686615,0.39809120809324083,-1.0937195433642715,-1.413086283100024
2024-09-23 05:34:09.402034,41.8,21.472745,-0.011159123418041933,0.01768389456619667,1.00969310686615,0.39809120809324083,-1.0937195433642715,-1.413086283100024
2024-09-23 05:34:09.434317,41.8,21.472745,-0.011159123418041933,0.01768389456619667,1.012802998954003,0.3630834878716618,-1.0937195433642715,-1.413086283100024
2024-09-23 05:34:09.445380,41.8,21.472796,-0.015122834574070423,0.01768389456619667,1.012802998954003,0.3630834878716618,-1.1068402347296475,-1.461214801408723
2024-09-23 05:34:09.487226,41.8,21.472796,-0.015122834574070423,0.02280611632188647,1.0118883076550156,0.2668265312955715,-1.0543573625463993,-1.3430708426568656
2024-09-23 05:34:09.499015,41.8,21.472883,-0.015122834574070423,0.02280611632188647,1.0118883076550156,0.2668265312955715,-1.0543573625463993,-1.3430708426568656
2024-09-23 05:34:09.531838,41.8,21.472883,-0.011281142054955407,0.01975718684395762,1.0114614387535539,0.2668265312955715,-1.0543573625463993,-1.3430708426568656
2024-09-23 05:34:09.542944,41.8,21.472883,-0.011281142054955407,0.01975718684395762,1.0114614387535539,0.3456082558686845,-1.1111946953259408,-1.43932777255252
2024-09-23 05:34:09.585355,41.8,21.472934,-0.01585453627184869,0.01798878660260355,1.0123761300525411,0.3411964856958948,-1.1506142924420535,-1.43932777255252
2024-09-23 05:34:09.627890,41.8,21.472985,-0.01585453627184869,0.01798878660260355,1.0123761300525411,0.3411964856958948,-1.1506142924420535,-1.434973311956227
2024-09-23 05:34:09.639272,41.8,21.472985,-0.012805606793919833,0.01939133523558015,1.013778546534547,0.3280757409696467,-1.1506142924420535,-1.434973311956227
2024-09-23 05:34:09.684490,41.8,21.472985,-0.012805606793919833,0.01939133523558015,1.013778546534547,0.3280757409696467,-1.1111946953259408,-1.434973311956227
2024-09-23 05:34:09.726907,42.03,21.473036,-0.012378695361111141,0.01939133523558015,1.013778546534547,0.3280757409696467,-1.1111946953259408,-1.4437395427253097
2024-09-23 05:34:09.738722,42.03,21.473036,-0.012378695361111141,0.020245056329760223,1.0116442992417454,0.4374534422719851,-1.1111946953259408,-1.4437395427253097
2024-09-23 05:34:09.781935,42.03,21.473086,-0.010549337066763158,0.01823272210499319,1.0131688171448936,0.4374534422719851,-1.0805987452771515,-1.3999655917346479
2024-09-23 05:34:09.823673,42.03,21.473086,-0.010549337066763158,0.01823272210499319,1.0131688171448936,0.37184974532118065,-0.9493340951599181,-1.3999655917346479
2024-09-23 05:34:09.835486,42.03,21.473137,-0.016830173472016593,0.01939133523558015,1.0131688171448936,0.37184974532118065,-0.9493340951599181,-1.404320052330941
2024-09-23 05:34:09.879750,42.03,21.473137,-0.016830173472016593,0.01939133523558015,1.0116442992417454,0.37184974532118065,-0.9493340951599181,-1.404320052330941
2024-09-23 05:34:09.922700,42.03,21.473137,-0.016830173472016593,0.01939133523558015,1.0116442992417454,0.3062460483703762,-1.1024857741333545,-1.3562488435987383
2024-09-23 05:34:09.934047,42.03,21.473224,-0.013110498830326714,0.018049744655597465,1.0116442992417454,0.3062460483703762,-1.1024857741333545,-1.3562488435987383
2024-09-23 05:34:09.976576,42.03,21.473275,-0.01695219134944173,0.018049744655597465,1.0133517748475924,0.3062460483703762,-1.1024857741333545,-1.3212411233771593
2024-09-23 05:34:10.019943,42.03,21.473275,-0.01695219134944173,0.022318348607521174,1.0129859566567019,0.2274643237972632,-1.1024857741333545,-1.3212411233771593
2024-09-23 05:34:10.031637,42.03,21.473371,-0.01695219134944173,0.022318348607521174,1.0129859566567019,0.2274643237972632,-1.1330817241821438,-1.3693696416858583
2024-09-23 05:34:10.074188,42.03,21.473371,-0.014147094083488534,0.022989092252305523,1.0145713308414066,0.3324875378228724,-1.0587118231426924,-1.3824903330512346
2024-09-23 05:34:10.118558,42.03,21.473422,-0.01664729931303485,0.020001120827370582,1.0145713308414066,0.3324875378228724,-1.0587118231426924,-1.3824903330512346
2024-09-23 05:34:10.129806,42.03,21.473422,-0.01664729931303485,0.020001120827370582,1.0117664006628877,0.3062460483703762,-1.1768557818945498,-1.3824903330512346
2024-09-23 05:34:10.162377,42.03,21.473422,-0.01664729931303485,0.020001120827370582,1.0117664006628877,0.3062460483703762,-1.1768557818945498,-1.4306188513599336
2024-09-23 05:34:10.173820,42.03,21.473517,-0.014878899071680782,0.01695219134944173,1.0151811574455674,0.29747979092085736,-1.1768557818945498,-1.4306188513599336
2024-09-23 05:34:10.217000,42.03,21.473569,-0.01365932788809991,0.01695219134944173,1.0151811574455674,0.29747979092085736,-1.2862334031555802,-1.448094003321603
2024-09-23 05:34:10.228539,42.03,21.473569,-0.01365932788809991,0.018964423802771455,1.011034569852092,0.29747979092085736,-1.2862334031555802,-1.448094003321603
2024-09-23 05:34:10.261302,42.03,21.473569,-0.01365932788809991,0.018964423802771455,1.011034569852092,0.3324875378228724,-1.2862334031555802,-1.448094003321603
2024-09-23 05:34:10.272740,42.03,21.473619,-0.011159123418041933,0.022318348607521174,1.011034569852092,0.3324875378228724,-1.0849533125951887,-1.4655692620050162
2024-09-23 05:34:10.315186,42.03,21.47367,-0.011159123418041933,0.022318348607521174,1.0153641151482662,0.3193667930966243,-1.2336931146740913,-1.3212411233771593
2024-09-23 05:34:10.326828,42.03,21.47367,-0.01536666678604608,0.022318348607521174,1.0153641151482662,0.3193667930966243,-1.2336931146740913,-1.3212411233771593
2024-09-23 05:34:10.359107,42.03,21.47367,-0.01536666678604608,0.02189143717471248,1.018656964938818,0.3193667930966243,-1.2336931146740913,-1.3212411233771593
2024-09-23 05:34:10.370349,42.03,21.47367,-0.01536666678604608,0.02189143717471248,1.018656964938818,0.27559278874509036,-1.2293386540777982,-1.3212411233771593
2024-09-23 05:34:10.414026,42.03,21.47376,-0.01146401621393715,0.02176952106872465,1.0151202039495033,0.27559278874509036,-1.2293386540777982,-1.5443510399390012
2024-09-23 05:34:10.425758,42.03,21.47376,-0.01146401621393715,0.02176952106872465,1.0151202039495033,0.3324875378228724,-1.2293386540777982,-1.5443510399390012
2024-09-23 05:34:10.458627,42.03,21.473812,-0.01146401621393715,0.02176952106872465,1.0151202039495033,0.3324875378228724,-1.1549687530383468,-1.4524485706396402
2024-09-23 05:34:10.470293,42.03,21.473812,-0.014512945691866003,0.02048899031317319,1.0108517093639005,0.3324875378228724,-1.1549687530383468,-1.4524485706396402
2024-09-23 05:34:10.512823,42.03,21.473862,-0.012622630104012445,0.020610907938137694,1.0108517093639005,0.31060053564710544,-1.1024857741333545,-1.3562488435987383
2024-09-23 05:34:10.608236,42.03,21.473913,-0.012622630104012445,0.020610907938137694,1.0131688171448936,0.3193667930966243,-1.1111946953259408,-1.3824903330512346
2024-09-23 05:34:10.620399,42.03,21.473913,-0.012744546969488612,0.020610907938137694,1.0131688171448936,0.3193667930966243,-1.1111946953259408,-1.3824903330512346
2024-09-23 05:34:10.654190,42.03,21.473913,-0.012744546969488612,0.021281651582922046,1.0195716562378054,0.37184974532118065,-1.1111946953259408,-1.3824903330512346
2024-09-23 05:34:10.665457,42.03,21.473964,-0.012744546969488612,0.021281651582922046,1.0195716562378054,0.37184974532118065,-1.1156065722204744,-1.483101830264926
2024-09-23 05:34:10.708656,42.03,21.473964,-0.01182986782231462,0.015915494324842603,1.012498037044669,0.27123832814879717,-1.1156065722204744,-1.3868447936475277
2024-09-23 05:34:10.750606,41.93,21.474053,-0.01396421992450679,0.01695219134944173,1.012498037044669,0.27123832814879717,-1.1156065722204744,-1.3868447936475277
2024-09-23 05:34:10.762586,41.93,21.474053,-0.01396421992450679,0.01695219134944173,1.0153031616522024,0.3499627431454137,-1.1680894444037229,-1.3868447936475277
2024-09-23 05:34:10.805335,41.93,21.474105,-0.014025177977500705,0.019452293288574063,1.0164616669354454,0.3193667930966243,-1.1680894444037229,-1.3343619214642792
2024-09-23 05:34:10.847806,41.93,21.474201,-0.014025177977500705,0.019452293288574063,1.0164616669354454,0.3193667930966243,-1.0718325145080685,-1.3212411233771593
2024-09-23 05:34:10.859020,41.93,21.474201,-0.014391029585878175,0.019086441680196593,1.0131688171448936,0.3193667930966243,-1.0718325145080685,-1.3212411233771593
2024-09-23 05:34:10.902427,41.93,21.474251,-0.015305708733052167,0.01926931735815501,1.0131688171448936,0.37184974532118065,-1.1287272635858505,-1.4174980532728136
2024-09-23 05:34:10.944523,41.93,21.474251,-0.015305708733052167,0.01926931735815501,1.015668979843093,0.3280757409696467,-1.1287272635858505,-1.4174980532728136
2024-09-23 05:34:10.955493,41.93,21.474302,-0.017074107455429557,0.01926931735815501,1.015668979843093,0.3280757409696467,-1.1418479549512268,-1.434973311956227
2024-09-23 05:34:10.997201,41.93,21.474302,-0.017074107455429557,0.023842813346485598,1.0132908213515286,0.2055773349617142,-1.0893650827679784,-1.3999655917346479
2024-09-23 05:34:11.009327,41.93,21.474394,-0.017074107455429557,0.023842813346485598,1.0132908213515286,0.2055773349617142,-1.0893650827679784,-1.3999655917346479
2024-09-23 05:34:11.042261,41.93,21.474394,-0.010366361136344109,0.01853761414140007,1.0132908213515286,0.2055773349617142,-1.0893650827679784,-1.3999655917346479
2024-09-23 05:34:11.054238,41.93,21.474394,-0.010366361136344109,0.01853761414140007,1.0145713308414066,0.3018342781975865,-1.1899764732599258,-1.469981032177806
2024-09-23 05:34:11.096861,41.93,21.474445,-0.013171458402297304,0.019879204721382753,1.0125589905407328,0.39809120809324083,-1.1899764732599258,-1.469981032177806
2024-09-23 05:34:11.141081,41.93,21.474445,-0.013171458402297304,0.019879204721382753,1.0125589905407328,0.39809120809324083,-0.9974626134686172,-1.4087318225037306
2024-09-23 05:34:11.153330,41.93,21.474496,-0.014512945691866003,0.018659531766364576,1.013778546534547,0.39809120809324083,-0.9974626134686172,-1.4087318225037306
2024-09-23 05:34:11.187219,41.93,21.474496,-0.014512945691866003,0.018659531766364576,1.013778546534547,0.3149550229238346,-0.9974626134686172,-1.4087318225037306
2024-09-23 05:34:11.199012,41.93,21.474547,-0.012500713238536278,0.020793883868556746,1.013778546534547,0.3149550229238346,-1.15932321363464,-1.43932777255252
2024-09-23 05:34:11.240843,41.93,21.474547,-0.012500713238536278,0.020793883868556746,1.0098759673543418,0.35872900059493257,-1.0937195433642715,-1.3956111311383546
2024-09-23 05:34:11.252307,41.93,21.474598,-0.014512945691866003,0.020793883868556746,1.0098759673543418,0.35872900059493257,-1.0937195433642715,-1.3956111311383546
2024-09-23 05:34:11.285158,41.93,21.474598,-0.014512945691866003,0.01811080599900536,1.0098759673543418,0.35872900059493257,-1.0937195433642715,-1.3956111311383546
2024-09-23 05:34:11.297215,41.93,21.474648,-0.014512945691866003,0.01811080599900536,1.0131078636488298,0.3324875378228724,-1.0980740039605648,-1.3474826128296553
2024-09-23 05:34:11.340577,41.93,21.474648,-0.014147094083488534,0.019025483627202678,1.01737645544894,0.4287444677185267,-1.0018170740649104,-1.4087318225037306
2024-09-23 05:34:11.383593,41.93,21.474736,-0.014208053655459124,0.019025483627202678,1.01737645544894,0.4287444677185267,-1.0018170740649104,-1.4087318225037306
2024-09-23 05:34:11.395399,41.93,21.474736,-0.014208053655459124,0.021952496999143704,1.0077417200615404,0.3411964856958948,-1.1287272635858505,-1.4087318225037306
2024-09-23 05:34:11.438416,41.93,21.474787,-0.01408613603049462,0.01975718684395762,1.0138396944596255,0.26247207069927825,-1.1287272635858505,-1.4437395427253097
2024-09-23 05:34:11.480625,41.93,21.474787,-0.01408613603049462,0.01975718684395762,1.0138396944596255,0.26247207069927825,-1.203097164625302,-1.4174980532728136
2024-09-23 05:34:11.492212,41.93,21.474838,-0.012012843752733671,0.017744852619190586,1.0130469101527657,0.26247207069927825,-1.203097164625302,-1.4174980532728136
2024-09-23 05:34:11.536028,41.93,21.474889,-0.015549642716465131,0.01914740125216718,1.0130469101527657,0.2405850685235113,-1.2468139127612115,-1.483101830264926
2024-09-23 05:34:11.579129,41.93,21.474889,-0.015549642716465131,0.01914740125216718,1.012498037044669,0.3630834878716618,-1.1768557818945498,-1.483101830264926
2024-09-23 05:34:11.590312,41.93,21.474939,-0.013903160100075569,0.01914740125216718,1.012498037044669,0.3630834878716618,-1.1768557818945498,-1.3168293532043696
2024-09-23 05:34:11.633577,41.93,21.475028,-0.013903160100075569,0.02164760496273682,1.0165836711420804,0.3368419984191656,-1.0805987452771515,-1.3474826128296553
2024-09-23 05:34:11.676981,41.93,21.475028,-0.016098470255261652,0.02048899031317319,1.0153641151482662,0.3368419984191656,-1.0805987452771515,-1.3474826128296553
2024-09-23 05:34:11.688835,41.93,21.475028,-0.016098470255261652,0.02048899031317319,1.0153641151482662,0.3280757409696467,-1.1156065722204744,-1.474335492774099
2024-09-23 05:34:11.731716,41.93,21.475079,-0.014756881194255646,0.018781549643789714,1.011095523348156,0.3411964856958948,-1.0849533125951887,-1.474335492774099
2024-09-23 05:34:11.774406,41.61,21.47513,-0.017013149402435646,0.018781549643789714,1.011095523348156,0.3411964856958948,-1.0849533125951887,-1.3343619214642792
2024-09-23 05:34:11.786537,41.61,21.47513,-0.017013149402435646,0.02122069352992813,1.0160958487445546,0.3324875378228724,-1.0849533125951887,-1.3343619214642792
2024-09-23 05:34:11.829187,41.61,21.475181,-0.012073802565215924,0.018415698035412244,1.012498037044669,0.3324875378228724,-1.1330817241821438,-1.461214801408723
2024-09-23 05:34:11.871402,41.61,21.475181,-0.012073802565215924,0.018415698035412244,1.012498037044669,0.2318188110739924,-1.0805987452771515,-1.461214801408723
2024-09-23 05:34:11.924684,41.61,21.475231,-0.015183792627064338,0.021159735476934217,1.0131078636488298,0.2318188110739924,-1.0805987452771515,-1.3343619214642792
2024-09-23 05:34:11.937046,41.61,21.475231,-0.015183792627064338,0.021159735476934217,1.0131078636488298,0.3543172304221429,-1.0805987452771515,-1.3343619214642792
2024-09-23 05:34:11.970022,41.61,21.475282,-0.015183792627064338,0.021159735476934217,1.0131078636488298,0.3543172304221429,-1.1374934943549335,-1.3999655917346479
2024-09-23 05:34:11.981318,41.61,21.475282,-0.015122834574070423,0.019940162774376668,1.015973941752427,0.3543172304221429,-1.1374934943549335,-1.3999655917346479
2024-09-23 05:34:12.025054,41.61,21.475369,-0.013476350438704184,0.020610907938137694,1.015973941752427,0.38932495064372197,-1.0630662837389857,-1.3780785628784449
2024-09-23 05:34:12.067795,41.61,21.475369,-0.013476350438704184,0.020610907938137694,1.014022554947817,0.27559278874509036,-1.0980740039605648,-1.3780785628784449
2024-09-23 05:34:12.079988,41.61,21.47542,-0.012744546969488612,0.020610907938137694,1.014022554947817,0.27559278874509036,-1.0980740039605648,-1.3737241022821516
2024-09-23 05:34:12.112194,41.61,21.47542,-0.012744546969488612,0.019452293288574063,1.014022554947817,0.27559278874509036,-1.0980740039605648,-1.3737241022821516
2024-09-23 05:34:12.123625,41.61,21.475515,-0.012744546969488612,0.019452293288574063,1.0152421109416312,0.3062460483703762,-1.1068402347296475,-1.3911993609655648
2024-09-23 05:34:12.165773,41.61,21.475515,-0.014878899071680782,0.021159735476934217,1.0147542885441054,0.3062460483703762,-1.1068402347296475,-1.3911993609655648
2024-09-23 05:34:12.176927,41.61,21.475515,-0.014878899071680782,0.021159735476934217,1.0147542885441054,0.39809120809324083,-1.1549687530383468,-1.474335492774099
2024-09-23 05:34:12.209973,41.61,21.475567,-0.014878899071680782,0.021159735476934217,1.0147542885441054,0.39809120809324083,-1.1549687530383468,-1.474335492774099
2024-09-23 05:34:12.221097,41.61,21.475567,-0.015671560341429636,0.01975718684395762,1.0189618296336447,0.3149550229238346,-1.1156065722204744,-1.474335492774099
2024-09-23 05:34:12.263649,41.61,21.475617,-0.013354434332716355,0.020427930488741967,1.0189618296336447,0.3149550229238346,-1.1156065722204744,-1.474335492774099
2024-09-23 05:34:12.274843,41.61,21.475617,-0.013354434332716355,0.020427930488741967,1.0074367581522063,0.27994727602181957,-1.1156065722204744,-1.474335492774099
2024-09-23 05:34:12.306963,41.61,21.475617,-0.013354434332716355,0.020427930488741967,1.0074367581522063,0.27994727602181957,-1.0543573625463993,-1.474335492774099
2024-09-23 05:34:12.319062,41.61,21.475668,-0.015976452377836518,0.017379001010813116,1.0108517093639005,0.27994727602181957,-1.0543573625463993,-1.3080631224352866
2024-09-23 05:34:12.361887,41.61,21.475719,-0.015976452377836518,0.017379001010813116,1.0108517093639005,0.3411964856958948,-1.1418479549512268,-1.413086283100024
2024-09-23 05:34:12.373393,41.61,21.475719,-0.012500713238536278,0.020245056329760223,1.0108517093639005,0.3411964856958948,-1.1418479549512268,-1.413086283100024
2024-09-23 05:34:12.406191,41.61,21.475719,-0.012500713238536278,0.020245056329760223,1.0148152420401695,0.3411964856958948,-1.1418479549512268,-1.413086283100024
2024-09-23 05:34:12.417570,41.61,21.47577,-0.014695923141261731,0.020245056329760223,1.0148152420401695,0.18810211629895493,-1.1287272635858505,-1.3387163820605725
2024-09-23 05:34:12.460619,41.61,21.47577,-0.014695923141261731,0.01963527073796979,1.0157299333391567,0.40685746554275976,-1.1637349838074296,-1.4306188513599336
2024-09-23 05:34:12.472126,41.61,21.475856,-0.014695923141261731,0.01963527073796979,1.0157299333391567,0.40685746554275976,-1.1637349838074296,-1.4306188513599336
2024-09-23 05:34:12.503908,41.61,21.475856,-0.016159429827232244,0.019818144896951533,1.0157299333391567,0.40685746554275976,-1.1637349838074296,-1.4306188513599336
2024-09-23 05:34:12.515376,41.61,21.475856,-0.016159429827232244,0.019818144896951533,1.0159129882563631,0.3456082558686845,-1.1637349838074296,-1.4306188513599336
2024-09-23 05:34:12.558265,41.61,21.475908,-0.013293374508285133,0.018842507696783625,1.0159129882563631,0.3456082558686845,-1.0980740039605648,-1.413086283100024
2024-09-23 05:34:12.570545,41.61,21.475908,-0.013293374508285133,0.018842507696783625,1.0153031616522024,0.3456082558686845,-1.0980740039605648,-1.413086283100024
2024-09-23 05:34:12.603744,41.61,21.475908,-0.013293374508285133,0.018842507696783625,1.0153031616522024,0.3499627431454137,-1.1462025222692638,-1.4437395427253097
2024-09-23 05:34:12.615154,41.61,21.475959,-0.013598266544692013,0.01786687049661572,1.0153031616522024,0.3499627431454137,-1.1462025222692638,-1.4437395427253097
2024-09-23 05:34:12.657784,41.61,21.476009,-0.013598266544692013,0.01786687049661572,1.0125589905407328,0.3411964856958948,-1.1024857741333545,-1.4524485706396402
2024-09-23 05:34:12.700381,41.61,21.476009,-0.014695923141261731,0.020062078880364497,1.015973941752427,0.3411964856958948,-1.1024857741333545,-1.4524485706396402
2024-09-23 05:34:12.713015,41.61,21.476009,-0.014695923141261731,0.020062078880364497,1.015973941752427,0.31060053564710544,-1.2468139127612115,-1.469981032177806
2024-09-23 05:34:12.746690,41.61,21.47606,-0.014695923141261731,0.020062078880364497,1.015973941752427,0.31060053564710544,-1.2468139127612115,-1.469981032177806
2024-09-23 05:34:12.758341,41.61,21.47606,-0.01219582044264106,0.021830479121718566,1.0183521002439913,0.37184974532118065,-1.1812102424908428,-1.469981032177806
2024-09-23 05:34:12.801196,42.02,21.476149,-0.012744546969488612,0.02067186599113161,1.0098759673543418,0.37184974532118065,-1.1812102424908428,-1.5443510399390012
2024-09-23 05:34:12.813040,42.02,21.476149,-0.012744546969488612,0.02067186599113161,1.0098759673543418,0.3018342781975865,-1.1812102424908428,-1.5443510399390012
2024-09-23 05:34:12.846066,42.02,21.476149,-0.012744546969488612,0.02067186599113161,1.0098759673543418,0.3018342781975865,-1.1156065722204744,-1.413086283100024
2024-09-23 05:34:12.857408,42.02,21.476201,-0.014269113479890346,0.01798878660260355,1.0120712653577144,0.3018342781975865,-1.1156065722204744,-1.413086283100024
2024-09-23 05:34:12.900206,42.02,21.476252,-0.013232416455291218,0.019330377182586234,1.0120712653577144,0.3280757409696467,-1.1987427040290088,-1.413086283100024
2024-09-23 05:34:12.943196,42.02,21.476252,-0.013232416455291218,0.019330377182586234,1.0115833457456815,0.3237212803733535,-1.1987427040290088,-1.413086283100024
2024-09-23 05:34:12.955163,42.02,21.476302,-0.01573262016586086,0.019330377182586234,1.0115833457456815,0.3237212803733535,-1.1637349838074296,-1.413086283100024
2024-09-23 05:34:12.997687,42.02,21.476302,-0.01573262016586086,0.01975718684395762,1.0092051872541172,0.31060053564710544,-1.1374934943549335,-1.2993542012427002
2024-09-23 05:34:13.009465,42.02,21.476393,-0.01573262016586086,0.01975718684395762,1.0092051872541172,0.31060053564710544,-1.1374934943549335,-1.2993542012427002
2024-09-23 05:34:13.042485,42.02,21.476393,-0.012805606793919833,0.021830479121718566,1.0107297051572652,0.31060053564710544,-1.1374934943549335,-1.2993542012427002
2024-09-23 05:34:13.054354,42.02,21.476393,-0.012805606793919833,0.021830479121718566,1.0107297051572652,0.37620423259790986,-1.1024857741333545,-1.3737241022821516
2024-09-23 05:34:13.087048,42.02,21.476444,-0.012805606793919833,0.021830479121718566,1.0107297051572652,0.37620423259790986,-1.1024857741333545,-1.3737241022821516
2024-09-23 05:34:13.097889,42.02,21.476444,-0.01408613603049462,0.020610907938137694,1.0157299333391567,0.3018342781975865,-1.224984193481505,-1.3737241022821516
2024-09-23 05:34:13.141402,42.02,21.476495,-0.013232416455291218,0.018598572194393984,1.0157299333391567,0.3018342781975865,-1.224984193481505,-1.3956111311383546
2024-09-23 05:34:13.152826,42.02,21.476495,-0.013232416455291218,0.018598572194393984,1.0134127283436565,0.3149550229238346,-1.224984193481505,-1.3956111311383546
2024-09-23 05:34:13.184662,42.02,21.476495,-0.013232416455291218,0.018598572194393984,1.0134127283436565,0.3149550229238346,-1.2424594521649182,-1.3956111311383546
2024-09-23 05:34:13.196410,42.02,21.476546,-0.013537308491698099,0.019452293288574063,1.013778546534547,0.3149550229238346,-1.2424594521649182,-1.3606034109167755
2024-09-23 05:34:13.239568,42.02,21.476596,-0.013537308491698099,0.019452293288574063,1.013778546534547,0.37620423259790986,-1.1068402347296475,-1.469981032177806
2024-09-23 05:34:13.250927,42.02,21.476596,-0.012378695361111141,0.020062078880364497,1.013778546534547,0.37620423259790986,-1.1068402347296475,-1.469981032177806
2024-09-23 05:34:13.283683,42.02,21.476596,-0.012378695361111141,0.020062078880364497,1.0089003225592905,0.3411964856958948,-1.1068402347296475,-1.469981032177806
2024-09-23 05:34:13.295262,42.02,21.476647,-0.01433007153288426,0.020062078880364497,1.0089003225592905,0.3411964856958948,-1.0849533125951887,-1.4655692620050162
2024-09-23 05:34:13.339020,42.02,21.476734,-0.01433007153288426,0.022440264713509,1.0143274196426437,0.40244569536997005,-1.1374934943549335,-1.5005769822265953
2024-09-23 05:34:13.382031,42.02,21.476734,-0.012073802565215924,0.022440264713509,1.0143274196426437,0.40244569536997005,-1.1374934943549335,-1.5005769822265953
2024-09-23 05:34:13.393782,42.02,21.476734,-0.012073802565215924,0.02122069352992813,1.0103028362558035,0.35872900059493257,-1.1768557818945498,-1.469981032177806
2024-09-23 05:34:13.435803,42.02,21.476786,-0.015610600769459046,0.019818144896951533,1.012802998954003,0.3062460483703762,-1.1768557818945498,-1.469981032177806
2024-09-23 05:34:13.479312,42.02,21.476786,-0.015610600769459046,0.019818144896951533,1.012802998954003,0.3062460483703762,-1.1243154934130608,-1.474335492774099
2024-09-23 05:34:13.491125,42.02,21.476836,-0.014939857124674697,0.020306014382754138,1.0160958487445546,0.3062460483703762,-1.1243154934130608,-1.474335492774099
2024-09-23 05:34:13.533145,42.02,21.476887,-0.01378124399408774,0.020306014382754138,1.0160958487445546,0.3411964856958948,-1.1374934943549335,-1.3693696416858583
2024-09-23 05:34:13.544840,42.02,21.476887,-0.01378124399408774,0.02018409827676631,1.0160958487445546,0.3411964856958948,-1.1374934943549335,-1.3693696416858583
2024-09-23 05:34:13.578082,42.02,21.476887,-0.01378124399408774,0.02018409827676631,1.012742045457939,0.3062460483703762,-1.1855647030871361,-1.3693696416858583
2024-09-23 05:34:13.589371,42.02,21.476938,-0.013476350438704184,0.02018409827676631,1.012742045457939,0.3062460483703762,-1.1855647030871361,-1.3649578715130686
2024-09-23 05:34:13.632491,42.02,21.476988,-0.013476350438704184,0.02012303845233509,1.014144559154452,0.27994727602181957,-1.1724439050000162,-1.3649578715130686
2024-09-23 05:34:13.674906,42.02,21.476988,-0.013598266544692013,0.018171764051999276,1.014144559154452,0.27994727602181957,-1.1724439050000162,-1.3649578715130686
2024-09-23 05:34:13.686151,42.02,21.476988,-0.013598266544692013,0.018171764051999276,1.01426646614658,0.3499627431454137,-1.1462025222692638,-1.43932777255252
2024-09-23 05:34:13.728502,42.02,21.477076,-0.013110498830326714,0.020549948366167105,1.0150592504534395,0.3411964856958948,-1.1462025222692638,-1.43932777255252
2024-09-23 05:34:13.740800,42.02,21.477076,-0.013110498830326714,0.020549948366167105,1.0150592504534395,0.3411964856958948,-1.2555801435302942,-1.43932777255252
2024-09-23 05:34:13.773786,42.02,21.477127,-0.013720285941093825,0.020549948366167105,1.0150592504534395,0.3411964856958948,-1.2555801435302942,-1.3956111311383546
2024-09-23 05:34:13.785199,42.02,21.477127,-0.013720285941093825,0.019452293288574063,1.0103637897518674,0.2843590461946093,-1.2555801435302942,-1.3956111311383546
2024-09-23 05:34:13.827903,42.2,21.477178,-0.012073802565215924,0.018171764051999276,1.0153031616522024,0.2843590461946093,-1.216217962712422,-1.3212411233771593
2024-09-23 05:34:13.869807,42.2,21.477178,-0.012073802565215924,0.018171764051999276,1.0153031616522024,0.3280757409696467,-1.1855647030871361,-1.3212411233771593
2024-09-23 05:34:13.881352,42.2,21.477229,-0.01268358815700636,0.02012303845233509,1.0153031616522024,0.3280757409696467,-1.1855647030871361,-1.4524485706396402
2024-09-23 05:34:13.923825,42.2,21.477229,-0.01268358815700636,0.02012303845233509,1.0149372462468045,0.35872900059493257,-1.1680894444037229,-1.4524485706396402
2024-09-23 05:34:13.966976,42.2,21.477279,-0.01396421992450679,0.02012303845233509,1.0149372462468045,0.35872900059493257,-1.1680894444037229,-1.4524485706396402
2024-09-23 05:34:13.978037,42.2,21.477279,-0.01396421992450679,0.02067186599113161,1.0132908213515286,0.35872900059493257,-1.1462025222692638,-1.4524485706396402
2024-09-23 05:34:14.020064,42.2,21.477368,-0.01182986782231462,0.021037716080532405,1.0132908213515286,0.35872900059493257,-1.1462025222692638,-1.3474826128296553
2024-09-23 05:34:14.031442,42.2,21.477368,-0.01182986782231462,0.021037716080532405,1.011217527554791,0.3280757409696467,-1.1462025222692638,-1.3474826128296553
2024-09-23 05:34:14.064844,42.2,21.477368,-0.01182986782231462,0.021037716080532405,1.011217527554791,0.3280757409696467,-1.1418479549512268,-1.404320052330941
2024-09-23 05:34:14.076406,42.2,21.477419,-0.015061773230662524,0.02176952106872465,1.0128639524500669,0.3280757409696467,-1.1418479549512268,-1.404320052330941
2024-09-23 05:34:14.119255,42.2,21.47747,-0.011951885699739756,0.019818144896951533,1.0128639524500669,0.37184974532118065,-1.15932321363464,-1.413086283100024
2024-09-23 05:34:14.161866,42.2,21.47747,-0.011951885699739756,0.019818144896951533,1.0090222295514184,0.3630834878716618,-1.15932321363464,-1.413086283100024
2024-09-23 05:34:14.173617,42.2,21.477521,-0.012866564846913748,0.019818144896951533,1.0090222295514184,0.3630834878716618,-1.1111946953259408,-1.4437395427253097
2024-09-23 05:34:14.216477,42.2,21.477521,-0.012866564846913748,0.020427930488741967,1.0090222295514184,0.3630834878716618,-1.1111946953259408,-1.4437395427253097
2024-09-23 05:34:14.258618,42.2,21.477521,-0.012866564846913748,0.020427930488741967,1.012925003160638,0.3630834878716618,-1.1111946953259408,-1.4437395427253097
2024-09-23 05:34:14.269822,42.2,21.477612,-0.015305708733052167,0.020427930488741967,1.012925003160638,0.3411964856958948,-1.0805987452771515,-1.3999655917346479
2024-09-23 05:34:14.313633,42.2,21.477612,-0.015305708733052167,0.0187205915907958,1.0146933350480416,0.3674952580444515,-1.0455910250555724,-1.3649578715130686
2024-09-23 05:34:14.325420,42.2,21.477663,-0.015305708733052167,0.0187205915907958,1.0146933350480416,0.3674952580444515,-1.0455910250555724,-1.3649578715130686
2024-09-23 05:34:14.357854,42.2,21.477663,-0.01365932788809991,0.0187205915907958,1.0146933350480416,0.3674952580444515,-1.0455910250555724,-1.3649578715130686
2024-09-23 05:34:14.410221,42.2,21.477663,-0.01365932788809991,0.01853761414140007,1.012498037044669,0.3193667930966243,-1.1330817241821438,-1.3649578715130686
2024-09-23 05:34:14.421762,42.2,21.477714,-0.01365932788809991,0.01853761414140007,1.012498037044669,0.3193667930966243,-1.1330817241821438,-1.3430708426568656
2024-09-23 05:34:14.454605,42.2,21.477714,-0.017805912443621806,0.01811080599900536,1.012498037044669,0.3193667930966243,-1.1330817241821438,-1.3430708426568656
2024-09-23 05:34:14.465701,42.2,21.477714,-0.017805912443621806,0.01811080599900536,1.0168886330514144,0.29306802074806765,-1.1243154934130608,-1.3956111311383546
2024-09-23 05:34:14.508098,42.2,21.477764,-0.011768909009832369,0.018842507696783625,1.0151202039495033,0.3237212803733535,-1.1243154934130608,-1.3956111311383546
2024-09-23 05:34:14.520076,42.2,21.477764,-0.011768909009832369,0.018842507696783625,1.0151202039495033,0.3237212803733535,-1.0893650827679784,-1.3956111311383546
2024-09-23 05:34:14.553558,42.2,21.477857,-0.014269113479890346,0.018842507696783625,1.0151202039495033,0.3237212803733535,-1.0893650827679784,-1.4087318225037306
2024-09-23 05:34:14.565272,42.2,21.477857,-0.014269113479890346,0.023354943860682993,1.0106077981651376,0.29306802074806765,-1.0893650827679784,-1.4087318225037306
2024-09-23 05:34:14.608306,42.2,21.477857,-0.014269113479890346,0.023354943860682993,1.0106077981651376,0.29306802074806765,-1.1462025222692638,-1.3343619214642792
2024-09-23 05:34:14.651060,42.2,21.477908,-0.016281345933220073,0.020549948366167105,1.0106077981651376,0.29306802074806765,-1.1462025222692638,-1.3343619214642792
2024-09-23 05:34:14.665450,42.2,21.477908,-0.016281345933220073,0.020549948366167105,1.014022554947817,0.3630834878716618,-1.1068402347296475,-1.3343619214642792
2024-09-23 05:34:14.699952,42.2,21.478004,-0.013598266544692013,0.020549948366167105,1.014022554947817,0.3630834878716618,-1.1068402347296475,-1.3343619214642792
2024-09-23 05:34:14.711230,42.2,21.478004,-0.013598266544692013,0.021098777423940302,1.0098759673543418,0.3280757409696467,-1.1068402347296475,-1.3343619214642792
2024-09-23 05:34:14.753952,42.2,21.478054,-0.012622630104012445,0.01713506550842347,1.011095523348156,0.3280757409696467,-1.0937195433642715,-1.3737241022821516
2024-09-23 05:34:14.796512,42.2,21.478054,-0.012622630104012445,0.01713506550842347,1.011095523348156,0.29306802074806765,-1.014995075006783,-1.3737241022821516
2024-09-23 05:34:14.808304,42.2,21.478148,-0.014512945691866003,0.020793883868556746,1.011095523348156,0.29306802074806765,-1.014995075006783,-1.3693696416858583
2024-09-23 05:34:14.851499,42.27,21.478198,-0.01378124399408774,0.020793883868556746,1.0160348952484908,0.4287444677185267,-1.0674780539117754,-1.5136977803137153
2024-09-23 05:34:14.893703,42.27,21.478198,-0.01378124399408774,0.020915799974544576,1.0125589905407328,0.4287444677185267,-1.0674780539117754,-1.5136977803137153
2024-09-23 05:34:14.905763,42.27,21.478294,-0.01378124399408774,0.020915799974544576,1.0125589905407328,0.26247207069927825,-1.0718325145080685,-1.4524485706396402
2024-09-23 05:34:14.949257,42.27,21.478294,-0.013476350438704184,0.017013149402435646,1.0116442992417454,0.37184974532118065,-1.0368247942864894,-1.3474826128296553
2024-09-23 05:34:14.991878,42.27,21.478346,-0.014695923141261731,0.02018409827676631,1.0116442992417454,0.37184974532118065,-1.0368247942864894,-1.3474826128296553
2024-09-23 05:34:15.002903,42.27,21.478346,-0.014695923141261731,0.02018409827676631,1.0099979715609768,0.3456082558686845,-1.0718325145080685,-1.3474826128296553
2024-09-23 05:34:15.046788,42.27,21.478396,-0.01664729931303485,0.02140366946034718,1.01426646614658,0.3456082558686845,-1.0718325145080685,-1.3430708426568656
2024-09-23 05:34:15.058227,42.27,21.478396,-0.01664729931303485,0.02140366946034718,1.01426646614658,0.3499627431454137,-1.0718325145080685,-1.3430708426568656
2024-09-23 05:34:15.090042,42.27,21.478447,-0.01664729931303485,0.02140366946034718,1.01426646614658,0.3499627431454137,-1.1724439050000162,-1.4524485706396402
2024-09-23 05:34:15.101636,42.27,21.478447,-0.014756881194255646,0.019025483627202678,1.0115833457456815,0.3499627431454137,-1.1724439050000162,-1.4524485706396402
2024-09-23 05:34:15.144000,42.27,21.478498,-0.015549642716465131,0.022196330730096036,1.0115833457456815,0.3674952580444515,-1.203097164625302,-1.3430708426568656
2024-09-23 05:34:15.187656,42.27,21.478498,-0.015549642716465131,0.022196330730096036,1.0140835084438808,0.24935132597303017,-1.203097164625302,-1.3430708426568656
2024-09-23 05:34:15.198629,42.27,21.478549,-0.01573262016586086,0.022196330730096036,1.0140835084438808,0.24935132597303017,-1.1111946953259408,-1.448094003321603
2024-09-23 05:34:15.241576,42.27,21.478549,-0.01573262016586086,0.01963527073796979,1.0140835084438808,0.3149550229238346,-1.207451731943339,-1.448094003321603
2024-09-23 05:34:15.335244,42.27,21.478635,-0.014939857124674697,0.02122069352992813,1.0140835084438808,0.3149550229238346,-1.207451731943339,-1.3824903330512346
2024-09-23 05:34:15.347382,42.27,21.478635,-0.014939857124674697,0.02122069352992813,1.0134736818397203,0.2318188110739924,-1.207451731943339,-1.3824903330512346
2024-09-23 05:34:15.380652,42.27,21.478635,-0.014939857124674697,0.02122069352992813,1.0134736818397203,0.2318188110739924,-1.1812102424908428,-1.3868447936475277
2024-09-23 05:34:15.391737,42.27,21.478687,-0.015427726610477303,0.018659531766364576,1.010668654446694,0.2318188110739924,-1.1812102424908428,-1.3868447936475277
2024-09-23 05:34:15.434307,42.27,21.478738,-0.014208053655459124,0.018659531766364576,1.010668654446694,0.3018342781975865,-1.0499454856518655,-1.3693696416858583
2024-09-23 05:34:15.446256,42.27,21.478738,-0.014208053655459124,0.0187205915907958,1.010668654446694,0.3018342781975865,-1.0499454856518655,-1.3693696416858583
2024-09-23 05:34:15.478460,42.27,21.478738,-0.014208053655459124,0.0187205915907958,1.0152421109416312,0.3062460483703762,-1.0499454856518655,-1.3693696416858583
2024-09-23 05:34:15.490082,42.27,21.478788,-0.014208053655459124,0.0187205915907958,1.0152421109416312,0.3062460483703762,-1.1287272635858505,-1.3430708426568656
2024-09-23 05:34:15.533032,42.27,21.478839,-0.014208053655459124,0.019818144896951533,1.0139006479556893,0.3456082558686845,-1.0630662837389857,-1.3780785628784449
2024-09-23 05:34:15.575806,42.27,21.478839,-0.01378124399408774,0.022440264713509,1.0139006479556893,0.3456082558686845,-1.0630662837389857,-1.3780785628784449
2024-09-23 05:34:15.588087,42.27,21.478839,-0.01378124399408774,0.022440264713509,1.012802998954003,0.29306802074806765,-1.15932321363464,-1.3474826128296553
2024-09-23 05:34:15.631501,42.27,21.478977,-0.01341539238571027,0.01914740125216718,1.0114003880429827,0.3411964856958948,-1.0893650827679784,-1.3474826128296553
2024-09-23 05:34:15.674522,42.27,21.479028,-0.016342405757651293,0.01914740125216718,1.0114003880429827,0.3411964856958948,-1.0893650827679784,-1.4087318225037306
2024-09-23 05:34:15.685768,42.27,21.479028,-0.016342405757651293,0.019940162774376668,1.0174983624410678,0.4155664400962181,-1.0893650827679784,-1.4087318225037306
2024-09-23 05:34:15.729114,42.27,21.479079,-0.012256778495634975,0.017927828549609635,1.0124370835486052,0.4155664400962181,-1.1812102424908428,-1.3737241022821516
2024-09-23 05:34:15.772060,42.27,21.479079,-0.012256778495634975,0.017927828549609635,1.0124370835486052,0.3849704900474288,-1.0455910250555724,-1.3168293532043696
2024-09-23 05:34:15.783104,42.27,21.47913,-0.013842202047081654,0.0187205915907958,1.0124370835486052,0.3849704900474288,-1.0455910250555724,-1.3168293532043696
2024-09-23 05:34:15.825460,42.27,21.479181,-0.013476350438704184,0.0187205915907958,1.0104247432479314,0.29306802074806765,-1.0718325145080685,-1.3693696416858583
2024-09-23 05:34:15.868741,42.29,21.479181,-0.013476350438704184,0.02134260963591596,1.0145713308414066,0.29306802074806765,-1.0718325145080685,-1.3693696416858583
2024-09-23 05:34:15.880639,42.29,21.479269,-0.013476350438704184,0.02134260963591596,1.0145713308414066,0.41997821026900783,-1.0237041029211134,-1.4655692620050162
2024-09-23 05:34:15.923456,42.29,21.479269,-0.012317737308117227,0.020062078880364497,1.0132298678554648,0.29306802074806765,-1.0937195433642715,-1.4655692620050162
2024-09-23 05:34:15.935821,42.29,21.479269,-0.012317737308117227,0.020062078880364497,1.0132298678554648,0.29306802074806765,-1.0937195433642715,-1.3124748926080763
2024-09-23 05:34:15.968259,42.29,21.479321,-0.014147094083488534,0.021037716080532405,1.0132298678554648,0.29306802074806765,-1.0937195433642715,-1.3124748926080763
2024-09-23 05:34:15.979283,42.29,21.479321,-0.014147094083488534,0.021037716080532405,1.0148152420401695,0.3543172304221429,-1.1330817241821438,-1.3124748926080763
2024-09-23 05:34:16.021651,42.29,21.479371,-0.016159429827232244,0.022684200215898644,1.0143274196426437,0.24499683869630098,-1.1330817241821438,-1.3868447936475277
2024-09-23 05:34:16.066615,42.29,21.479422,-0.016159429827232244,0.022684200215898644,1.0143274196426437,0.24499683869630098,-1.1330817241821438,-1.3606034109167755
2024-09-23 05:34:16.078741,42.29,21.479422,-0.01396421992450679,0.01914740125216718,1.012620041251304,0.24499683869630098,-1.1330817241821438,-1.3606034109167755
2024-09-23 05:34:16.112002,42.29,21.479422,-0.01396421992450679,0.01914740125216718,1.012620041251304,0.3237212803733535,-1.0937195433642715,-1.3606034109167755
2024-09-23 05:34:16.123381,42.29,21.479473,-0.01408613603049462,0.01926931735815501,1.012620041251304,0.3237212803733535,-1.0937195433642715,-1.3080631224352866
2024-09-23 05:34:16.166309,42.29,21.479524,-0.013842202047081654,0.01926931735815501,1.0116442992417454,0.4374534422719851,-1.1637349838074296,-1.3124748926080763
2024-09-23 05:34:16.209129,42.29,21.479524,-0.013842202047081654,0.023415901913676908,1.015973941752427,0.4374534422719851,-1.1637349838074296,-1.3124748926080763
2024-09-23 05:34:16.220873,42.29,21.47961,-0.013842202047081654,0.023415901913676908,1.015973941752427,0.3499627431454137,-1.1462025222692638,-1.4306188513599336
2024-09-23 05:34:16.264104,42.29,21.47961,-0.015793578218854774,0.017379001010813116,1.011217527554791,0.3674952580444515,-1.15932321363464,-1.413086283100024
2024-09-23 05:34:16.307081,42.29,21.479662,-0.01573262016586086,0.017379001010813116,1.011217527554791,0.3674952580444515,-1.15932321363464,-1.413086283100024
2024-09-23 05:34:16.318495,42.29,21.479662,-0.01573262016586086,0.019330377182586234,1.015546975636458,0.3456082558686845,-1.1812102424908428,-1.413086283100024
2024-09-23 05:34:16.361030,42.29,21.479713,-0.015488684663471218,0.019940162774376668,1.015546975636458,0.3456082558686845,-1.1812102424908428,-1.413086283100024
2024-09-23 05:34:16.373563,42.29,21.479713,-0.015488684663471218,0.019940162774376668,1.0144494238492787,0.31060053564710544,-1.1812102424908428,-1.413086283100024
2024-09-23 05:34:16.457376,42.29,21.479763,-0.012317737308117227,0.019940162774376668,1.0144494238492787,0.31060053564710544,-1.1068402347296475,-1.43932777255252
2024-09-23 05:34:16.469382,42.29,21.479763,-0.012317737308117227,0.018171764051999276,1.0144494238492787,0.31060053564710544,-1.1068402347296475,-1.43932777255252
2024-09-23 05:34:16.502632,42.29,21.479763,-0.012317737308117227,0.018171764051999276,1.0144494238492787,0.3674952580444515,-1.0980740039605648,-1.43932777255252
2024-09-23 05:34:16.514419,42.29,21.479814,-0.014147094083488534,0.01975718684395762,1.0144494238492787,0.3674952580444515,-1.0980740039605648,-1.426207081187144
2024-09-23 05:34:16.557888,42.29,21.479865,-0.011524974266931064,0.01975718684395762,1.0144494238492787,0.31060053564710544,-1.1024857741333545,-1.448094003321603
2024-09-23 05:34:16.602066,42.29,21.479865,-0.011524974266931064,0.02134260963591596,1.0117053499523165,0.37620423259790986,-1.1418479549512268,-1.448094003321603
2024-09-23 05:34:16.613863,42.29,21.479865,-0.011524974266931064,0.02134260963591596,1.0117053499523165,0.37620423259790986,-1.1418479549512268,-1.4174980532728136
2024-09-23 05:34:16.697157,42.29,21.479952,-0.014269113479890346,0.02134260963591596,1.0117053499523165,0.37620423259790986,-1.1418479549512268,-1.4174980532728136
2024-09-23 05:34:16.708658,42.29,21.479952,-0.014269113479890346,0.020306014382754138,1.0140835084438808,0.28871353347133843,-1.1156065722204744,-1.4174980532728136
2024-09-23 05:34:16.752606,42.29,21.48005,-0.015122834574070423,0.019940162774376668,1.012742045457939,0.39373674749694765,-1.1156065722204744,-1.4087318225037306
2024-09-23 05:34:16.795526,42.29,21.480101,-0.015122834574070423,0.019940162774376668,1.012742045457939,0.39373674749694765,-1.1068402347296475,-1.483101830264926
