Ayaan's Suite
Timestamp,Sample Rate (Hz),Time,Ax,Ay,Az,Gx,Gy,Gz
2024-09-23 07:53:03.443304,0,4.229217,-0.0030344509719951677,-0.024275627522658133,0.0973015264147526,36.09446859390736,-92.24360919585227,80.21211738781929
2024-09-23 07:53:03.487486,0,4.229217,-0.0032831742888682963,-0.023877669304275123,0.09705279702197278,44.11764879391193,-92.24360919585227,80.21211738781929
2024-09-23 07:53:03.530071,0,4.229268,-0.0038303700669703737,-0.023877669304275123,0.09705279702197278,44.11764879391193,-92.24360919585227,80.21211738781929
2024-09-23 07:53:03.541089,0,4.229268,-0.0038303700669703737,-0.02362894446842532,0.09665483728461309,44.11764879391193,-96.25519929585457,80.21211738781929
2024-09-23 07:53:03.583577,0,4.229319,-0.0035318979854855937,-0.023827930413011865,0.09710254654607277,44.11764879391193,-96.25519929585457,76.200527287817
2024-09-23 07:53:03.595496,0,4.229319,-0.0035318979854855937,-0.023827930413011865,0.09710254654607277,40.106058693909645,-96.25519929585457,76.200527287817
2024-09-23 07:53:03.628356,0,4.22937,-0.0035318979854855937,-0.023827930413011865,0.09710254654607277,40.106058693909645,-104.27510100388527,76.200527287817
2024-09-23 07:53:03.639445,0,4.22937,-0.0033329230534799477,-0.02367869399252531,0.09685382322919964,40.106058693909645,-104.27510100388527,76.200527287817
2024-09-23 07:53:03.682110,0,4.22942,-0.0032831742888682963,-0.02412639262114825,0.09685382322919964,40.106058693909645,-96.25519929585457,76.200527287817
2024-09-23 07:53:03.724343,0,4.22942,-0.0032831742888682963,-0.02412639262114825,0.09685382322919964,36.09446859390736,-96.25519929585457,76.200527287817
2024-09-23 07:53:03.736241,0,4.229471,-0.0031339382481259063,-0.02412639262114825,0.09685382322919964,36.09446859390736,-104.27510100388527,76.200527287817
2024-09-23 07:53:03.779273,0,4.229558,-0.0031339382481259063,-0.023827930413011865,0.0970030596496862,32.08287849390507,-100.26678939585686,84.22370748782159
2024-09-23 07:53:03.822536,0,4.229558,-0.0028354659767690416,-0.02397715620066169,0.0970030596496862,32.08287849390507,-100.26678939585686,84.22370748782159
2024-09-23 07:53:03.833585,0,4.229558,-0.0028354659767690416,-0.02397715620066169,0.09665483728461309,36.09446859390736,-100.26678939585686,80.21211738781929
2024-09-23 07:53:03.876283,0,4.22961,-0.003233425524256645,-0.023877669304275123,0.09715228999426605,36.09446859390736,-100.26678939585686,80.21211738781929
2024-09-23 07:53:03.888561,0,4.22961,-0.003233425524256645,-0.023877669304275123,0.09715228999426605,36.09446859390736,-100.26678939585686,80.21211738781929
2024-09-23 07:53:03.920458,0,4.22966,-0.003233425524256645,-0.023877669304275123,0.09715228999426605,36.09446859390736,-100.26678939585686,76.200527287817
2024-09-23 07:53:03.931854,0,4.22966,-0.0037308827908396356,-0.02367869399252531,0.09755024973162574,40.106058693909645,-100.26678939585686,76.200527287817
2024-09-23 07:53:03.974424,0,4.229711,-0.0037308827908396356,-0.023479709566915436,0.09755024973162574,40.106058693909645,-100.26678939585686,76.200527287817
2024-09-23 07:53:03.986513,0,4.229711,-0.0037308827908396356,-0.023479709566915436,0.0962568775472534,40.106058693909645,-100.26678939585686,76.200527287817
2024-09-23 07:53:04.018580,0,4.229711,-0.0037308827908396356,-0.023479709566915436,0.0962568775472534,36.09446859390736,-92.24360919585227,84.22370748782159
2024-09-23 07:53:04.029655,0,4.229762,-0.0026862297461545674,-0.023429960042815445,0.0962568775472534,36.09446859390736,-92.24360919585227,84.22370748782159
2024-09-23 07:53:04.072292,0,4.229812,-0.0027359787006383035,-0.023429960042815445,0.09715228999426605,32.08287849390507,-96.25519929585457,84.22370748782159
2024-09-23 07:53:04.117109,0,4.229812,-0.0027359787006383035,-0.024176140626271565,0.09710254654607277,52.137550501942634,-96.25519929585457,84.22370748782159
2024-09-23 07:53:04.128862,0,4.229899,-0.0027359787006383035,-0.024176140626271565,0.09710254654607277,52.137550501942634,-100.26678939585686,72.1922225099802
2024-09-23 07:53:04.213965,0,4.229899,-0.0038303700669703737,-0.024176140626271565,0.09710254654607277,52.137550501942634,-100.26678939585686,72.1922225099802
2024-09-23 07:53:04.224973,0,4.229899,-0.0038303700669703737,-0.024176140626271565,0.09710254654607277,56.14914060194492,-96.25519929585457,80.21211738781929
2024-09-23 07:53:04.268182,0,4.229951,-0.0030841997366068195,-0.02367869399252531,0.09745075675933246,44.11764879391193,-100.26678939585686,80.21211738781929
2024-09-23 07:53:04.310354,0,4.230002,-0.0030841997366068195,-0.02367869399252531,0.09745075675933246,44.11764879391193,-100.26678939585686,80.21211738781929
2024-09-23 07:53:04.321257,0,4.230002,-0.002437506429281439,-0.024375126570858115,0.09720203344245934,36.09446859390736,-100.26678939585686,80.21211738781929
2024-09-23 07:53:04.363986,0,4.230052,-0.0035816467500972456,-0.024375126570858115,0.09720203344245934,36.09446859390736,-100.26678939585686,76.200527287817
2024-09-23 07:53:04.375405,0,4.230052,-0.0035816467500972456,-0.023827930413011865,0.0970030596496862,36.09446859390736,-100.26678939585686,76.200527287817
2024-09-23 07:53:04.407348,0,4.230052,-0.0035816467500972456,-0.023827930413011865,0.0970030596496862,44.11764879391193,-100.26678939585686,76.200527287817
2024-09-23 07:53:04.418557,0,4.230103,-0.0028354659767690416,-0.023827930413011865,0.0970030596496862,44.11764879391193,-100.26678939585686,80.21211738781929
2024-09-23 07:53:04.460605,41.82,4.230103,-0.0028354659767690416,-0.023827930413011865,0.09725178296655933,36.09446859390736,-96.25519929585457,76.200527287817
2024-09-23 07:53:04.471858,41.82,4.230195,-0.0029349636958644295,-0.023827930413011865,0.09725178296655933,36.09446859390736,-96.25519929585457,76.200527287817
2024-09-23 07:53:04.505731,41.82,4.230195,-0.0029349636958644295,-0.023927417309398437,0.09695331012558621,36.09446859390736,-96.25519929585457,76.200527287817
2024-09-23 07:53:04.517036,41.82,4.230289,-0.0029349636958644295,-0.023927417309398437,0.09695331012558621,44.11764879391193,-96.25519929585457,80.21211738781929
2024-09-23 07:53:04.559492,41.82,4.230289,-0.0032831742888682963,-0.023579196463302005,0.09710254654607277,44.11764879391193,-104.27510100388527,76.200527287817
2024-09-23 07:53:04.602128,41.82,4.230341,-0.003780631555451287,-0.023579196463302005,0.09710254654607277,44.11764879391193,-104.27510100388527,76.200527287817
2024-09-23 07:53:04.613682,41.82,4.230341,-0.003780631555451287,-0.023728432883788564,0.09650560086412653,40.106058693909645,-92.24360919585227,76.200527287817
2024-09-23 07:53:04.656176,41.82,4.230392,-0.0031339382481259063,-0.024275627522658133,0.09675432418099966,40.106058693909645,-92.24360919585227,80.21211738781929
2024-09-23 07:53:04.667813,41.82,4.230392,-0.0031339382481259063,-0.024275627522658133,0.09675432418099966,40.106058693909645,-92.24360919585227,80.21211738781929
2024-09-23 07:53:04.699799,41.82,4.230392,-0.0031339382481259063,-0.024275627522658133,0.09675432418099966,40.106058693909645,-104.27510100388527,80.21211738781929
2024-09-23 07:53:04.711063,41.82,4.230443,-0.0029349636958644295,-0.02397715620066169,0.09705279702197278,40.106058693909645,-104.27510100388527,80.21211738781929
2024-09-23 07:53:04.753353,41.82,4.230493,-0.0035318979854855937,-0.02397715620066169,0.09705279702197278,40.106058693909645,-96.25519929585457,76.200527287817
2024-09-23 07:53:04.765127,41.82,4.230493,-0.0035318979854855937,-0.02367869399252531,0.09705279702197278,40.106058693909645,-96.25519929585457,76.200527287817
2024-09-23 07:53:04.796826,41.82,4.230493,-0.0035318979854855937,-0.02367869399252531,0.09695331012558621,52.137550501942634,-96.25519929585457,76.200527287817
2024-09-23 07:53:04.808599,41.82,4.230544,-0.0038801188315820256,-0.02367869399252531,0.09695331012558621,52.137550501942634,-96.25519929585457,80.21211738781929
2024-09-23 07:53:04.851172,41.82,4.230544,-0.0038801188315820256,-0.02397715620066169,0.09725178296655933,36.09446859390736,-96.25519929585457,80.21211738781929
2024-09-23 07:53:04.863070,41.82,4.230631,-0.0038801188315820256,-0.02397715620066169,0.09725178296655933,36.09446859390736,-96.25519929585457,80.21211738781929
2024-09-23 07:53:04.895831,41.82,4.230631,-0.003233425524256645,-0.024176140626271565,0.09695331012558621,36.09446859390736,-96.25519929585457,80.21211738781929
2024-09-23 07:53:04.907303,41.82,4.230631,-0.003233425524256645,-0.024176140626271565,0.09695331012558621,32.08287849390507,-100.26678939585686,80.21211738781929
2024-09-23 07:53:04.949298,41.82,4.230682,-0.0031836870127375577,-0.023429960042815445,0.09720203344245934,36.09446859390736,-100.26678939585686,80.21211738781929
2024-09-23 07:53:05.043187,41.82,4.230733,-0.0030344509719951677,-0.023429960042815445,0.09720203344245934,36.09446859390736,-100.26678939585686,80.21211738781929
2024-09-23 07:53:05.055146,41.82,4.230733,-0.0030344509719951677,-0.02412639262114825,0.09710254654607277,32.08287849390507,-100.26678939585686,80.21211738781929
2024-09-23 07:53:05.098653,41.82,4.230784,-0.0035318979854855937,-0.023778180888911878,0.09695331012558621,32.08287849390507,-88.23529758782387,76.200527287817
2024-09-23 07:53:05.141882,41.82,4.230834,-0.0035318979854855937,-0.023778180888911878,0.09695331012558621,32.08287849390507,-100.26678939585686,76.200527287817
2024-09-23 07:53:05.153190,41.82,4.230834,-0.003382661564999035,-0.023778180888911878,0.09695331012558621,32.08287849390507,-100.26678939585686,76.200527287817
2024-09-23 07:53:05.187337,41.82,4.230834,-0.003382661564999035,-0.023778180888911878,0.09710254654607277,36.09446859390736,-100.26678939585686,76.200527287817
2024-09-23 07:53:05.198582,41.82,4.230885,-0.0035816467500972456,-0.023778180888911878,0.09710254654607277,36.09446859390736,-100.26678939585686,72.1922225099802
2024-09-23 07:53:05.240732,41.82,4.230885,-0.0035816467500972456,-0.024026904205785005,0.09725178296655933,32.08287849390507,-100.26678939585686,72.1922225099802
2024-09-23 07:53:05.283162,41.82,4.230885,-0.0035816467500972456,-0.024026904205785005,0.09725178296655933,32.08287849390507,-100.26678939585686,80.21211738781929
2024-09-23 07:53:05.295343,41.82,4.230972,-0.002785727465249955,-0.024026904205785005,0.09680407370509965,32.08287849390507,-100.26678939585686,80.21211738781929
2024-09-23 07:53:05.338138,41.82,4.23107,-0.002785727465249955,-0.024026904205785005,0.09680407370509965,32.08287849390507,-100.26678939585686,76.200527287817
2024-09-23 07:53:05.349575,41.82,4.23107,-0.0034324103296106863,-0.023479709566915436,0.09665483728461309,32.08287849390507,-100.26678939585686,76.200527287817
2024-09-23 07:53:05.382576,41.82,4.23107,-0.0034324103296106863,-0.023479709566915436,0.09665483728461309,32.08287849390507,-96.25519929585457,76.200527287817
2024-09-23 07:53:05.393947,41.82,4.231121,-0.0033329230534799477,-0.023579196463302005,0.09665483728461309,32.08287849390507,-96.25519929585457,76.200527287817
2024-09-23 07:53:05.436713,41.82,4.231172,-0.0033329230534799477,-0.023579196463302005,0.09715228999426605,28.07457030097246,-96.25519929585457,80.21211738781929
2024-09-23 07:53:05.448563,41.82,4.231172,-0.003382661564999035,-0.023579196463302005,0.09715228999426605,28.07457030097246,-96.25519929585457,80.21211738781929
2024-09-23 07:53:05.481035,42.47,4.231172,-0.003382661564999035,-0.023827930413011865,0.09685382322919964,44.11764879391193,-96.25519929585457,80.21211738781929
2024-09-23 07:53:05.492293,42.47,4.231264,-0.003382661564999035,-0.023827930413011865,0.09685382322919964,44.11764879391193,-100.26678939585686,84.22370748782159
2024-09-23 07:53:05.534674,42.47,4.231264,-0.0034324103296106863,-0.023778180888911878,0.09764974270391902,40.106058693909645,-96.25519929585457,84.22370748782159
2024-09-23 07:53:05.546458,42.47,4.231264,-0.0034324103296106863,-0.023778180888911878,0.09764974270391902,40.106058693909645,-96.25519929585457,80.21211738781929
2024-09-23 07:53:05.579233,42.47,4.231316,-0.002636491424507565,-0.023827930413011865,0.09764974270391902,40.106058693909645,-96.25519929585457,80.21211738781929
2024-09-23 07:53:05.590782,42.47,4.231316,-0.002636491424507565,-0.023827930413011865,0.09680407370509965,52.137550501942634,-100.26678939585686,80.21211738781929
2024-09-23 07:53:05.633062,42.47,4.231367,-0.0029847020175114316,-0.024176140626271565,0.09690356060148622,48.12595698684454,-100.26678939585686,76.200527287817
2024-09-23 07:53:05.674897,42.47,4.231367,-0.0029847020175114316,-0.024176140626271565,0.09690356060148622,48.12595698684454,-100.26678939585686,80.21211738781929
2024-09-23 07:53:05.687122,42.47,4.231417,-0.0029349636958644295,-0.024026904205785005,0.0970030596496862,48.12595698684454,-100.26678939585686,80.21211738781929
2024-09-23 07:53:05.729616,42.47,4.231468,-0.0024872551938930902,-0.024375126570858115,0.0970030596496862,36.09446859390736,-104.27510100388527,80.21211738781929
2024-09-23 07:53:05.772470,42.47,4.231468,-0.0024872551938930902,-0.024375126570858115,0.0973015264147526,44.11764879391193,-104.27510100388527,80.21211738781929
2024-09-23 07:53:05.783892,42.47,4.231519,-0.003233425524256645,-0.024375126570858115,0.0973015264147526,44.11764879391193,-108.28669110388756,72.1922225099802
2024-09-23 07:53:05.827046,42.47,4.231606,-0.003233425524256645,-0.024026904205785005,0.09710254654607277,44.11764879391193,-96.25519929585457,76.200527287817
2024-09-23 07:53:05.869147,42.47,4.231606,-0.0030344509719951677,-0.024026904205785005,0.09710254654607277,44.11764879391193,-96.25519929585457,76.200527287817
2024-09-23 07:53:05.880748,42.47,4.231606,-0.0030344509719951677,-0.024225890150371555,0.09764974270391902,44.11764879391193,-96.25519929585457,80.21211738781929
2024-09-23 07:53:05.923088,42.47,4.231657,-0.0031836870127375577,-0.023877669304275123,0.0973512698629459,44.11764879391193,-96.25519929585457,80.21211738781929
2024-09-23 07:53:05.936561,42.47,4.231657,-0.0031836870127375577,-0.023877669304275123,0.0973512698629459,36.09446859390736,-92.24360919585227,80.21211738781929
2024-09-23 07:53:05.968900,42.47,4.231708,-0.0030841997366068195,-0.023877669304275123,0.0973512698629459,36.09446859390736,-92.24360919585227,80.21211738781929
2024-09-23 07:53:05.980057,42.47,4.231708,-0.0030841997366068195,-0.024026904205785005,0.09695331012558621,36.09446859390736,-92.24360919585227,80.21211738781929
2024-09-23 07:53:06.023281,42.47,4.231759,-0.003382661564999035,-0.024176140626271565,0.09675432418099966,36.09446859390736,-92.24360919585227,84.22370748782159
2024-09-23 07:53:06.066284,42.47,4.231759,-0.003382661564999035,-0.024176140626271565,0.09675432418099966,48.12595698684454,-96.25519929585457,80.21211738781929
2024-09-23 07:53:06.077842,42.47,4.231809,-0.0031339382481259063,-0.023827930413011865,0.09675432418099966,48.12595698684454,-96.25519929585457,80.21211738781929
2024-09-23 07:53:06.120562,42.47,4.23186,-0.0036811340262279837,-0.023827930413011865,0.09680407370509965,44.11764879391193,-100.26678939585686,80.21211738781929
2024-09-23 07:53:06.162703,42.47,4.23186,-0.0036811340262279837,-0.024275627522658133,0.09720203344245934,44.11764879391193,-100.26678939585686,80.21211738781929
2024-09-23 07:53:06.174037,42.47,4.231947,-0.0036811340262279837,-0.024275627522658133,0.09720203344245934,56.14914060194492,-96.25519929585457,80.21211738781929
2024-09-23 07:53:06.217067,42.47,4.231947,-0.003382661564999035,-0.023877669304275123,0.09695331012558621,60.15744537978172,-88.23529758782387,80.21211738781929
2024-09-23 07:53:06.228962,42.47,4.231947,-0.003382661564999035,-0.023877669304275123,0.09695331012558621,60.15744537978172,-88.23529758782387,80.21211738781929
2024-09-23 07:53:06.261249,42.47,4.231999,-0.003382661564999035,-0.024325377046758124,0.09695331012558621,60.15744537978172,-88.23529758782387,80.21211738781929
2024-09-23 07:53:06.273144,42.47,4.231999,-0.003382661564999035,-0.024325377046758124,0.09665483728461309,36.09446859390736,-92.24360919585227,80.21211738781929
2024-09-23 07:53:06.315878,42.47,4.232049,-0.0026862297461545674,-0.024076653729884996,0.09715228999426605,36.09446859390736,-92.24360919585227,84.22370748782159
2024-09-23 07:53:06.359717,42.47,4.2321,-0.0026862297461545674,-0.024076653729884996,0.09715228999426605,36.09446859390736,-92.24360919585227,80.21211738781929
2024-09-23 07:53:06.372600,42.47,4.2321,-0.0029847020175114316,-0.023330473146428877,0.09715228999426605,36.09446859390736,-92.24360919585227,80.21211738781929
2024-09-23 07:53:06.404997,42.47,4.2321,-0.0029847020175114316,-0.023330473146428877,0.09630662707135339,36.09446859390736,-92.24360919585227,80.21211738781929
2024-09-23 07:53:06.458417,42.47,4.232151,-0.0029847020175114316,-0.023330473146428877,0.09630662707135339,36.09446859390736,-96.25519929585457,76.200527287817
2024-09-23 07:53:06.470417,42.47,4.232151,-0.0035318979854855937,-0.02367869399252531,0.09630662707135339,36.09446859390736,-96.25519929585457,76.200527287817
2024-09-23 07:53:06.503157,42.33,4.232151,-0.0035318979854855937,-0.02367869399252531,0.09720203344245934,36.09446859390736,-96.25519929585457,76.200527287817
2024-09-23 07:53:06.514351,42.33,4.232201,-0.0032831742888682963,-0.02367869399252531,0.09720203344245934,32.08287849390507,-100.26678939585686,76.200527287817
2024-09-23 07:53:06.557151,42.33,4.232201,-0.0032831742888682963,-0.02308174982955575,0.0973512698629459,44.11764879391193,-100.26678939585686,76.200527287817
2024-09-23 07:53:06.568826,42.33,4.232288,-0.0032831742888682963,-0.02308174982955575,0.0973512698629459,44.11764879391193,-100.26678939585686,76.200527287817
2024-09-23 07:53:06.601048,42.33,4.232288,-0.0038303700669703737,-0.023429960042815445,0.0973512698629459,44.11764879391193,-100.26678939585686,76.200527287817
2024-09-23 07:53:06.612403,42.33,4.232288,-0.0038303700669703737,-0.023429960042815445,0.09690356060148622,32.08287849390507,-104.27510100388527,76.200527287817
2024-09-23 07:53:06.655029,42.33,4.23234,-0.003482159473966507,-0.02362894446842532,0.09715228999426605,32.08287849390507,-104.27510100388527,76.200527287817
2024-09-23 07:53:06.666613,42.33,4.23234,-0.003482159473966507,-0.02362894446842532,0.09715228999426605,44.11764879391193,-104.27510100388527,76.200527287817
2024-09-23 07:53:06.699220,42.33,4.23234,-0.003482159473966507,-0.02362894446842532,0.09715228999426605,44.11764879391193,-100.26678939585686,80.21211738781929
2024-09-23 07:53:06.710564,42.33,4.232436,-0.002785727465249955,-0.023778180888911878,0.09715228999426605,44.11764879391193,-100.26678939585686,80.21211738781929
2024-09-23 07:53:06.754266,42.33,4.232487,-0.0031836870127375577,-0.024225890150371555,0.09715228999426605,32.08287849390507,-96.25519929585457,76.200527287817
2024-09-23 07:53:06.797132,42.33,4.232487,-0.0031836870127375577,-0.024225890150371555,0.09715228999426605,36.09446859390736,-96.25519929585457,76.200527287817
2024-09-23 07:53:06.808702,42.33,4.232537,-0.0029349636958644295,-0.024225890150371555,0.09715228999426605,36.09446859390736,-96.25519929585457,80.21211738781929
2024-09-23 07:53:06.852083,42.33,4.232588,-0.0029349636958644295,-0.023877669304275123,0.09725178296655933,28.07457030097246,-96.25519929585457,80.21211738781929
2024-09-23 07:53:06.894831,42.33,4.232588,-0.0030841997366068195,-0.02367869399252531,0.0970030596496862,28.07457030097246,-96.25519929585457,80.21211738781929
2024-09-23 07:53:06.906084,42.33,4.232588,-0.0030841997366068195,-0.02367869399252531,0.0970030596496862,44.11764879391193,-92.24360919585227,84.22370748782159
2024-09-23 07:53:06.948283,42.33,4.232679,-0.0037308827908396356,-0.023579196463302005,0.09725178296655933,44.11764879391193,-92.24360919585227,84.22370748782159
2024-09-23 07:53:06.960353,42.33,4.232679,-0.0037308827908396356,-0.023579196463302005,0.09725178296655933,44.11764879391193,-88.23529758782387,84.22370748782159
2024-09-23 07:53:06.992519,42.33,4.23273,-0.003233425524256645,-0.023579196463302005,0.09725178296655933,44.11764879391193,-88.23529758782387,76.200527287817
2024-09-23 07:53:07.004250,42.33,4.23273,-0.003233425524256645,-0.02293251340906919,0.09755024973162574,36.09446859390736,-88.23529758782387,76.200527287817
2024-09-23 07:53:07.046681,42.33,4.232781,-0.0026862297461545674,-0.023330473146428877,0.0973512698629459,36.09446859390736,-100.26678939585686,80.21211738781929
2024-09-23 07:53:07.088860,42.33,4.232781,-0.0026862297461545674,-0.023330473146428877,0.0973512698629459,44.11764879391193,-100.26678939585686,80.21211738781929
2024-09-23 07:53:07.101255,42.33,4.232832,-0.0028354659767690416,-0.023877669304275123,0.0973512698629459,44.11764879391193,-100.26678939585686,80.21211738781929
2024-09-23 07:53:07.144709,42.33,4.232883,-0.0035318979854855937,-0.023877669304275123,0.09764974270391902,44.11764879391193,-92.24360919585227,80.21211738781929
2024-09-23 07:53:07.187813,42.33,4.232883,-0.0035318979854855937,-0.023927417309398437,0.0973015264147526,36.09446859390736,-92.24360919585227,80.21211738781929
2024-09-23 07:53:07.199512,42.33,4.232971,-0.0035318979854855937,-0.023927417309398437,0.0973015264147526,36.09446859390736,-100.26678939585686,80.21211738781929
2024-09-23 07:53:07.242720,42.33,4.232971,-0.0031339382481259063,-0.02412639262114825,0.09685382322919964,36.09446859390736,-100.26678939585686,80.21211738781929
2024-09-23 07:53:07.285437,42.33,4.232971,-0.0031339382481259063,-0.02412639262114825,0.09685382322919964,36.09446859390736,-100.26678939585686,80.21211738781929
2024-09-23 07:53:07.338325,42.33,4.233022,-0.002636491424507565,-0.02352945757203875,0.09630662707135339,36.09446859390736,-100.26678939585686,84.22370748782159
2024-09-23 07:53:07.381563,42.33,4.233022,-0.002636491424507565,-0.02352945757203875,0.09630662707135339,40.106058693909645,-96.25519929585457,84.22370748782159
2024-09-23 07:53:07.393565,42.33,4.233073,-0.0031836870127375577,-0.02397715620066169,0.09630662707135339,40.106058693909645,-96.25519929585457,80.21211738781929
2024-09-23 07:53:07.437065,42.33,4.233124,-0.0026862297461545674,-0.02397715620066169,0.09750050628343246,40.106058693909645,-92.24360919585227,80.21211738781929
2024-09-23 07:53:07.480265,42.33,4.233124,-0.0026862297461545674,-0.023877669304275123,0.0973015264147526,44.11764879391193,-92.24360919585227,80.21211738781929
2024-09-23 07:53:07.493956,42.33,4.233174,-0.0026862297461545674,-0.023877669304275123,0.0973015264147526,44.11764879391193,-88.23529758782387,80.21211738781929
2024-09-23 07:53:07.526283,42.01,4.233174,-0.0037308827908396356,-0.023877669304275123,0.0973015264147526,44.11764879391193,-88.23529758782387,80.21211738781929
2024-09-23 07:53:07.537393,42.01,4.233174,-0.0037308827908396356,-0.023927417309398437,0.09655535038822652,32.08287849390507,-96.25519929585457,76.200527287817
2024-09-23 07:53:07.580294,42.01,4.233264,-0.002785727465249955,-0.024176140626271565,0.09670458680871308,40.106058693909645,-96.25519929585457,76.200527287817
2024-09-23 07:53:07.592679,42.01,4.233264,-0.002785727465249955,-0.024176140626271565,0.09670458680871308,40.106058693909645,-96.25519929585457,76.200527287817
2024-09-23 07:53:07.626150,42.01,4.233362,-0.002785727465249955,-0.024176140626271565,0.09670458680871308,40.106058693909645,-96.25519929585457,80.21211738781929
2024-09-23 07:53:07.637790,42.01,4.233362,-0.0032831742888682963,-0.023927417309398437,0.09685382322919964,36.09446859390736,-96.25519929585457,80.21211738781929
2024-09-23 07:53:07.680431,42.01,4.233413,-0.0030841997366068195,-0.02362894446842532,0.09675432418099966,36.09446859390736,-100.26678939585686,80.21211738781929
2024-09-23 07:53:07.722651,42.01,4.233413,-0.0030841997366068195,-0.02362894446842532,0.09675432418099966,32.08287849390507,-100.26678939585686,80.21211738781929
2024-09-23 07:53:07.777102,42.01,4.233464,-0.0030841997366068195,-0.02367869399252531,0.09690356060148622,32.08287849390507,-100.26678939585686,80.21211738781929
2024-09-23 07:53:07.788554,42.01,4.233464,-0.0030841997366068195,-0.02367869399252531,0.09690356060148622,48.12595698684454,-100.26678939585686,80.21211738781929
2024-09-23 07:53:07.820191,42.01,4.233464,-0.0030841997366068195,-0.02367869399252531,0.09690356060148622,48.12595698684454,-100.26678939585686,80.21211738781929
2024-09-23 07:53:07.831466,42.01,4.233514,-0.003482159473966507,-0.024225890150371555,0.09670458680871308,48.12595698684454,-100.26678939585686,80.21211738781929
2024-09-23 07:53:07.875229,42.01,4.233605,-0.0031836870127375577,-0.024225890150371555,0.09670458680871308,36.09446859390736,-100.26678939585686,80.21211738781929
2024-09-23 07:53:07.886840,42.01,4.233605,-0.0031836870127375577,-0.024176140626271565,0.09670458680871308,36.09446859390736,-100.26678939585686,80.21211738781929
2024-09-23 07:53:07.919183,42.01,4.233605,-0.0031836870127375577,-0.024176140626271565,0.09710254654607277,36.09446859390736,-104.27510100388527,80.21211738781929
2024-09-23 07:53:07.930493,42.01,4.233656,-0.0029847020175114316,-0.024176140626271565,0.09710254654607277,36.09446859390736,-104.27510100388527,80.21211738781929
2024-09-23 07:53:07.972587,42.01,4.233707,-0.0029847020175114316,-0.02397715620066169,0.09655535038822652,32.08287849390507,-104.27510100388527,76.200527287817
2024-09-23 07:53:08.015418,42.01,4.233707,-0.0037308827908396356,-0.023827930413011865,0.09655535038822652,32.08287849390507,-104.27510100388527,76.200527287817
2024-09-23 07:53:08.027002,42.01,4.233707,-0.0037308827908396356,-0.023827930413011865,0.09750050628343246,32.08287849390507,-92.24360919585227,80.21211738781929
2024-09-23 07:53:08.068880,42.01,4.2338,-0.003382661564999035,-0.02352945757203875,0.09615739065086683,28.07457030097246,-92.24360919585227,80.21211738781929
2024-09-23 07:53:08.080930,42.01,4.2338,-0.003382661564999035,-0.02352945757203875,0.09615739065086683,28.07457030097246,-96.25519929585457,80.21211738781929
2024-09-23 07:53:08.114843,42.01,4.233851,-0.002785727465249955,-0.02352945757203875,0.09615739065086683,28.07457030097246,-96.25519929585457,76.200527287817
2024-09-23 07:53:08.126116,42.01,4.233851,-0.002785727465249955,-0.023778180888911878,0.09720203344245934,36.09446859390736,-96.25519929585457,76.200527287817
2024-09-23 07:53:08.169326,42.01,4.233902,-0.0030344509719951677,-0.023728432883788564,0.09759999317981902,36.09446859390736,-96.25519929585457,80.21211738781929
2024-09-23 07:53:08.212753,42.01,4.233902,-0.0030344509719951677,-0.023728432883788564,0.09759999317981902,44.11764879391193,-100.26678939585686,76.200527287817
2024-09-23 07:53:08.224234,42.01,4.233953,-0.0029349636958644295,-0.02367869399252531,0.09759999317981902,44.11764879391193,-100.26678939585686,76.200527287817
2024-09-23 07:53:08.256992,42.01,4.233953,-0.0029349636958644295,-0.02367869399252531,0.09695331012558621,44.11764879391193,-100.26678939585686,76.200527287817
2024-09-23 07:53:08.268878,42.01,4.234003,-0.0028354659767690416,-0.02367869399252531,0.09695331012558621,32.08287849390507,-96.25519929585457,80.21211738781929
2024-09-23 07:53:08.311108,42.01,4.234003,-0.0028354659767690416,-0.024076653729884996,0.0970030596496862,32.08287849390507,-96.25519929585457,80.21211738781929
2024-09-23 07:53:08.363882,42.01,4.234092,-0.0030841997366068195,-0.023827930413011865,0.0970030596496862,44.11764879391193,-96.25519929585457,76.200527287817
2024-09-23 07:53:08.407064,42.01,4.234092,-0.0030841997366068195,-0.023827930413011865,0.09680407370509965,44.11764879391193,-96.25519929585457,76.200527287817
2024-09-23 07:53:08.418304,42.01,4.234144,-0.0029349636958644295,-0.023827930413011865,0.09680407370509965,44.11764879391193,-96.25519929585457,80.21211738781929
2024-09-23 07:53:08.460838,42.01,4.234195,-0.0029349636958644295,-0.024325377046758124,0.09670458680871308,40.106058693909645,-100.26678939585686,76.200527287817
2024-09-23 07:53:08.502697,42.01,4.234195,-0.0028852147413806935,-0.02397715620066169,0.09670458680871308,40.106058693909645,-100.26678939585686,76.200527287817
2024-09-23 07:53:08.514478,42.01,4.234195,-0.0028852147413806935,-0.02397715620066169,0.0966050877605131,28.07457030097246,-104.27510100388527,84.22370748782159
2024-09-23 07:53:08.557108,41.95,4.234245,-0.0030344509719951677,-0.023927417309398437,0.09725178296655933,44.11764879391193,-104.27510100388527,84.22370748782159
2024-09-23 07:53:08.599898,41.95,4.234337,-0.0030344509719951677,-0.023927417309398437,0.09725178296655933,44.11764879391193,-104.27510100388527,80.21211738781929
2024-09-23 07:53:08.611474,41.95,4.234337,-0.0031836870127375577,-0.02397715620066169,0.09740101331113918,44.11764879391193,-104.27510100388527,80.21211738781929
2024-09-23 07:53:08.654724,41.95,4.234388,-0.0030841997366068195,-0.024275627522658133,0.09759999317981902,44.11764879391193,-104.27510100388527,80.21211738781929
2024-09-23 07:53:08.697202,41.95,4.234388,-0.0030841997366068195,-0.024275627522658133,0.09759999317981902,28.07457030097246,-100.26678939585686,80.21211738781929
2024-09-23 07:53:08.708732,41.95,4.234439,-0.0033329230534799477,-0.023579196463302005,0.09759999317981902,28.07457030097246,-100.26678939585686,76.200527287817
2024-09-23 07:53:08.750631,41.95,4.23449,-0.0033329230534799477,-0.023579196463302005,0.0973015264147526,36.09446859390736,-100.26678939585686,76.200527287817
2024-09-23 07:53:08.762582,41.95,4.23449,-0.0033329230534799477,-0.023579196463302005,0.0973015264147526,36.09446859390736,-100.26678939585686,76.200527287817
2024-09-23 07:53:08.795180,41.95,4.23449,-0.0033329230534799477,-0.023827930413011865,0.0966050877605131,36.09446859390736,-100.26678939585686,76.200527287817
2024-09-23 07:53:08.848770,41.95,4.23458,-0.0028852147413806935,-0.023827930413011865,0.0966050877605131,44.11764879391193,-96.25519929585457,76.200527287817
2024-09-23 07:53:08.860982,41.95,4.23458,-0.0028852147413806935,-0.023827930413011865,0.0966050877605131,44.11764879391193,-96.25519929585457,76.200527287817
2024-09-23 07:53:08.894276,41.95,4.23458,-0.0028852147413806935,-0.023827930413011865,0.09645586349183995,36.09446859390736,-112.29828120388984,76.200527287817
2024-09-23 07:53:08.905990,41.95,4.234631,-0.0033329230534799477,-0.023827930413011865,0.09645586349183995,36.09446859390736,-112.29828120388984,76.200527287817
2024-09-23 07:53:08.948310,41.95,4.234682,-0.0033329230534799477,-0.024076653729884996,0.09725178296655933,36.09446859390736,-100.26678939585686,76.200527287817
2024-09-23 07:53:08.990933,41.95,4.234682,-0.003382661564999035,-0.024176140626271565,0.09715228999426605,36.09446859390736,-100.26678939585686,76.200527287817
2024-09-23 07:53:09.002278,41.95,4.234682,-0.003382661564999035,-0.024176140626271565,0.09715228999426605,44.11764879391193,-96.25519929585457,76.200527287817
2024-09-23 07:53:09.044557,41.95,4.234733,-0.003233425524256645,-0.023877669304275123,0.09670458680871308,36.09446859390736,-100.26678939585686,76.200527287817
2024-09-23 07:53:09.087068,41.95,4.234824,-0.003233425524256645,-0.023877669304275123,0.09670458680871308,36.09446859390736,-100.26678939585686,76.200527287817
2024-09-23 07:53:09.098196,41.95,4.234824,-0.0033329230534799477,-0.02367869399252531,0.09655535038822652,36.09446859390736,-100.26678939585686,76.200527287817
2024-09-23 07:53:09.141348,41.95,4.234876,-0.003382661564999035,-0.02397715620066169,0.09655535038822652,36.09446859390736,-96.25519929585457,76.200527287817
2024-09-23 07:53:09.153482,41.95,4.234876,-0.003382661564999035,-0.02397715620066169,0.09675432418099966,36.09446859390736,-96.25519929585457,76.200527287817
2024-09-23 07:53:09.185346,41.95,4.234876,-0.003382661564999035,-0.02397715620066169,0.09675432418099966,40.106058693909645,-96.25519929585457,76.200527287817
2024-09-23 07:53:09.197392,41.95,4.234926,-0.002636491424507565,-0.02352945757203875,0.09675432418099966,40.106058693909645,-96.25519929585457,76.200527287817
2024-09-23 07:53:09.240602,41.95,4.234977,-0.0034324103296106863,-0.02352945757203875,0.09710254654607277,36.09446859390736,-100.26678939585686,80.21211738781929
2024-09-23 07:53:09.283433,41.95,4.234977,-0.0034324103296106863,-0.023728432883788564,0.09650560086412653,36.09446859390736,-100.26678939585686,80.21211738781929
2024-09-23 07:53:09.295362,41.95,4.235067,-0.0034324103296106863,-0.023728432883788564,0.09650560086412653,40.106058693909645,-100.26678939585686,76.200527287817
2024-09-23 07:53:09.338668,41.95,4.235067,-0.0031339382481259063,-0.023728432883788564,0.09650560086412653,40.106058693909645,-100.26678939585686,76.200527287817
2024-09-23 07:53:09.381177,41.95,4.235067,-0.0031339382481259063,-0.023579196463302005,0.09665483728461309,40.106058693909645,-100.26678939585686,76.200527287817
2024-09-23 07:53:09.393209,41.95,4.235067,-0.0031339382481259063,-0.023579196463302005,0.09665483728461309,44.11764879391193,-96.25519929585457,80.21211738781929
2024-09-23 07:53:09.435952,41.95,4.235119,-0.0029349636958644295,-0.024076653729884996,0.09690356060148622,44.11764879391193,-88.23529758782387,80.21211738781929
2024-09-23 07:53:09.478177,41.95,4.235169,-0.0029349636958644295,-0.024076653729884996,0.09690356060148622,44.11764879391193,-88.23529758782387,80.21211738781929
2024-09-23 07:53:09.489745,41.95,4.235169,-0.003382661564999035,-0.024026904205785005,0.09670458680871308,40.106058693909645,-88.23529758782387,80.21211738781929
2024-09-23 07:53:09.533152,41.95,4.23522,-0.0031836870127375577,-0.02362894446842532,0.09680407370509965,40.106058693909645,-96.25519929585457,76.200527287817
2024-09-23 07:53:09.576571,41.66,4.23522,-0.0031836870127375577,-0.02362894446842532,0.09680407370509965,40.106058693909645,-100.26678939585686,80.21211738781929
2024-09-23 07:53:09.588130,41.66,4.235271,-0.0035318979854855937,-0.02352945757203875,0.09680407370509965,40.106058693909645,-100.26678939585686,80.21211738781929
2024-09-23 07:53:09.630230,41.66,4.235362,-0.0027359787006383035,-0.02352945757203875,0.09695331012558621,32.08287849390507,-88.23529758782387,80.21211738781929
2024-09-23 07:53:09.674216,41.66,4.235362,-0.0027359787006383035,-0.02362894446842532,0.09670458680871308,40.106058693909645,-88.23529758782387,80.21211738781929
2024-09-23 07:53:09.685997,41.66,4.235457,-0.0027359787006383035,-0.02362894446842532,0.09670458680871308,40.106058693909645,-104.27510100388527,76.200527287817
2024-09-23 07:53:09.727982,41.66,4.235457,-0.003233425524256645,-0.023827930413011865,0.09715228999426605,40.106058693909645,-100.26678939585686,80.21211738781929
2024-09-23 07:53:09.771104,41.66,4.235509,-0.003233425524256645,-0.023827930413011865,0.09715228999426605,40.106058693909645,-100.26678939585686,80.21211738781929
2024-09-23 07:53:09.783289,41.66,4.235509,-0.003233425524256645,-0.023827930413011865,0.09690356060148622,32.08287849390507,-96.25519929585457,80.21211738781929
2024-09-23 07:53:09.826543,41.66,4.235559,-0.0034324103296106863,-0.02338022115155219,0.0966050877605131,40.106058693909645,-96.25519929585457,72.1922225099802
2024-09-23 07:53:09.868848,41.66,4.23561,-0.0034324103296106863,-0.02338022115155219,0.0966050877605131,40.106058693909645,-104.27510100388527,76.200527287817
2024-09-23 07:53:09.880040,41.66,4.23561,-0.0031836870127375577,-0.023877669304275123,0.09680407370509965,40.106058693909645,-104.27510100388527,76.200527287817
2024-09-23 07:53:09.923574,41.66,4.235661,-0.003382661564999035,-0.02412639262114825,0.09680407370509965,48.12595698684454,-96.25519929585457,80.21211738781929
2024-09-23 07:53:09.966620,41.66,4.235661,-0.003382661564999035,-0.02412639262114825,0.09690356060148622,36.09446859390736,-100.26678939585686,80.21211738781929
2024-09-23 07:53:09.978335,41.66,4.235711,-0.003233425524256645,-0.02412639262114825,0.09690356060148622,36.09446859390736,-100.26678939585686,76.200527287817
2024-09-23 07:53:10.021813,41.66,4.235798,-0.003233425524256645,-0.02308174982955575,0.09630662707135339,44.11764879391193,-88.23529758782387,84.22370748782159
2024-09-23 07:53:10.064270,41.66,4.235798,-0.0031836870127375577,-0.023927417309398437,0.0970030596496862,44.11764879391193,-88.23529758782387,84.22370748782159
2024-09-23 07:53:10.075789,41.66,4.235798,-0.0031836870127375577,-0.023927417309398437,0.0970030596496862,36.09446859390736,-96.25519929585457,80.21211738781929
2024-09-23 07:53:10.120049,41.66,4.23585,-0.0030344509719951677,-0.023429960042815445,0.09695331012558621,36.09446859390736,-96.25519929585457,80.21211738781929
2024-09-23 07:53:10.162952,41.66,4.235901,-0.0032831742888682963,-0.024225890150371555,0.09695331012558621,36.09446859390736,-96.25519929585457,76.200527287817
2024-09-23 07:53:10.174592,41.66,4.235901,-0.0032831742888682963,-0.024225890150371555,0.09740101331113918,32.08287849390507,-96.25519929585457,76.200527287817
2024-09-23 07:53:10.206271,41.66,4.235901,-0.0032831742888682963,-0.024225890150371555,0.09740101331113918,32.08287849390507,-104.27510100388527,76.200527287817
2024-09-23 07:53:10.217932,41.66,4.235951,-0.003482159473966507,-0.02367869399252531,0.09675432418099966,32.08287849390507,-104.27510100388527,80.21211738781929
2024-09-23 07:53:10.260618,41.66,4.236002,-0.003482159473966507,-0.02367869399252531,0.09675432418099966,48.12595698684454,-100.26678939585686,76.200527287817
2024-09-23 07:53:10.271662,41.66,4.236002,-0.003233425524256645,-0.02338022115155219,0.09675432418099966,48.12595698684454,-100.26678939585686,76.200527287817
2024-09-23 07:53:10.304599,41.66,4.236002,-0.003233425524256645,-0.02338022115155219,0.09665483728461309,48.12595698684454,-100.26678939585686,76.200527287817
2024-09-23 07:53:10.316684,41.66,4.236052,-0.0030344509719951677,-0.02338022115155219,0.09665483728461309,36.09446859390736,-96.25519929585457,76.200527287817
2024-09-23 07:53:10.411025,41.66,4.236052,-0.0030344509719951677,-0.023877669304275123,0.09635636444363997,36.09446859390736,-100.26678939585686,76.200527287817
2024-09-23 07:53:10.423103,41.66,4.23614,-0.0030344509719951677,-0.023877669304275123,0.09635636444363997,36.09446859390736,-100.26678939585686,76.200527287817
2024-09-23 07:53:10.455913,41.66,4.23614,-0.0032831742888682963,-0.02352945757203875,0.09690356060148622,36.09446859390736,-100.26678939585686,76.200527287817
2024-09-23 07:53:10.467653,41.66,4.23614,-0.0032831742888682963,-0.02352945757203875,0.09690356060148622,36.09446859390736,-100.26678939585686,76.200527287817
2024-09-23 07:53:10.499132,41.66,4.236191,-0.0032831742888682963,-0.02352945757203875,0.09690356060148622,36.09446859390736,-100.26678939585686,76.200527287817
2024-09-23 07:53:10.510370,41.66,4.236191,-0.0031836870127375577,-0.024275627522658133,0.09690356060148622,32.08287849390507,-100.26678939585686,76.200527287817
2024-09-23 07:53:10.553603,41.66,4.236242,-0.0030344509719951677,-0.023827930413011865,0.09690356060148622,32.08287849390507,-100.26678939585686,80.21211738781929
2024-09-23 07:53:10.565385,41.66,4.236242,-0.0030344509719951677,-0.023827930413011865,0.09675432418099966,40.106058693909645,-100.26678939585686,80.21211738781929
2024-09-23 07:53:10.598654,41.58,4.236242,-0.0030344509719951677,-0.023827930413011865,0.09675432418099966,40.106058693909645,-104.27510100388527,76.200527287817
2024-09-23 07:53:10.609856,41.58,4.236292,-0.0028354659767690416,-0.02308174982955575,0.09680407370509965,40.106058693909645,-104.27510100388527,76.200527287817
2024-09-23 07:53:10.652941,41.58,4.236385,-0.0029349636958644295,-0.02308174982955575,0.09680407370509965,36.09446859390736,-100.26678939585686,76.200527287817
2024-09-23 07:53:10.664755,41.58,4.236385,-0.0029349636958644295,-0.023479709566915436,0.09680407370509965,36.09446859390736,-100.26678939585686,76.200527287817
2024-09-23 07:53:10.697482,41.58,4.236385,-0.0029349636958644295,-0.023479709566915436,0.09655535038822652,36.09446859390736,-96.25519929585457,76.200527287817
2024-09-23 07:53:10.708647,41.58,4.236436,-0.0029847020175114316,-0.023479709566915436,0.09655535038822652,36.09446859390736,-96.25519929585457,76.200527287817
2024-09-23 07:53:10.750932,41.58,4.23653,-0.0029847020175114316,-0.023927417309398437,0.09690356060148622,28.07457030097246,-96.25519929585457,80.21211738781929
2024-09-23 07:53:10.794064,41.58,4.23653,-0.002785727465249955,-0.02397715620066169,0.09690356060148622,28.07457030097246,-96.25519929585457,80.21211738781929
2024-09-23 07:53:10.805950,41.58,4.23653,-0.002785727465249955,-0.02397715620066169,0.0966050877605131,28.07457030097246,-100.26678939585686,80.21211738781929
2024-09-23 07:53:10.849484,41.58,4.236581,-0.003780631555451287,-0.02338022115155219,0.09690356060148622,32.08287849390507,-104.27510100388527,80.21211738781929
2024-09-23 07:53:10.892983,41.58,4.236632,-0.0036811340262279837,-0.02338022115155219,0.09690356060148622,32.08287849390507,-104.27510100388527,80.21211738781929
2024-09-23 07:53:10.904431,41.58,4.236632,-0.0036811340262279837,-0.023579196463302005,0.0970030596496862,28.07457030097246,-104.27510100388527,80.21211738781929
2024-09-23 07:53:10.947498,41.58,4.236682,-0.0029847020175114316,-0.023728432883788564,0.09685382322919964,28.07457030097246,-100.26678939585686,72.1922225099802
2024-09-23 07:53:10.989942,41.58,4.236682,-0.0029847020175114316,-0.023728432883788564,0.09685382322919964,36.09446859390736,-100.26678939585686,72.1922225099802
2024-09-23 07:53:11.000947,41.58,4.236733,-0.003382661564999035,-0.02362894446842532,0.09685382322919964,36.09446859390736,-100.26678939585686,72.1922225099802
2024-09-23 07:53:11.044080,41.58,4.236784,-0.003382661564999035,-0.02362894446842532,0.09715228999426605,40.106058693909645,-100.26678939585686,76.200527287817
2024-09-23 07:53:11.055765,41.58,4.236784,-0.0030841997366068195,-0.02362894446842532,0.09715228999426605,40.106058693909645,-100.26678939585686,76.200527287817
2024-09-23 07:53:11.087376,41.58,4.236784,-0.0030841997366068195,-0.024474613467244683,0.0970030596496862,40.106058693909645,-100.26678939585686,76.200527287817
2024-09-23 07:53:11.139608,41.58,4.236871,-0.003233425524256645,-0.02397715620066169,0.0970030596496862,40.106058693909645,-96.25519929585457,84.22370748782159
2024-09-23 07:53:11.151094,41.58,4.236871,-0.003233425524256645,-0.02397715620066169,0.09759999317981902,40.106058693909645,-96.25519929585457,84.22370748782159
2024-09-23 07:53:11.183808,41.58,4.236871,-0.003233425524256645,-0.02397715620066169,0.09759999317981902,40.106058693909645,-96.25519929585457,84.22370748782159
2024-09-23 07:53:11.195623,41.58,4.236922,-0.0030841997366068195,-0.024176140626271565,0.09759999317981902,40.106058693909645,-96.25519929585457,84.22370748782159
2024-09-23 07:53:11.237705,41.58,4.236973,-0.0030841997366068195,-0.024176140626271565,0.09695331012558621,40.106058693909645,-100.26678939585686,80.21211738781929
2024-09-23 07:53:11.249819,41.58,4.236973,-0.0031339382481259063,-0.024176140626271565,0.09695331012558621,40.106058693909645,-100.26678939585686,80.21211738781929
2024-09-23 07:53:11.281469,41.58,4.236973,-0.0031339382481259063,-0.023181236725942318,0.0973512698629459,40.106058693909645,-100.26678939585686,80.21211738781929
2024-09-23 07:53:11.293660,41.58,4.237024,-0.0031339382481259063,-0.023181236725942318,0.0973512698629459,36.09446859390736,-100.26678939585686,80.21211738781929
2024-09-23 07:53:11.336065,41.58,4.237024,-0.003233425524256645,-0.024325377046758124,0.09665483728461309,36.09446859390736,-96.25519929585457,76.200527287817
2024-09-23 07:53:11.377944,41.58,4.237115,-0.003233425524256645,-0.024325377046758124,0.09665483728461309,36.09446859390736,-96.25519929585457,76.200527287817
2024-09-23 07:53:11.389609,41.58,4.237115,-0.003233425524256645,-0.024026904205785005,0.09665483728461309,36.09446859390736,-96.25519929585457,76.200527287817
2024-09-23 07:53:11.433781,41.58,4.237166,-0.003233425524256645,-0.024026904205785005,0.09695331012558621,44.11764879391193,-100.26678939585686,84.22370748782159
2024-09-23 07:53:11.445477,41.58,4.237166,-0.0030344509719951677,-0.024026904205785005,0.09695331012558621,44.11764879391193,-100.26678939585686,84.22370748782159
2024-09-23 07:53:11.477834,41.58,4.237166,-0.0030344509719951677,-0.02362894446842532,0.09650560086412653,44.11764879391193,-100.26678939585686,84.22370748782159
2024-09-23 07:53:11.489479,41.58,4.237217,-0.0030344509719951677,-0.02362894446842532,0.09650560086412653,44.11764879391193,-100.26678939585686,76.200527287817
2024-09-23 07:53:11.532142,41.58,4.237217,-0.0026862297461545674,-0.024325377046758124,0.0973015264147526,44.11764879391193,-100.26678939585686,80.21211738781929
2024-09-23 07:53:11.574643,41.58,4.237268,-0.0033329230534799477,-0.02397715620066169,0.0973015264147526,44.11764879391193,-100.26678939585686,80.21211738781929
2024-09-23 07:53:11.585731,41.58,4.237268,-0.0033329230534799477,-0.02397715620066169,0.09720203344245934,32.08287849390507,-96.25519929585457,80.21211738781929
2024-09-23 07:53:11.628174,41.73,4.237319,-0.0031339382481259063,-0.023927417309398437,0.09710254654607277,32.08287849390507,-96.25519929585457,80.21211738781929
2024-09-23 07:53:11.639920,41.73,4.237319,-0.0031339382481259063,-0.023927417309398437,0.09710254654607277,36.09446859390736,-96.25519929585457,80.21211738781929
2024-09-23 07:53:11.673484,41.73,4.237409,-0.0031339382481259063,-0.023927417309398437,0.09710254654607277,36.09446859390736,-96.25519929585457,80.21211738781929
2024-09-23 07:53:11.685212,41.73,4.237409,-0.003233425524256645,-0.023927417309398437,0.09715228999426605,36.09446859390736,-96.25519929585457,80.21211738781929
2024-09-23 07:53:11.717368,41.73,4.237409,-0.003233425524256645,-0.023927417309398437,0.09715228999426605,36.09446859390736,-96.25519929585457,80.21211738781929
2024-09-23 07:53:11.770285,41.73,4.237409,-0.003233425524256645,-0.023927417309398437,0.09715228999426605,36.09446859390736,-100.26678939585686,80.21211738781929
2024-09-23 07:53:11.824139,41.73,4.23746,-0.003482159473966507,-0.024076653729884996,0.0970030596496862,36.09446859390736,-100.26678939585686,84.22370748782159
2024-09-23 07:53:11.836185,41.73,4.23746,-0.003482159473966507,-0.024076653729884996,0.0970030596496862,32.08287849390507,-100.26678939585686,84.22370748782159
2024-09-23 07:53:11.869028,41.73,4.23751,-0.003482159473966507,-0.024076653729884996,0.0970030596496862,32.08287849390507,-100.26678939585686,84.22370748782159
2024-09-23 07:53:11.881155,41.73,4.23751,-0.003780631555451287,-0.024325377046758124,0.09759999317981902,32.08287849390507,-100.26678939585686,84.22370748782159
2024-09-23 07:53:11.914529,41.73,4.23751,-0.003780631555451287,-0.024325377046758124,0.09759999317981902,24.06297849342227,-104.27510100388527,84.22370748782159
2024-09-23 07:53:11.926066,41.73,4.237602,-0.0033329230534799477,-0.023877669304275123,0.09759999317981902,24.06297849342227,-104.27510100388527,80.21211738781929
2024-09-23 07:53:11.967811,41.73,4.237602,-0.0033329230534799477,-0.023877669304275123,0.0973512698629459,32.08287849390507,-100.26678939585686,80.21211738781929
2024-09-23 07:53:11.979430,41.73,4.237654,-0.0032831742888682963,-0.023877669304275123,0.0973512698629459,32.08287849390507,-100.26678939585686,80.21211738781929
2024-09-23 07:53:12.012014,41.73,4.237654,-0.0032831742888682963,-0.024026904205785005,0.0973512698629459,32.08287849390507,-100.26678939585686,80.21211738781929
2024-09-23 07:53:12.023222,41.73,4.237797,-0.0032831742888682963,-0.024026904205785005,0.09745075675933246,40.106058693909645,-92.24360919585227,80.21211738781929
2024-09-23 07:53:12.066282,41.73,4.237797,-0.0033329230534799477,-0.024026904205785005,0.09665483728461309,32.08287849390507,-96.25519929585457,80.21211738781929
2024-09-23 07:53:12.078335,41.73,4.237797,-0.0033329230534799477,-0.024026904205785005,0.09665483728461309,32.08287849390507,-96.25519929585457,76.200527287817
2024-09-23 07:53:12.111623,41.73,4.237849,-0.0032831742888682963,-0.024026904205785005,0.09665483728461309,32.08287849390507,-96.25519929585457,76.200527287817
2024-09-23 07:53:12.123159,41.73,4.237849,-0.0032831742888682963,-0.023479709566915436,0.09705279702197278,36.09446859390736,-96.25519929585457,76.200527287817
2024-09-23 07:53:12.165765,41.73,4.237899,-0.0028354659767690416,-0.023778180888911878,0.09759999317981902,28.07457030097246,-96.25519929585457,76.200527287817
2024-09-23 07:53:12.207607,41.73,4.237899,-0.0028354659767690416,-0.023778180888911878,0.09759999317981902,28.07457030097246,-116.30987130389214,72.1922225099802
2024-09-23 07:53:12.219244,41.73,4.23795,-0.003631395514708897,-0.023330473146428877,0.09670458680871308,28.07457030097246,-116.30987130389214,72.1922225099802
2024-09-23 07:53:12.261779,41.73,4.238001,-0.003631395514708897,-0.023330473146428877,0.09670458680871308,32.08287849390507,-104.27510100388527,80.21211738781929
2024-09-23 07:53:12.304950,41.73,4.238001,-0.0032831742888682963,-0.023927417309398437,0.09670458680871308,32.08287849390507,-104.27510100388527,80.21211738781929
2024-09-23 07:53:12.316030,41.73,4.238001,-0.0032831742888682963,-0.023927417309398437,0.0973512698629459,36.09446859390736,-96.25519929585457,84.22370748782159
2024-09-23 07:53:12.358552,41.73,4.238051,-0.0033329230534799477,-0.023280723622328886,0.09675432418099966,36.09446859390736,-96.25519929585457,84.22370748782159
2024-09-23 07:53:12.370648,41.73,4.238051,-0.0033329230534799477,-0.023280723622328886,0.09675432418099966,36.09446859390736,-96.25519929585457,84.22370748782159
2024-09-23 07:53:12.403278,41.73,4.238138,-0.0033329230534799477,-0.023280723622328886,0.09675432418099966,36.09446859390736,-96.25519929585457,76.200527287817
2024-09-23 07:53:12.456408,41.73,4.238138,-0.0038801188315820256,-0.023230986250042305,0.09720203344245934,36.09446859390736,-104.27510100388527,76.200527287817
2024-09-23 07:53:12.468137,41.73,4.238138,-0.0038801188315820256,-0.023230986250042305,0.09720203344245934,36.09446859390736,-104.27510100388527,80.21211738781929
2024-09-23 07:53:12.500025,41.73,4.23819,-0.0034324103296106863,-0.023230986250042305,0.09720203344245934,36.09446859390736,-104.27510100388527,80.21211738781929
2024-09-23 07:53:12.511568,41.73,4.23819,-0.0034324103296106863,-0.023927417309398437,0.09725178296655933,28.07457030097246,-96.25519929585457,80.21211738781929
2024-09-23 07:53:12.554232,41.73,4.238241,-0.003233425524256645,-0.023927417309398437,0.09665483728461309,28.07457030097246,-96.25519929585457,84.22370748782159
2024-09-23 07:53:12.566023,41.73,4.238241,-0.003233425524256645,-0.023927417309398437,0.09665483728461309,36.09446859390736,-96.25519929585457,84.22370748782159
2024-09-23 07:53:12.597808,41.73,4.238241,-0.003233425524256645,-0.023927417309398437,0.09665483728461309,36.09446859390736,-104.27510100388527,80.21211738781929
2024-09-23 07:53:12.608877,41.73,4.238292,-0.003631395514708897,-0.024176140626271565,0.09680407370509965,36.09446859390736,-104.27510100388527,80.21211738781929
2024-09-23 07:53:12.653101,42.08,4.238382,-0.0030344509719951677,-0.023877669304275123,0.09680407370509965,36.09446859390736,-92.24360919585227,76.200527287817
2024-09-23 07:53:12.695513,42.08,4.238382,-0.0030344509719951677,-0.023877669304275123,0.09685382322919964,28.07457030097246,-92.24360919585227,76.200527287817
2024-09-23 07:53:12.707263,42.08,4.238434,-0.0030841997366068195,-0.023877669304275123,0.09685382322919964,28.07457030097246,-100.26678939585686,84.22370748782159
2024-09-23 07:53:12.750182,42.08,4.238434,-0.0030841997366068195,-0.023778180888911878,0.09725178296655933,44.11764879391193,-96.25519929585457,72.1922225099802
2024-09-23 07:53:12.763617,42.08,4.238528,-0.0030841997366068195,-0.023778180888911878,0.09725178296655933,44.11764879391193,-96.25519929585457,72.1922225099802
2024-09-23 07:53:12.796203,42.08,4.238528,-0.003482159473966507,-0.024026904205785005,0.09725178296655933,40.106058693909645,-96.25519929585457,72.1922225099802
2024-09-23 07:53:12.810284,42.08,4.238528,-0.003482159473966507,-0.024026904205785005,0.09725178296655933,40.106058693909645,-100.26678939585686,76.200527287817
2024-09-23 07:53:12.842300,42.08,4.23858,-0.0030344509719951677,-0.023579196463302005,0.09725178296655933,40.106058693909645,-100.26678939585686,76.200527287817
2024-09-23 07:53:12.853303,42.08,4.23858,-0.0030344509719951677,-0.023579196463302005,0.09685382322919964,40.106058693909645,-96.25519929585457,76.200527287817
2024-09-23 07:53:12.895832,42.08,4.238631,-0.0032831742888682963,-0.024225890150371555,0.09725178296655933,40.106058693909645,-96.25519929585457,76.200527287817
2024-09-23 07:53:12.907538,42.08,4.238631,-0.0032831742888682963,-0.024225890150371555,0.09725178296655933,40.106058693909645,-96.25519929585457,76.200527287817
2024-09-23 07:53:12.939376,42.08,4.238631,-0.0032831742888682963,-0.024225890150371555,0.09725178296655933,40.106058693909645,-92.24360919585227,80.21211738781929
2024-09-23 07:53:12.950358,42.08,4.238681,-0.0032831742888682963,-0.023579196463302005,0.09640611396773996,40.106058693909645,-92.24360919585227,80.21211738781929
2024-09-23 07:53:12.992444,42.08,4.238732,-0.0028354659767690416,-0.023579196463302005,0.09640611396773996,32.08287849390507,-100.26678939585686,80.21211738781929
2024-09-23 07:53:13.004679,42.08,4.238732,-0.0028354659767690416,-0.023479709566915436,0.09640611396773996,32.08287849390507,-100.26678939585686,80.21211738781929
2024-09-23 07:53:13.036791,42.08,4.238732,-0.0028354659767690416,-0.023479709566915436,0.09670458680871308,40.106058693909645,-100.26678939585686,80.21211738781929
2024-09-23 07:53:13.048021,42.08,4.238783,-0.0029847020175114316,-0.023479709566915436,0.09670458680871308,40.106058693909645,-96.25519929585457,76.200527287817
2024-09-23 07:53:13.090546,42.08,4.23887,-0.0029847020175114316,-0.023728432883788564,0.09755024973162574,24.06297849342227,-104.27510100388527,88.23529758782387
2024-09-23 07:53:13.133909,42.08,4.23887,-0.0029847020175114316,-0.02352945757203875,0.09755024973162574,24.06297849342227,-104.27510100388527,88.23529758782387
2024-09-23 07:53:13.145593,42.08,4.23887,-0.0029847020175114316,-0.02352945757203875,0.09705279702197278,32.08287849390507,-100.26678939585686,88.23529758782387
2024-09-23 07:53:13.188588,42.08,4.238922,-0.003233425524256645,-0.023728432883788564,0.09690356060148622,32.08287849390507,-108.28669110388756,88.23529758782387
2024-09-23 07:53:13.230831,42.08,4.238972,-0.003233425524256645,-0.023728432883788564,0.09690356060148622,32.08287849390507,-108.28669110388756,76.200527287817
2024-09-23 07:53:13.242769,42.08,4.238972,-0.0033329230534799477,-0.023827930413011865,0.09710254654607277,36.09446859390736,-108.28669110388756,76.200527287817
2024-09-23 07:53:13.286913,42.08,4.239023,-0.0029847020175114316,-0.02397715620066169,0.09759999317981902,36.09446859390736,-96.25519929585457,76.200527287817
2024-09-23 07:53:13.329366,42.08,4.239023,-0.0029847020175114316,-0.02397715620066169,0.09759999317981902,32.08287849390507,-104.27510100388527,76.200527287817
2024-09-23 07:53:13.340956,42.08,4.239074,-0.0036811340262279837,-0.023728432883788564,0.09759999317981902,32.08287849390507,-104.27510100388527,76.200527287817
2024-09-23 07:53:13.384228,42.08,4.239124,-0.003482159473966507,-0.023728432883788564,0.09650560086412653,36.09446859390736,-108.28669110388756,80.21211738781929
2024-09-23 07:53:13.427681,42.08,4.239124,-0.003482159473966507,-0.024176140626271565,0.0970030596496862,36.09446859390736,-108.28669110388756,80.21211738781929
2024-09-23 07:53:13.480121,42.08,4.239211,-0.003382661564999035,-0.024176140626271565,0.0970030596496862,44.11764879391193,-96.25519929585457,76.200527287817
2024-09-23 07:53:13.492189,42.08,4.239211,-0.003382661564999035,-0.023827930413011865,0.0970030596496862,44.11764879391193,-96.25519929585457,76.200527287817
2024-09-23 07:53:13.525076,42.08,4.239211,-0.003382661564999035,-0.023827930413011865,0.09680407370509965,36.09446859390736,-96.25519929585457,76.200527287817
2024-09-23 07:53:13.536807,42.08,4.239262,-0.0032831742888682963,-0.023827930413011865,0.09680407370509965,36.09446859390736,-96.25519929585457,80.21211738781929
2024-09-23 07:53:13.579653,42.08,4.239313,-0.0032831742888682963,-0.023877669304275123,0.09695331012558621,32.08287849390507,-96.25519929585457,80.21211738781929
2024-09-23 07:53:13.623416,42.08,4.239313,-0.0026862297461545674,-0.02362894446842532,0.09705279702197278,32.08287849390507,-96.25519929585457,80.21211738781929
2024-09-23 07:53:13.635674,42.08,4.239313,-0.0026862297461545674,-0.02362894446842532,0.09705279702197278,24.06297849342227,-92.24360919585227,76.200527287817
2024-09-23 07:53:13.668401,42.11,4.239364,-0.0026862297461545674,-0.02362894446842532,0.09705279702197278,24.06297849342227,-92.24360919585227,76.200527287817
2024-09-23 07:53:13.679912,42.11,4.239364,-0.0035816467500972456,-0.023728432883788564,0.0970030596496862,40.106058693909645,-104.27510100388527,76.200527287817
2024-09-23 07:53:13.722876,42.11,4.239456,-0.003382661564999035,-0.023778180888911878,0.09764974270391902,40.106058693909645,-104.27510100388527,80.21211738781929
2024-09-23 07:53:13.735069,42.11,4.239456,-0.003382661564999035,-0.023778180888911878,0.09764974270391902,52.137550501942634,-104.27510100388527,80.21211738781929
2024-09-23 07:53:13.768020,42.11,4.239456,-0.003382661564999035,-0.023778180888911878,0.09764974270391902,52.137550501942634,-100.26678939585686,80.21211738781929
2024-09-23 07:53:13.779055,42.11,4.239507,-0.0032831742888682963,-0.023877669304275123,0.09655535038822652,52.137550501942634,-100.26678939585686,80.21211738781929
2024-09-23 07:53:13.821385,42.11,4.239557,-0.003482159473966507,-0.023877669304275123,0.09655535038822652,48.12595698684454,-96.25519929585457,80.21211738781929
2024-09-23 07:53:13.833942,42.11,4.239557,-0.003482159473966507,-0.02367869399252531,0.09655535038822652,48.12595698684454,-96.25519929585457,80.21211738781929
2024-09-23 07:53:13.866567,42.11,4.239557,-0.003482159473966507,-0.02367869399252531,0.0973015264147526,36.09446859390736,-104.27510100388527,80.21211738781929
2024-09-23 07:53:13.878347,42.11,4.239608,-0.0030344509719951677,-0.02367869399252531,0.0973015264147526,36.09446859390736,-104.27510100388527,68.18063240997792
2024-09-23 07:53:13.921942,42.11,4.239698,-0.0030344509719951677,-0.024026904205785005,0.0970030596496862,40.106058693909645,-92.24360919585227,76.200527287817
2024-09-23 07:53:13.963964,42.11,4.239698,-0.0038303700669703737,-0.023479709566915436,0.0970030596496862,40.106058693909645,-92.24360919585227,76.200527287817
2024-09-23 07:53:13.975708,42.11,4.239698,-0.0038303700669703737,-0.023479709566915436,0.0966050877605131,36.09446859390736,-96.25519929585457,80.21211738781929
2024-09-23 07:53:14.018537,42.11,4.23975,-0.0032831742888682963,-0.023579196463302005,0.09750050628343246,44.11764879391193,-96.25519929585457,80.21211738781929
2024-09-23 07:53:14.060267,42.11,4.239801,-0.0032831742888682963,-0.023579196463302005,0.09750050628343246,44.11764879391193,-96.25519929585457,80.21211738781929
2024-09-23 07:53:14.072103,42.11,4.239801,-0.003233425524256645,-0.024275627522658133,0.09690356060148622,44.11764879391193,-96.25519929585457,80.21211738781929
2024-09-23 07:53:14.114924,42.11,4.239851,-0.0031836870127375577,-0.02412639262114825,0.09690356060148622,44.11764879391193,-104.27510100388527,80.21211738781929
2024-09-23 07:53:14.126754,42.11,4.239851,-0.0031836870127375577,-0.02412639262114825,0.09670458680871308,44.11764879391193,-104.27510100388527,80.21211738781929
2024-09-23 07:53:14.160699,42.11,4.239902,-0.0031836870127375577,-0.02412639262114825,0.09670458680871308,44.11764879391193,-96.25519929585457,76.200527287817
2024-09-23 07:53:14.172550,42.11,4.239902,-0.0031339382481259063,-0.02412639262114825,0.09670458680871308,44.11764879391193,-96.25519929585457,76.200527287817
2024-09-23 07:53:14.206069,42.11,4.239902,-0.0031339382481259063,-0.023280723622328886,0.09680407370509965,44.11764879391193,-96.25519929585457,76.200527287817
2024-09-23 07:53:14.217025,42.11,4.239953,-0.0031339382481259063,-0.023280723622328886,0.09680407370509965,40.106058693909645,-96.25519929585457,80.21211738781929
2024-09-23 07:53:14.259388,42.11,4.239953,-0.0036811340262279837,-0.023877669304275123,0.0970030596496862,40.106058693909645,-108.28669110388756,80.21211738781929
2024-09-23 07:53:14.271062,42.11,4.239953,-0.0036811340262279837,-0.023877669304275123,0.0970030596496862,40.106058693909645,-108.28669110388756,80.21211738781929
2024-09-23 07:53:14.303171,42.11,4.24004,-0.003482159473966507,-0.023877669304275123,0.0970030596496862,40.106058693909645,-108.28669110388756,80.21211738781929
2024-09-23 07:53:14.314527,42.11,4.24004,-0.003482159473966507,-0.023927417309398437,0.09685382322919964,40.106058693909645,-100.26678939585686,80.21211738781929
2024-09-23 07:53:14.356687,42.11,4.240091,-0.0030841997366068195,-0.023827930413011865,0.09650560086412653,40.106058693909645,-100.26678939585686,80.21211738781929
2024-09-23 07:53:14.368725,42.11,4.240091,-0.0030841997366068195,-0.023827930413011865,0.09650560086412653,32.08287849390507,-100.26678939585686,80.21211738781929
2024-09-23 07:53:14.401382,42.11,4.240091,-0.0030841997366068195,-0.023827930413011865,0.09650560086412653,32.08287849390507,-104.27510100388527,72.1922225099802
2024-09-23 07:53:14.412620,42.11,4.240142,-0.002785727465249955,-0.024375126570858115,0.09665483728461309,32.08287849390507,-104.27510100388527,72.1922225099802
2024-09-23 07:53:14.506830,42.11,4.240193,-0.003233425524256645,-0.024375126570858115,0.09665483728461309,28.07457030097246,-92.24360919585227,80.21211738781929
2024-09-23 07:53:14.551052,42.11,4.240193,-0.003233425524256645,-0.023827930413011865,0.09665483728461309,40.106058693909645,-96.25519929585457,80.21211738781929
2024-09-23 07:53:14.562971,42.11,4.240244,-0.003233425524256645,-0.023827930413011865,0.09665483728461309,40.106058693909645,-96.25519929585457,72.1922225099802
2024-09-23 07:53:14.596067,42.11,4.240244,-0.0028852147413806935,-0.024176140626271565,0.09665483728461309,40.106058693909645,-96.25519929585457,72.1922225099802
2024-09-23 07:53:14.607330,42.11,4.240244,-0.0028852147413806935,-0.024176140626271565,0.09745075675933246,40.106058693909645,-92.24360919585227,76.200527287817
2024-09-23 07:53:14.650728,42.11,4.240332,-0.0032831742888682963,-0.023877669304275123,0.09655535038822652,32.08287849390507,-92.24360919585227,76.200527287817
2024-09-23 07:53:14.662535,42.11,4.240332,-0.0032831742888682963,-0.023877669304275123,0.09655535038822652,32.08287849390507,-96.25519929585457,76.200527287817
2024-09-23 07:53:14.694983,42.31,4.240384,-0.0032831742888682963,-0.023877669304275123,0.09655535038822652,32.08287849390507,-96.25519929585457,76.200527287817
2024-09-23 07:53:14.706079,42.31,4.240384,-0.0030344509719951677,-0.02397715620066169,0.0973015264147526,32.08287849390507,-96.25519929585457,76.200527287817
2024-09-23 07:53:14.748262,42.31,4.240479,-0.003233425524256645,-0.023877669304275123,0.09655535038822652,32.08287849390507,-104.27510100388527,76.200527287817
2024-09-23 07:53:14.791245,42.31,4.240479,-0.003233425524256645,-0.023877669304275123,0.09655535038822652,36.09446859390736,-88.23529758782387,76.200527287817
2024-09-23 07:53:14.803216,42.31,4.240531,-0.0031339382481259063,-0.023778180888911878,0.09655535038822652,36.09446859390736,-88.23529758782387,84.22370748782159
2024-09-23 07:53:14.846772,42.31,4.240581,-0.0029349636958644295,-0.023778180888911878,0.09680407370509965,32.08287849390507,-92.24360919585227,80.21211738781929
2024-09-23 07:53:14.888779,42.31,4.240581,-0.0029349636958644295,-0.02367869399252531,0.09710254654607277,32.08287849390507,-92.24360919585227,80.21211738781929
2024-09-23 07:53:14.900770,42.31,4.240673,-0.0029349636958644295,-0.02367869399252531,0.09710254654607277,24.06297849342227,-104.27510100388527,76.200527287817
2024-09-23 07:53:14.944252,42.31,4.240673,-0.003382661564999035,-0.023579196463302005,0.09695331012558621,40.106058693909645,-104.27510100388527,72.1922225099802
2024-09-23 07:53:14.986272,42.31,4.240725,-0.0031836870127375577,-0.023579196463302005,0.09695331012558621,40.106058693909645,-104.27510100388527,72.1922225099802
2024-09-23 07:53:14.997606,42.31,4.240725,-0.0031836870127375577,-0.023827930413011865,0.09720203344245934,36.09446859390736,-100.26678939585686,72.1922225099802
2024-09-23 07:53:15.040784,42.31,4.240776,-0.0035318979854855937,-0.023778180888911878,0.0973015264147526,32.08287849390507,-100.26678939585686,76.200527287817
2024-09-23 07:53:15.083368,42.31,4.240776,-0.0035318979854855937,-0.023778180888911878,0.0973015264147526,32.08287849390507,-100.26678939585686,68.18063240997792
2024-09-23 07:53:15.094701,42.31,4.240826,-0.0036811340262279837,-0.023778180888911878,0.09670458680871308,32.08287849390507,-100.26678939585686,68.18063240997792
2024-09-23 07:53:15.136715,42.31,4.240877,-0.002586742470023829,-0.023778180888911878,0.09670458680871308,24.06297849342227,-100.26678939585686,80.21211738781929
2024-09-23 07:53:15.149105,42.31,4.240877,-0.002586742470023829,-0.02367869399252531,0.09670458680871308,24.06297849342227,-100.26678939585686,80.21211738781929
2024-09-23 07:53:15.180917,42.31,4.240877,-0.002586742470023829,-0.02367869399252531,0.0966050877605131,36.09446859390736,-100.26678939585686,80.21211738781929
2024-09-23 07:53:15.192306,42.31,4.240928,-0.0031836870127375577,-0.02367869399252531,0.0966050877605131,36.09446859390736,-100.26678939585686,80.21211738781929
2024-09-23 07:53:15.234451,42.31,4.240928,-0.0031836870127375577,-0.023927417309398437,0.09725178296655933,32.08287849390507,-92.24360919585227,76.200527287817
2024-09-23 07:53:15.246136,42.31,4.241015,-0.0031836870127375577,-0.023927417309398437,0.09725178296655933,32.08287849390507,-92.24360919585227,76.200527287817
2024-09-23 07:53:15.278280,42.31,4.241015,-0.0036811340262279837,-0.023927417309398437,0.09725178296655933,32.08287849390507,-92.24360919585227,76.200527287817
2024-09-23 07:53:15.289783,42.31,4.241015,-0.0036811340262279837,-0.023579196463302005,0.09670458680871308,24.06297849342227,-100.26678939585686,84.22370748782159
2024-09-23 07:53:15.331716,42.31,4.241066,-0.0029349636958644295,-0.023827930413011865,0.09680407370509965,36.09446859390736,-100.26678939585686,84.22370748782159
2024-09-23 07:53:15.343306,42.31,4.241066,-0.0029349636958644295,-0.023827930413011865,0.09680407370509965,36.09446859390736,-92.24360919585227,84.22370748782159
2024-09-23 07:53:15.375588,42.31,4.241117,-0.0029349636958644295,-0.023827930413011865,0.09680407370509965,36.09446859390736,-92.24360919585227,80.21211738781929
2024-09-23 07:53:15.387534,42.31,4.241117,-0.0033329230534799477,-0.02397715620066169,0.09665483728461309,40.106058693909645,-92.24360919585227,80.21211738781929
2024-09-23 07:53:15.430464,42.31,4.241167,-0.0031836870127375577,-0.023728432883788564,0.09720203344245934,40.106058693909645,-100.26678939585686,84.22370748782159
2024-09-23 07:53:15.473045,42.31,4.241167,-0.0031836870127375577,-0.023728432883788564,0.09720203344245934,36.09446859390736,-92.24360919585227,84.22370748782159
2024-09-23 07:53:15.484659,42.31,4.241218,-0.0031836870127375577,-0.02412639262114825,0.09720203344245934,36.09446859390736,-92.24360919585227,80.21211738781929
2024-09-23 07:53:15.527773,42.31,4.241218,-0.0031836870127375577,-0.02412639262114825,0.09745075675933246,40.106058693909645,-92.24360919585227,84.22370748782159
2024-09-23 07:53:15.570121,42.31,4.241269,-0.0031836870127375577,-0.02412639262114825,0.09745075675933246,40.106058693909645,-92.24360919585227,84.22370748782159
2024-09-23 07:53:15.581227,42.31,4.241269,-0.0029847020175114316,-0.02367869399252531,0.09675432418099966,40.106058693909645,-100.26678939585686,84.22370748782159
2024-09-23 07:53:15.623689,42.31,4.241356,-0.0031339382481259063,-0.023778180888911878,0.09675432418099966,40.106058693909645,-100.26678939585686,80.21211738781929
2024-09-23 07:53:15.635416,42.31,4.241356,-0.0031339382481259063,-0.023778180888911878,0.09725178296655933,36.09446859390736,-100.26678939585686,80.21211738781929
2024-09-23 07:53:15.667905,42.31,4.241356,-0.0031339382481259063,-0.023778180888911878,0.09725178296655933,36.09446859390736,-100.26678939585686,80.21211738781929
2024-09-23 07:53:15.679088,42.31,4.241407,-0.0034324103296106863,-0.024076653729884996,0.09695331012558621,36.09446859390736,-100.26678939585686,76.200527287817
2024-09-23 07:53:15.721022,42.28,4.241407,-0.0034324103296106863,-0.024076653729884996,0.09695331012558621,44.11764879391193,-100.26678939585686,76.200527287817
2024-09-23 07:53:15.773852,42.28,4.241407,-0.0034324103296106863,-0.024076653729884996,0.09695331012558621,44.11764879391193,-96.25519929585457,76.200527287817
2024-09-23 07:53:15.817985,42.28,4.241458,-0.003780631555451287,-0.024076653729884996,0.09695331012558621,44.11764879391193,-96.25519929585457,80.21211738781929
2024-09-23 07:53:15.829778,42.28,4.241458,-0.003780631555451287,-0.023827930413011865,0.09690356060148622,44.11764879391193,-96.25519929585457,80.21211738781929
2024-09-23 07:53:15.862014,42.28,4.241458,-0.003780631555451287,-0.023827930413011865,0.09690356060148622,44.11764879391193,-88.23529758782387,80.21211738781929
2024-09-23 07:53:15.873419,42.28,4.241509,-0.003482159473966507,-0.023877669304275123,0.09705279702197278,44.11764879391193,-88.23529758782387,76.200527287817
2024-09-23 07:53:15.916611,42.28,4.2416,-0.003382661564999035,-0.023877669304275123,0.09705279702197278,40.106058693909645,-100.26678939585686,76.200527287817
2024-09-23 07:53:15.928727,42.28,4.2416,-0.003382661564999035,-0.024026904205785005,0.09705279702197278,40.106058693909645,-100.26678939585686,76.200527287817
2024-09-23 07:53:15.961353,42.28,4.2416,-0.003382661564999035,-0.024026904205785005,0.0966050877605131,44.11764879391193,-100.26678939585686,76.200527287817
2024-09-23 07:53:16.013448,42.28,4.241651,-0.003482159473966507,-0.024026904205785005,0.0966050877605131,44.11764879391193,-96.25519929585457,80.21211738781929
2024-09-23 07:53:16.025347,42.28,4.241651,-0.003482159473966507,-0.02412639262114825,0.09715228999426605,44.11764879391193,-96.25519929585457,80.21211738781929
2024-09-23 07:53:16.057915,42.28,4.241651,-0.003482159473966507,-0.02412639262114825,0.09715228999426605,32.08287849390507,-96.25519929585457,80.21211738781929
2024-09-23 07:53:16.069765,42.28,4.241795,-0.0035318979854855937,-0.02367869399252531,0.09715228999426605,32.08287849390507,-96.25519929585457,80.21211738781929
2024-09-23 07:53:16.114285,42.28,4.241846,-0.0033329230534799477,-0.02367869399252531,0.09705279702197278,32.08287849390507,-96.25519929585457,72.1922225099802
2024-09-23 07:53:16.157305,42.28,4.241846,-0.0033329230534799477,-0.023579196463302005,0.09655535038822652,40.106058693909645,-96.25519929585457,72.1922225099802
2024-09-23 07:53:16.169586,42.28,4.241897,-0.0033329230534799477,-0.023579196463302005,0.09655535038822652,40.106058693909645,-92.24360919585227,76.200527287817
2024-09-23 07:53:16.211929,42.28,4.241897,-0.0029349636958644295,-0.023330473146428877,0.09670458680871308,44.11764879391193,-96.25519929585457,88.23529758782387
2024-09-23 07:53:16.254504,42.28,4.24199,-0.0031836870127375577,-0.023579196463302005,0.09670458680871308,44.11764879391193,-96.25519929585457,88.23529758782387
2024-09-23 07:53:16.265574,42.28,4.24199,-0.0031836870127375577,-0.023579196463302005,0.09645586349183995,36.09446859390736,-100.26678939585686,88.23529758782387
2024-09-23 07:53:16.308247,42.28,4.242041,-0.0030841997366068195,-0.023579196463302005,0.09675432418099966,40.106058693909645,-100.26678939585686,72.1922225099802
2024-09-23 07:53:16.350682,42.28,4.242041,-0.0030841997366068195,-0.023579196463302005,0.09675432418099966,40.106058693909645,-100.26678939585686,76.200527287817
2024-09-23 07:53:16.361950,42.28,4.242092,-0.003482159473966507,-0.023579196463302005,0.09745075675933246,40.106058693909645,-100.26678939585686,76.200527287817
2024-09-23 07:53:16.404742,42.28,4.242143,-0.0034324103296106863,-0.023579196463302005,0.09745075675933246,40.106058693909645,-92.24360919585227,76.200527287817
2024-09-23 07:53:16.416782,42.28,4.242143,-0.0034324103296106863,-0.024026904205785005,0.09745075675933246,40.106058693909645,-92.24360919585227,76.200527287817
2024-09-23 07:53:16.451272,42.28,4.242143,-0.0034324103296106863,-0.024026904205785005,0.09690356060148622,32.08287849390507,-100.26678939585686,76.200527287817
2024-09-23 07:53:16.462587,42.28,4.242193,-0.003780631555451287,-0.024026904205785005,0.09690356060148622,32.08287849390507,-100.26678939585686,72.1922225099802
2024-09-23 07:53:16.505392,42.28,4.242282,-0.003780631555451287,-0.023927417309398437,0.09690356060148622,32.08287849390507,-100.26678939585686,76.200527287817
2024-09-23 07:53:16.548827,42.28,4.242282,-0.0029349636958644295,-0.02367869399252531,0.09764974270391902,28.07457030097246,-100.26678939585686,76.200527287817
2024-09-23 07:53:16.560465,42.28,4.242282,-0.0029349636958644295,-0.02367869399252531,0.09764974270391902,28.07457030097246,-100.26678939585686,80.21211738781929
2024-09-23 07:53:16.592265,42.28,4.242334,-0.0029349636958644295,-0.02367869399252531,0.09764974270391902,28.07457030097246,-100.26678939585686,80.21211738781929
2024-09-23 07:53:16.603445,42.28,4.242334,-0.0034324103296106863,-0.02308174982955575,0.09675432418099966,40.106058693909645,-96.25519929585457,80.21211738781929
2024-09-23 07:53:16.696621,42.28,4.242384,-0.0035816467500972456,-0.02308174982955575,0.09675432418099966,40.106058693909645,-96.25519929585457,80.21211738781929
2024-09-23 07:53:16.741240,42.0,4.242384,-0.0035816467500972456,-0.02367869399252531,0.09675432418099966,40.106058693909645,-96.25519929585457,80.21211738781929
2024-09-23 07:53:16.753215,42.0,4.242435,-0.0035816467500972456,-0.02367869399252531,0.09725178296655933,52.137550501942634,-96.25519929585457,76.200527287817
2024-09-23 07:53:16.797196,42.0,4.242435,-0.0034324103296106863,-0.02313149783467906,0.0973015264147526,28.07457030097246,-104.27510100388527,76.200527287817
2024-09-23 07:53:16.840223,42.0,4.242486,-0.0033329230534799477,-0.024026904205785005,0.0973015264147526,28.07457030097246,-104.27510100388527,76.200527287817
2024-09-23 07:53:16.851882,42.0,4.242486,-0.0033329230534799477,-0.024026904205785005,0.09695331012558621,40.106058693909645,-104.27510100388527,76.200527287817
2024-09-23 07:53:16.894345,42.0,4.242536,-0.0035318979854855937,-0.02352945757203875,0.09670458680871308,44.11764879391193,-104.27510100388527,80.21211738781929
2024-09-23 07:53:16.936662,42.0,4.242536,-0.0035318979854855937,-0.02352945757203875,0.09670458680871308,44.11764879391193,-100.26678939585686,76.200527287817
2024-09-23 07:53:16.948793,42.0,4.242623,-0.0033329230534799477,-0.02338022115155219,0.0973015264147526,44.11764879391193,-100.26678939585686,76.200527287817
2024-09-23 07:53:16.994034,42.0,4.242723,-0.0030841997366068195,-0.023479709566915436,0.0973015264147526,40.106058693909645,-104.27510100388527,76.200527287817
2024-09-23 07:53:17.036307,42.0,4.242723,-0.0030841997366068195,-0.023479709566915436,0.09670458680871308,40.106058693909645,-100.26678939585686,76.200527287817
2024-09-23 07:53:17.047965,42.0,4.242774,-0.003979606107712764,-0.023479709566915436,0.09670458680871308,40.106058693909645,-100.26678939585686,76.200527287817
2024-09-23 07:53:17.080077,42.0,4.242774,-0.003979606107712764,-0.023579196463302005,0.09670458680871308,40.106058693909645,-100.26678939585686,76.200527287817
2024-09-23 07:53:17.092436,42.0,4.242867,-0.003979606107712764,-0.023579196463302005,0.09690356060148622,40.106058693909645,-100.26678939585686,80.21211738781929
2024-09-23 07:53:17.134213,42.0,4.242867,-0.0031339382481259063,-0.023778180888911878,0.09665483728461309,52.137550501942634,-100.26678939585686,80.21211738781929
2024-09-23 07:53:17.145218,42.0,4.242867,-0.0031339382481259063,-0.023778180888911878,0.09665483728461309,52.137550501942634,-96.25519929585457,80.21211738781929
2024-09-23 07:53:17.188070,42.0,4.242919,-0.0035318979854855937,-0.023579196463302005,0.09680407370509965,48.12595698684454,-92.24360919585227,80.21211738781929
2024-09-23 07:53:17.230632,42.0,4.242969,-0.0033329230534799477,-0.023579196463302005,0.09680407370509965,48.12595698684454,-92.24360919585227,80.21211738781929
2024-09-23 07:53:17.242031,42.0,4.242969,-0.0033329230534799477,-0.02397715620066169,0.09680407370509965,40.106058693909645,-92.24360919585227,80.21211738781929
2024-09-23 07:53:17.285321,42.0,4.24302,-0.0027359787006383035,-0.023877669304275123,0.0970030596496862,40.106058693909645,-100.26678939585686,80.21211738781929
2024-09-23 07:53:17.328994,42.0,4.24302,-0.0027359787006383035,-0.023877669304275123,0.0970030596496862,40.106058693909645,-96.25519929585457,76.200527287817
2024-09-23 07:53:17.340564,42.0,4.243071,-0.0035318979854855937,-0.02412639262114825,0.0970030596496862,40.106058693909645,-96.25519929585457,76.200527287817
2024-09-23 07:53:17.373078,42.0,4.243071,-0.0035318979854855937,-0.02412639262114825,0.09745075675933246,40.106058693909645,-96.25519929585457,76.200527287817
2024-09-23 07:53:17.384934,42.0,4.243121,-0.0031339382481259063,-0.02412639262114825,0.09745075675933246,32.08287849390507,-104.27510100388527,84.22370748782159
2024-09-23 07:53:17.427452,42.0,4.243121,-0.0031339382481259063,-0.023728432883788564,0.09665483728461309,40.106058693909645,-96.25519929585457,84.22370748782159
2024-09-23 07:53:17.439230,42.0,4.243208,-0.0031339382481259063,-0.023728432883788564,0.09665483728461309,40.106058693909645,-96.25519929585457,80.21211738781929
2024-09-23 07:53:17.471639,42.0,4.243208,-0.003382661564999035,-0.023728432883788564,0.09665483728461309,40.106058693909645,-96.25519929585457,80.21211738781929
2024-09-23 07:53:17.483172,42.0,4.243208,-0.003382661564999035,-0.023778180888911878,0.09779897304849887,40.106058693909645,-100.26678939585686,80.21211738781929
2024-09-23 07:53:17.526184,42.0,4.24326,-0.0034324103296106863,-0.024176140626271565,0.09710254654607277,36.09446859390736,-100.26678939585686,80.21211738781929
2024-09-23 07:53:17.538302,42.0,4.24326,-0.0034324103296106863,-0.024176140626271565,0.09710254654607277,36.09446859390736,-100.26678939585686,80.21211738781929
2024-09-23 07:53:17.570502,42.0,4.243311,-0.0034324103296106863,-0.024176140626271565,0.09710254654607277,36.09446859390736,-100.26678939585686,76.200527287817
2024-09-23 07:53:17.582627,42.0,4.243311,-0.0031836870127375577,-0.024076653729884996,0.09764974270391902,44.11764879391193,-100.26678939585686,76.200527287817
2024-09-23 07:53:17.625755,42.0,4.243361,-0.0030344509719951677,-0.02397715620066169,0.0966050877605131,44.11764879391193,-100.26678939585686,72.1922225099802
2024-09-23 07:53:17.668625,42.0,4.243361,-0.0030344509719951677,-0.02397715620066169,0.0966050877605131,40.106058693909645,-104.27510100388527,72.1922225099802
2024-09-23 07:53:17.679585,42.0,4.243412,-0.0032831742888682963,-0.023330473146428877,0.0966050877605131,40.106058693909645,-104.27510100388527,72.1922225099802
2024-09-23 07:53:17.722267,42.0,4.243463,-0.003482159473966507,-0.023330473146428877,0.09720203344245934,24.06297849342227,-108.28669110388756,80.21211738781929
2024-09-23 07:53:17.764608,42.09,4.243463,-0.003482159473966507,-0.024076653729884996,0.09675432418099966,24.06297849342227,-108.28669110388756,80.21211738781929
2024-09-23 07:53:17.776129,42.09,4.24355,-0.003482159473966507,-0.024076653729884996,0.09675432418099966,40.106058693909645,-96.25519929585457,76.200527287817
2024-09-23 07:53:17.818122,42.09,4.24355,-0.0029349636958644295,-0.02367869399252531,0.09670458680871308,36.09446859390736,-96.25519929585457,76.200527287817
2024-09-23 07:53:17.830089,42.09,4.24355,-0.0029349636958644295,-0.02367869399252531,0.09670458680871308,36.09446859390736,-96.25519929585457,80.21211738781929
2024-09-23 07:53:17.862371,42.09,4.243601,-0.002785727465249955,-0.02367869399252531,0.09670458680871308,36.09446859390736,-96.25519929585457,80.21211738781929
2024-09-23 07:53:17.873550,42.09,4.243601,-0.002785727465249955,-0.023579196463302005,0.09715228999426605,36.09446859390736,-96.25519929585457,80.21211738781929
2024-09-23 07:53:17.916470,42.09,4.243652,-0.0033329230534799477,-0.023778180888911878,0.09705279702197278,36.09446859390736,-96.25519929585457,76.200527287817
2024-09-23 07:53:17.928578,42.09,4.243652,-0.0033329230534799477,-0.023778180888911878,0.09705279702197278,32.08287849390507,-96.25519929585457,76.200527287817
2024-09-23 07:53:17.961428,42.09,4.243652,-0.0033329230534799477,-0.023778180888911878,0.09705279702197278,32.08287849390507,-100.26678939585686,84.22370748782159
2024-09-23 07:53:17.972938,42.09,4.243703,-0.0027359787006383035,-0.023728432883788564,0.0976994861521123,32.08287849390507,-100.26678939585686,84.22370748782159
2024-09-23 07:53:18.015519,42.09,4.243753,-0.003382661564999035,-0.02367869399252531,0.0976994861521123,40.106058693909645,-100.26678939585686,88.23529758782387
2024-09-23 07:53:18.058067,42.09,4.243753,-0.003382661564999035,-0.02367869399252531,0.09725178296655933,36.09446859390736,-96.25519929585457,88.23529758782387
2024-09-23 07:53:18.069932,42.09,4.243804,-0.0034324103296106863,-0.02367869399252531,0.09725178296655933,36.09446859390736,-96.25519929585457,80.21211738781929
2024-09-23 07:53:18.113122,42.09,4.243891,-0.0034324103296106863,-0.023579196463302005,0.09715228999426605,44.11764879391193,-96.25519929585457,80.21211738781929
2024-09-23 07:53:18.156095,42.09,4.243891,-0.0035816467500972456,-0.023827930413011865,0.09725178296655933,44.11764879391193,-96.25519929585457,80.21211738781929
2024-09-23 07:53:18.166920,42.09,4.243891,-0.0035816467500972456,-0.023827930413011865,0.09725178296655933,36.09446859390736,-96.25519929585457,80.21211738781929
2024-09-23 07:53:18.210609,42.09,4.243942,-0.0030344509719951677,-0.023827930413011865,0.09725178296655933,32.08287849390507,-96.25519929585457,80.21211738781929
2024-09-23 07:53:18.252304,42.09,4.243993,-0.0030344509719951677,-0.023827930413011865,0.09725178296655933,32.08287849390507,-96.25519929585457,80.21211738781929
2024-09-23 07:53:18.263387,42.09,4.243993,-0.0029349636958644295,-0.023728432883788564,0.09725178296655933,40.106058693909645,-96.25519929585457,80.21211738781929
2024-09-23 07:53:18.305552,42.09,4.244044,-0.0023380189632786156,-0.024026904205785005,0.09725178296655933,40.106058693909645,-96.25519929585457,76.200527287817
2024-09-23 07:53:18.317374,42.09,4.244044,-0.0023380189632786156,-0.024026904205785005,0.09650560086412653,40.106058693909645,-96.25519929585457,76.200527287817
2024-09-23 07:53:18.350027,42.09,4.244044,-0.0023380189632786156,-0.024026904205785005,0.09650560086412653,60.15744537978172,-92.24360919585227,76.200527287817
2024-09-23 07:53:18.361186,42.09,4.244094,-0.003482159473966507,-0.023778180888911878,0.09650560086412653,60.15744537978172,-92.24360919585227,76.200527287817
2024-09-23 07:53:18.403512,42.09,4.244094,-0.003482159473966507,-0.023778180888911878,0.09650560086412653,48.12595698684454,-92.24360919585227,80.21211738781929
2024-09-23 07:53:18.414525,42.09,4.244145,-0.0034324103296106863,-0.023778180888911878,0.09650560086412653,48.12595698684454,-92.24360919585227,80.21211738781929
2024-09-23 07:53:18.447853,42.09,4.244145,-0.0034324103296106863,-0.023877669304275123,0.09710254654607277,48.12595698684454,-92.24360919585227,80.21211738781929
2024-09-23 07:53:18.459667,42.09,4.244232,-0.0034324103296106863,-0.023877669304275123,0.09710254654607277,24.06297849342227,-104.27510100388527,80.21211738781929
2024-09-23 07:53:18.501757,42.09,4.244232,-0.003482159473966507,-0.023579196463302005,0.09685382322919964,24.06297849342227,-104.27510100388527,80.21211738781929
2024-09-23 07:53:18.513668,42.09,4.244232,-0.003482159473966507,-0.023579196463302005,0.09685382322919964,24.06297849342227,-104.27510100388527,76.200527287817
2024-09-23 07:53:18.545960,42.09,4.244284,-0.003233425524256645,-0.02352945757203875,0.09685382322919964,24.06297849342227,-104.27510100388527,76.200527287817
2024-09-23 07:53:18.557298,42.09,4.244284,-0.003233425524256645,-0.02352945757203875,0.09764974270391902,24.06297849342227,-108.28669110388756,76.200527287817
2024-09-23 07:53:18.600893,42.09,4.244334,-0.003233425524256645,-0.02352945757203875,0.09764974270391902,24.06297849342227,-108.28669110388756,80.21211738781929
2024-09-23 07:53:18.644164,42.09,4.244334,-0.0030344509719951677,-0.023778180888911878,0.0966050877605131,24.06297849342227,-108.28669110388756,80.21211738781929
2024-09-23 07:53:18.655888,42.09,4.244334,-0.0030344509719951677,-0.023778180888911878,0.0966050877605131,36.09446859390736,-104.27510100388527,68.18063240997792
2024-09-23 07:53:18.690666,42.09,4.244385,-0.0030344509719951677,-0.023778180888911878,0.0966050877605131,36.09446859390736,-104.27510100388527,68.18063240997792
2024-09-23 07:53:18.702439,42.09,4.244385,-0.0029847020175114316,-0.02412639262114825,0.09680407370509965,24.06297849342227,-96.25519929585457,68.18063240997792
2024-09-23 07:53:18.744864,42.09,4.244436,-0.0032831742888682963,-0.023877669304275123,0.09715228999426605,24.06297849342227,-96.25519929585457,80.21211738781929
2024-09-23 07:53:18.756939,42.09,4.244436,-0.0032831742888682963,-0.023877669304275123,0.09715228999426605,32.08287849390507,-96.25519929585457,80.21211738781929
2024-09-23 07:53:18.788974,42.51,4.244436,-0.0032831742888682963,-0.023877669304275123,0.09715228999426605,32.08287849390507,-104.27510100388527,84.22370748782159
2024-09-23 07:53:18.800232,42.51,4.244486,-0.0029847020175114316,-0.023877669304275123,0.09690356060148622,32.08287849390507,-104.27510100388527,84.22370748782159
2024-09-23 07:53:18.843294,42.51,4.244573,-0.0029349636958644295,-0.023778180888911878,0.09690356060148622,28.07457030097246,-96.25519929585457,80.21211738781929
2024-09-23 07:53:18.886692,42.51,4.244573,-0.0029349636958644295,-0.023778180888911878,0.09690356060148622,44.11764879391193,-96.25519929585457,80.21211738781929
2024-09-23 07:53:18.898012,42.51,4.244626,-0.0033329230534799477,-0.023778180888911878,0.09690356060148622,44.11764879391193,-96.25519929585457,76.200527287817
2024-09-23 07:53:18.940837,42.51,4.24472,-0.0033329230534799477,-0.024225890150371555,0.0973512698629459,52.137550501942634,-92.24360919585227,80.21211738781929
2024-09-23 07:53:18.983862,42.51,4.24472,-0.0029349636958644295,-0.023728432883788564,0.0973512698629459,52.137550501942634,-92.24360919585227,80.21211738781929
2024-09-23 07:53:18.994968,42.51,4.24472,-0.0029349636958644295,-0.023728432883788564,0.09680407370509965,28.07457030097246,-96.25519929585457,80.21211738781929
2024-09-23 07:53:19.038029,42.51,4.244771,-0.0028354659767690416,-0.023927417309398437,0.09670458680871308,28.07457030097246,-96.25519929585457,80.21211738781929
2024-09-23 07:53:19.049929,42.51,4.244771,-0.0028354659767690416,-0.023927417309398437,0.09670458680871308,28.07457030097246,-104.27510100388527,80.21211738781929
2024-09-23 07:53:19.082698,42.51,4.244822,-0.0031836870127375577,-0.023927417309398437,0.09670458680871308,28.07457030097246,-104.27510100388527,84.22370748782159
2024-09-23 07:53:19.094366,42.51,4.244822,-0.0031836870127375577,-0.02338022115155219,0.09755024973162574,28.07457030097246,-104.27510100388527,84.22370748782159
2024-09-23 07:53:19.136814,42.51,4.244872,-0.0030344509719951677,-0.023728432883788564,0.09670458680871308,28.07457030097246,-100.26678939585686,84.22370748782159
2024-09-23 07:53:19.182211,42.51,4.244872,-0.0030344509719951677,-0.023728432883788564,0.09670458680871308,36.09446859390736,-108.28669110388756,76.200527287817
2024-09-23 07:53:19.193872,42.51,4.244923,-0.0029847020175114316,-0.024275627522658133,0.09670458680871308,36.09446859390736,-108.28669110388756,76.200527287817
2024-09-23 07:53:19.226562,42.51,4.244923,-0.0029847020175114316,-0.024275627522658133,0.09705279702197278,36.09446859390736,-108.28669110388756,76.200527287817
2024-09-23 07:53:19.238243,42.51,4.244974,-0.0029349636958644295,-0.024275627522658133,0.09705279702197278,44.11764879391193,-104.27510100388527,76.200527287817
2024-09-23 07:53:19.280980,42.51,4.244974,-0.0029349636958644295,-0.02352945757203875,0.09665483728461309,40.106058693909645,-100.26678939585686,76.200527287817
2024-09-23 07:53:19.292566,42.51,4.245061,-0.0029349636958644295,-0.02352945757203875,0.09665483728461309,40.106058693909645,-100.26678939585686,76.200527287817
2024-09-23 07:53:19.326269,42.51,4.245061,-0.0032831742888682963,-0.023479709566915436,0.09640611396773996,40.106058693909645,-100.26678939585686,76.200527287817
2024-09-23 07:53:19.337377,42.51,4.245061,-0.0032831742888682963,-0.023479709566915436,0.09640611396773996,40.106058693909645,-100.26678939585686,80.21211738781929
2024-09-23 07:53:19.379547,42.51,4.245112,-0.0032831742888682963,-0.02397715620066169,0.09690356060148622,20.05138839341998,-104.27510100388527,80.21211738781929
2024-09-23 07:53:19.422160,42.51,4.245163,-0.0032831742888682963,-0.02397715620066169,0.09690356060148622,20.05138839341998,-104.27510100388527,72.1922225099802
2024-09-23 07:53:19.433544,42.51,4.245163,-0.0030841997366068195,-0.024275627522658133,0.09764974270391902,20.05138839341998,-104.27510100388527,72.1922225099802
2024-09-23 07:53:19.475488,42.51,4.245214,-0.0034324103296106863,-0.024176140626271565,0.09764974270391902,20.05138839341998,-100.26678939585686,76.200527287817
2024-09-23 07:53:19.487290,42.51,4.245214,-0.0034324103296106863,-0.024176140626271565,0.09655535038822652,20.05138839341998,-100.26678939585686,76.200527287817
2024-09-23 07:53:19.520625,42.51,4.245214,-0.0034324103296106863,-0.024176140626271565,0.09655535038822652,28.07457030097246,-100.26678939585686,76.200527287817
2024-09-23 07:53:19.532459,42.51,4.245264,-0.0033329230534799477,-0.02367869399252531,0.09655535038822652,28.07457030097246,-100.26678939585686,72.1922225099802
2024-09-23 07:53:19.575221,42.51,4.245315,-0.0033329230534799477,-0.02367869399252531,0.09720203344245934,44.11764879391193,-88.23529758782387,88.23529758782387
2024-09-23 07:53:19.617847,42.51,4.245315,-0.0033329230534799477,-0.02362894446842532,0.09720203344245934,44.11764879391193,-88.23529758782387,88.23529758782387
2024-09-23 07:53:19.671986,42.51,4.245402,-0.0029349636958644295,-0.02362894446842532,0.09640611396773996,44.11764879391193,-96.25519929585457,84.22370748782159
2024-09-23 07:53:19.715116,42.51,4.245402,-0.0029349636958644295,-0.024325377046758124,0.09680407370509965,44.11764879391193,-96.25519929585457,84.22370748782159
2024-09-23 07:53:19.726418,42.51,4.245454,-0.0029349636958644295,-0.024325377046758124,0.09680407370509965,44.11764879391193,-100.26678939585686,80.21211738781929
2024-09-23 07:53:19.770681,42.51,4.245454,-0.0035816467500972456,-0.02397715620066169,0.09710254654607277,40.106058693909645,-92.24360919585227,80.21211738781929
2024-09-23 07:53:19.812966,42.59,4.245504,-0.0028852147413806935,-0.023927417309398437,0.09710254654607277,40.106058693909645,-92.24360919585227,80.21211738781929
2024-09-23 07:53:19.824485,42.59,4.245504,-0.0028852147413806935,-0.023927417309398437,0.09645586349183995,36.09446859390736,-100.26678939585686,80.21211738781929
2024-09-23 07:53:19.866875,42.59,4.245555,-0.0029847020175114316,-0.023927417309398437,0.09755024973162574,32.08287849390507,-100.26678939585686,84.22370748782159
2024-09-23 07:53:19.909921,42.59,4.245555,-0.0029847020175114316,-0.023927417309398437,0.09755024973162574,32.08287849390507,-100.26678939585686,80.21211738781929
2024-09-23 07:53:19.921074,42.59,4.245648,-0.002785727465249955,-0.023877669304275123,0.0966050877605131,32.08287849390507,-100.26678939585686,80.21211738781929
2024-09-23 07:53:19.963718,42.59,4.245698,-0.0031339382481259063,-0.023877669304275123,0.0966050877605131,44.11764879391193,-96.25519929585457,80.21211738781929
2024-09-23 07:53:19.975510,42.59,4.245698,-0.0031339382481259063,-0.02362894446842532,0.0966050877605131,44.11764879391193,-96.25519929585457,80.21211738781929
2024-09-23 07:53:20.009089,42.59,4.245698,-0.0031339382481259063,-0.02362894446842532,0.09680407370509965,40.106058693909645,-96.25519929585457,80.21211738781929
2024-09-23 07:53:20.020664,42.59,4.245749,-0.0028852147413806935,-0.02362894446842532,0.09680407370509965,40.106058693909645,-96.25519929585457,80.21211738781929
2024-09-23 07:53:20.063334,42.59,4.245841,-0.0028852147413806935,-0.02362894446842532,0.09670458680871308,32.08287849390507,-100.26678939585686,76.200527287817
2024-09-23 07:53:20.106539,42.59,4.245841,-0.0035816467500972456,-0.024176140626271565,0.09635636444363997,32.08287849390507,-100.26678939585686,76.200527287817
2024-09-23 07:53:20.118280,42.59,4.245841,-0.0035816467500972456,-0.024176140626271565,0.09635636444363997,32.08287849390507,-100.26678939585686,72.1922225099802
2024-09-23 07:53:20.161772,42.59,4.245892,-0.0035318979854855937,-0.023827930413011865,0.09675432418099966,40.106058693909645,-100.26678939585686,72.1922225099802
2024-09-23 07:53:20.203851,42.59,4.245943,-0.0032831742888682963,-0.023827930413011865,0.09675432418099966,40.106058693909645,-100.26678939585686,80.21211738781929
2024-09-23 07:53:20.215421,42.59,4.245943,-0.0032831742888682963,-0.02338022115155219,0.09720203344245934,40.106058693909645,-100.26678939585686,80.21211738781929
2024-09-23 07:53:20.258480,42.59,4.245994,-0.0028852147413806935,-0.023728432883788564,0.09650560086412653,40.106058693909645,-92.24360919585227,76.200527287817
2024-09-23 07:53:20.300754,42.59,4.245994,-0.0028852147413806935,-0.023728432883788564,0.09650560086412653,44.11764879391193,-108.28669110388756,72.1922225099802
2024-09-23 07:53:20.312157,42.59,4.246044,-0.003233425524256645,-0.023827930413011865,0.09650560086412653,44.11764879391193,-108.28669110388756,72.1922225099802
2024-09-23 07:53:20.354509,42.59,4.246095,-0.0030344509719951677,-0.023827930413011865,0.09695331012558621,32.08287849390507,-108.28669110388756,80.21211738781929
2024-09-23 07:53:20.398984,42.59,4.246095,-0.0030344509719951677,-0.023579196463302005,0.09685382322919964,40.106058693909645,-108.28669110388756,80.21211738781929
2024-09-23 07:53:20.410363,42.59,4.246182,-0.0030344509719951677,-0.023579196463302005,0.09685382322919964,40.106058693909645,-100.26678939585686,76.200527287817
2024-09-23 07:53:20.453590,42.59,4.246182,-0.0037308827908396356,-0.023579196463302005,0.09685382322919964,40.106058693909645,-100.26678939585686,76.200527287817
2024-09-23 07:53:20.495905,42.59,4.246182,-0.0037308827908396356,-0.023927417309398437,0.09710254654607277,36.09446859390736,-100.26678939585686,76.200527287817
2024-09-23 07:53:20.507703,42.59,4.246234,-0.0037308827908396356,-0.023927417309398437,0.09710254654607277,36.09446859390736,-104.27510100388527,72.1922225099802
2024-09-23 07:53:20.550789,42.59,4.246234,-0.0033329230534799477,-0.02367869399252531,0.09665483728461309,36.09446859390736,-96.25519929585457,72.1922225099802
2024-09-23 07:53:20.593914,42.59,4.246284,-0.0036811340262279837,-0.02457410036363125,0.09665483728461309,36.09446859390736,-96.25519929585457,72.1922225099802
2024-09-23 07:53:20.605208,42.59,4.246284,-0.0036811340262279837,-0.02457410036363125,0.09680407370509965,36.09446859390736,-96.25519929585457,72.1922225099802
2024-09-23 07:53:20.647746,42.59,4.246335,-0.003929857343101113,-0.023927417309398437,0.09670458680871308,40.106058693909645,-96.25519929585457,76.200527287817
2024-09-23 07:53:20.689993,42.59,4.246335,-0.003929857343101113,-0.023927417309398437,0.09670458680871308,40.106058693909645,-96.25519929585457,80.21211738781929
2024-09-23 07:53:20.742093,42.59,4.246386,-0.0031836870127375577,-0.023230986250042305,0.09675432418099966,40.106058693909645,-96.25519929585457,80.21211738781929
2024-09-23 07:53:20.753432,42.59,4.246386,-0.0031836870127375577,-0.023230986250042305,0.09675432418099966,40.106058693909645,-100.26678939585686,80.21211738781929
2024-09-23 07:53:20.785280,42.59,4.246386,-0.0031836870127375577,-0.023230986250042305,0.09675432418099966,40.106058693909645,-100.26678939585686,80.21211738781929
2024-09-23 07:53:20.796642,42.59,4.246477,-0.0030841997366068195,-0.024176140626271565,0.09695331012558621,32.08287849390507,-100.26678939585686,80.21211738781929
2024-09-23 07:53:20.839018,42.48,4.246527,-0.0028852147413806935,-0.024176140626271565,0.09695331012558621,32.08287849390507,-96.25519929585457,76.200527287817
2024-09-23 07:53:20.850349,42.48,4.246527,-0.0028852147413806935,-0.023927417309398437,0.09690356060148622,32.08287849390507,-96.25519929585457,76.200527287817
2024-09-23 07:53:20.882601,42.48,4.246527,-0.0028852147413806935,-0.023927417309398437,0.09690356060148622,40.106058693909645,-96.25519929585457,76.200527287817
2024-09-23 07:53:20.893914,42.48,4.246621,-0.0024872551938930902,-0.023827930413011865,0.09690356060148622,40.106058693909645,-100.26678939585686,76.200527287817
2024-09-23 07:53:20.936093,42.48,4.246621,-0.0024872551938930902,-0.023827930413011865,0.09715228999426605,32.08287849390507,-96.25519929585457,76.200527287817
2024-09-23 07:53:20.947540,42.48,4.246672,-0.0031836870127375577,-0.023827930413011865,0.09715228999426605,32.08287849390507,-96.25519929585457,76.200527287817
2024-09-23 07:53:20.989651,42.48,4.246767,-0.0031836870127375577,-0.023827930413011865,0.09705279702197278,40.106058693909645,-100.26678939585686,72.1922225099802
2024-09-23 07:53:21.034287,42.48,4.246767,-0.0031339382481259063,-0.02352945757203875,0.09750050628343246,40.106058693909645,-100.26678939585686,72.1922225099802
2024-09-23 07:53:21.046059,42.48,4.246767,-0.0031339382481259063,-0.02352945757203875,0.09750050628343246,32.08287849390507,-96.25519929585457,76.200527287817
2024-09-23 07:53:21.079126,42.48,4.246819,-0.0031339382481259063,-0.02352945757203875,0.09750050628343246,32.08287849390507,-96.25519929585457,76.200527287817
2024-09-23 07:53:21.090284,42.48,4.246819,-0.0031836870127375577,-0.024176140626271565,0.09710254654607277,40.106058693909645,-96.25519929585457,76.200527287817
2024-09-23 07:53:21.132769,42.48,4.246869,-0.0032831742888682963,-0.024275627522658133,0.09640611396773996,40.106058693909645,-96.25519929585457,76.200527287817
2024-09-23 07:53:21.144510,42.48,4.246869,-0.0032831742888682963,-0.024275627522658133,0.09640611396773996,44.11764879391193,-96.25519929585457,76.200527287817
2024-09-23 07:53:21.176851,42.48,4.246869,-0.0032831742888682963,-0.024275627522658133,0.09640611396773996,44.11764879391193,-92.24360919585227,80.21211738781929
2024-09-23 07:53:21.189427,42.48,4.24692,-0.003382661564999035,-0.024225890150371555,0.09720203344245934,44.11764879391193,-92.24360919585227,80.21211738781929
2024-09-23 07:53:21.272734,42.48,4.24692,-0.003382661564999035,-0.024225890150371555,0.09720203344245934,36.09446859390736,-92.24360919585227,80.21211738781929
2024-09-23 07:53:21.284119,42.48,4.246971,-0.0032831742888682963,-0.02412639262114825,0.09720203344245934,36.09446859390736,-108.28669110388756,72.1922225099802
2024-09-23 07:53:21.326390,42.48,4.246971,-0.0032831742888682963,-0.02412639262114825,0.09695331012558621,40.106058693909645,-104.27510100388527,72.1922225099802
2024-09-23 07:53:21.337647,42.48,4.247021,-0.0036811340262279837,-0.02412639262114825,0.09695331012558621,40.106058693909645,-104.27510100388527,72.1922225099802
2024-09-23 07:53:21.380281,42.48,4.247108,-0.0036811340262279837,-0.023877669304275123,0.09655535038822652,44.11764879391193,-100.26678939585686,80.21211738781929
2024-09-23 07:53:21.422732,42.48,4.247108,-0.0030841997366068195,-0.02397715620066169,0.09799795899308542,44.11764879391193,-100.26678939585686,80.21211738781929
2024-09-23 07:53:21.434238,42.48,4.247108,-0.0030841997366068195,-0.02397715620066169,0.09799795899308542,40.106058693909645,-96.25519929585457,80.21211738781929
2024-09-23 07:53:21.476795,42.48,4.24716,-0.0032831742888682963,-0.023579196463302005,0.09630662707135339,36.09446859390736,-96.25519929585457,80.21211738781929
2024-09-23 07:53:21.518794,42.48,4.247256,-0.0032831742888682963,-0.023579196463302005,0.09630662707135339,36.09446859390736,-96.25519929585457,80.21211738781929
2024-09-23 07:53:21.531128,42.48,4.247256,-0.003631395514708897,-0.024026904205785005,0.09680407370509965,40.106058693909645,-96.25519929585457,80.21211738781929
2024-09-23 07:53:21.574098,42.48,4.247307,-0.003382661564999035,-0.023728432883788564,0.09665483728461309,40.106058693909645,-100.26678939585686,80.21211738781929
2024-09-23 07:53:21.616205,42.48,4.247307,-0.003382661564999035,-0.023728432883788564,0.09665483728461309,40.106058693909645,-92.24360919585227,80.21211738781929
2024-09-23 07:53:21.627869,42.48,4.247357,-0.002636491424507565,-0.023927417309398437,0.09665483728461309,40.106058693909645,-92.24360919585227,76.200527287817
2024-09-23 07:53:21.672295,42.48,4.247357,-0.002636491424507565,-0.023927417309398437,0.09685382322919964,40.106058693909645,-92.24360919585227,76.200527287817
2024-09-23 07:53:21.714723,42.48,4.247357,-0.002636491424507565,-0.023927417309398437,0.09685382322919964,36.09446859390736,-100.26678939585686,80.21211738781929
2024-09-23 07:53:21.726131,42.48,4.247408,-0.003233425524256645,-0.023927417309398437,0.09685382322919964,36.09446859390736,-100.26678939585686,80.21211738781929
2024-09-23 07:53:21.769347,42.48,4.247498,-0.003233425524256645,-0.024026904205785005,0.09685382322919964,40.106058693909645,-96.25519929585457,80.21211738781929
2024-09-23 07:53:21.812607,42.48,4.247498,-0.0038801188315820256,-0.023778180888911878,0.09685382322919964,40.106058693909645,-96.25519929585457,80.21211738781929
2024-09-23 07:53:21.865628,42.2,4.24755,-0.0032831742888682963,-0.023778180888911878,0.09690356060148622,36.09446859390736,-104.27510100388527,76.200527287817
2024-09-23 07:53:21.907843,42.2,4.24755,-0.0032831742888682963,-0.024026904205785005,0.09680407370509965,36.09446859390736,-104.27510100388527,76.200527287817
2024-09-23 07:53:21.919707,42.2,4.247601,-0.0032831742888682963,-0.024026904205785005,0.09680407370509965,32.08287849390507,-100.26678939585686,80.21211738781929
2024-09-23 07:53:21.962052,42.2,4.247601,-0.003482159473966507,-0.02412639262114825,0.0973512698629459,44.11764879391193,-100.26678939585686,80.21211738781929
2024-09-23 07:53:21.974065,42.2,4.247601,-0.003482159473966507,-0.02412639262114825,0.0973512698629459,44.11764879391193,-100.26678939585686,76.200527287817
2024-09-23 07:53:22.006108,42.2,4.247694,-0.003482159473966507,-0.02412639262114825,0.0973512698629459,44.11764879391193,-100.26678939585686,76.200527287817
2024-09-23 07:53:22.017874,42.2,4.247694,-0.0024872551938930902,-0.023579196463302005,0.09720203344245934,40.106058693909645,-104.27510100388527,76.200527287817
2024-09-23 07:53:22.062068,42.2,4.247746,-0.0031339382481259063,-0.024225890150371555,0.09665483728461309,36.09446859390736,-104.27510100388527,84.22370748782159
2024-09-23 07:53:22.104142,42.2,4.247746,-0.0031339382481259063,-0.024225890150371555,0.09665483728461309,36.09446859390736,-100.26678939585686,80.21211738781929
2024-09-23 07:53:22.115710,42.2,4.247841,-0.0037308827908396356,-0.023877669304275123,0.09685382322919964,36.09446859390736,-100.26678939585686,80.21211738781929
2024-09-23 07:53:22.158255,42.2,4.247892,-0.003233425524256645,-0.023429960042815445,0.09685382322919964,48.12595698684454,-92.24360919585227,80.21211738781929
2024-09-23 07:53:22.200650,42.2,4.247892,-0.003233425524256645,-0.023429960042815445,0.09710254654607277,40.106058693909645,-92.24360919585227,80.21211738781929
2024-09-23 07:53:22.212366,42.2,4.247943,-0.0026862297461545674,-0.023429960042815445,0.09710254654607277,40.106058693909645,-96.25519929585457,84.22370748782159
2024-09-23 07:53:22.306124,42.2,4.248035,-0.0026862297461545674,-0.024375126570858115,0.09630662707135339,44.11764879391193,-96.25519929585457,76.200527287817
2024-09-23 07:53:22.349270,42.2,4.248035,-0.003233425524256645,-0.024176140626271565,0.09655535038822652,44.11764879391193,-96.25519929585457,76.200527287817
2024-09-23 07:53:22.360581,42.2,4.248035,-0.003233425524256645,-0.024176140626271565,0.09655535038822652,36.09446859390736,-96.25519929585457,84.22370748782159
2024-09-23 07:53:22.403297,42.2,4.248086,-0.0030344509719951677,-0.023330473146428877,0.09695331012558621,36.09446859390736,-96.25519929585457,84.22370748782159
2024-09-23 07:53:22.446279,42.2,4.248137,-0.0030841997366068195,-0.023330473146428877,0.09695331012558621,36.09446859390736,-96.25519929585457,76.200527287817
2024-09-23 07:53:22.458792,42.2,4.248137,-0.0030841997366068195,-0.02352945757203875,0.09680407370509965,40.106058693909645,-96.25519929585457,76.200527287817
2024-09-23 07:53:22.490900,42.2,4.248137,-0.0030841997366068195,-0.02352945757203875,0.09680407370509965,40.106058693909645,-100.26678939585686,76.200527287817
2024-09-23 07:53:22.502804,42.2,4.248187,-0.0028852147413806935,-0.023778180888911878,0.09745075675933246,40.106058693909645,-100.26678939585686,80.21211738781929
2024-09-23 07:53:22.545461,42.2,4.248281,-0.0028852147413806935,-0.023778180888911878,0.09745075675933246,36.09446859390736,-92.24360919585227,84.22370748782159
2024-09-23 07:53:22.556888,42.2,4.248281,-0.0032831742888682963,-0.02362894446842532,0.09745075675933246,36.09446859390736,-92.24360919585227,84.22370748782159
2024-09-23 07:53:22.641738,42.2,4.248281,-0.0032831742888682963,-0.02362894446842532,0.09680407370509965,36.09446859390736,-96.25519929585457,84.22370748782159
2024-09-23 07:53:22.653444,42.2,4.248331,-0.0028354659767690416,-0.02362894446842532,0.09680407370509965,36.09446859390736,-96.25519929585457,84.22370748782159
2024-09-23 07:53:22.695609,42.2,4.248425,-0.0028354659767690416,-0.024176140626271565,0.09640611396773996,36.09446859390736,-104.27510100388527,88.23529758782387
2024-09-23 07:53:22.740508,42.2,4.248425,-0.0031836870127375577,-0.02367869399252531,0.09710254654607277,36.09446859390736,-104.27510100388527,88.23529758782387
2024-09-23 07:53:22.752363,42.2,4.248425,-0.0031836870127375577,-0.02367869399252531,0.09710254654607277,36.09446859390736,-100.26678939585686,84.22370748782159
2024-09-23 07:53:22.785311,42.2,4.248476,-0.0031836870127375577,-0.02367869399252531,0.09710254654607277,36.09446859390736,-100.26678939585686,84.22370748782159
2024-09-23 07:53:22.797299,42.2,4.248476,-0.0033329230534799477,-0.023579196463302005,0.09690356060148622,28.07457030097246,-100.26678939585686,84.22370748782159
2024-09-23 07:53:22.840449,42.2,4.248527,-0.0035816467500972456,-0.023330473146428877,0.0966050877605131,28.07457030097246,-100.26678939585686,76.200527287817
2024-09-23 07:53:22.852521,42.2,4.248527,-0.0035816467500972456,-0.023330473146428877,0.0966050877605131,36.09446859390736,-100.26678939585686,76.200527287817
2024-09-23 07:53:22.885009,41.63,4.248621,-0.0035816467500972456,-0.023330473146428877,0.0966050877605131,36.09446859390736,-100.26678939585686,80.21211738781929
2024-09-23 07:53:22.896312,41.63,4.248621,-0.0029847020175114316,-0.02293251340906919,0.09665483728461309,36.09446859390736,-100.26678939585686,80.21211738781929
2024-09-23 07:53:22.939342,41.63,4.248672,-0.0027359787006383035,-0.02367869399252531,0.09665483728461309,36.09446859390736,-96.25519929585457,80.21211738781929
2024-09-23 07:53:22.983175,41.63,4.248672,-0.0027359787006383035,-0.02367869399252531,0.09670458680871308,44.11764879391193,-96.25519929585457,80.21211738781929
2024-09-23 07:53:22.994325,41.63,4.248723,-0.0037308827908396356,-0.02367869399252531,0.09670458680871308,44.11764879391193,-96.25519929585457,76.200527287817
2024-09-23 07:53:23.036697,41.63,4.248815,-0.0037308827908396356,-0.023429960042815445,0.09715228999426605,36.09446859390736,-104.27510100388527,76.200527287817
2024-09-23 07:53:23.080568,41.63,4.248815,-0.0031339382481259063,-0.023280723622328886,0.09720203344245934,36.09446859390736,-104.27510100388527,76.200527287817
2024-09-23 07:53:23.092071,41.63,4.248815,-0.0031339382481259063,-0.023280723622328886,0.09720203344245934,32.08287849390507,-104.27510100388527,76.200527287817
2024-09-23 07:53:23.135257,41.63,4.248867,-0.0038801188315820256,-0.023728432883788564,0.09675432418099966,36.09446859390736,-96.25519929585457,76.200527287817
2024-09-23 07:53:23.177399,41.63,4.248917,-0.0035816467500972456,-0.023728432883788564,0.09675432418099966,36.09446859390736,-96.25519929585457,76.200527287817
2024-09-23 07:53:23.188365,41.63,4.248917,-0.0035816467500972456,-0.02397715620066169,0.09725178296655933,32.08287849390507,-96.25519929585457,76.200527287817
2024-09-23 07:53:23.232998,41.63,4.248968,-0.003382661564999035,-0.02367869399252531,0.09615739065086683,32.08287849390507,-100.26678939585686,80.21211738781929
2024-09-23 07:53:23.275335,41.63,4.248968,-0.003382661564999035,-0.02367869399252531,0.09615739065086683,40.106058693909645,-100.26678939585686,76.200527287817
2024-09-23 07:53:23.286765,41.63,4.249019,-0.003482159473966507,-0.024176140626271565,0.09615739065086683,40.106058693909645,-100.26678939585686,76.200527287817
2024-09-23 07:53:23.329328,41.63,4.24907,-0.0029847020175114316,-0.024176140626271565,0.09715228999426605,32.08287849390507,-100.26678939585686,80.21211738781929
2024-09-23 07:53:23.373689,41.63,4.24907,-0.0029847020175114316,-0.024076653729884996,0.09675432418099966,32.08287849390507,-100.26678939585686,80.21211738781929
2024-09-23 07:53:23.384977,41.63,4.249156,-0.0029847020175114316,-0.024076653729884996,0.09675432418099966,32.08287849390507,-100.26678939585686,76.200527287817
2024-09-23 07:53:23.428670,41.63,4.249156,-0.0028852147413806935,-0.024424863943144692,0.09650560086412653,40.106058693909645,-96.25519929585457,80.21211738781929
2024-09-23 07:53:23.471372,41.63,4.249207,-0.0029847020175114316,-0.023778180888911878,0.09725178296655933,40.106058693909645,-96.25519929585457,80.21211738781929
2024-09-23 07:53:23.483209,41.63,4.249207,-0.0029847020175114316,-0.023778180888911878,0.09725178296655933,40.106058693909645,-96.25519929585457,80.21211738781929
2024-09-23 07:53:23.515258,41.63,4.249207,-0.0029847020175114316,-0.023778180888911878,0.09725178296655933,40.106058693909645,-96.25519929585457,80.21211738781929
2024-09-23 07:53:23.526365,41.63,4.249258,-0.0029847020175114316,-0.023877669304275123,0.09665483728461309,40.106058693909645,-96.25519929585457,80.21211738781929
2024-09-23 07:53:23.569460,41.63,4.249309,-0.0030344509719951677,-0.023877669304275123,0.09665483728461309,40.106058693909645,-88.23529758782387,84.22370748782159
2024-09-23 07:53:23.581032,41.63,4.249309,-0.0030344509719951677,-0.024026904205785005,0.09764974270391902,40.106058693909645,-88.23529758782387,84.22370748782159
2024-09-23 07:53:23.613793,41.63,4.249309,-0.0030344509719951677,-0.024026904205785005,0.09764974270391902,36.09446859390736,-88.23529758782387,84.22370748782159
2024-09-23 07:53:23.624976,41.63,4.249359,-0.0029349636958644295,-0.02397715620066169,0.09764974270391902,36.09446859390736,-96.25519929585457,80.21211738781929
2024-09-23 07:53:23.667343,41.63,4.249359,-0.0029349636958644295,-0.02397715620066169,0.09640611396773996,44.11764879391193,-104.27510100388527,84.22370748782159
2024-09-23 07:53:23.678464,41.63,4.24941,-0.003233425524256645,-0.02397715620066169,0.09640611396773996,44.11764879391193,-104.27510100388527,84.22370748782159
2024-09-23 07:53:23.761275,41.63,4.24941,-0.003233425524256645,-0.023827930413011865,0.0966050877605131,44.11764879391193,-104.27510100388527,84.22370748782159
2024-09-23 07:53:23.773405,41.63,4.24941,-0.003233425524256645,-0.023827930413011865,0.0966050877605131,36.09446859390736,-104.27510100388527,84.22370748782159
2024-09-23 07:53:23.857833,41.63,4.24941,-0.003233425524256645,-0.023827930413011865,0.0966050877605131,36.09446859390736,-100.26678939585686,84.22370748782159
2024-09-23 07:53:23.869757,41.63,4.249497,-0.003382661564999035,-0.023479709566915436,0.0973015264147526,36.09446859390736,-100.26678939585686,76.200527287817
2024-09-23 07:53:23.913353,41.29,4.249549,-0.0029349636958644295,-0.023479709566915436,0.0973015264147526,32.08287849390507,-92.24360919585227,88.23529758782387
2024-09-23 07:53:23.925197,41.29,4.249549,-0.0029349636958644295,-0.023429960042815445,0.0973015264147526,32.08287849390507,-92.24360919585227,88.23529758782387
2024-09-23 07:53:24.008325,41.29,4.249549,-0.0029349636958644295,-0.023429960042815445,0.09635636444363997,32.08287849390507,-96.25519929585457,84.22370748782159
2024-09-23 07:53:24.025153,41.29,4.249599,-0.003482159473966507,-0.023429960042815445,0.09635636444363997,32.08287849390507,-96.25519929585457,84.22370748782159
2024-09-23 07:53:24.056918,41.29,4.249599,-0.003482159473966507,-0.023728432883788564,0.09685382322919964,44.11764879391193,-100.26678939585686,84.22370748782159
2024-09-23 07:53:24.068781,41.29,4.24965,-0.003482159473966507,-0.023728432883788564,0.09685382322919964,44.11764879391193,-100.26678939585686,72.1922225099802
2024-09-23 07:53:24.101930,41.29,4.24965,-0.0029847020175114316,-0.023877669304275123,0.09685382322919964,44.11764879391193,-100.26678939585686,72.1922225099802
2024-09-23 07:53:24.113220,41.29,4.24965,-0.0029847020175114316,-0.023877669304275123,0.09655535038822652,28.07457030097246,-104.27510100388527,76.200527287817
2024-09-23 07:53:24.156698,41.29,4.249839,-0.003233425524256645,-0.024424863943144692,0.09705279702197278,32.08287849390507,-104.27510100388527,76.200527287817
2024-09-23 07:53:24.168458,41.29,4.249839,-0.003233425524256645,-0.024424863943144692,0.09705279702197278,32.08287849390507,-100.26678939585686,76.200527287817
2024-09-23 07:53:24.201916,41.29,4.24989,-0.0035816467500972456,-0.024424863943144692,0.09705279702197278,32.08287849390507,-100.26678939585686,76.200527287817
2024-09-23 07:53:24.214353,41.29,4.24989,-0.0035816467500972456,-0.024474613467244683,0.0973512698629459,40.106058693909645,-100.26678939585686,76.200527287817
2024-09-23 07:53:24.247933,41.29,4.24989,-0.0035816467500972456,-0.024474613467244683,0.0973512698629459,40.106058693909645,-100.26678939585686,80.21211738781929
2024-09-23 07:53:24.259612,41.29,4.249986,-0.0032831742888682963,-0.023579196463302005,0.09715228999426605,40.106058693909645,-100.26678939585686,80.21211738781929
2024-09-23 07:53:24.302450,41.29,4.250037,-0.0031836870127375577,-0.023579196463302005,0.09715228999426605,36.09446859390736,-104.27510100388527,80.21211738781929
2024-09-23 07:53:24.313812,41.29,4.250037,-0.0031836870127375577,-0.023479709566915436,0.09715228999426605,36.09446859390736,-104.27510100388527,80.21211738781929
2024-09-23 07:53:24.345443,41.29,4.250037,-0.0031836870127375577,-0.023479709566915436,0.09655535038822652,36.09446859390736,-104.27510100388527,80.21211738781929
2024-09-23 07:53:24.357271,41.29,4.250088,-0.003233425524256645,-0.023479709566915436,0.09655535038822652,36.09446859390736,-96.25519929585457,76.200527287817
2024-09-23 07:53:24.399872,41.29,4.250088,-0.003233425524256645,-0.02397715620066169,0.09650560086412653,52.137550501942634,-100.26678939585686,84.22370748782159
2024-09-23 07:53:24.412556,41.29,4.25018,-0.003233425524256645,-0.02397715620066169,0.09650560086412653,52.137550501942634,-100.26678939585686,84.22370748782159
2024-09-23 07:53:24.446897,41.29,4.25018,-0.0031339382481259063,-0.023728432883788564,0.09675432418099966,52.137550501942634,-100.26678939585686,84.22370748782159
2024-09-23 07:53:24.458728,41.29,4.25018,-0.0031339382481259063,-0.023728432883788564,0.09675432418099966,48.12595698684454,-100.26678939585686,84.22370748782159
2024-09-23 07:53:24.491467,41.29,4.250231,-0.0031339382481259063,-0.023728432883788564,0.09675432418099966,48.12595698684454,-100.26678939585686,84.22370748782159
2024-09-23 07:53:24.502697,41.29,4.250231,-0.0033329230534799477,-0.023330473146428877,0.0973015264147526,40.106058693909645,-92.24360919585227,84.22370748782159
2024-09-23 07:53:24.545679,41.29,4.250282,-0.0036811340262279837,-0.024673597892854556,0.0973015264147526,40.106058693909645,-92.24360919585227,92.24360919585227
2024-09-23 07:53:24.557476,41.29,4.250282,-0.0036811340262279837,-0.024673597892854556,0.09745075675933246,40.106058693909645,-92.24360919585227,92.24360919585227
2024-09-23 07:53:24.590278,41.29,4.250282,-0.0036811340262279837,-0.024673597892854556,0.09745075675933246,40.106058693909645,-92.24360919585227,84.22370748782159
2024-09-23 07:53:24.601750,41.29,4.250333,-0.0036811340262279837,-0.02397715620066169,0.09655535038822652,40.106058693909645,-92.24360919585227,84.22370748782159
2024-09-23 07:53:24.643410,41.29,4.250383,-0.0029349636958644295,-0.02397715620066169,0.09655535038822652,36.09446859390736,-96.25519929585457,76.200527287817
2024-09-23 07:53:24.654847,41.29,4.250383,-0.0029349636958644295,-0.024325377046758124,0.09655535038822652,36.09446859390736,-96.25519929585457,76.200527287817
2024-09-23 07:53:24.686930,41.29,4.250383,-0.0029349636958644295,-0.024325377046758124,0.09705279702197278,32.08287849390507,-96.25519929585457,76.200527287817
2024-09-23 07:53:24.698289,41.29,4.250434,-0.003382661564999035,-0.024325377046758124,0.09705279702197278,32.08287849390507,-100.26678939585686,76.200527287817
2024-09-23 07:53:24.740154,41.29,4.250434,-0.003382661564999035,-0.023877669304275123,0.09715228999426605,32.08287849390507,-100.26678939585686,76.200527287817
2024-09-23 07:53:24.751582,41.29,4.250521,-0.003382661564999035,-0.023877669304275123,0.09715228999426605,32.08287849390507,-100.26678939585686,72.1922225099802
2024-09-23 07:53:24.783738,41.29,4.250521,-0.0028852147413806935,-0.023877669304275123,0.09715228999426605,32.08287849390507,-100.26678939585686,72.1922225099802
2024-09-23 07:53:24.795095,41.29,4.250521,-0.0028852147413806935,-0.02338022115155219,0.09705279702197278,36.09446859390736,-100.26678939585686,80.21211738781929
2024-09-23 07:53:24.838484,41.29,4.250572,-0.0029847020175114316,-0.023827930413011865,0.09740101331113918,40.106058693909645,-100.26678939585686,80.21211738781929
2024-09-23 07:53:24.849865,41.29,4.250572,-0.0029847020175114316,-0.023827930413011865,0.09740101331113918,40.106058693909645,-92.24360919585227,80.21211738781929
2024-09-23 07:53:24.882353,41.29,4.250623,-0.0029847020175114316,-0.023827930413011865,0.09740101331113918,40.106058693909645,-92.24360919585227,80.21211738781929
2024-09-23 07:53:24.893752,41.29,4.250623,-0.0028354659767690416,-0.02362894446842532,0.09695331012558621,36.09446859390736,-92.24360919585227,80.21211738781929
2024-09-23 07:53:24.936019,41.6,4.250674,-0.0031339382481259063,-0.02397715620066169,0.09695331012558621,36.09446859390736,-96.25519929585457,76.200527287817
2024-09-23 07:53:24.948292,41.6,4.250674,-0.0031339382481259063,-0.02397715620066169,0.0970030596496862,36.09446859390736,-96.25519929585457,76.200527287817
2024-09-23 07:53:24.981583,41.6,4.250674,-0.0031339382481259063,-0.02397715620066169,0.0970030596496862,32.08287849390507,-96.25519929585457,72.1922225099802
2024-09-23 07:53:24.993180,41.6,4.250724,-0.0030841997366068195,-0.024225890150371555,0.0970030596496862,32.08287849390507,-96.25519929585457,72.1922225099802
2024-09-23 07:53:25.036294,41.6,4.250775,-0.0028852147413806935,-0.024225890150371555,0.09690356060148622,28.07457030097246,-96.25519929585457,76.200527287817
2024-09-23 07:53:25.078774,41.6,4.250775,-0.0028852147413806935,-0.023429960042815445,0.09725178296655933,44.11764879391193,-96.25519929585457,76.200527287817
2024-09-23 07:53:25.090651,41.6,4.250862,-0.0028852147413806935,-0.023429960042815445,0.09725178296655933,44.11764879391193,-100.26678939585686,76.200527287817
2024-09-23 07:53:25.133275,41.6,4.250862,-0.0030841997366068195,-0.023728432883788564,0.09675432418099966,44.11764879391193,-92.24360919585227,80.21211738781929
2024-09-23 07:53:25.176283,41.6,4.250914,-0.0026862297461545674,-0.024275627522658133,0.09675432418099966,44.11764879391193,-92.24360919585227,80.21211738781929
