Ayaan's Suite
Timestamp,Sample Rate (Hz),Time,Ax,Ay,Az,Gx,Gy,Gz
2024-09-23 16:09:17.837737,0,34.004226,-0.003233425524256645,-0.02352945757203875,0.09685382322919964,40.106058693909645,-100.26678939585686,76.200527287817
2024-09-23 16:09:17.870319,0,34.004226,-0.003233425524256645,-0.0228827638849692,0.09685382322919964,40.106058693909645,-100.26678939585686,76.200527287817
2024-09-23 16:09:17.881563,0,34.004316,-0.003233425524256645,-0.0228827638849692,0.09710254654607277,32.08287849390507,-96.25519929585457,80.21211738781929
2024-09-23 16:09:17.924474,0,34.004316,-0.0033329230534799477,-0.0228827638849692,0.0973015264147526,40.106058693909645,-96.25519929585457,80.21211738781929
2024-09-23 16:09:17.936156,0,34.004316,-0.0033329230534799477,-0.0228827638849692,0.0973015264147526,40.106058693909645,-88.23529758782387,84.22370748782159
2024-09-23 16:09:17.969634,0,34.004367,-0.003482159473966507,-0.0228827638849692,0.0973015264147526,40.106058693909645,-88.23529758782387,84.22370748782159
2024-09-23 16:09:17.981036,0,34.004367,-0.003482159473966507,-0.022833026512682618,0.09695331012558621,32.08287849390507,-96.25519929585457,84.22370748782159
2024-09-23 16:09:18.023721,0,34.004418,-0.0031339382481259063,-0.02313149783467906,0.0970030596496862,32.08287849390507,-96.25519929585457,80.21211738781929
2024-09-23 16:09:18.035781,0,34.004418,-0.0031339382481259063,-0.02313149783467906,0.0970030596496862,36.09446859390736,-96.25519929585457,80.21211738781929
2024-09-23 16:09:18.067718,0,34.004418,-0.0031339382481259063,-0.02313149783467906,0.0970030596496862,36.09446859390736,-96.25519929585457,76.200527287817
2024-09-23 16:09:18.079344,0,34.004469,-0.0030841997366068195,-0.02362894446842532,0.09725178296655933,36.09446859390736,-96.25519929585457,76.200527287817
2024-09-23 16:09:18.122888,0,34.004519,-0.0031836870127375577,-0.023330473146428877,0.09725178296655933,32.08287849390507,-100.26678939585686,76.200527287817
2024-09-23 16:09:18.164779,0,34.004519,-0.0031836870127375577,-0.023330473146428877,0.0973512698629459,36.09446859390736,-100.26678939585686,76.200527287817
2024-09-23 16:09:18.176158,0,34.00457,-0.0031836870127375577,-0.023330473146428877,0.0973512698629459,36.09446859390736,-108.28669110388756,80.21211738781929
2024-09-23 16:09:18.218608,0,34.00457,-0.0031836870127375577,-0.02313149783467906,0.09710254654607277,44.11764879391193,-100.26678939585686,80.21211738781929
2024-09-23 16:09:18.230652,0,34.004657,-0.0031836870127375577,-0.02313149783467906,0.09710254654607277,44.11764879391193,-100.26678939585686,80.21211738781929
2024-09-23 16:09:18.262121,0,34.004657,-0.003780631555451287,-0.023479709566915436,0.09710254654607277,44.11764879391193,-100.26678939585686,80.21211738781929
2024-09-23 16:09:18.273691,0,34.004657,-0.003780631555451287,-0.023479709566915436,0.09789846602079214,40.106058693909645,-100.26678939585686,80.21211738781929
2024-09-23 16:09:18.316446,0,34.004709,-0.0033329230534799477,-0.023579196463302005,0.09789846602079214,40.106058693909645,-92.24360919585227,80.21211738781929
2024-09-23 16:09:18.328396,0,34.004709,-0.0033329230534799477,-0.023579196463302005,0.0976994861521123,40.106058693909645,-92.24360919585227,80.21211738781929
2024-09-23 16:09:18.360600,0,34.004709,-0.0033329230534799477,-0.023579196463302005,0.0976994861521123,48.12595698684454,-96.25519929585457,80.21211738781929
2024-09-23 16:09:18.371865,0,34.004759,-0.0029349636958644295,-0.02308174982955575,0.0976994861521123,48.12595698684454,-96.25519929585457,76.200527287817
2024-09-23 16:09:18.414268,0,34.004759,-0.0029349636958644295,-0.02308174982955575,0.09695331012558621,40.106058693909645,-96.25519929585457,76.200527287817
2024-09-23 16:09:18.429937,0,34.00481,-0.002387757474797703,-0.02308174982955575,0.09695331012558621,40.106058693909645,-96.25519929585457,76.200527287817
2024-09-23 16:09:18.462428,0,34.00481,-0.002387757474797703,-0.02313149783467906,0.0966050877605131,40.106058693909645,-92.24360919585227,76.200527287817
2024-09-23 16:09:18.474115,0,34.004861,-0.002387757474797703,-0.02313149783467906,0.0966050877605131,40.106058693909645,-92.24360919585227,76.200527287817
2024-09-23 16:09:18.507484,0,34.004861,-0.0026862297461545674,-0.023280723622328886,0.09794820946898543,40.106058693909645,-92.24360919585227,76.200527287817
2024-09-23 16:09:18.518793,0,34.004861,-0.0026862297461545674,-0.023280723622328886,0.09794820946898543,36.09446859390736,-96.25519929585457,80.21211738781929
2024-09-23 16:09:18.561784,0,34.00495,-0.0031836870127375577,-0.023479709566915436,0.0973512698629459,28.07457030097246,-96.25519929585457,80.21211738781929
2024-09-23 16:09:18.603687,0,34.005002,-0.0031836870127375577,-0.023479709566915436,0.0973512698629459,28.07457030097246,-96.25519929585457,80.21211738781929
2024-09-23 16:09:18.614592,0,34.005002,-0.003233425524256645,-0.023230986250042305,0.09740101331113918,36.09446859390736,-96.25519929585457,80.21211738781929
2024-09-23 16:09:18.656688,0,34.005052,-0.0029847020175114316,-0.023230986250042305,0.09740101331113918,36.09446859390736,-92.24360919585227,84.22370748782159
2024-09-23 16:09:18.699876,0,34.005052,-0.0029847020175114316,-0.02303200030545576,0.09740101331113918,36.09446859390736,-92.24360919585227,84.22370748782159
2024-09-23 16:09:18.711726,0,34.005103,-0.0029847020175114316,-0.02303200030545576,0.09715228999426605,44.11764879391193,-100.26678939585686,80.21211738781929
2024-09-23 16:09:18.753778,0,34.005103,-0.0029847020175114316,-0.022833026512682618,0.09695331012558621,44.11764879391193,-96.25519929585457,80.21211738781929
2024-09-23 16:09:18.765650,0,34.005103,-0.0029847020175114316,-0.022833026512682618,0.09695331012558621,44.11764879391193,-96.25519929585457,76.200527287817
2024-09-23 16:09:18.798798,0,34.005154,-0.002636491424507565,-0.022833026512682618,0.09695331012558621,44.11764879391193,-96.25519929585457,76.200527287817
2024-09-23 16:09:18.810559,0,34.005154,-0.002636491424507565,-0.023181236725942318,0.0970030596496862,32.08287849390507,-100.26678939585686,76.200527287817
2024-09-23 16:09:18.853139,45.77,34.005242,-0.003382661564999035,-0.023330473146428877,0.09685382322919964,32.08287849390507,-100.26678939585686,76.200527287817
2024-09-23 16:09:18.895100,45.77,34.005242,-0.003382661564999035,-0.023330473146428877,0.09685382322919964,32.08287849390507,-88.23529758782387,92.24360919585227
2024-09-23 16:09:18.907407,45.77,34.005294,-0.0032831742888682963,-0.02367869399252531,0.09715228999426605,32.08287849390507,-88.23529758782387,92.24360919585227
2024-09-23 16:09:18.951003,45.77,34.005345,-0.0029847020175114316,-0.02367869399252531,0.09715228999426605,36.09446859390736,-92.24360919585227,80.21211738781929
2024-09-23 16:09:18.962497,45.77,34.005345,-0.0029847020175114316,-0.023330473146428877,0.09715228999426605,36.09446859390736,-92.24360919585227,80.21211738781929
2024-09-23 16:09:18.994998,45.77,34.005345,-0.0029847020175114316,-0.023330473146428877,0.09725178296655933,16.039798293417693,-108.28669110388756,80.21211738781929
2024-09-23 16:09:19.006365,45.77,34.005395,-0.0028354659767690416,-0.023330473146428877,0.09725178296655933,16.039798293417693,-108.28669110388756,80.21211738781929
2024-09-23 16:09:19.050988,45.77,34.005486,-0.0028354659767690416,-0.02278327698858263,0.09740101331113918,40.106058693909645,-92.24360919585227,84.22370748782159
2024-09-23 16:09:19.092847,45.77,34.005486,-0.0028354659767690416,-0.023429960042815445,0.09715228999426605,40.106058693909645,-92.24360919585227,84.22370748782159
2024-09-23 16:09:19.104397,45.77,34.005486,-0.0028354659767690416,-0.023429960042815445,0.09715228999426605,40.106058693909645,-92.24360919585227,80.21211738781929
2024-09-23 16:09:19.146674,45.77,34.005538,-0.0030344509719951677,-0.02367869399252531,0.09740101331113918,40.106058693909645,-96.25519929585457,80.21211738781929
2024-09-23 16:09:19.190578,45.77,34.005589,-0.002437506429281439,-0.02367869399252531,0.09740101331113918,40.106058693909645,-96.25519929585457,84.22370748782159
2024-09-23 16:09:19.202073,45.77,34.005589,-0.002437506429281439,-0.022982261414192504,0.09670458680871308,44.11764879391193,-96.25519929585457,84.22370748782159
2024-09-23 16:09:19.245428,45.77,34.005639,-0.003482159473966507,-0.023280723622328886,0.098047696365372,44.11764879391193,-88.23529758782387,80.21211738781929
2024-09-23 16:09:19.288680,45.77,34.00569,-0.003482159473966507,-0.023280723622328886,0.098047696365372,32.08287849390507,-100.26678939585686,80.21211738781929
2024-09-23 16:09:19.300752,45.77,34.00569,-0.0028354659767690416,-0.023280723622328886,0.098047696365372,32.08287849390507,-100.26678939585686,80.21211738781929
2024-09-23 16:09:19.332471,45.77,34.00569,-0.0028354659767690416,-0.023330473146428877,0.098047696365372,32.08287849390507,-100.26678939585686,80.21211738781929
2024-09-23 16:09:19.343863,45.77,34.005741,-0.0028354659767690416,-0.023330473146428877,0.09695331012558621,32.08287849390507,-96.25519929585457,76.200527287817
2024-09-23 16:09:19.386339,45.77,34.005741,-0.003233425524256645,-0.023479709566915436,0.09745075675933246,20.05138839341998,-96.25519929585457,76.200527287817
2024-09-23 16:09:19.397771,45.77,34.005741,-0.003233425524256645,-0.023479709566915436,0.09745075675933246,20.05138839341998,-96.25519929585457,80.21211738781929
2024-09-23 16:09:19.430440,45.77,34.005827,-0.003233425524256645,-0.023479709566915436,0.09745075675933246,20.05138839341998,-96.25519929585457,80.21211738781929
2024-09-23 16:09:19.442217,45.77,34.005827,-0.0035816467500972456,-0.022982261414192504,0.09690356060148622,44.11764879391193,-96.25519929585457,80.21211738781929
2024-09-23 16:09:19.484014,45.77,34.005879,-0.0032831742888682963,-0.023230986250042305,0.09690356060148622,44.11764879391193,-96.25519929585457,72.1922225099802
2024-09-23 16:09:19.495225,45.77,34.005879,-0.0032831742888682963,-0.023230986250042305,0.0973512698629459,48.12595698684454,-96.25519929585457,72.1922225099802
2024-09-23 16:09:19.538106,45.77,34.005929,-0.0029349636958644295,-0.02338022115155219,0.09720203344245934,48.12595698684454,-92.24360919585227,72.1922225099802
2024-09-23 16:09:19.580937,45.77,34.00598,-0.0029349636958644295,-0.02338022115155219,0.09720203344245934,44.11764879391193,-96.25519929585457,76.200527287817
2024-09-23 16:09:19.592494,45.77,34.00598,-0.0029349636958644295,-0.023181236725942318,0.09720203344245934,44.11764879391193,-96.25519929585457,76.200527287817
2024-09-23 16:09:19.634905,45.77,34.006031,-0.0029349636958644295,-0.023181236725942318,0.09715228999426605,28.07457030097246,-104.27510100388527,76.200527287817
2024-09-23 16:09:19.676890,45.77,34.006031,-0.0029349636958644295,-0.02303200030545576,0.09720203344245934,24.06297849342227,-104.27510100388527,76.200527287817
2024-09-23 16:09:19.689074,45.77,34.00612,-0.0029349636958644295,-0.02303200030545576,0.09720203344245934,24.06297849342227,-100.26678939585686,80.21211738781929
2024-09-23 16:09:19.731767,45.77,34.00612,-0.0027359787006383035,-0.0228827638849692,0.09750050628343246,24.06297849342227,-104.27510100388527,76.200527287817
2024-09-23 16:09:19.773868,45.77,34.006171,-0.0031339382481259063,-0.0228827638849692,0.09750050628343246,24.06297849342227,-104.27510100388527,76.200527287817
2024-09-23 16:09:19.785734,45.77,34.006171,-0.0031339382481259063,-0.02308174982955575,0.0970030596496862,48.12595698684454,-100.26678939585686,76.200527287817
2024-09-23 16:09:19.828891,45.77,34.006222,-0.0029847020175114316,-0.023728432883788564,0.09685382322919964,48.12595698684454,-100.26678939585686,68.18063240997792
2024-09-23 16:09:19.840807,45.77,34.006222,-0.0029847020175114316,-0.023728432883788564,0.09685382322919964,40.106058693909645,-100.26678939585686,68.18063240997792
2024-09-23 16:09:19.873193,43.96,34.006273,-0.0030841997366068195,-0.023728432883788564,0.09685382322919964,40.106058693909645,-100.26678939585686,76.200527287817
2024-09-23 16:09:19.966598,43.96,34.006273,-0.0030841997366068195,-0.023280723622328886,0.09685382322919964,40.106058693909645,-100.26678939585686,76.200527287817
2024-09-23 16:09:19.978036,43.96,34.006273,-0.0030841997366068195,-0.023280723622328886,0.0973512698629459,48.12595698684454,-96.25519929585457,76.200527287817
2024-09-23 16:09:20.020893,43.96,34.006323,-0.003482159473966507,-0.022982261414192504,0.0973512698629459,48.12595698684454,-96.25519929585457,80.21211738781929
2024-09-23 16:09:20.032554,43.96,34.006323,-0.003482159473966507,-0.022982261414192504,0.0976994861521123,48.12595698684454,-96.25519929585457,80.21211738781929
2024-09-23 16:09:20.065396,43.96,34.006323,-0.003482159473966507,-0.022982261414192504,0.0976994861521123,48.12595698684454,-100.26678939585686,80.21211738781929
2024-09-23 16:09:20.077192,43.96,34.006374,-0.0030841997366068195,-0.0228827638849692,0.0970030596496862,48.12595698684454,-100.26678939585686,80.21211738781929
2024-09-23 16:09:20.120270,43.96,34.006461,-0.0034324103296106863,-0.023778180888911878,0.0970030596496862,20.05138839341998,-96.25519929585457,84.22370748782159
2024-09-23 16:09:20.163857,43.96,34.006461,-0.0034324103296106863,-0.023778180888911878,0.09725178296655933,24.06297849342227,-96.25519929585457,84.22370748782159
2024-09-23 16:09:20.175274,43.96,34.006512,-0.0029847020175114316,-0.023778180888911878,0.09725178296655933,24.06297849342227,-96.25519929585457,76.200527287817
2024-09-23 16:09:20.217688,43.96,34.006512,-0.0029847020175114316,-0.023230986250042305,0.0973015264147526,32.08287849390507,-96.25519929585457,80.21211738781929
2024-09-23 16:09:20.229823,43.96,34.006609,-0.0029847020175114316,-0.023230986250042305,0.0973015264147526,32.08287849390507,-96.25519929585457,80.21211738781929
2024-09-23 16:09:20.262613,43.96,34.006609,-0.0035318979854855937,-0.023280723622328886,0.09745075675933246,32.08287849390507,-96.25519929585457,80.21211738781929
2024-09-23 16:09:20.273668,43.96,34.006609,-0.0035318979854855937,-0.023280723622328886,0.09745075675933246,40.106058693909645,-92.24360919585227,80.21211738781929
2024-09-23 16:09:20.316108,43.96,34.006705,-0.003233425524256645,-0.023579196463302005,0.0970030596496862,24.06297849342227,-92.24360919585227,80.21211738781929
2024-09-23 16:09:20.358978,43.96,34.006705,-0.003233425524256645,-0.023579196463302005,0.0970030596496862,24.06297849342227,-96.25519929585457,84.22370748782159
2024-09-23 16:09:20.370054,43.96,34.006757,-0.0028354659767690416,-0.022833026512682618,0.09690356060148622,24.06297849342227,-96.25519929585457,84.22370748782159
2024-09-23 16:09:20.412734,43.96,34.006807,-0.0032831742888682963,-0.022833026512682618,0.09690356060148622,20.05138839341998,-100.26678939585686,88.23529758782387
2024-09-23 16:09:20.425197,43.96,34.006807,-0.0032831742888682963,-0.02313149783467906,0.09690356060148622,20.05138839341998,-100.26678939585686,88.23529758782387
2024-09-23 16:09:20.457884,43.96,34.006807,-0.0032831742888682963,-0.02313149783467906,0.09740101331113918,20.05138839341998,-100.26678939585686,88.23529758782387
2024-09-23 16:09:20.469187,43.96,34.006858,-0.002785727465249955,-0.02313149783467906,0.09740101331113918,20.05138839341998,-92.24360919585227,84.22370748782159
2024-09-23 16:09:20.512241,43.96,34.006858,-0.002785727465249955,-0.02278327698858263,0.09680407370509965,28.07457030097246,-100.26678939585686,84.22370748782159
2024-09-23 16:09:20.554616,43.96,34.006909,-0.0030841997366068195,-0.02308174982955575,0.09680407370509965,28.07457030097246,-100.26678939585686,84.22370748782159
2024-09-23 16:09:20.565806,43.96,34.006909,-0.0030841997366068195,-0.02308174982955575,0.09750050628343246,40.106058693909645,-104.27510100388527,84.22370748782159
2024-09-23 16:09:20.608488,43.96,34.006998,-0.0030344509719951677,-0.02352945757203875,0.09680407370509965,40.106058693909645,-104.27510100388527,76.200527287817
2024-09-23 16:09:20.650804,43.96,34.006998,-0.0030344509719951677,-0.02352945757203875,0.09680407370509965,40.106058693909645,-96.25519929585457,76.200527287817
2024-09-23 16:09:20.662361,43.96,34.007049,-0.0030344509719951677,-0.02338022115155219,0.09745075675933246,40.106058693909645,-96.25519929585457,76.200527287817
2024-09-23 16:09:20.704079,43.96,34.0071,-0.0031836870127375577,-0.02338022115155219,0.09745075675933246,44.11764879391193,-96.25519929585457,76.200527287817
2024-09-23 16:09:20.716235,43.96,34.0071,-0.0031836870127375577,-0.023181236725942318,0.09745075675933246,44.11764879391193,-96.25519929585457,76.200527287817
2024-09-23 16:09:20.749263,43.96,34.0071,-0.0031836870127375577,-0.023181236725942318,0.0973015264147526,40.106058693909645,-92.24360919585227,76.200527287817
2024-09-23 16:09:20.760773,43.96,34.00715,-0.003382661564999035,-0.023181236725942318,0.0973015264147526,40.106058693909645,-92.24360919585227,76.200527287817
2024-09-23 16:09:20.804082,43.96,34.007241,-0.003382661564999035,-0.023479709566915436,0.0973512698629459,24.06297849342227,-100.26678939585686,80.21211738781929
2024-09-23 16:09:20.846199,43.96,34.007241,-0.0033329230534799477,-0.02308174982955575,0.0973512698629459,24.06297849342227,-100.26678939585686,80.21211738781929
2024-09-23 16:09:20.858522,43.96,34.007241,-0.0033329230534799477,-0.02308174982955575,0.09715228999426605,24.06297849342227,-100.26678939585686,80.21211738781929
2024-09-23 16:09:20.901679,42.92,34.007293,-0.0031339382481259063,-0.023181236725942318,0.0970030596496862,36.09446859390736,-100.26678939585686,80.21211738781929
2024-09-23 16:09:20.944957,42.92,34.007343,-0.0029847020175114316,-0.023181236725942318,0.0970030596496862,36.09446859390736,-100.26678939585686,76.200527287817
2024-09-23 16:09:20.956478,42.92,34.007343,-0.0029847020175114316,-0.02293251340906919,0.09764974270391902,44.11764879391193,-100.26678939585686,76.200527287817
2024-09-23 16:09:20.999805,42.92,34.007394,-0.003233425524256645,-0.02313149783467906,0.09764974270391902,44.11764879391193,-92.24360919585227,80.21211738781929
2024-09-23 16:09:21.041910,42.92,34.007394,-0.003233425524256645,-0.02313149783467906,0.09764974270391902,44.11764879391193,-88.23529758782387,80.21211738781929
2024-09-23 16:09:21.053439,42.92,34.007445,-0.003382661564999035,-0.022982261414192504,0.09764974270391902,44.11764879391193,-88.23529758782387,80.21211738781929
2024-09-23 16:09:21.097005,42.92,34.007495,-0.0031339382481259063,-0.022982261414192504,0.09720203344245934,44.11764879391193,-104.27510100388527,80.21211738781929
2024-09-23 16:09:21.191840,42.92,34.007495,-0.0031339382481259063,-0.023280723622328886,0.09750050628343246,36.09446859390736,-96.25519929585457,84.22370748782159
2024-09-23 16:09:21.203819,42.92,34.007582,-0.0031339382481259063,-0.023280723622328886,0.09750050628343246,36.09446859390736,-96.25519929585457,84.22370748782159
2024-09-23 16:09:21.288281,42.92,34.007582,-0.0035318979854855937,-0.02308174982955575,0.0973512698629459,28.07457030097246,-96.25519929585457,84.22370748782159
2024-09-23 16:09:21.341468,42.92,34.007634,-0.0030841997366068195,-0.02313149783467906,0.09720203344245934,28.07457030097246,-96.25519929585457,84.22370748782159
2024-09-23 16:09:21.384148,42.92,34.007634,-0.0030841997366068195,-0.02313149783467906,0.09720203344245934,32.08287849390507,-100.26678939585686,76.200527287817
2024-09-23 16:09:21.395791,42.92,34.007684,-0.003482159473966507,-0.023429960042815445,0.09720203344245934,32.08287849390507,-100.26678939585686,76.200527287817
2024-09-23 16:09:21.438391,42.92,34.007735,-0.0031836870127375577,-0.023429960042815445,0.09680407370509965,40.106058693909645,-100.26678939585686,76.200527287817
2024-09-23 16:09:21.481634,42.92,34.007735,-0.0031836870127375577,-0.023330473146428877,0.09670458680871308,40.106058693909645,-100.26678939585686,76.200527287817
2024-09-23 16:09:21.493028,42.92,34.007828,-0.0031836870127375577,-0.023330473146428877,0.09670458680871308,40.106058693909645,-100.26678939585686,80.21211738781929
2024-09-23 16:09:21.537140,42.92,34.007828,-0.0028852147413806935,-0.023280723622328886,0.09720203344245934,28.07457030097246,-96.25519929585457,80.21211738781929
2024-09-23 16:09:21.579022,42.92,34.007973,-0.0030344509719951677,-0.023280723622328886,0.09720203344245934,28.07457030097246,-96.25519929585457,80.21211738781929
2024-09-23 16:09:21.590148,42.92,34.007973,-0.0030344509719951677,-0.023280723622328886,0.09705279702197278,32.08287849390507,-104.27510100388527,80.21211738781929
2024-09-23 16:09:21.633080,42.92,34.008024,-0.0027359787006383035,-0.023280723622328886,0.0976994861521123,40.106058693909645,-104.27510100388527,72.1922225099802
2024-09-23 16:09:21.676120,42.92,34.008075,-0.0027359787006383035,-0.023280723622328886,0.0976994861521123,40.106058693909645,-96.25519929585457,76.200527287817
2024-09-23 16:09:21.687616,42.92,34.008075,-0.0030841997366068195,-0.023181236725942318,0.0970030596496862,40.106058693909645,-96.25519929585457,76.200527287817
2024-09-23 16:09:21.730420,42.92,34.008126,-0.0028852147413806935,-0.02308174982955575,0.0970030596496862,40.106058693909645,-100.26678939585686,80.21211738781929
2024-09-23 16:09:21.773973,42.92,34.008126,-0.0028852147413806935,-0.02308174982955575,0.09710254654607277,40.106058693909645,-100.26678939585686,80.21211738781929
2024-09-23 16:09:21.828196,42.92,34.008176,-0.003233425524256645,-0.0228827638849692,0.09690356060148622,40.106058693909645,-96.25519929585457,80.21211738781929
2024-09-23 16:09:21.871924,42.92,34.008176,-0.003233425524256645,-0.0228827638849692,0.09690356060148622,32.08287849390507,-96.25519929585457,84.22370748782159
2024-09-23 16:09:21.884057,42.92,34.008265,-0.0034324103296106863,-0.02352945757203875,0.09690356060148622,32.08287849390507,-96.25519929585457,84.22370748782159
2024-09-23 16:09:21.916086,40.82,34.008265,-0.0034324103296106863,-0.02352945757203875,0.0973015264147526,32.08287849390507,-96.25519929585457,84.22370748782159
2024-09-23 16:09:21.927157,40.82,34.008316,-0.002636491424507565,-0.02352945757203875,0.0973015264147526,28.07457030097246,-100.26678939585686,84.22370748782159
2024-09-23 16:09:21.971047,40.82,34.008316,-0.002636491424507565,-0.023280723622328886,0.09705279702197278,32.08287849390507,-100.26678939585686,84.22370748782159
2024-09-23 16:09:21.983967,40.82,34.008367,-0.002636491424507565,-0.023280723622328886,0.09705279702197278,32.08287849390507,-100.26678939585686,72.1922225099802
2024-09-23 16:09:22.016370,40.82,34.008367,-0.0030841997366068195,-0.02308174982955575,0.09705279702197278,32.08287849390507,-100.26678939585686,72.1922225099802
2024-09-23 16:09:22.027983,40.82,34.008367,-0.0030841997366068195,-0.02308174982955575,0.09685382322919964,32.08287849390507,-100.26678939585686,76.200527287817
2024-09-23 16:09:22.070670,40.82,34.00846,-0.0028852147413806935,-0.02303200030545576,0.09755024973162574,36.09446859390736,-96.25519929585457,76.200527287817
2024-09-23 16:09:22.112857,40.82,34.00846,-0.0028852147413806935,-0.02303200030545576,0.09755024973162574,36.09446859390736,-96.25519929585457,76.200527287817
2024-09-23 16:09:22.124990,40.82,34.008512,-0.0029349636958644295,-0.023479709566915436,0.09695331012558621,40.106058693909645,-96.25519929585457,76.200527287817
2024-09-23 16:09:22.168014,40.82,34.008562,-0.003233425524256645,-0.02308174982955575,0.09705279702197278,40.106058693909645,-92.24360919585227,84.22370748782159
2024-09-23 16:09:22.210546,40.82,34.008562,-0.003233425524256645,-0.02308174982955575,0.09705279702197278,48.12595698684454,-92.24360919585227,84.22370748782159
2024-09-23 16:09:22.222074,40.82,34.008613,-0.0032831742888682963,-0.023230986250042305,0.09705279702197278,48.12595698684454,-92.24360919585227,84.22370748782159
2024-09-23 16:09:22.316475,40.82,34.008664,-0.0035816467500972456,-0.023230986250042305,0.09705279702197278,44.11764879391193,-92.24360919585227,80.21211738781929
2024-09-23 16:09:22.358836,40.82,34.008664,-0.0035816467500972456,-0.023778180888911878,0.0973512698629459,24.06297849342227,-92.24360919585227,80.21211738781929
2024-09-23 16:09:22.370670,40.82,34.008752,-0.0035816467500972456,-0.023778180888911878,0.0973512698629459,24.06297849342227,-100.26678939585686,84.22370748782159
2024-09-23 16:09:22.413705,40.82,34.008752,-0.0029847020175114316,-0.023230986250042305,0.09670458680871308,24.06297849342227,-96.25519929585457,80.21211738781929
2024-09-23 16:09:22.456427,40.82,34.008804,-0.0031339382481259063,-0.02303200030545576,0.09670458680871308,24.06297849342227,-96.25519929585457,80.21211738781929
2024-09-23 16:09:22.467654,40.82,34.008804,-0.0031339382481259063,-0.02303200030545576,0.09710254654607277,40.106058693909645,-92.24360919585227,80.21211738781929
2024-09-23 16:09:22.510886,40.82,34.008855,-0.0035318979854855937,-0.023230986250042305,0.09710254654607277,52.137550501942634,-92.24360919585227,80.21211738781929
2024-09-23 16:09:22.553993,40.82,34.008855,-0.0035318979854855937,-0.023230986250042305,0.09710254654607277,52.137550501942634,-96.25519929585457,84.22370748782159
2024-09-23 16:09:22.565938,40.82,34.008949,-0.0030841997366068195,-0.022982261414192504,0.09715228999426605,52.137550501942634,-96.25519929585457,84.22370748782159
2024-09-23 16:09:22.607977,40.82,34.009,-0.0031339382481259063,-0.023181236725942318,0.09715228999426605,36.09446859390736,-100.26678939585686,80.21211738781929
2024-09-23 16:09:22.652379,40.82,34.009,-0.0031339382481259063,-0.023181236725942318,0.0973015264147526,28.07457030097246,-100.26678939585686,80.21211738781929
2024-09-23 16:09:22.663781,40.82,34.00905,-0.0031339382481259063,-0.023181236725942318,0.0973015264147526,28.07457030097246,-100.26678939585686,80.21211738781929
2024-09-23 16:09:22.706779,40.82,34.009142,-0.0031339382481259063,-0.022982261414192504,0.09755024973162574,40.106058693909645,-96.25519929585457,80.21211738781929
2024-09-23 16:09:22.749827,40.82,34.009142,-0.0035816467500972456,-0.022982261414192504,0.0973015264147526,40.106058693909645,-96.25519929585457,80.21211738781929
2024-09-23 16:09:22.761436,40.82,34.009142,-0.0035816467500972456,-0.022982261414192504,0.0973015264147526,28.07457030097246,-108.28669110388756,72.1922225099802
2024-09-23 16:09:22.793789,40.82,34.009194,-0.0035816467500972456,-0.022982261414192504,0.0973015264147526,28.07457030097246,-108.28669110388756,72.1922225099802
2024-09-23 16:09:22.805080,40.82,34.009194,-0.0030344509719951677,-0.02278327698858263,0.09750050628343246,32.08287849390507,-104.27510100388527,72.1922225099802
2024-09-23 16:09:22.847271,40.82,34.009245,-0.0029349636958644295,-0.02278327698858263,0.09750050628343246,32.08287849390507,-104.27510100388527,80.21211738781929
2024-09-23 16:09:22.858885,40.82,34.009245,-0.0029349636958644295,-0.022733528983459317,0.09755024973162574,48.12595698684454,-104.27510100388527,80.21211738781929
2024-09-23 16:09:22.891789,40.82,34.009245,-0.0029349636958644295,-0.022733528983459317,0.09755024973162574,48.12595698684454,-96.25519929585457,80.21211738781929
2024-09-23 16:09:22.904615,40.82,34.009295,-0.0030344509719951677,-0.022982261414192504,0.09680407370509965,48.12595698684454,-96.25519929585457,84.22370748782159
2024-09-23 16:09:22.946760,40.61,34.009346,-0.0029847020175114316,-0.022982261414192504,0.09680407370509965,48.12595698684454,-96.25519929585457,68.18063240997792
2024-09-23 16:09:22.958440,40.61,34.009346,-0.0029847020175114316,-0.02362894446842532,0.09680407370509965,48.12595698684454,-96.25519929585457,68.18063240997792
2024-09-23 16:09:22.990739,40.61,34.009346,-0.0029847020175114316,-0.02362894446842532,0.09725178296655933,36.09446859390736,-96.25519929585457,68.18063240997792
2024-09-23 16:09:23.003060,40.61,34.009397,-0.0029349636958644295,-0.02362894446842532,0.09725178296655933,36.09446859390736,-96.25519929585457,72.1922225099802
2024-09-23 16:09:23.045244,40.61,34.009397,-0.0029349636958644295,-0.02293251340906919,0.09725178296655933,36.09446859390736,-96.25519929585457,72.1922225099802
2024-09-23 16:09:23.088218,40.61,34.009397,-0.0029349636958644295,-0.02293251340906919,0.09665483728461309,36.09446859390736,-96.25519929585457,72.1922225099802
2024-09-23 16:09:23.099697,40.61,34.009484,-0.0030344509719951677,-0.02293251340906919,0.09665483728461309,36.09446859390736,-96.25519929585457,72.1922225099802
2024-09-23 16:09:23.142248,40.61,34.009484,-0.0030344509719951677,-0.023728432883788564,0.09750050628343246,32.08287849390507,-100.26678939585686,68.18063240997792
2024-09-23 16:09:23.154144,40.61,34.009535,-0.0030344509719951677,-0.023728432883788564,0.09750050628343246,32.08287849390507,-100.26678939585686,68.18063240997792
2024-09-23 16:09:23.186019,40.61,34.009535,-0.0026862297461545674,-0.02303200030545576,0.09750050628343246,32.08287849390507,-100.26678939585686,68.18063240997792
2024-09-23 16:09:23.197947,40.61,34.009535,-0.0026862297461545674,-0.02303200030545576,0.0970030596496862,20.05138839341998,-100.26678939585686,76.200527287817
2024-09-23 16:09:23.241154,40.61,34.009586,-0.002636491424507565,-0.023479709566915436,0.0973015264147526,52.137550501942634,-100.26678939585686,76.200527287817
2024-09-23 16:09:23.335744,40.61,34.009636,-0.002636491424507565,-0.02268379009219606,0.0973015264147526,52.137550501942634,-100.26678939585686,76.200527287817
2024-09-23 16:09:23.347469,40.61,34.009636,-0.002636491424507565,-0.02268379009219606,0.0973015264147526,44.11764879391193,-100.26678939585686,76.200527287817
2024-09-23 16:09:23.380231,40.61,34.009636,-0.002636491424507565,-0.02268379009219606,0.0973015264147526,44.11764879391193,-100.26678939585686,76.200527287817
2024-09-23 16:09:23.392243,40.61,34.009729,-0.0030841997366068195,-0.023330473146428877,0.09705279702197278,44.11764879391193,-100.26678939585686,76.200527287817
2024-09-23 16:09:23.434446,40.61,34.00978,-0.0036811340262279837,-0.023330473146428877,0.09705279702197278,40.106058693909645,-100.26678939585686,76.200527287817
2024-09-23 16:09:23.446478,40.61,34.00978,-0.0036811340262279837,-0.023827930413011865,0.09705279702197278,40.106058693909645,-100.26678939585686,76.200527287817
2024-09-23 16:09:23.478814,40.61,34.00978,-0.0036811340262279837,-0.023827930413011865,0.09715228999426605,36.09446859390736,-100.26678939585686,76.200527287817
2024-09-23 16:09:23.493901,40.61,34.00983,-0.0030344509719951677,-0.023827930413011865,0.09715228999426605,36.09446859390736,-104.27510100388527,80.21211738781929
2024-09-23 16:09:23.526561,40.61,34.00983,-0.0030344509719951677,-0.023230986250042305,0.09705279702197278,36.09446859390736,-104.27510100388527,80.21211738781929
2024-09-23 16:09:23.537987,40.61,34.009922,-0.0030344509719951677,-0.023230986250042305,0.09705279702197278,24.06297849342227,-96.25519929585457,72.1922225099802
2024-09-23 16:09:23.581439,40.61,34.009922,-0.0033329230534799477,-0.023579196463302005,0.09670458680871308,36.09446859390736,-100.26678939585686,80.21211738781929
2024-09-23 16:09:23.624514,40.61,34.01002,-0.0031836870127375577,-0.023579196463302005,0.09670458680871308,36.09446859390736,-100.26678939585686,80.21211738781929
2024-09-23 16:09:23.636133,40.61,34.01002,-0.0031836870127375577,-0.02278327698858263,0.0970030596496862,36.09446859390736,-100.26678939585686,80.21211738781929
2024-09-23 16:09:23.729886,40.61,34.010072,-0.0028852147413806935,-0.02367869399252531,0.09680407370509965,40.106058693909645,-100.26678939585686,80.21211738781929
2024-09-23 16:09:23.772741,40.61,34.010123,-0.0028852147413806935,-0.02367869399252531,0.09680407370509965,40.106058693909645,-100.26678939585686,76.200527287817
2024-09-23 16:09:23.784430,40.61,34.010123,-0.0033329230534799477,-0.023579196463302005,0.09680407370509965,40.106058693909645,-100.26678939585686,76.200527287817
2024-09-23 16:09:23.828766,40.61,34.010173,-0.0029847020175114316,-0.023579196463302005,0.09750050628343246,48.12595698684454,-96.25519929585457,76.200527287817
2024-09-23 16:09:23.871791,40.61,34.010173,-0.0029847020175114316,-0.02308174982955575,0.09695331012558621,36.09446859390736,-100.26678939585686,76.200527287817
2024-09-23 16:09:23.883840,40.61,34.010224,-0.0029847020175114316,-0.02308174982955575,0.09695331012558621,36.09446859390736,-100.26678939585686,76.200527287817
2024-09-23 16:09:23.916584,40.61,34.010224,-0.0031836870127375577,-0.02308174982955575,0.09695331012558621,36.09446859390736,-100.26678939585686,76.200527287817
2024-09-23 16:09:23.927604,40.61,34.010224,-0.0031836870127375577,-0.023280723622328886,0.09695331012558621,32.08287849390507,-100.26678939585686,80.21211738781929
2024-09-23 16:09:23.971008,40.51,34.010312,-0.0024872551938930902,-0.023181236725942318,0.09755024973162574,32.08287849390507,-100.26678939585686,80.21211738781929
2024-09-23 16:09:23.983144,40.51,34.010312,-0.0024872551938930902,-0.023181236725942318,0.09755024973162574,32.08287849390507,-100.26678939585686,80.21211738781929
2024-09-23 16:09:24.016315,40.51,34.01041,-0.0032831742888682963,-0.023181236725942318,0.09755024973162574,32.08287849390507,-100.26678939585686,80.21211738781929
2024-09-23 16:09:24.027618,40.51,34.01041,-0.0032831742888682963,-0.02293251340906919,0.09695331012558621,48.12595698684454,-100.26678939585686,80.21211738781929
2024-09-23 16:09:24.070276,40.51,34.010462,-0.0028852147413806935,-0.022982261414192504,0.09695331012558621,48.12595698684454,-96.25519929585457,76.200527287817
2024-09-23 16:09:24.111899,40.51,34.010462,-0.0028852147413806935,-0.022982261414192504,0.09695331012558621,52.137550501942634,-92.24360919585227,76.200527287817
2024-09-23 16:09:24.123634,40.51,34.010512,-0.0029349636958644295,-0.02308174982955575,0.09695331012558621,52.137550501942634,-92.24360919585227,80.21211738781929
2024-09-23 16:09:24.166081,40.51,34.010563,-0.0029349636958644295,-0.02308174982955575,0.09759999317981902,44.11764879391193,-96.25519929585457,84.22370748782159
2024-09-23 16:09:24.178126,40.51,34.010563,-0.0026862297461545674,-0.02308174982955575,0.09759999317981902,44.11764879391193,-96.25519929585457,84.22370748782159
2024-09-23 16:09:24.209780,40.51,34.010563,-0.0026862297461545674,-0.023579196463302005,0.09755024973162574,44.11764879391193,-96.25519929585457,84.22370748782159
2024-09-23 16:09:24.220802,40.51,34.010654,-0.0026862297461545674,-0.023579196463302005,0.09755024973162574,28.07457030097246,-96.25519929585457,80.21211738781929
2024-09-23 16:09:24.263724,40.51,34.010654,-0.0030344509719951677,-0.02308174982955575,0.0973512698629459,36.09446859390736,-96.25519929585457,80.21211738781929
2024-09-23 16:09:24.275383,40.51,34.010654,-0.0030344509719951677,-0.02308174982955575,0.0973512698629459,36.09446859390736,-96.25519929585457,76.200527287817
2024-09-23 16:09:24.307379,40.51,34.010705,-0.003233425524256645,-0.02308174982955575,0.0973512698629459,36.09446859390736,-96.25519929585457,76.200527287817
2024-09-23 16:09:24.318611,40.51,34.010705,-0.003233425524256645,-0.0224350561424862,0.09685382322919964,36.09446859390736,-104.27510100388527,76.200527287817
2024-09-23 16:09:24.360881,40.51,34.010756,-0.0029349636958644295,-0.023181236725942318,0.09759999317981902,36.09446859390736,-104.27510100388527,80.21211738781929
2024-09-23 16:09:24.373085,40.51,34.010756,-0.0029349636958644295,-0.023181236725942318,0.09759999317981902,32.08287849390507,-104.27510100388527,80.21211738781929
2024-09-23 16:09:24.406319,40.51,34.010806,-0.0029349636958644295,-0.023181236725942318,0.09759999317981902,32.08287849390507,-100.26678939585686,84.22370748782159
2024-09-23 16:09:24.418123,40.51,34.010806,-0.0031339382481259063,-0.023181236725942318,0.09759999317981902,32.08287849390507,-100.26678939585686,84.22370748782159
2024-09-23 16:09:24.460413,40.51,34.010857,-0.0031339382481259063,-0.02352945757203875,0.09750050628343246,36.09446859390736,-100.26678939585686,84.22370748782159
2024-09-23 16:09:24.502932,40.51,34.010857,-0.0030841997366068195,-0.023181236725942318,0.09750050628343246,36.09446859390736,-100.26678939585686,84.22370748782159
2024-09-23 16:09:24.514494,40.51,34.010857,-0.0030841997366068195,-0.023181236725942318,0.09685382322919964,36.09446859390736,-92.24360919585227,80.21211738781929
2024-09-23 16:09:24.557798,40.51,34.010908,-0.0029847020175114316,-0.02308174982955575,0.0973015264147526,32.08287849390507,-96.25519929585457,80.21211738781929
2024-09-23 16:09:24.600111,40.51,34.010995,-0.0029847020175114316,-0.02308174982955575,0.0973015264147526,32.08287849390507,-96.25519929585457,80.21211738781929
2024-09-23 16:09:24.611271,40.51,34.010995,-0.0030344509719951677,-0.023181236725942318,0.09774922960030558,32.08287849390507,-96.25519929585457,80.21211738781929
2024-09-23 16:09:24.654229,40.51,34.011046,-0.003382661564999035,-0.02338022115155219,0.09675432418099966,32.08287849390507,-104.27510100388527,80.21211738781929
2024-09-23 16:09:24.696830,40.51,34.011046,-0.003382661564999035,-0.02338022115155219,0.09675432418099966,40.106058693909645,-96.25519929585457,80.21211738781929
2024-09-23 16:09:24.708652,40.51,34.011097,-0.0033329230534799477,-0.023280723622328886,0.09675432418099966,40.106058693909645,-96.25519929585457,76.200527287817
2024-09-23 16:09:24.751946,40.51,34.011147,-0.0028852147413806935,-0.023280723622328886,0.09725178296655933,32.08287849390507,-96.25519929585457,80.21211738781929
2024-09-23 16:09:24.794727,40.51,34.011147,-0.0028852147413806935,-0.023330473146428877,0.0976994861521123,32.08287849390507,-96.25519929585457,80.21211738781929
2024-09-23 16:09:24.806666,40.51,34.011239,-0.0028852147413806935,-0.023330473146428877,0.0976994861521123,36.09446859390736,-96.25519929585457,84.22370748782159
2024-09-23 16:09:24.849770,40.51,34.011239,-0.0030841997366068195,-0.02352945757203875,0.0973512698629459,40.106058693909645,-96.25519929585457,84.22370748782159
2024-09-23 16:09:24.861663,40.51,34.011239,-0.0030841997366068195,-0.02352945757203875,0.0973512698629459,40.106058693909645,-96.25519929585457,80.21211738781929
2024-09-23 16:09:24.893791,40.51,34.01129,-0.0028354659767690416,-0.023429960042815445,0.0973512698629459,40.106058693909645,-96.25519929585457,80.21211738781929
2024-09-23 16:09:24.905364,40.51,34.01129,-0.0028354659767690416,-0.023429960042815445,0.09650560086412653,40.106058693909645,-96.25519929585457,80.21211738781929
2024-09-23 16:09:24.948014,40.51,34.011341,-0.0032831742888682963,-0.023429960042815445,0.09715228999426605,36.09446859390736,-96.25519929585457,80.21211738781929
2024-09-23 16:09:24.990538,40.89,34.011341,-0.0032831742888682963,-0.023429960042815445,0.09715228999426605,36.09446859390736,-104.27510100388527,80.21211738781929
2024-09-23 16:09:25.043627,40.89,34.011391,-0.003382661564999035,-0.02303200030545576,0.09655535038822652,36.09446859390736,-104.27510100388527,80.21211738781929
2024-09-23 16:09:25.055782,40.89,34.011391,-0.003382661564999035,-0.02303200030545576,0.09655535038822652,36.09446859390736,-96.25519929585457,80.21211738781929
2024-09-23 16:09:25.087668,40.89,34.011442,-0.003382661564999035,-0.02303200030545576,0.09655535038822652,36.09446859390736,-96.25519929585457,80.21211738781929
2024-09-23 16:09:25.099472,40.89,34.011442,-0.0029349636958644295,-0.02352945757203875,0.09685382322919964,32.08287849390507,-96.25519929585457,80.21211738781929
2024-09-23 16:09:25.142648,40.89,34.011493,-0.0035816467500972456,-0.02367869399252531,0.09685382322919964,32.08287849390507,-96.25519929585457,80.21211738781929
2024-09-23 16:09:25.153996,40.89,34.011493,-0.0035816467500972456,-0.02367869399252531,0.09715228999426605,32.08287849390507,-96.25519929585457,80.21211738781929
2024-09-23 16:09:25.186476,40.89,34.011493,-0.0035816467500972456,-0.02367869399252531,0.09715228999426605,44.11764879391193,-88.23529758782387,80.21211738781929
2024-09-23 16:09:25.197842,40.89,34.01158,-0.0032831742888682963,-0.02303200030545576,0.09715228999426605,44.11764879391193,-88.23529758782387,80.21211738781929
2024-09-23 16:09:25.240676,40.89,34.011631,-0.0028354659767690416,-0.02303200030545576,0.09680407370509965,40.106058693909645,-92.24360919585227,80.21211738781929
2024-09-23 16:09:25.283765,40.89,34.011631,-0.0028354659767690416,-0.0228827638849692,0.09710254654607277,36.09446859390736,-92.24360919585227,80.21211738781929
2024-09-23 16:09:25.294711,40.89,34.011726,-0.0028354659767690416,-0.0228827638849692,0.09710254654607277,36.09446859390736,-100.26678939585686,84.22370748782159
2024-09-23 16:09:25.378633,40.89,34.011726,-0.0033329230534799477,-0.0228827638849692,0.09710254654607277,36.09446859390736,-100.26678939585686,84.22370748782159
2024-09-23 16:09:25.391954,40.89,34.011726,-0.0033329230534799477,-0.02263404056809607,0.0966050877605131,36.09446859390736,-92.24360919585227,80.21211738781929
2024-09-23 16:09:25.435697,40.89,34.011778,-0.0035318979854855937,-0.022982261414192504,0.09750050628343246,24.06297849342227,-92.24360919585227,80.21211738781929
2024-09-23 16:09:25.479134,40.89,34.011828,-0.0027359787006383035,-0.022982261414192504,0.09750050628343246,24.06297849342227,-92.24360919585227,84.22370748782159
2024-09-23 16:09:25.490855,40.89,34.011828,-0.0027359787006383035,-0.023181236725942318,0.09715228999426605,28.07457030097246,-92.24360919585227,84.22370748782159
2024-09-23 16:09:25.534266,40.89,34.011879,-0.002636491424507565,-0.022982261414192504,0.09705279702197278,28.07457030097246,-100.26678939585686,80.21211738781929
2024-09-23 16:09:25.576579,40.89,34.011879,-0.002636491424507565,-0.022982261414192504,0.09705279702197278,40.106058693909645,-100.26678939585686,80.21211738781929
2024-09-23 16:09:25.588041,40.89,34.01193,-0.0025369937054121774,-0.023429960042815445,0.09705279702197278,40.106058693909645,-100.26678939585686,80.21211738781929
2024-09-23 16:09:25.630612,40.89,34.012021,-0.0030344509719951677,-0.023429960042815445,0.0973015264147526,40.106058693909645,-96.25519929585457,84.22370748782159
2024-09-23 16:09:25.674157,40.89,34.012021,-0.0030344509719951677,-0.023429960042815445,0.09675432418099966,24.06297849342227,-96.25519929585457,84.22370748782159
2024-09-23 16:09:25.685588,40.89,34.012116,-0.0030344509719951677,-0.023429960042815445,0.09675432418099966,24.06297849342227,-96.25519929585457,84.22370748782159
2024-09-23 16:09:25.729008,40.89,34.012116,-0.0030344509719951677,-0.02308174982955575,0.09680407370509965,20.05138839341998,-100.26678939585686,88.23529758782387
2024-09-23 16:09:25.771426,40.89,34.012168,-0.0035318979854855937,-0.023479709566915436,0.09680407370509965,20.05138839341998,-100.26678939585686,88.23529758782387
2024-09-23 16:09:25.782877,40.89,34.012168,-0.0035318979854855937,-0.023479709566915436,0.09720203344245934,32.08287849390507,-96.25519929585457,88.23529758782387
2024-09-23 16:09:25.825752,40.89,34.012218,-0.0030344509719951677,-0.022484804147609512,0.09745075675933246,36.09446859390736,-96.25519929585457,84.22370748782159
2024-09-23 16:09:25.868263,40.89,34.012269,-0.0030344509719951677,-0.022484804147609512,0.09745075675933246,36.09446859390736,-100.26678939585686,80.21211738781929
2024-09-23 16:09:25.879313,40.89,34.012269,-0.0027359787006383035,-0.02338022115155219,0.0962568775472534,36.09446859390736,-100.26678939585686,80.21211738781929
2024-09-23 16:09:25.921973,40.89,34.01232,-0.002636491424507565,-0.022982261414192504,0.0962568775472534,40.106058693909645,-92.24360919585227,80.21211738781929
2024-09-23 16:09:25.963997,40.89,34.01232,-0.002636491424507565,-0.022982261414192504,0.09715228999426605,52.137550501942634,-92.24360919585227,80.21211738781929
2024-09-23 16:09:25.975541,40.89,34.012371,-0.002785727465249955,-0.022982261414192504,0.09715228999426605,52.137550501942634,-96.25519929585457,72.1922225099802
2024-09-23 16:09:26.017377,40.65,34.012371,-0.002785727465249955,-0.02338022115155219,0.09690356060148622,48.12595698684454,-96.25519929585457,72.1922225099802
2024-09-23 16:09:26.030860,40.65,34.012457,-0.002785727465249955,-0.02338022115155219,0.09690356060148622,48.12595698684454,-96.25519929585457,84.22370748782159
2024-09-23 16:09:26.063967,40.65,34.012457,-0.0026862297461545674,-0.02313149783467906,0.09685382322919964,48.12595698684454,-96.25519929585457,84.22370748782159
2024-09-23 16:09:26.075467,40.65,34.012457,-0.0026862297461545674,-0.02313149783467906,0.09685382322919964,28.07457030097246,-100.26678939585686,80.21211738781929
2024-09-23 16:09:26.118049,40.65,34.012509,-0.0029847020175114316,-0.02313149783467906,0.09750050628343246,16.039798293417693,-96.25519929585457,80.21211738781929
2024-09-23 16:09:26.160385,40.65,34.01256,-0.0032831742888682963,-0.02313149783467906,0.09750050628343246,16.039798293417693,-96.25519929585457,80.21211738781929
2024-09-23 16:09:26.171428,40.65,34.01256,-0.0032831742888682963,-0.02313149783467906,0.0973512698629459,24.06297849342227,-96.25519929585457,80.21211738781929
2024-09-23 16:09:26.213786,40.65,34.01261,-0.002785727465249955,-0.023479709566915436,0.0973512698629459,24.06297849342227,-100.26678939585686,84.22370748782159
2024-09-23 16:09:26.256437,40.65,34.01261,-0.002785727465249955,-0.023479709566915436,0.09710254654607277,24.06297849342227,-100.26678939585686,84.22370748782159
2024-09-23 16:09:26.267807,40.65,34.012661,-0.003482159473966507,-0.023479709566915436,0.09710254654607277,40.106058693909645,-104.27510100388527,72.1922225099802
2024-09-23 16:09:26.311309,40.65,34.012661,-0.003482159473966507,-0.023230986250042305,0.09720203344245934,44.11764879391193,-100.26678939585686,76.200527287817
2024-09-23 16:09:26.323086,40.65,34.012712,-0.003482159473966507,-0.023230986250042305,0.09720203344245934,44.11764879391193,-100.26678939585686,76.200527287817
2024-09-23 16:09:26.406984,40.65,34.012712,-0.0028354659767690416,-0.02352945757203875,0.09755024973162574,48.12595698684454,-100.26678939585686,76.200527287817
2024-09-23 16:09:26.418923,40.65,34.012712,-0.0028354659767690416,-0.02352945757203875,0.09755024973162574,48.12595698684454,-96.25519929585457,84.22370748782159
2024-09-23 16:09:26.450911,40.65,34.012799,-0.0028354659767690416,-0.02352945757203875,0.09755024973162574,48.12595698684454,-96.25519929585457,84.22370748782159
2024-09-23 16:09:26.462640,40.65,34.012799,-0.0030344509719951677,-0.022733528983459317,0.09745075675933246,32.08287849390507,-104.27510100388527,84.22370748782159
2024-09-23 16:09:26.505582,40.65,34.01285,-0.0025369937054121774,-0.02308174982955575,0.09670458680871308,32.08287849390507,-104.27510100388527,76.200527287817
2024-09-23 16:09:26.517626,40.65,34.01285,-0.0025369937054121774,-0.02308174982955575,0.09670458680871308,32.08287849390507,-104.27510100388527,76.200527287817
2024-09-23 16:09:26.549935,40.65,34.01285,-0.0025369937054121774,-0.02308174982955575,0.09670458680871308,32.08287849390507,-100.26678939585686,80.21211738781929
2024-09-23 16:09:26.561392,40.65,34.012901,-0.0031836870127375577,-0.02338022115155219,0.09750050628343246,32.08287849390507,-100.26678939585686,80.21211738781929
2024-09-23 16:09:26.604251,40.65,34.012951,-0.002636491424507565,-0.02308174982955575,0.09750050628343246,44.11764879391193,-104.27510100388527,80.21211738781929
2024-09-23 16:09:26.646456,40.65,34.012951,-0.002636491424507565,-0.02308174982955575,0.09680407370509965,36.09446859390736,-104.27510100388527,80.21211738781929
2024-09-23 16:09:26.658375,40.65,34.013045,-0.0029847020175114316,-0.02308174982955575,0.09680407370509965,36.09446859390736,-104.27510100388527,84.22370748782159
2024-09-23 16:09:26.701718,40.65,34.01314,-0.0029847020175114316,-0.023230986250042305,0.09715228999426605,52.137550501942634,-100.26678939585686,80.21211738781929
2024-09-23 16:09:26.744327,40.65,34.01314,-0.003233425524256645,-0.02352945757203875,0.09715228999426605,52.137550501942634,-100.26678939585686,80.21211738781929
2024-09-23 16:09:26.755958,40.65,34.01314,-0.003233425524256645,-0.02352945757203875,0.09745075675933246,44.11764879391193,-96.25519929585457,80.21211738781929
2024-09-23 16:09:26.799311,40.65,34.013191,-0.0029349636958644295,-0.02313149783467906,0.09665483728461309,24.06297849342227,-100.26678939585686,80.21211738781929
2024-09-23 16:09:26.841916,40.65,34.013242,-0.0029349636958644295,-0.02313149783467906,0.09665483728461309,24.06297849342227,-100.26678939585686,76.200527287817
2024-09-23 16:09:26.852985,40.65,34.013242,-0.003482159473966507,-0.02293251340906919,0.09675432418099966,28.07457030097246,-100.26678939585686,76.200527287817
2024-09-23 16:09:26.895189,40.65,34.013293,-0.0032831742888682963,-0.023181236725942318,0.09675432418099966,28.07457030097246,-96.25519929585457,76.200527287817
2024-09-23 16:09:26.907150,40.65,34.013293,-0.0032831742888682963,-0.023181236725942318,0.09725178296655933,28.07457030097246,-96.25519929585457,76.200527287817
2024-09-23 16:09:26.939741,40.65,34.013293,-0.0032831742888682963,-0.023181236725942318,0.09725178296655933,36.09446859390736,-92.24360919585227,76.200527287817
2024-09-23 16:09:26.950868,40.65,34.013343,-0.0030344509719951677,-0.02308174982955575,0.09725178296655933,36.09446859390736,-92.24360919585227,80.21211738781929
2024-09-23 16:09:26.993271,40.65,34.013394,-0.0030344509719951677,-0.02308174982955575,0.09655535038822652,36.09446859390736,-96.25519929585457,72.1922225099802
2024-09-23 16:09:27.005559,40.65,34.013394,-0.0030344509719951677,-0.02308174982955575,0.09655535038822652,36.09446859390736,-96.25519929585457,72.1922225099802
2024-09-23 16:09:27.038428,40.92,34.013394,-0.0030344509719951677,-0.023181236725942318,0.09720203344245934,44.11764879391193,-96.25519929585457,72.1922225099802
2024-09-23 16:09:27.049661,40.92,34.013481,-0.0030344509719951677,-0.023181236725942318,0.09720203344245934,44.11764879391193,-100.26678939585686,84.22370748782159
2024-09-23 16:09:27.091572,40.92,34.013481,-0.0031836870127375577,-0.023479709566915436,0.09745075675933246,40.106058693909645,-100.26678939585686,80.21211738781929
2024-09-23 16:09:27.134069,40.92,34.013533,-0.0031836870127375577,-0.023479709566915436,0.09745075675933246,40.106058693909645,-100.26678939585686,80.21211738781929
2024-09-23 16:09:27.145834,40.92,34.013533,-0.003233425524256645,-0.02293251340906919,0.0970030596496862,36.09446859390736,-104.27510100388527,80.21211738781929
2024-09-23 16:09:27.188879,40.92,34.013583,-0.0030841997366068195,-0.02293251340906919,0.09710254654607277,36.09446859390736,-104.27510100388527,76.200527287817
2024-09-23 16:09:27.201123,40.92,34.013583,-0.0030841997366068195,-0.02293251340906919,0.09710254654607277,32.08287849390507,-104.27510100388527,76.200527287817
2024-09-23 16:09:27.233721,40.92,34.013634,-0.0030841997366068195,-0.02293251340906919,0.09710254654607277,32.08287849390507,-92.24360919585227,80.21211738781929
2024-09-23 16:09:27.244704,40.92,34.013634,-0.002586742470023829,-0.023429960042815445,0.0973512698629459,32.08287849390507,-92.24360919585227,80.21211738781929
2024-09-23 16:09:27.287959,40.92,34.013685,-0.0027359787006383035,-0.023330473146428877,0.0973512698629459,32.08287849390507,-92.24360919585227,84.22370748782159
2024-09-23 16:09:27.329930,40.92,34.013685,-0.0027359787006383035,-0.023330473146428877,0.09715228999426605,32.08287849390507,-92.24360919585227,84.22370748782159
2024-09-23 16:09:27.341133,40.92,34.013735,-0.0031339382481259063,-0.023330473146428877,0.09715228999426605,32.08287849390507,-96.25519929585457,76.200527287817
2024-09-23 16:09:27.435304,40.92,34.013823,-0.0031339382481259063,-0.022982261414192504,0.09710254654607277,40.106058693909645,-96.25519929585457,76.200527287817
2024-09-23 16:09:27.478982,40.92,34.013823,-0.003780631555451287,-0.02313149783467906,0.09774922960030558,40.106058693909645,-96.25519929585457,76.200527287817
2024-09-23 16:09:27.490661,40.92,34.013823,-0.003780631555451287,-0.02313149783467906,0.09774922960030558,40.106058693909645,-96.25519929585457,68.18063240997792
2024-09-23 16:09:27.522552,40.92,34.013874,-0.003780631555451287,-0.02313149783467906,0.09774922960030558,40.106058693909645,-96.25519929585457,68.18063240997792
2024-09-23 16:09:27.533663,40.92,34.013874,-0.003233425524256645,-0.02362894446842532,0.09779897304849887,40.106058693909645,-96.25519929585457,68.18063240997792
2024-09-23 16:09:27.575982,40.92,34.013874,-0.003233425524256645,-0.02362894446842532,0.09779897304849887,40.106058693909645,-92.24360919585227,68.18063240997792
2024-09-23 16:09:27.629014,40.92,34.013925,-0.003382661564999035,-0.023181236725942318,0.09690356060148622,32.08287849390507,-92.24360919585227,76.200527287817
2024-09-23 16:09:27.673120,40.92,34.013925,-0.003382661564999035,-0.023181236725942318,0.09690356060148622,32.08287849390507,-104.27510100388527,76.200527287817
2024-09-23 16:09:27.685032,40.92,34.013975,-0.002586742470023829,-0.02303200030545576,0.09665483728461309,32.08287849390507,-104.27510100388527,76.200527287817
2024-09-23 16:09:27.719300,40.92,34.013975,-0.002586742470023829,-0.02303200030545576,0.09665483728461309,24.06297849342227,-104.27510100388527,76.200527287817
2024-09-23 16:09:27.731185,40.92,34.014068,-0.003382661564999035,-0.02352945757203875,0.09665483728461309,24.06297849342227,-104.27510100388527,80.21211738781929
2024-09-23 16:09:27.772829,40.92,34.014119,-0.003382661564999035,-0.02352945757203875,0.09685382322919964,36.09446859390736,-96.25519929585457,84.22370748782159
2024-09-23 16:09:27.784582,40.92,34.014119,-0.0028852147413806935,-0.02352945757203875,0.09685382322919964,36.09446859390736,-96.25519929585457,84.22370748782159
2024-09-23 16:09:27.816466,40.92,34.014119,-0.0028852147413806935,-0.02313149783467906,0.09685382322919964,36.09446859390736,-96.25519929585457,84.22370748782159
2024-09-23 16:09:27.828713,40.92,34.014213,-0.0028852147413806935,-0.02313149783467906,0.0973015264147526,32.08287849390507,-96.25519929585457,80.21211738781929
2024-09-23 16:09:27.871528,40.92,34.014213,-0.002387757474797703,-0.02313149783467906,0.09675432418099966,40.106058693909645,-92.24360919585227,84.22370748782159
2024-09-23 16:09:27.914252,40.92,34.01431,-0.0030344509719951677,-0.02313149783467906,0.09675432418099966,40.106058693909645,-92.24360919585227,84.22370748782159
2024-09-23 16:09:27.925790,40.92,34.01431,-0.0030344509719951677,-0.02263404056809607,0.09720203344245934,36.09446859390736,-96.25519929585457,84.22370748782159
2024-09-23 16:09:27.968261,40.92,34.014362,-0.0029847020175114316,-0.02313149783467906,0.09685382322919964,36.09446859390736,-96.25519929585457,80.21211738781929
2024-09-23 16:09:27.980465,40.92,34.014362,-0.0029847020175114316,-0.02313149783467906,0.09685382322919964,32.08287849390507,-96.25519929585457,80.21211738781929
2024-09-23 16:09:28.012072,40.92,34.014362,-0.0029847020175114316,-0.02313149783467906,0.09685382322919964,32.08287849390507,-96.25519929585457,80.21211738781929
2024-09-23 16:09:28.023527,40.92,34.014413,-0.0031339382481259063,-0.023280723622328886,0.0973512698629459,32.08287849390507,-96.25519929585457,80.21211738781929
2024-09-23 16:09:28.066000,40.82,34.014463,-0.0029349636958644295,-0.023280723622328886,0.0973512698629459,36.09446859390736,-96.25519929585457,80.21211738781929
2024-09-23 16:09:28.078243,40.82,34.014463,-0.0029349636958644295,-0.023330473146428877,0.0973512698629459,36.09446859390736,-96.25519929585457,80.21211738781929
2024-09-23 16:09:28.112374,40.82,34.014463,-0.0029349636958644295,-0.023330473146428877,0.09809744588947199,32.08287849390507,-96.25519929585457,80.21211738781929
2024-09-23 16:09:28.124253,40.82,34.014514,-0.003233425524256645,-0.023330473146428877,0.09809744588947199,32.08287849390507,-96.25519929585457,76.200527287817
2024-09-23 16:09:28.156952,40.82,34.014514,-0.003233425524256645,-0.02338022115155219,0.09809744588947199,32.08287849390507,-96.25519929585457,76.200527287817
2024-09-23 16:09:28.168369,40.82,34.014602,-0.003233425524256645,-0.02338022115155219,0.09690356060148622,36.09446859390736,-96.25519929585457,80.21211738781929
2024-09-23 16:09:28.211259,40.82,34.014602,-0.0028354659767690416,-0.02338022115155219,0.0970030596496862,36.09446859390736,-96.25519929585457,80.21211738781929
2024-09-23 16:09:28.222895,40.82,34.014602,-0.0028354659767690416,-0.02338022115155219,0.0970030596496862,36.09446859390736,-96.25519929585457,76.200527287817
2024-09-23 16:09:28.256246,40.82,34.014654,-0.0032831742888682963,-0.02338022115155219,0.0970030596496862,36.09446859390736,-96.25519929585457,76.200527287817
2024-09-23 16:09:28.268172,40.82,34.014654,-0.0032831742888682963,-0.023778180888911878,0.0970030596496862,40.106058693909645,-100.26678939585686,76.200527287817
2024-09-23 16:09:28.310823,40.82,34.014705,-0.0032831742888682963,-0.02338022115155219,0.09705279702197278,40.106058693909645,-100.26678939585686,80.21211738781929
2024-09-23 16:09:28.323142,40.82,34.014705,-0.0032831742888682963,-0.02338022115155219,0.09705279702197278,40.106058693909645,-100.26678939585686,80.21211738781929
2024-09-23 16:09:28.356614,40.82,34.014755,-0.003382661564999035,-0.02338022115155219,0.09705279702197278,40.106058693909645,-96.25519929585457,80.21211738781929
2024-09-23 16:09:28.367679,40.82,34.014755,-0.003382661564999035,-0.02367869399252531,0.09670458680871308,40.106058693909645,-96.25519929585457,80.21211738781929
2024-09-23 16:09:28.452655,40.82,34.014755,-0.003382661564999035,-0.02367869399252531,0.09670458680871308,28.07457030097246,-96.25519929585457,80.21211738781929
2024-09-23 16:09:28.464109,40.82,34.014806,-0.003233425524256645,-0.023827930413011865,0.09670458680871308,28.07457030097246,-96.25519929585457,80.21211738781929
2024-09-23 16:09:28.507026,40.82,34.014857,-0.003382661564999035,-0.023827930413011865,0.0973512698629459,40.106058693909645,-96.25519929585457,76.200527287817
2024-09-23 16:09:28.551288,40.82,34.014857,-0.003382661564999035,-0.02338022115155219,0.09710254654607277,36.09446859390736,-96.25519929585457,76.200527287817
2024-09-23 16:09:28.562936,40.82,34.014944,-0.003382661564999035,-0.02338022115155219,0.09710254654607277,36.09446859390736,-92.24360919585227,84.22370748782159
2024-09-23 16:09:28.596819,40.82,34.014944,-0.0026862297461545674,-0.02308174982955575,0.09710254654607277,36.09446859390736,-92.24360919585227,84.22370748782159
2024-09-23 16:09:28.608511,40.82,34.014944,-0.0026862297461545674,-0.02308174982955575,0.09759999317981902,44.11764879391193,-96.25519929585457,84.22370748782159
2024-09-23 16:09:28.650437,40.82,34.014995,-0.0029349636958644295,-0.023330473146428877,0.09695331012558621,40.106058693909645,-96.25519929585457,84.22370748782159
2024-09-23 16:09:28.662277,40.82,34.014995,-0.0029349636958644295,-0.023330473146428877,0.09695331012558621,40.106058693909645,-96.25519929585457,84.22370748782159
2024-09-23 16:09:28.694474,40.82,34.015091,-0.0029349636958644295,-0.023330473146428877,0.09695331012558621,40.106058693909645,-96.25519929585457,84.22370748782159
2024-09-23 16:09:28.705893,40.82,34.015091,-0.0027359787006383035,-0.022484804147609512,0.09720203344245934,36.09446859390736,-96.25519929585457,84.22370748782159
2024-09-23 16:09:28.748375,40.82,34.015142,-0.0027359787006383035,-0.022484804147609512,0.09720203344245934,36.09446859390736,-100.26678939585686,84.22370748782159
2024-09-23 16:09:28.791660,40.82,34.015142,-0.0029847020175114316,-0.023579196463302005,0.09720203344245934,36.09446859390736,-100.26678939585686,84.22370748782159
2024-09-23 16:09:28.803095,40.82,34.015142,-0.0029847020175114316,-0.023579196463302005,0.09710254654607277,32.08287849390507,-104.27510100388527,84.22370748782159
2024-09-23 16:09:28.846459,40.82,34.015193,-0.0037308827908396356,-0.02278327698858263,0.09725178296655933,32.08287849390507,-104.27510100388527,84.22370748782159
2024-09-23 16:09:28.858136,40.82,34.015193,-0.0037308827908396356,-0.02278327698858263,0.09725178296655933,32.08287849390507,-88.23529758782387,84.22370748782159
2024-09-23 16:09:28.889808,40.82,34.015243,-0.0037308827908396356,-0.02278327698858263,0.09725178296655933,32.08287849390507,-88.23529758782387,96.25519929585457
2024-09-23 16:09:28.901165,40.82,34.015243,-0.0027359787006383035,-0.02308174982955575,0.09750050628343246,36.09446859390736,-88.23529758782387,96.25519929585457
2024-09-23 16:09:28.942914,40.82,34.015334,-0.0022385316871478774,-0.023429960042815445,0.09750050628343246,36.09446859390736,-104.27510100388527,80.21211738781929
2024-09-23 16:09:28.955527,40.82,34.015334,-0.0022385316871478774,-0.023429960042815445,0.0966050877605131,36.09446859390736,-104.27510100388527,80.21211738781929
2024-09-23 16:09:28.988024,40.82,34.015334,-0.0022385316871478774,-0.023429960042815445,0.0966050877605131,40.106058693909645,-96.25519929585457,80.21211738781929
2024-09-23 16:09:28.998981,40.82,34.015385,-0.0030841997366068195,-0.0228827638849692,0.0966050877605131,40.106058693909645,-96.25519929585457,84.22370748782159
2024-09-23 16:09:29.041039,40.82,34.015435,-0.0030841997366068195,-0.0228827638849692,0.09690356060148622,44.11764879391193,-96.25519929585457,76.200527287817
2024-09-23 16:09:29.053277,40.82,34.015435,-0.0031339382481259063,-0.0228827638849692,0.09690356060148622,44.11764879391193,-96.25519929585457,76.200527287817
2024-09-23 16:09:29.086606,40.85,34.015435,-0.0031339382481259063,-0.02367869399252531,0.09665483728461309,40.106058693909645,-96.25519929585457,76.200527287817
2024-09-23 16:09:29.098065,40.85,34.015529,-0.0031339382481259063,-0.02367869399252531,0.09665483728461309,40.106058693909645,-96.25519929585457,80.21211738781929
2024-09-23 16:09:29.140748,40.85,34.015529,-0.0033329230534799477,-0.02308174982955575,0.09715228999426605,36.09446859390736,-100.26678939585686,80.21211738781929
2024-09-23 16:09:29.183086,40.85,34.01558,-0.0029847020175114316,-0.02308174982955575,0.09715228999426605,36.09446859390736,-100.26678939585686,80.21211738781929
2024-09-23 16:09:29.195055,40.85,34.01558,-0.0029847020175114316,-0.02263404056809607,0.0973512698629459,32.08287849390507,-100.26678939585686,80.21211738781929
2024-09-23 16:09:29.237981,40.85,34.015631,-0.0032831742888682963,-0.023330473146428877,0.09705279702197278,32.08287849390507,-100.26678939585686,80.21211738781929
2024-09-23 16:09:29.280270,40.85,34.015631,-0.0032831742888682963,-0.023330473146428877,0.09705279702197278,32.08287849390507,-112.29828120388984,84.22370748782159
2024-09-23 16:09:29.292049,40.85,34.015682,-0.003233425524256645,-0.023479709566915436,0.0973512698629459,32.08287849390507,-112.29828120388984,84.22370748782159
2024-09-23 16:09:29.334779,40.85,34.015732,-0.0027359787006383035,-0.023479709566915436,0.0973512698629459,32.08287849390507,-100.26678939585686,80.21211738781929
2024-09-23 16:09:29.346928,40.85,34.015732,-0.0027359787006383035,-0.022982261414192504,0.0973512698629459,32.08287849390507,-100.26678939585686,80.21211738781929
2024-09-23 16:09:29.378635,40.85,34.015732,-0.0027359787006383035,-0.022982261414192504,0.09725178296655933,44.11764879391193,-96.25519929585457,80.21211738781929
2024-09-23 16:09:29.389685,40.85,34.015783,-0.003233425524256645,-0.022982261414192504,0.09725178296655933,44.11764879391193,-96.25519929585457,76.200527287817
2024-09-23 16:09:29.431794,40.85,34.01587,-0.003233425524256645,-0.02293251340906919,0.0973015264147526,36.09446859390736,-104.27510100388527,80.21211738781929
2024-09-23 16:09:29.475540,40.85,34.01587,-0.0026862297461545674,-0.02313149783467906,0.09640611396773996,36.09446859390736,-104.27510100388527,80.21211738781929
2024-09-23 16:09:29.486831,40.85,34.01587,-0.0026862297461545674,-0.02313149783467906,0.09640611396773996,36.09446859390736,-96.25519929585457,76.200527287817
2024-09-23 16:09:29.529231,40.85,34.015921,-0.0031836870127375577,-0.02308174982955575,0.09685382322919964,36.09446859390736,-92.24360919585227,76.200527287817
2024-09-23 16:09:29.571547,40.85,34.015972,-0.0031836870127375577,-0.02308174982955575,0.09685382322919964,36.09446859390736,-92.24360919585227,92.24360919585227
2024-09-23 16:09:29.583549,40.85,34.015972,-0.0026862297461545674,-0.023181236725942318,0.09690356060148622,40.106058693909645,-92.24360919585227,92.24360919585227
2024-09-23 16:09:29.626859,40.85,34.016023,-0.0029847020175114316,-0.02293251340906919,0.09690356060148622,40.106058693909645,-100.26678939585686,80.21211738781929
2024-09-23 16:09:29.638310,40.85,34.016023,-0.0029847020175114316,-0.02293251340906919,0.0973015264147526,40.106058693909645,-100.26678939585686,80.21211738781929
2024-09-23 16:09:29.670453,40.85,34.016023,-0.0029847020175114316,-0.02293251340906919,0.0973015264147526,32.08287849390507,-104.27510100388527,80.21211738781929
2024-09-23 16:09:29.681343,40.85,34.016073,-0.0029349636958644295,-0.02303200030545576,0.0973015264147526,32.08287849390507,-104.27510100388527,80.21211738781929
2024-09-23 16:09:29.724807,40.85,34.016124,-0.0029349636958644295,-0.02303200030545576,0.0973015264147526,40.106058693909645,-96.25519929585457,80.21211738781929
2024-09-23 16:09:29.736442,40.85,34.016124,-0.0033329230534799477,-0.02303200030545576,0.0973015264147526,40.106058693909645,-96.25519929585457,80.21211738781929
2024-09-23 16:09:29.770692,40.85,34.016124,-0.0033329230534799477,-0.023479709566915436,0.09725178296655933,52.137550501942634,-96.25519929585457,80.21211738781929
2024-09-23 16:09:29.783432,40.85,34.016211,-0.0033329230534799477,-0.023479709566915436,0.09725178296655933,52.137550501942634,-92.24360919585227,80.21211738781929
2024-09-23 16:09:29.816252,40.85,34.016211,-0.0030841997366068195,-0.023479709566915436,0.09725178296655933,52.137550501942634,-92.24360919585227,80.21211738781929
2024-09-23 16:09:29.827537,40.85,34.016211,-0.0030841997366068195,-0.023230986250042305,0.0966050877605131,44.11764879391193,-100.26678939585686,84.22370748782159
2024-09-23 16:09:29.870381,40.85,34.016263,-0.0031339382481259063,-0.02308174982955575,0.09759999317981902,32.08287849390507,-100.26678939585686,84.22370748782159
2024-09-23 16:09:29.882084,40.85,34.016263,-0.0031339382481259063,-0.02308174982955575,0.09759999317981902,32.08287849390507,-100.26678939585686,84.22370748782159
2024-09-23 16:09:29.915777,40.85,34.016313,-0.003233425524256645,-0.02308174982955575,0.09759999317981902,32.08287849390507,-100.26678939585686,84.22370748782159
2024-09-23 16:09:29.927912,40.85,34.016313,-0.003233425524256645,-0.022982261414192504,0.09720203344245934,36.09446859390736,-100.26678939585686,84.22370748782159
2024-09-23 16:09:29.960017,40.85,34.016313,-0.003233425524256645,-0.022982261414192504,0.09720203344245934,36.09446859390736,-96.25519929585457,84.22370748782159
2024-09-23 16:09:29.971650,40.85,34.016364,-0.0028354659767690416,-0.022982261414192504,0.09720203344245934,36.09446859390736,-96.25519929585457,84.22370748782159
2024-09-23 16:09:30.014347,40.85,34.016364,-0.0028354659767690416,-0.023280723622328886,0.09705279702197278,40.106058693909645,-96.25519929585457,84.22370748782159
2024-09-23 16:09:30.025742,40.85,34.016415,-0.0028354659767690416,-0.023280723622328886,0.09705279702197278,40.106058693909645,-96.25519929585457,84.22370748782159
2024-09-23 16:09:30.057657,40.85,34.016415,-0.0026862297461545674,-0.023280723622328886,0.09705279702197278,40.106058693909645,-96.25519929585457,84.22370748782159
2024-09-23 16:09:30.069032,40.85,34.016415,-0.0026862297461545674,-0.023827930413011865,0.09725178296655933,28.07457030097246,-88.23529758782387,84.22370748782159
2024-09-23 16:09:30.112213,41.12,34.016465,-0.0023380189632786156,-0.023479709566915436,0.0976994861521123,28.07457030097246,-88.23529758782387,84.22370748782159
2024-09-23 16:09:30.123595,41.12,34.016465,-0.0023380189632786156,-0.023479709566915436,0.0976994861521123,48.12595698684454,-100.26678939585686,84.22370748782159
2024-09-23 16:09:30.155190,41.12,34.016465,-0.0023380189632786156,-0.023479709566915436,0.0976994861521123,48.12595698684454,-100.26678939585686,76.200527287817
2024-09-23 16:09:30.167418,41.12,34.016552,-0.0031836870127375577,-0.023230986250042305,0.09740101331113918,44.11764879391193,-100.26678939585686,76.200527287817
2024-09-23 16:09:30.210183,41.12,34.016604,-0.0030344509719951677,-0.023330473146428877,0.09740101331113918,44.11764879391193,-96.25519929585457,76.200527287817
2024-09-23 16:09:30.221880,41.12,34.016604,-0.0030344509719951677,-0.023330473146428877,0.09725178296655933,44.11764879391193,-96.25519929585457,76.200527287817
2024-09-23 16:09:30.254452,41.12,34.016604,-0.0030344509719951677,-0.023330473146428877,0.09725178296655933,36.09446859390736,-92.24360919585227,76.200527287817
2024-09-23 16:09:30.265804,41.12,34.016654,-0.0030841997366068195,-0.023181236725942318,0.09725178296655933,36.09446859390736,-92.24360919585227,80.21211738781929
2024-09-23 16:09:30.308641,41.12,34.016705,-0.0030841997366068195,-0.023181236725942318,0.09750050628343246,40.106058693909645,-88.23529758782387,92.24360919585227
2024-09-23 16:09:30.320411,41.12,34.016705,-0.002636491424507565,-0.023181236725942318,0.09750050628343246,40.106058693909645,-88.23529758782387,92.24360919585227
2024-09-23 16:09:30.352435,41.12,34.016705,-0.002636491424507565,-0.023827930413011865,0.09720203344245934,40.106058693909645,-88.23529758782387,92.24360919585227
2024-09-23 16:09:30.363563,41.12,34.016796,-0.002636491424507565,-0.023827930413011865,0.09720203344245934,28.07457030097246,-104.27510100388527,76.200527287817
2024-09-23 16:09:30.406074,41.12,34.016796,-0.0030841997366068195,-0.02308174982955575,0.09715228999426605,32.08287849390507,-96.25519929585457,76.200527287817
2024-09-23 16:09:30.419066,41.12,34.016796,-0.0030841997366068195,-0.02308174982955575,0.09715228999426605,32.08287849390507,-96.25519929585457,76.200527287817
2024-09-23 16:09:30.451531,41.12,34.016848,-0.0030841997366068195,-0.02308174982955575,0.09715228999426605,32.08287849390507,-96.25519929585457,76.200527287817
2024-09-23 16:09:30.544911,41.12,34.016848,-0.0032831742888682963,-0.02308174982955575,0.09715228999426605,32.08287849390507,-96.25519929585457,76.200527287817
2024-09-23 16:09:30.556686,41.12,34.016848,-0.0032831742888682963,-0.023280723622328886,0.0970030596496862,36.09446859390736,-100.26678939585686,84.22370748782159
2024-09-23 16:09:30.599776,41.12,34.016898,-0.0028354659767690416,-0.023280723622328886,0.0970030596496862,36.09446859390736,-100.26678939585686,84.22370748782159
2024-09-23 16:09:30.652990,41.12,34.016949,-0.0028354659767690416,-0.023181236725942318,0.09740101331113918,40.106058693909645,-96.25519929585457,84.22370748782159
2024-09-23 16:09:30.696611,41.12,34.016949,-0.002437506429281439,-0.022833026512682618,0.0973512698629459,44.11764879391193,-96.25519929585457,84.22370748782159
2024-09-23 16:09:30.708557,41.12,34.016949,-0.002437506429281439,-0.022833026512682618,0.0973512698629459,44.11764879391193,-92.24360919585227,88.23529758782387
2024-09-23 16:09:30.741975,41.12,34.017,-0.002586742470023829,-0.022833026512682618,0.0973512698629459,44.11764879391193,-92.24360919585227,88.23529758782387
2024-09-23 16:09:30.753389,41.12,34.017,-0.002586742470023829,-0.023280723622328886,0.09740101331113918,16.039798293417693,-96.25519929585457,88.23529758782387
2024-09-23 16:09:30.796530,41.12,34.017,-0.002586742470023829,-0.023280723622328886,0.09740101331113918,16.039798293417693,-96.25519929585457,88.23529758782387
2024-09-23 16:09:30.839440,41.12,34.01705,-0.002586742470023829,-0.023280723622328886,0.09740101331113918,16.039798293417693,-96.25519929585457,88.23529758782387
2024-09-23 16:09:30.850974,41.12,34.01705,-0.0027359787006383035,-0.023330473146428877,0.09725178296655933,32.08287849390507,-100.26678939585686,88.23529758782387
2024-09-23 16:09:30.893847,41.12,34.017189,-0.002387757474797703,-0.023230986250042305,0.0976994861521123,32.08287849390507,-100.26678939585686,84.22370748782159
2024-09-23 16:09:30.905957,41.12,34.017189,-0.002387757474797703,-0.023230986250042305,0.0976994861521123,52.137550501942634,-100.26678939585686,84.22370748782159
2024-09-23 16:09:30.938875,41.12,34.017286,-0.002387757474797703,-0.023230986250042305,0.0976994861521123,52.137550501942634,-96.25519929585457,84.22370748782159
2024-09-23 16:09:30.950231,41.12,34.017286,-0.003233425524256645,-0.023429960042815445,0.09784872257259886,52.137550501942634,-96.25519929585457,84.22370748782159
2024-09-23 16:09:30.993607,41.12,34.017337,-0.0033329230534799477,-0.023429960042815445,0.09784872257259886,48.12595698684454,-100.26678939585686,72.1922225099802
2024-09-23 16:09:31.036365,41.12,34.017337,-0.0033329230534799477,-0.023429960042815445,0.09705279702197278,40.106058693909645,-96.25519929585457,72.1922225099802
2024-09-23 16:09:31.048550,41.12,34.01743,-0.0033329230534799477,-0.023429960042815445,0.09705279702197278,40.106058693909645,-96.25519929585457,84.22370748782159
2024-09-23 16:09:31.091494,41.12,34.017527,-0.0033329230534799477,-0.02313149783467906,0.09685382322919964,28.07457030097246,-96.25519929585457,80.21211738781929
2024-09-23 16:09:31.133785,41.14,34.017527,-0.0029847020175114316,-0.02278327698858263,0.09755024973162574,28.07457030097246,-96.25519929585457,80.21211738781929
2024-09-23 16:09:31.145364,41.14,34.017527,-0.0029847020175114316,-0.02278327698858263,0.09755024973162574,28.07457030097246,-96.25519929585457,80.21211738781929
2024-09-23 16:09:31.187974,41.14,34.017579,-0.0030344509719951677,-0.023181236725942318,0.09745075675933246,40.106058693909645,-96.25519929585457,80.21211738781929
2024-09-23 16:09:31.230497,41.14,34.01763,-0.0029847020175114316,-0.023181236725942318,0.09745075675933246,40.106058693909645,-96.25519929585457,72.1922225099802
2024-09-23 16:09:31.282756,41.14,34.01763,-0.0029847020175114316,-0.023429960042815445,0.09705279702197278,32.08287849390507,-100.26678939585686,76.200527287817
2024-09-23 16:09:31.294807,41.14,34.01768,-0.0029847020175114316,-0.023429960042815445,0.09705279702197278,32.08287849390507,-100.26678939585686,76.200527287817
2024-09-23 16:09:31.328076,41.14,34.01768,-0.0024872551938930902,-0.022982261414192504,0.09725178296655933,32.08287849390507,-100.26678939585686,76.200527287817
2024-09-23 16:09:31.381012,41.14,34.017731,-0.003482159473966507,-0.022982261414192504,0.09725178296655933,40.106058693909645,-96.25519929585457,76.200527287817
2024-09-23 16:09:31.393025,41.14,34.017731,-0.003482159473966507,-0.02303200030545576,0.09725178296655933,40.106058693909645,-96.25519929585457,76.200527287817
2024-09-23 16:09:31.425645,41.14,34.017731,-0.003482159473966507,-0.02303200030545576,0.0973512698629459,32.08287849390507,-96.25519929585457,76.200527287817
2024-09-23 16:09:31.478153,41.14,34.017731,-0.003482159473966507,-0.02303200030545576,0.0973512698629459,32.08287849390507,-96.25519929585457,80.21211738781929
2024-09-23 16:09:31.520110,41.14,34.017782,-0.003482159473966507,-0.02303200030545576,0.0973512698629459,32.08287849390507,-96.25519929585457,80.21211738781929
2024-09-23 16:09:31.532306,41.14,34.017782,-0.0028354659767690416,-0.023479709566915436,0.09610764112676684,32.08287849390507,-100.26678939585686,80.21211738781929
2024-09-23 16:09:31.574810,41.14,34.017869,-0.0029349636958644295,-0.023280723622328886,0.09610764112676684,32.08287849390507,-100.26678939585686,76.200527287817
2024-09-23 16:09:31.586503,41.14,34.017869,-0.0029349636958644295,-0.023280723622328886,0.09670458680871308,24.06297849342227,-100.26678939585686,76.200527287817
2024-09-23 16:09:31.620396,41.14,34.017869,-0.0029349636958644295,-0.023280723622328886,0.09670458680871308,24.06297849342227,-96.25519929585457,72.1922225099802
2024-09-23 16:09:31.631796,41.14,34.01792,-0.003382661564999035,-0.02308174982955575,0.09759999317981902,24.06297849342227,-96.25519929585457,72.1922225099802
2024-09-23 16:09:31.674410,41.14,34.018016,-0.0029847020175114316,-0.02338022115155219,0.09759999317981902,36.09446859390736,-100.26678939585686,80.21211738781929
2024-09-23 16:09:31.716917,41.14,34.018016,-0.0029847020175114316,-0.02338022115155219,0.0973015264147526,44.11764879391193,-100.26678939585686,80.21211738781929
2024-09-23 16:09:31.728238,41.14,34.018113,-0.0029847020175114316,-0.02338022115155219,0.0973015264147526,44.11764879391193,-100.26678939585686,76.200527287817
2024-09-23 16:09:31.770466,41.14,34.018113,-0.0029847020175114316,-0.023181236725942318,0.09759999317981902,32.08287849390507,-96.25519929585457,84.22370748782159
2024-09-23 16:09:31.782403,41.14,34.01821,-0.0029847020175114316,-0.023181236725942318,0.09759999317981902,32.08287849390507,-96.25519929585457,84.22370748782159
2024-09-23 16:09:31.814290,41.14,34.01821,-0.0033329230534799477,-0.023429960042815445,0.09759999317981902,32.08287849390507,-96.25519929585457,84.22370748782159
2024-09-23 16:09:31.825769,41.14,34.01821,-0.0033329230534799477,-0.023429960042815445,0.09745075675933246,36.09446859390736,-100.26678939585686,80.21211738781929
2024-09-23 16:09:31.867733,41.14,34.018261,-0.0027359787006383035,-0.023181236725942318,0.0976994861521123,36.09446859390736,-100.26678939585686,80.21211738781929
2024-09-23 16:09:31.879378,41.14,34.018261,-0.0027359787006383035,-0.023181236725942318,0.0976994861521123,36.09446859390736,-100.26678939585686,80.21211738781929
2024-09-23 16:09:31.912094,41.14,34.018312,-0.0027359787006383035,-0.023181236725942318,0.0976994861521123,36.09446859390736,-100.26678939585686,76.200527287817
2024-09-23 16:09:31.923688,41.14,34.018312,-0.003482159473966507,-0.02367869399252531,0.09725178296655933,36.09446859390736,-100.26678939585686,76.200527287817
2024-09-23 16:09:31.966417,41.14,34.018312,-0.003482159473966507,-0.02367869399252531,0.09725178296655933,36.09446859390736,-92.24360919585227,88.23529758782387
2024-09-23 16:09:32.008979,41.14,34.018363,-0.003482159473966507,-0.02367869399252531,0.09725178296655933,36.09446859390736,-92.24360919585227,88.23529758782387
2024-09-23 16:09:32.020891,41.14,34.018363,-0.0030841997366068195,-0.02308174982955575,0.09715228999426605,44.11764879391193,-92.24360919585227,88.23529758782387
2024-09-23 16:09:32.063561,41.14,34.018413,-0.0032831742888682963,-0.023230986250042305,0.09755024973162574,44.11764879391193,-92.24360919585227,84.22370748782159
2024-09-23 16:09:32.075478,41.14,34.018413,-0.0032831742888682963,-0.023230986250042305,0.09755024973162574,48.12595698684454,-92.24360919585227,84.22370748782159
2024-09-23 16:09:32.107296,41.14,34.018413,-0.0032831742888682963,-0.023230986250042305,0.09755024973162574,48.12595698684454,-96.25519929585457,84.22370748782159
2024-09-23 16:09:32.119197,41.14,34.018464,-0.0031339382481259063,-0.023280723622328886,0.0970030596496862,48.12595698684454,-96.25519929585457,84.22370748782159
2024-09-23 16:09:32.162047,41.97,34.018551,-0.0028354659767690416,-0.022584292562972758,0.0970030596496862,44.11764879391193,-88.23529758782387,80.21211738781929
2024-09-23 16:09:32.204836,41.97,34.018551,-0.0028354659767690416,-0.022584292562972758,0.09705279702197278,40.106058693909645,-88.23529758782387,80.21211738781929
2024-09-23 16:09:32.216279,41.97,34.018602,-0.0031339382481259063,-0.022584292562972758,0.09705279702197278,40.106058693909645,-96.25519929585457,84.22370748782159
2024-09-23 16:09:32.258620,41.97,34.018602,-0.0031339382481259063,-0.023778180888911878,0.0976994861521123,24.06297849342227,-100.26678939585686,76.200527287817
2024-09-23 16:09:32.270704,41.97,34.018697,-0.0031339382481259063,-0.023778180888911878,0.0976994861521123,24.06297849342227,-100.26678939585686,76.200527287817
2024-09-23 16:09:32.303760,41.97,34.018697,-0.0028354659767690416,-0.02338022115155219,0.09720203344245934,24.06297849342227,-100.26678939585686,76.200527287817
2024-09-23 16:09:32.315406,41.97,34.018697,-0.0028354659767690416,-0.02338022115155219,0.09720203344245934,32.08287849390507,-100.26678939585686,76.200527287817
2024-09-23 16:09:32.357908,41.97,34.018749,-0.003482159473966507,-0.023181236725942318,0.0970030596496862,40.106058693909645,-96.25519929585457,76.200527287817
2024-09-23 16:09:32.399945,41.97,34.0188,-0.003482159473966507,-0.023181236725942318,0.0970030596496862,40.106058693909645,-96.25519929585457,76.200527287817
2024-09-23 16:09:32.411849,41.97,34.0188,-0.0028354659767690416,-0.023181236725942318,0.09740101331113918,40.106058693909645,-96.25519929585457,76.200527287817
2024-09-23 16:09:32.454935,41.97,34.01885,-0.0031836870127375577,-0.023181236725942318,0.0973015264147526,40.106058693909645,-100.26678939585686,80.21211738781929
2024-09-23 16:09:32.497326,41.97,34.01885,-0.0031836870127375577,-0.023181236725942318,0.0973015264147526,32.08287849390507,-100.26678939585686,80.21211738781929
2024-09-23 16:09:32.550209,41.97,34.018901,-0.003382661564999035,-0.022733528983459317,0.0973512698629459,32.08287849390507,-100.26678939585686,84.22370748782159
2024-09-23 16:09:32.562307,41.97,34.018901,-0.003382661564999035,-0.022733528983459317,0.0973512698629459,40.106058693909645,-100.26678939585686,84.22370748782159
2024-09-23 16:09:32.594697,41.97,34.018901,-0.003382661564999035,-0.022733528983459317,0.0973512698629459,40.106058693909645,-96.25519929585457,76.200527287817
2024-09-23 16:09:32.605853,41.97,34.018952,-0.003482159473966507,-0.023827930413011865,0.09670458680871308,40.106058693909645,-96.25519929585457,76.200527287817
2024-09-23 16:09:32.648283,41.97,34.019039,-0.003482159473966507,-0.023827930413011865,0.09670458680871308,32.08287849390507,-100.26678939585686,80.21211738781929
2024-09-23 16:09:32.660680,41.97,34.019039,-0.0032831742888682963,-0.023181236725942318,0.09670458680871308,32.08287849390507,-100.26678939585686,80.21211738781929
2024-09-23 16:09:32.693435,41.97,34.019039,-0.0032831742888682963,-0.023181236725942318,0.09670458680871308,24.06297849342227,-100.26678939585686,80.21211738781929
2024-09-23 16:09:32.705068,41.97,34.01909,-0.0031836870127375577,-0.023181236725942318,0.09670458680871308,24.06297849342227,-100.26678939585686,80.21211738781929
2024-09-23 16:09:32.748106,41.97,34.019141,-0.0031836870127375577,-0.02303200030545576,0.09655535038822652,36.09446859390736,-104.27510100388527,76.200527287817
2024-09-23 16:09:32.791561,41.97,34.019141,-0.0024872551938930902,-0.02308174982955575,0.09690356060148622,36.09446859390736,-104.27510100388527,76.200527287817
2024-09-23 16:09:32.805751,41.97,34.019141,-0.0024872551938930902,-0.02308174982955575,0.09690356060148622,44.11764879391193,-96.25519929585457,76.200527287817
2024-09-23 16:09:32.838810,41.97,34.019234,-0.0026862297461545674,-0.02308174982955575,0.09690356060148622,44.11764879391193,-96.25519929585457,76.200527287817
2024-09-23 16:09:32.849836,41.97,34.019234,-0.0026862297461545674,-0.02293251340906919,0.09745075675933246,36.09446859390736,-96.25519929585457,76.200527287817
2024-09-23 16:09:32.892424,41.97,34.019286,-0.0027359787006383035,-0.023181236725942318,0.09710254654607277,36.09446859390736,-96.25519929585457,76.200527287817
2024-09-23 16:09:32.904329,41.97,34.019286,-0.0027359787006383035,-0.023181236725942318,0.09710254654607277,44.11764879391193,-96.25519929585457,76.200527287817
2024-09-23 16:09:32.938035,41.97,34.019336,-0.0027359787006383035,-0.023181236725942318,0.09710254654607277,44.11764879391193,-96.25519929585457,76.200527287817
2024-09-23 16:09:32.949482,41.97,34.019336,-0.0029349636958644295,-0.02308174982955575,0.09755024973162574,44.11764879391193,-96.25519929585457,76.200527287817
2024-09-23 16:09:32.992509,41.97,34.019387,-0.0028852147413806935,-0.023330473146428877,0.09755024973162574,44.11764879391193,-100.26678939585686,76.200527287817
2024-09-23 16:09:33.035064,41.97,34.019387,-0.0028852147413806935,-0.023330473146428877,0.09690356060148622,28.07457030097246,-100.26678939585686,76.200527287817
2024-09-23 16:09:33.046533,41.97,34.019438,-0.0027359787006383035,-0.023330473146428877,0.09690356060148622,28.07457030097246,-100.26678939585686,76.200527287817
2024-09-23 16:09:33.089804,41.97,34.019526,-0.0027359787006383035,-0.023230986250042305,0.09640611396773996,36.09446859390736,-100.26678939585686,80.21211738781929
2024-09-23 16:09:33.131553,41.97,34.019526,-0.0028354659767690416,-0.02278327698858263,0.09794820946898543,36.09446859390736,-100.26678939585686,80.21211738781929
2024-09-23 16:09:33.184670,42.0,34.019578,-0.0027359787006383035,-0.02278327698858263,0.09794820946898543,40.106058693909645,-104.27510100388527,76.200527287817
2024-09-23 16:09:33.196945,42.0,34.019578,-0.0027359787006383035,-0.023728432883788564,0.09794820946898543,40.106058693909645,-104.27510100388527,76.200527287817
2024-09-23 16:09:33.229697,42.0,34.019578,-0.0027359787006383035,-0.023728432883788564,0.09695331012558621,36.09446859390736,-92.24360919585227,76.200527287817
2024-09-23 16:09:33.282193,42.0,34.019628,-0.003233425524256645,-0.02308174982955575,0.0976994861521123,36.09446859390736,-92.24360919585227,76.200527287817
2024-09-23 16:09:33.294219,42.0,34.019628,-0.003233425524256645,-0.02308174982955575,0.0976994861521123,48.12595698684454,-92.24360919585227,76.200527287817
2024-09-23 16:09:33.326132,42.0,34.019628,-0.003233425524256645,-0.02308174982955575,0.0976994861521123,48.12595698684454,-100.26678939585686,76.200527287817
2024-09-23 16:09:33.337320,42.0,34.019679,-0.0034324103296106863,-0.02338022115155219,0.09680407370509965,48.12595698684454,-100.26678939585686,76.200527287817
2024-09-23 16:09:33.379702,42.0,34.01973,-0.0036811340262279837,-0.02338022115155219,0.09680407370509965,32.08287849390507,-104.27510100388527,80.21211738781929
2024-09-23 16:09:33.392559,42.0,34.01973,-0.0036811340262279837,-0.02362894446842532,0.09680407370509965,32.08287849390507,-104.27510100388527,80.21211738781929
2024-09-23 16:09:33.424890,42.0,34.01973,-0.0036811340262279837,-0.02362894446842532,0.09750050628343246,28.07457030097246,-100.26678939585686,80.21211738781929
2024-09-23 16:09:33.436383,42.0,34.01982,-0.0031339382481259063,-0.02362894446842532,0.09750050628343246,28.07457030097246,-100.26678939585686,84.22370748782159
2024-09-23 16:09:33.478960,42.0,34.01987,-0.0031339382481259063,-0.02338022115155219,0.09665483728461309,40.106058693909645,-100.26678939585686,80.21211738781929
2024-09-23 16:09:33.521939,42.0,34.01987,-0.003382661564999035,-0.023479709566915436,0.0973015264147526,40.106058693909645,-100.26678939585686,80.21211738781929
2024-09-23 16:09:33.574415,42.0,34.019965,-0.0030344509719951677,-0.023479709566915436,0.0973015264147526,36.09446859390736,-96.25519929585457,80.21211738781929
2024-09-23 16:09:33.586409,42.0,34.019965,-0.0030344509719951677,-0.022733528983459317,0.0973015264147526,36.09446859390736,-96.25519929585457,80.21211738781929
2024-09-23 16:09:33.618802,42.0,34.019965,-0.0030344509719951677,-0.022733528983459317,0.09720203344245934,40.106058693909645,-96.25519929585457,80.21211738781929
2024-09-23 16:09:33.629967,42.0,34.020017,-0.0029847020175114316,-0.022733528983459317,0.09720203344245934,40.106058693909645,-96.25519929585457,72.1922225099802
2024-09-23 16:09:33.671769,42.0,34.020017,-0.0029847020175114316,-0.022982261414192504,0.09690356060148622,36.09446859390736,-104.27510100388527,72.1922225099802
2024-09-23 16:09:33.683366,42.0,34.020068,-0.0029847020175114316,-0.022982261414192504,0.09690356060148622,36.09446859390736,-104.27510100388527,80.21211738781929
2024-09-23 16:09:33.716387,42.0,34.020068,-0.0030344509719951677,-0.023280723622328886,0.09690356060148622,36.09446859390736,-104.27510100388527,80.21211738781929
2024-09-23 16:09:33.728022,42.0,34.020068,-0.0030344509719951677,-0.023280723622328886,0.0970030596496862,36.09446859390736,-104.27510100388527,80.21211738781929
2024-09-23 16:09:33.770992,42.0,34.020118,-0.003233425524256645,-0.023330473146428877,0.09655535038822652,40.106058693909645,-96.25519929585457,80.21211738781929
2024-09-23 16:09:33.813091,42.0,34.02021,-0.003233425524256645,-0.023330473146428877,0.09655535038822652,40.106058693909645,-96.25519929585457,80.21211738781929
2024-09-23 16:09:33.824632,42.0,34.02021,-0.003233425524256645,-0.02293251340906919,0.09705279702197278,36.09446859390736,-96.25519929585457,80.21211738781929
2024-09-23 16:09:33.867835,42.0,34.020261,-0.0028354659767690416,-0.0228827638849692,0.09705279702197278,36.09446859390736,-92.24360919585227,76.200527287817
2024-09-23 16:09:33.879512,42.0,34.020261,-0.0028354659767690416,-0.0228827638849692,0.0973015264147526,36.09446859390736,-92.24360919585227,76.200527287817
2024-09-23 16:09:33.911676,42.0,34.020261,-0.0028354659767690416,-0.0228827638849692,0.0973015264147526,32.08287849390507,-108.28669110388756,76.200527287817
2024-09-23 16:09:33.922637,42.0,34.020312,-0.0028354659767690416,-0.023330473146428877,0.0973015264147526,32.08287849390507,-108.28669110388756,72.1922225099802
2024-09-23 16:09:33.966445,42.0,34.020362,-0.0024872551938930902,-0.023330473146428877,0.09690356060148622,40.106058693909645,-96.25519929585457,80.21211738781929
2024-09-23 16:09:34.010233,42.0,34.020362,-0.0024872551938930902,-0.0228827638849692,0.09725178296655933,48.12595698684454,-96.25519929585457,80.21211738781929
2024-09-23 16:09:34.021712,42.0,34.020452,-0.0024872551938930902,-0.0228827638849692,0.09725178296655933,48.12595698684454,-96.25519929585457,80.21211738781929
2024-09-23 16:09:34.065122,42.0,34.020452,-0.002586742470023829,-0.02308174982955575,0.09705279702197278,44.11764879391193,-96.25519929585457,80.21211738781929
2024-09-23 16:09:34.107955,42.0,34.020504,-0.002636491424507565,-0.02352945757203875,0.09705279702197278,44.11764879391193,-96.25519929585457,80.21211738781929
2024-09-23 16:09:34.119773,42.0,34.020504,-0.002636491424507565,-0.02352945757203875,0.0970030596496862,40.106058693909645,-96.25519929585457,80.21211738781929
2024-09-23 16:09:34.162952,42.0,34.020555,-0.0028852147413806935,-0.02338022115155219,0.09685382322919964,40.106058693909645,-96.25519929585457,72.1922225099802
2024-09-23 16:09:34.205599,42.21,34.020606,-0.0028852147413806935,-0.02338022115155219,0.09685382322919964,40.106058693909645,-88.23529758782387,76.200527287817
2024-09-23 16:09:34.217419,42.21,34.020606,-0.0029847020175114316,-0.023429960042815445,0.0973015264147526,40.106058693909645,-88.23529758782387,76.200527287817
2024-09-23 16:09:34.249770,42.21,34.020606,-0.0029847020175114316,-0.023429960042815445,0.0973015264147526,44.11764879391193,-88.23529758782387,76.200527287817
2024-09-23 16:09:34.261663,42.21,34.020656,-0.003233425524256645,-0.022833026512682618,0.0973015264147526,44.11764879391193,-96.25519929585457,76.200527287817
2024-09-23 16:09:34.304901,42.21,34.020656,-0.003233425524256645,-0.022833026512682618,0.09650560086412653,40.106058693909645,-96.25519929585457,80.21211738781929
2024-09-23 16:09:34.316307,42.21,34.020707,-0.0025369937054121774,-0.022833026512682618,0.09650560086412653,40.106058693909645,-96.25519929585457,80.21211738781929
2024-09-23 16:09:34.349985,42.21,34.020707,-0.0025369937054121774,-0.022982261414192504,0.09665483728461309,40.106058693909645,-96.25519929585457,80.21211738781929
2024-09-23 16:09:34.361108,42.21,34.020794,-0.0025369937054121774,-0.022982261414192504,0.09665483728461309,40.106058693909645,-104.27510100388527,80.21211738781929
2024-09-23 16:09:34.403812,42.21,34.020794,-0.0031836870127375577,-0.02278327698858263,0.09655535038822652,40.106058693909645,-96.25519929585457,80.21211738781929
2024-09-23 16:09:34.415613,42.21,34.020794,-0.0031836870127375577,-0.02278327698858263,0.09655535038822652,40.106058693909645,-96.25519929585457,84.22370748782159
2024-09-23 16:09:34.447326,42.21,34.020845,-0.003233425524256645,-0.02278327698858263,0.09655535038822652,40.106058693909645,-96.25519929585457,84.22370748782159
2024-09-23 16:09:34.459218,42.21,34.020845,-0.003233425524256645,-0.02313149783467906,0.09799795899308542,40.106058693909645,-100.26678939585686,84.22370748782159
2024-09-23 16:09:34.503557,42.21,34.020845,-0.003233425524256645,-0.02313149783467906,0.09799795899308542,40.106058693909645,-100.26678939585686,84.22370748782159
2024-09-23 16:09:34.545346,42.21,34.020896,-0.0030344509719951677,-0.02268379009219606,0.09799795899308542,40.106058693909645,-100.26678939585686,84.22370748782159
2024-09-23 16:09:34.598219,42.21,34.020896,-0.0030344509719951677,-0.02268379009219606,0.09740101331113918,36.09446859390736,-108.28669110388756,68.18063240997792
2024-09-23 16:09:34.610975,42.21,34.020947,-0.0027359787006383035,-0.02268379009219606,0.09740101331113918,36.09446859390736,-108.28669110388756,68.18063240997792
2024-09-23 16:09:34.643129,42.21,34.020947,-0.0027359787006383035,-0.02352945757203875,0.09720203344245934,36.09446859390736,-108.28669110388756,68.18063240997792
2024-09-23 16:09:34.654980,42.21,34.020997,-0.0027359787006383035,-0.02352945757203875,0.09720203344245934,28.07457030097246,-108.28669110388756,76.200527287817
2024-09-23 16:09:34.698169,42.21,34.020997,-0.0035318979854855937,-0.023728432883788564,0.09710254654607277,40.106058693909645,-100.26678939585686,72.1922225099802
2024-09-23 16:09:34.741196,42.21,34.021048,-0.0031339382481259063,-0.023280723622328886,0.09710254654607277,40.106058693909645,-100.26678939585686,72.1922225099802
2024-09-23 16:09:34.753047,42.21,34.021048,-0.0031339382481259063,-0.023280723622328886,0.09680407370509965,36.09446859390736,-96.25519929585457,72.1922225099802
2024-09-23 16:09:34.796021,42.21,34.021135,-0.0028852147413806935,-0.023280723622328886,0.0970030596496862,44.11764879391193,-96.25519929585457,84.22370748782159
2024-09-23 16:09:34.838920,42.21,34.021234,-0.0028852147413806935,-0.023280723622328886,0.0970030596496862,44.11764879391193,-96.25519929585457,72.1922225099802
2024-09-23 16:09:34.850179,42.21,34.021234,-0.0031339382481259063,-0.02362894446842532,0.09705279702197278,44.11764879391193,-96.25519929585457,72.1922225099802
2024-09-23 16:09:34.893074,42.21,34.021285,-0.002785727465249955,-0.023579196463302005,0.09705279702197278,40.106058693909645,-96.25519929585457,72.1922225099802
2024-09-23 16:09:34.935702,42.21,34.021285,-0.002785727465249955,-0.023579196463302005,0.09745075675933246,24.06297849342227,-96.25519929585457,72.1922225099802
2024-09-23 16:09:34.947349,42.21,34.021336,-0.0028852147413806935,-0.023579196463302005,0.09745075675933246,24.06297849342227,-96.25519929585457,80.21211738781929
2024-09-23 16:09:34.989401,42.21,34.021427,-0.0028852147413806935,-0.023230986250042305,0.09710254654607277,36.09446859390736,-96.25519929585457,76.200527287817
2024-09-23 16:09:35.032207,42.21,34.021427,-0.0031339382481259063,-0.023181236725942318,0.09710254654607277,36.09446859390736,-96.25519929585457,76.200527287817
2024-09-23 16:09:35.043817,42.21,34.021427,-0.0031339382481259063,-0.023181236725942318,0.09675432418099966,28.07457030097246,-100.26678939585686,76.200527287817
2024-09-23 16:09:35.085975,42.21,34.021479,-0.0032831742888682963,-0.02308174982955575,0.09695331012558621,48.12595698684454,-100.26678939585686,76.200527287817
2024-09-23 16:09:35.097855,42.21,34.021479,-0.0032831742888682963,-0.02308174982955575,0.09695331012558621,48.12595698684454,-92.24360919585227,76.200527287817
2024-09-23 16:09:35.131145,42.21,34.02153,-0.0032831742888682963,-0.02308174982955575,0.09695331012558621,48.12595698684454,-92.24360919585227,80.21211738781929
2024-09-23 16:09:35.183897,42.21,34.02153,-0.0035318979854855937,-0.023728432883788564,0.0970030596496862,48.12595698684454,-96.25519929585457,80.21211738781929
2024-09-23 16:09:35.226284,42.01,34.02158,-0.0035318979854855937,-0.023728432883788564,0.0970030596496862,48.12595698684454,-96.25519929585457,80.21211738781929
2024-09-23 16:09:35.238438,42.01,34.02158,-0.0028354659767690416,-0.023330473146428877,0.09705279702197278,44.11764879391193,-100.26678939585686,80.21211738781929
2024-09-23 16:09:35.282299,42.01,34.021631,-0.0029847020175114316,-0.023230986250042305,0.09740101331113918,44.11764879391193,-100.26678939585686,84.22370748782159
2024-09-23 16:09:35.294215,42.01,34.021631,-0.0029847020175114316,-0.023230986250042305,0.09740101331113918,20.05138839341998,-100.26678939585686,84.22370748782159
2024-09-23 16:09:35.326409,42.01,34.021682,-0.0029847020175114316,-0.023230986250042305,0.09740101331113918,20.05138839341998,-88.23529758782387,84.22370748782159
2024-09-23 16:09:35.337982,42.01,34.021682,-0.002785727465249955,-0.023330473146428877,0.09715228999426605,20.05138839341998,-88.23529758782387,84.22370748782159
2024-09-23 16:09:35.381609,42.01,34.021769,-0.0030344509719951677,-0.023330473146428877,0.09715228999426605,40.106058693909645,-96.25519929585457,72.1922225099802
2024-09-23 16:09:35.424048,42.01,34.021769,-0.0030344509719951677,-0.023330473146428877,0.09710254654607277,44.11764879391193,-96.25519929585457,72.1922225099802
2024-09-23 16:09:35.435842,42.01,34.02182,-0.0026862297461545674,-0.023330473146428877,0.09710254654607277,44.11764879391193,-96.25519929585457,68.18063240997792
2024-09-23 16:09:35.478772,42.01,34.021915,-0.0026862297461545674,-0.02313149783467906,0.09745075675933246,44.11764879391193,-100.26678939585686,80.21211738781929
2024-09-23 16:09:35.522423,42.01,34.021915,-0.0031339382481259063,-0.0228827638849692,0.0970030596496862,44.11764879391193,-100.26678939585686,80.21211738781929
2024-09-23 16:09:35.533876,42.01,34.021915,-0.0031339382481259063,-0.0228827638849692,0.0970030596496862,44.11764879391193,-104.27510100388527,80.21211738781929
2024-09-23 16:09:35.577044,42.01,34.021966,-0.0027359787006383035,-0.023479709566915436,0.09705279702197278,44.11764879391193,-104.27510100388527,80.21211738781929
2024-09-23 16:09:35.619129,42.01,34.021966,-0.0027359787006383035,-0.023479709566915436,0.09705279702197278,40.106058693909645,-100.26678939585686,80.21211738781929
2024-09-23 16:09:35.630968,42.01,34.022017,-0.0029349636958644295,-0.023280723622328886,0.09705279702197278,40.106058693909645,-100.26678939585686,80.21211738781929
2024-09-23 16:09:35.674044,42.01,34.022068,-0.0030344509719951677,-0.023280723622328886,0.09715228999426605,36.09446859390736,-100.26678939585686,76.200527287817
2024-09-23 16:09:35.716221,42.01,34.022068,-0.0030344509719951677,-0.023429960042815445,0.09715228999426605,40.106058693909645,-100.26678939585686,76.200527287817
2024-09-23 16:09:35.728093,42.01,34.022118,-0.0030344509719951677,-0.023429960042815445,0.09715228999426605,40.106058693909645,-100.26678939585686,76.200527287817
2024-09-23 16:09:35.771420,42.01,34.022118,-0.002785727465249955,-0.023230986250042305,0.09695331012558621,32.08287849390507,-96.25519929585457,80.21211738781929
2024-09-23 16:09:35.813348,42.01,34.022169,-0.0028852147413806935,-0.02293251340906919,0.09695331012558621,32.08287849390507,-96.25519929585457,80.21211738781929
2024-09-23 16:09:35.825085,42.01,34.022169,-0.0028852147413806935,-0.02293251340906919,0.09705279702197278,44.11764879391193,-96.25519929585457,80.21211738781929
2024-09-23 16:09:35.867746,42.01,34.022257,-0.0031836870127375577,-0.023280723622328886,0.09725178296655933,44.11764879391193,-96.25519929585457,76.200527287817
2024-09-23 16:09:35.911283,42.01,34.022308,-0.0031836870127375577,-0.023280723622328886,0.09725178296655933,44.11764879391193,-100.26678939585686,84.22370748782159
2024-09-23 16:09:35.922252,42.01,34.022308,-0.0029847020175114316,-0.02313149783467906,0.09725178296655933,44.11764879391193,-100.26678939585686,84.22370748782159
2024-09-23 16:09:35.964065,42.01,34.022359,-0.002785727465249955,-0.02313149783467906,0.09725178296655933,44.11764879391193,-96.25519929585457,76.200527287817
2024-09-23 16:09:35.975600,42.01,34.022359,-0.002785727465249955,-0.023230986250042305,0.09725178296655933,44.11764879391193,-96.25519929585457,76.200527287817
2024-09-23 16:09:36.007855,42.01,34.022359,-0.002785727465249955,-0.023230986250042305,0.0966050877605131,44.11764879391193,-100.26678939585686,76.200527287817
2024-09-23 16:09:36.019467,42.01,34.02241,-0.0028354659767690416,-0.023230986250042305,0.0966050877605131,44.11764879391193,-100.26678939585686,84.22370748782159
2024-09-23 16:09:36.061745,42.01,34.02241,-0.0028354659767690416,-0.02308174982955575,0.09750050628343246,36.09446859390736,-100.26678939585686,80.21211738781929
2024-09-23 16:09:36.073335,42.01,34.0225,-0.0028354659767690416,-0.02308174982955575,0.09750050628343246,36.09446859390736,-100.26678939585686,80.21211738781929
2024-09-23 16:09:36.105478,42.01,34.0225,-0.002785727465249955,-0.02313149783467906,0.09725178296655933,36.09446859390736,-100.26678939585686,80.21211738781929
2024-09-23 16:09:36.117609,42.01,34.0225,-0.002785727465249955,-0.02313149783467906,0.09725178296655933,36.09446859390736,-96.25519929585457,84.22370748782159
2024-09-23 16:09:36.161422,42.01,34.022551,-0.0025369937054121774,-0.023479709566915436,0.0976994861521123,44.11764879391193,-88.23529758782387,84.22370748782159
2024-09-23 16:09:36.203825,42.01,34.022602,-0.0030841997366068195,-0.023479709566915436,0.0976994861521123,44.11764879391193,-88.23529758782387,84.22370748782159
2024-09-23 16:09:36.215218,42.01,34.022602,-0.0030841997366068195,-0.023429960042815445,0.09685382322919964,48.12595698684454,-88.23529758782387,84.22370748782159
2024-09-23 16:09:36.258345,42.38,34.022653,-0.0030344509719951677,-0.022733528983459317,0.09670458680871308,48.12595698684454,-92.24360919585227,76.200527287817
2024-09-23 16:09:36.301173,42.38,34.022653,-0.0030344509719951677,-0.022733528983459317,0.09670458680871308,48.12595698684454,-96.25519929585457,76.200527287817
2024-09-23 16:09:36.312651,42.38,34.022703,-0.0030344509719951677,-0.02352945757203875,0.09670458680871308,48.12595698684454,-96.25519929585457,76.200527287817
2024-09-23 16:09:36.355573,42.38,34.022754,-0.0030344509719951677,-0.02352945757203875,0.09685382322919964,28.07457030097246,-96.25519929585457,76.200527287817
2024-09-23 16:09:36.398701,42.38,34.022754,-0.0030344509719951677,-0.02313149783467906,0.09710254654607277,36.09446859390736,-96.25519929585457,76.200527287817
2024-09-23 16:09:36.410398,42.38,34.022842,-0.0030344509719951677,-0.02313149783467906,0.09710254654607277,36.09446859390736,-100.26678939585686,80.21211738781929
2024-09-23 16:09:36.452954,42.38,34.022842,-0.0024872551938930902,-0.02303200030545576,0.09750050628343246,32.08287849390507,-96.25519929585457,80.21211738781929
2024-09-23 16:09:36.496134,42.38,34.022893,-0.0026862297461545674,-0.022833026512682618,0.09750050628343246,32.08287849390507,-96.25519929585457,80.21211738781929
2024-09-23 16:09:36.507853,42.38,34.022893,-0.0026862297461545674,-0.022833026512682618,0.09745075675933246,32.08287849390507,-96.25519929585457,80.21211738781929
2024-09-23 16:09:36.550889,42.38,34.022944,-0.0032831742888682963,-0.023330473146428877,0.09794820946898543,40.106058693909645,-96.25519929585457,84.22370748782159
2024-09-23 16:09:36.592807,42.38,34.022994,-0.0032831742888682963,-0.023330473146428877,0.09794820946898543,40.106058693909645,-100.26678939585686,80.21211738781929
2024-09-23 16:09:36.604450,42.38,34.022994,-0.0029349636958644295,-0.023330473146428877,0.09794820946898543,40.106058693909645,-100.26678939585686,80.21211738781929
2024-09-23 16:09:36.647313,42.38,34.023045,-0.0029349636958644295,-0.0228827638849692,0.09745075675933246,52.137550501942634,-96.25519929585457,76.200527287817
2024-09-23 16:09:36.690219,42.38,34.023045,-0.0029847020175114316,-0.022584292562972758,0.09745075675933246,52.137550501942634,-96.25519929585457,76.200527287817
2024-09-23 16:09:36.701276,42.38,34.023045,-0.0029847020175114316,-0.022584292562972758,0.09720203344245934,44.11764879391193,-88.23529758782387,80.21211738781929
2024-09-23 16:09:36.743688,42.38,34.023096,-0.0030344509719951677,-0.023479709566915436,0.09690356060148622,24.06297849342227,-88.23529758782387,80.21211738781929
2024-09-23 16:09:36.755827,42.38,34.023096,-0.0030344509719951677,-0.023479709566915436,0.09690356060148622,24.06297849342227,-104.27510100388527,80.21211738781929
2024-09-23 16:09:36.787881,42.38,34.023182,-0.0030344509719951677,-0.023479709566915436,0.09690356060148622,24.06297849342227,-104.27510100388527,76.200527287817
2024-09-23 16:09:36.799692,42.38,34.023182,-0.0028852147413806935,-0.02313149783467906,0.09764974270391902,28.07457030097246,-104.27510100388527,76.200527287817
2024-09-23 16:09:36.841655,42.38,34.023234,-0.0029847020175114316,-0.02338022115155219,0.09764974270391902,28.07457030097246,-96.25519929585457,76.200527287817
2024-09-23 16:09:36.853419,42.38,34.023234,-0.0029847020175114316,-0.02338022115155219,0.09725178296655933,28.07457030097246,-96.25519929585457,76.200527287817
2024-09-23 16:09:36.886498,42.38,34.023234,-0.0029847020175114316,-0.02338022115155219,0.09725178296655933,36.09446859390736,-96.25519929585457,76.200527287817
2024-09-23 16:09:36.897572,42.38,34.023285,-0.0029349636958644295,-0.023429960042815445,0.09725178296655933,36.09446859390736,-96.25519929585457,76.200527287817
2024-09-23 16:09:36.939770,42.38,34.023335,-0.0032831742888682963,-0.023429960042815445,0.09680407370509965,36.09446859390736,-100.26678939585686,76.200527287817
2024-09-23 16:09:36.982659,42.38,34.023335,-0.0032831742888682963,-0.02303200030545576,0.09715228999426605,36.09446859390736,-100.26678939585686,76.200527287817
2024-09-23 16:09:36.994160,42.38,34.023426,-0.0032831742888682963,-0.02303200030545576,0.09715228999426605,48.12595698684454,-92.24360919585227,80.21211738781929
2024-09-23 16:09:37.036463,42.38,34.023426,-0.0027359787006383035,-0.022982261414192504,0.09715228999426605,48.12595698684454,-96.25519929585457,76.200527287817
2024-09-23 16:09:37.079690,42.38,34.023478,-0.0031836870127375577,-0.022982261414192504,0.09715228999426605,48.12595698684454,-96.25519929585457,76.200527287817
2024-09-23 16:09:37.091004,42.38,34.023478,-0.0031836870127375577,-0.02308174982955575,0.09670458680871308,32.08287849390507,-96.25519929585457,76.200527287817
2024-09-23 16:09:37.133483,42.38,34.023528,-0.0032831742888682963,-0.023181236725942318,0.09670458680871308,32.08287849390507,-96.25519929585457,84.22370748782159
2024-09-23 16:09:37.145567,42.38,34.023528,-0.0032831742888682963,-0.023181236725942318,0.09670458680871308,32.08287849390507,-96.25519929585457,84.22370748782159
2024-09-23 16:09:37.179128,42.38,34.023579,-0.0032831742888682963,-0.023181236725942318,0.09670458680871308,32.08287849390507,-100.26678939585686,76.200527287817
2024-09-23 16:09:37.190412,42.38,34.023579,-0.0030841997366068195,-0.023280723622328886,0.09720203344245934,32.08287849390507,-100.26678939585686,76.200527287817
2024-09-23 16:09:37.232753,42.38,34.02363,-0.002785727465249955,-0.02293251340906919,0.09720203344245934,32.08287849390507,-104.27510100388527,80.21211738781929
2024-09-23 16:09:37.278045,42.19,34.02363,-0.002785727465249955,-0.02293251340906919,0.09745075675933246,24.06297849342227,-96.25519929585457,80.21211738781929
2024-09-23 16:09:37.289666,42.19,34.02368,-0.0030841997366068195,-0.02293251340906919,0.09745075675933246,24.06297849342227,-96.25519929585457,80.21211738781929
2024-09-23 16:09:37.321229,42.19,34.02368,-0.0030841997366068195,-0.02308174982955575,0.09745075675933246,24.06297849342227,-96.25519929585457,80.21211738781929
2024-09-23 16:09:37.332413,42.19,34.023767,-0.0030841997366068195,-0.02308174982955575,0.09725178296655933,40.106058693909645,-96.25519929585457,80.21211738781929
2024-09-23 16:09:37.375503,42.19,34.023767,-0.0032831742888682963,-0.022982261414192504,0.09759999317981902,44.11764879391193,-96.25519929585457,80.21211738781929
2024-09-23 16:09:37.387365,42.19,34.023767,-0.0032831742888682963,-0.022982261414192504,0.09759999317981902,44.11764879391193,-104.27510100388527,84.22370748782159
2024-09-23 16:09:37.421002,42.19,34.023819,-0.003482159473966507,-0.022982261414192504,0.09759999317981902,44.11764879391193,-104.27510100388527,84.22370748782159
2024-09-23 16:09:37.432765,42.19,34.023819,-0.003482159473966507,-0.023280723622328886,0.09680407370509965,52.137550501942634,-92.24360919585227,84.22370748782159
2024-09-23 16:09:37.475881,42.19,34.02387,-0.0031836870127375577,-0.023429960042815445,0.09695331012558621,52.137550501942634,-92.24360919585227,80.21211738781929
2024-09-23 16:09:37.487598,42.19,34.02387,-0.0031836870127375577,-0.023429960042815445,0.09695331012558621,44.11764879391193,-92.24360919585227,80.21211738781929
2024-09-23 16:09:37.520073,42.19,34.023921,-0.0031836870127375577,-0.023429960042815445,0.09695331012558621,44.11764879391193,-96.25519929585457,76.200527287817
2024-09-23 16:09:37.531747,42.19,34.023921,-0.0031836870127375577,-0.023429960042815445,0.09750050628343246,44.11764879391193,-96.25519929585457,76.200527287817
2024-09-23 16:09:37.574822,42.19,34.023971,-0.0029349636958644295,-0.023330473146428877,0.09750050628343246,36.09446859390736,-100.26678939585686,76.200527287817
2024-09-23 16:09:37.616856,42.19,34.023971,-0.0029349636958644295,-0.023330473146428877,0.09690356060148622,24.06297849342227,-96.25519929585457,76.200527287817
2024-09-23 16:09:37.629162,42.19,34.024022,-0.0030841997366068195,-0.023330473146428877,0.09690356060148622,24.06297849342227,-96.25519929585457,76.200527287817
2024-09-23 16:09:37.672189,42.19,34.024022,-0.0030841997366068195,-0.023429960042815445,0.09690356060148622,24.06297849342227,-96.25519929585457,76.200527287817
2024-09-23 16:09:37.715022,42.19,34.024022,-0.0030841997366068195,-0.023429960042815445,0.09710254654607277,36.09446859390736,-100.26678939585686,76.200527287817
2024-09-23 16:09:37.726478,42.19,34.024109,-0.0028354659767690416,-0.023429960042815445,0.09710254654607277,36.09446859390736,-100.26678939585686,76.200527287817
2024-09-23 16:09:37.769294,42.19,34.02416,-0.0028354659767690416,-0.023579196463302005,0.0970030596496862,40.106058693909645,-92.24360919585227,76.200527287817
2024-09-23 16:09:37.811724,42.19,34.02416,-0.0027359787006383035,-0.022982261414192504,0.09755024973162574,40.106058693909645,-92.24360919585227,76.200527287817
2024-09-23 16:09:37.822747,42.19,34.02416,-0.0027359787006383035,-0.022982261414192504,0.09755024973162574,36.09446859390736,-104.27510100388527,84.22370748782159
2024-09-23 16:09:37.865567,42.19,34.024211,-0.0031836870127375577,-0.023429960042815445,0.09710254654607277,52.137550501942634,-92.24360919585227,84.22370748782159
2024-09-23 16:09:37.908538,42.19,34.024262,-0.0031836870127375577,-0.023429960042815445,0.09710254654607277,52.137550501942634,-92.24360919585227,80.21211738781929
2024-09-23 16:09:37.919668,42.19,34.024262,-0.0031339382481259063,-0.02303200030545576,0.09720203344245934,32.08287849390507,-92.24360919585227,80.21211738781929
2024-09-23 16:09:37.962480,42.19,34.024354,-0.0031339382481259063,-0.023330473146428877,0.09720203344245934,32.08287849390507,-88.23529758782387,80.21211738781929
2024-09-23 16:09:37.974149,42.19,34.024354,-0.0031339382481259063,-0.023330473146428877,0.09705279702197278,32.08287849390507,-88.23529758782387,80.21211738781929
2024-09-23 16:09:38.006943,42.19,34.024354,-0.0031339382481259063,-0.023330473146428877,0.09705279702197278,32.08287849390507,-92.24360919585227,80.21211738781929
2024-09-23 16:09:38.018344,42.19,34.024405,-0.002636491424507565,-0.02338022115155219,0.09705279702197278,32.08287849390507,-92.24360919585227,76.200527287817
2024-09-23 16:09:38.061249,42.19,34.024456,-0.0025369937054121774,-0.02338022115155219,0.09755024973162574,40.106058693909645,-92.24360919585227,80.21211738781929
2024-09-23 16:09:38.104536,42.19,34.024456,-0.0025369937054121774,-0.023181236725942318,0.0973015264147526,28.07457030097246,-92.24360919585227,80.21211738781929
2024-09-23 16:09:38.115789,42.19,34.024547,-0.0025369937054121774,-0.023181236725942318,0.0973015264147526,28.07457030097246,-96.25519929585457,80.21211738781929
2024-09-23 16:09:38.158037,42.19,34.024547,-0.0031836870127375577,-0.02308174982955575,0.09670458680871308,36.09446859390736,-96.25519929585457,80.21211738781929
2024-09-23 16:09:38.170127,42.19,34.024547,-0.0031836870127375577,-0.02308174982955575,0.09670458680871308,36.09446859390736,-96.25519929585457,80.21211738781929
2024-09-23 16:09:38.202616,42.19,34.024599,-0.0031836870127375577,-0.023479709566915436,0.09670458680871308,36.09446859390736,-96.25519929585457,80.21211738781929
2024-09-23 16:09:38.214086,42.19,34.024599,-0.0031836870127375577,-0.023479709566915436,0.0973015264147526,44.11764879391193,-92.24360919585227,80.21211738781929
2024-09-23 16:09:38.256728,42.19,34.02465,-0.0031836870127375577,-0.023230986250042305,0.09675432418099966,40.106058693909645,-92.24360919585227,76.200527287817
2024-09-23 16:09:38.300462,42.5,34.0247,-0.0031836870127375577,-0.023230986250042305,0.09675432418099966,40.106058693909645,-96.25519929585457,72.1922225099802
2024-09-23 16:09:38.311488,42.5,34.0247,-0.0028852147413806935,-0.02338022115155219,0.09710254654607277,40.106058693909645,-96.25519929585457,72.1922225099802
2024-09-23 16:09:38.354166,42.5,34.024751,-0.0031836870127375577,-0.02338022115155219,0.09710254654607277,24.06297849342227,-100.26678939585686,76.200527287817
2024-09-23 16:09:38.397667,42.5,34.024751,-0.0031836870127375577,-0.023579196463302005,0.09720203344245934,24.06297849342227,-100.26678939585686,76.200527287817
2024-09-23 16:09:38.449775,42.5,34.024802,-0.003482159473966507,-0.023579196463302005,0.09720203344245934,32.08287849390507,-96.25519929585457,84.22370748782159
2024-09-23 16:09:38.461662,42.5,34.024802,-0.003482159473966507,-0.02308174982955575,0.09720203344245934,32.08287849390507,-96.25519929585457,84.22370748782159
2024-09-23 16:09:38.495078,42.5,34.024802,-0.003482159473966507,-0.02308174982955575,0.09695331012558621,44.11764879391193,-92.24360919585227,84.22370748782159
2024-09-23 16:09:38.506364,42.5,34.024889,-0.0027359787006383035,-0.02308174982955575,0.09695331012558621,44.11764879391193,-92.24360919585227,80.21211738781929
2024-09-23 16:09:38.548911,42.5,34.02494,-0.0027359787006383035,-0.023479709566915436,0.0973512698629459,48.12595698684454,-96.25519929585457,80.21211738781929
2024-09-23 16:09:38.591071,42.5,34.02494,-0.0028354659767690416,-0.02303200030545576,0.0973512698629459,48.12595698684454,-96.25519929585457,80.21211738781929
2024-09-23 16:09:38.602942,42.5,34.02494,-0.0028354659767690416,-0.02303200030545576,0.09680407370509965,48.12595698684454,-88.23529758782387,80.21211738781929
2024-09-23 16:09:38.645351,42.5,34.024991,-0.0028354659767690416,-0.02338022115155219,0.09705279702197278,44.11764879391193,-100.26678939585686,80.21211738781929
2024-09-23 16:09:38.688031,42.5,34.025085,-0.0028354659767690416,-0.02338022115155219,0.09705279702197278,44.11764879391193,-100.26678939585686,76.200527287817
2024-09-23 16:09:38.699512,42.5,34.025085,-0.0025369937054121774,-0.0228827638849692,0.09774922960030558,40.106058693909645,-100.26678939585686,76.200527287817
2024-09-23 16:09:38.742865,42.5,34.025136,-0.0029847020175114316,-0.023230986250042305,0.09640611396773996,40.106058693909645,-100.26678939585686,80.21211738781929
2024-09-23 16:09:38.785576,42.5,34.025136,-0.0029847020175114316,-0.023230986250042305,0.09640611396773996,36.09446859390736,-100.26678939585686,80.21211738781929
2024-09-23 16:09:38.797262,42.5,34.025187,-0.003233425524256645,-0.023181236725942318,0.09640611396773996,36.09446859390736,-100.26678939585686,80.21211738781929
2024-09-23 16:09:38.839813,42.5,34.025237,-0.003233425524256645,-0.023181236725942318,0.09715228999426605,36.09446859390736,-100.26678939585686,76.200527287817
2024-09-23 16:09:38.851979,42.5,34.025237,-0.0031836870127375577,-0.023181236725942318,0.09715228999426605,36.09446859390736,-100.26678939585686,76.200527287817
2024-09-23 16:09:38.935692,42.5,34.025237,-0.0031836870127375577,-0.023230986250042305,0.09675432418099966,40.106058693909645,-104.27510100388527,76.200527287817
2024-09-23 16:09:38.947549,42.5,34.025327,-0.0031836870127375577,-0.023230986250042305,0.09675432418099966,40.106058693909645,-104.27510100388527,76.200527287817
2024-09-23 16:09:38.979994,42.5,34.025327,-0.002586742470023829,-0.023230986250042305,0.09675432418099966,40.106058693909645,-104.27510100388527,76.200527287817
2024-09-23 16:09:38.991556,42.5,34.025327,-0.002586742470023829,-0.023181236725942318,0.0970030596496862,32.08287849390507,-96.25519929585457,80.21211738781929
2024-09-23 16:09:39.034807,42.5,34.025379,-0.0018903106511793612,-0.023181236725942318,0.0973015264147526,32.08287849390507,-96.25519929585457,80.21211738781929
2024-09-23 16:09:39.078276,42.5,34.02543,-0.0018903106511793612,-0.023181236725942318,0.0973015264147526,32.08287849390507,-96.25519929585457,76.200527287817
2024-09-23 16:09:39.090395,42.5,34.02543,-0.0028852147413806935,-0.02367869399252531,0.09750050628343246,40.106058693909645,-96.25519929585457,76.200527287817
2024-09-23 16:09:39.132539,42.5,34.02548,-0.0030344509719951677,-0.02303200030545576,0.09750050628343246,40.106058693909645,-92.24360919585227,84.22370748782159
2024-09-23 16:09:39.144630,42.5,34.02548,-0.0030344509719951677,-0.02303200030545576,0.09695331012558621,40.106058693909645,-92.24360919585227,84.22370748782159
2024-09-23 16:09:39.177176,42.5,34.02548,-0.0030344509719951677,-0.02303200030545576,0.09695331012558621,28.07457030097246,-96.25519929585457,80.21211738781929
2024-09-23 16:09:39.188959,42.5,34.025573,-0.003233425524256645,-0.02303200030545576,0.09695331012558621,28.07457030097246,-96.25519929585457,80.21211738781929
2024-09-23 16:09:39.232308,42.5,34.025624,-0.0032831742888682963,-0.02303200030545576,0.09675432418099966,44.11764879391193,-96.25519929585457,80.21211738781929
2024-09-23 16:09:39.274868,42.5,34.025624,-0.0032831742888682963,-0.023230986250042305,0.09715228999426605,52.137550501942634,-96.25519929585457,80.21211738781929
2024-09-23 16:09:39.286438,42.5,34.025717,-0.0032831742888682963,-0.023230986250042305,0.09715228999426605,52.137550501942634,-96.25519929585457,76.200527287817
2024-09-23 16:09:39.329169,41.88,34.025717,-0.0027359787006383035,-0.022982261414192504,0.09720203344245934,40.106058693909645,-100.26678939585686,76.200527287817
2024-09-23 16:09:39.372680,41.88,34.025769,-0.002636491424507565,-0.02293251340906919,0.09720203344245934,40.106058693909645,-100.26678939585686,76.200527287817
2024-09-23 16:09:39.384153,41.88,34.025769,-0.002636491424507565,-0.02293251340906919,0.0973512698629459,44.11764879391193,-100.26678939585686,76.200527287817
2024-09-23 16:09:39.427154,41.88,34.02582,-0.0031339382481259063,-0.022982261414192504,0.09675432418099966,28.07457030097246,-100.26678939585686,80.21211738781929
2024-09-23 16:09:39.469935,41.88,34.02587,-0.0031339382481259063,-0.022982261414192504,0.09675432418099966,28.07457030097246,-96.25519929585457,80.21211738781929
2024-09-23 16:09:39.481665,41.88,34.02587,-0.0031339382481259063,-0.02308174982955575,0.0970030596496862,28.07457030097246,-96.25519929585457,80.21211738781929
2024-09-23 16:09:39.524265,41.88,34.025921,-0.0030344509719951677,-0.02367869399252531,0.0970030596496862,36.09446859390736,-104.27510100388527,80.21211738781929
2024-09-23 16:09:39.566360,41.88,34.025921,-0.0030344509719951677,-0.02367869399252531,0.09720203344245934,36.09446859390736,-104.27510100388527,80.21211738781929
2024-09-23 16:09:39.619281,41.88,34.025972,-0.003631395514708897,-0.02367869399252531,0.09720203344245934,36.09446859390736,-96.25519929585457,80.21211738781929
2024-09-23 16:09:39.631561,41.88,34.025972,-0.003631395514708897,-0.02313149783467906,0.09720203344245934,36.09446859390736,-96.25519929585457,80.21211738781929
2024-09-23 16:09:39.663898,41.88,34.025972,-0.003631395514708897,-0.02313149783467906,0.0970030596496862,36.09446859390736,-96.25519929585457,80.21211738781929
2024-09-23 16:09:39.675696,41.88,34.026059,-0.0029847020175114316,-0.02313149783467906,0.0970030596496862,36.09446859390736,-96.25519929585457,76.200527287817
2024-09-23 16:09:39.718073,41.88,34.026059,-0.0029847020175114316,-0.02263404056809607,0.09755024973162574,44.11764879391193,-100.26678939585686,76.200527287817
2024-09-23 16:09:39.729586,41.88,34.02611,-0.0029847020175114316,-0.02263404056809607,0.09755024973162574,44.11764879391193,-100.26678939585686,76.200527287817
