Ayaan's Suite
Timestamp,Sample Rate (Hz),Time,Ax,Ay,Az,Gx,Gy,Gz
2024-09-23 11:15:14.037024,0,16.360027,-0.0026862297461545674,-0.023330473146428877,0.09710254654607277,40.106058693909645,-96.25519929585457,76.200527287817
2024-09-23 11:15:14.070402,0,16.360077,-0.0026862297461545674,-0.023330473146428877,0.09710254654607277,40.106058693909645,-92.24360919585227,84.22370748782159
2024-09-23 11:15:14.081957,0,16.360077,-0.0028852147413806935,-0.023280723622328886,0.09695331012558621,40.106058693909645,-92.24360919585227,84.22370748782159
2024-09-23 11:15:14.124663,0,16.360128,-0.003233425524256645,-0.023479709566915436,0.09695331012558621,40.106058693909645,-96.25519929585457,84.22370748782159
2024-09-23 11:15:14.166598,0,16.360128,-0.003233425524256645,-0.023479709566915436,0.0973015264147526,36.09446859390736,-96.25519929585457,84.22370748782159
2024-09-23 11:15:14.177764,0,16.360179,-0.0034324103296106863,-0.023479709566915436,0.0973015264147526,36.09446859390736,-96.25519929585457,84.22370748782159
2024-09-23 11:15:14.220496,0,16.360267,-0.0034324103296106863,-0.023230986250042305,0.0970030596496862,36.09446859390736,-96.25519929585457,80.21211738781929
2024-09-23 11:15:14.263393,0,16.360267,-0.0033329230534799477,-0.023330473146428877,0.0970030596496862,36.09446859390736,-96.25519929585457,80.21211738781929
2024-09-23 11:15:14.274466,0,16.360267,-0.0033329230534799477,-0.023330473146428877,0.09779897304849887,36.09446859390736,-88.23529758782387,92.24360919585227
2024-09-23 11:15:14.317053,0,16.360319,-0.0029349636958644295,-0.023181236725942318,0.0966050877605131,36.09446859390736,-88.23529758782387,92.24360919585227
2024-09-23 11:15:14.329364,0,16.360319,-0.0029349636958644295,-0.023181236725942318,0.0966050877605131,36.09446859390736,-96.25519929585457,92.24360919585227
2024-09-23 11:15:14.362442,0,16.36037,-0.003233425524256645,-0.023181236725942318,0.0966050877605131,36.09446859390736,-96.25519929585457,80.21211738781929
2024-09-23 11:15:14.373333,0,16.36037,-0.003233425524256645,-0.02362894446842532,0.09665483728461309,36.09446859390736,-96.25519929585457,80.21211738781929
2024-09-23 11:15:14.415673,0,16.36042,-0.0033329230534799477,-0.02308174982955575,0.09685382322919964,36.09446859390736,-100.26678939585686,80.21211738781929
2024-09-23 11:15:14.457910,0,16.36042,-0.0033329230534799477,-0.02308174982955575,0.09685382322919964,36.09446859390736,-100.26678939585686,80.21211738781929
2024-09-23 11:15:14.511499,0,16.360471,-0.0032831742888682963,-0.023479709566915436,0.09685382322919964,36.09446859390736,-100.26678939585686,80.21211738781929
2024-09-23 11:15:14.523181,0,16.360471,-0.0032831742888682963,-0.023479709566915436,0.0970030596496862,40.106058693909645,-100.26678939585686,80.21211738781929
2024-09-23 11:15:14.554816,0,16.360471,-0.0032831742888682963,-0.023479709566915436,0.0970030596496862,40.106058693909645,-92.24360919585227,80.21211738781929
2024-09-23 11:15:14.566379,0,16.360522,-0.003382661564999035,-0.022982261414192504,0.09685382322919964,40.106058693909645,-92.24360919585227,80.21211738781929
2024-09-23 11:15:14.609955,0,16.360609,-0.0034324103296106863,-0.022982261414192504,0.09685382322919964,32.08287849390507,-96.25519929585457,76.200527287817
2024-09-23 11:15:14.621840,0,16.360609,-0.0034324103296106863,-0.02352945757203875,0.09685382322919964,32.08287849390507,-96.25519929585457,76.200527287817
2024-09-23 11:15:14.656337,0,16.360609,-0.0034324103296106863,-0.02352945757203875,0.0973015264147526,40.106058693909645,-92.24360919585227,76.200527287817
2024-09-23 11:15:14.668127,0,16.36066,-0.0031339382481259063,-0.02352945757203875,0.0973015264147526,40.106058693909645,-92.24360919585227,80.21211738781929
2024-09-23 11:15:14.702920,0,16.36066,-0.0031339382481259063,-0.02313149783467906,0.0973015264147526,40.106058693909645,-92.24360919585227,80.21211738781929
2024-09-23 11:15:14.714434,0,16.360711,-0.0031339382481259063,-0.02313149783467906,0.0973015264147526,32.08287849390507,-96.25519929585457,80.21211738781929
2024-09-23 11:15:14.757010,0,16.360711,-0.003482159473966507,-0.023827930413011865,0.09755024973162574,36.09446859390736,-96.25519929585457,80.21211738781929
2024-09-23 11:15:14.799336,0,16.360804,-0.0029847020175114316,-0.023827930413011865,0.09755024973162574,36.09446859390736,-96.25519929585457,80.21211738781929
2024-09-23 11:15:14.810628,0,16.360804,-0.0029847020175114316,-0.023479709566915436,0.09720203344245934,36.09446859390736,-96.25519929585457,80.21211738781929
2024-09-23 11:15:14.852810,0,16.360856,-0.0038303700669703737,-0.023330473146428877,0.09715228999426605,36.09446859390736,-96.25519929585457,80.21211738781929
2024-09-23 11:15:14.864451,0,16.360856,-0.0038303700669703737,-0.023330473146428877,0.09715228999426605,40.106058693909645,-96.25519929585457,80.21211738781929
2024-09-23 11:15:14.896743,0,16.360856,-0.0038303700669703737,-0.023330473146428877,0.09715228999426605,40.106058693909645,-100.26678939585686,80.21211738781929
2024-09-23 11:15:14.908410,0,16.360906,-0.0029847020175114316,-0.023330473146428877,0.0970030596496862,40.106058693909645,-100.26678939585686,80.21211738781929
2024-09-23 11:15:14.951632,0,16.360957,-0.0031339382481259063,-0.023181236725942318,0.0970030596496862,36.09446859390736,-100.26678939585686,88.23529758782387
2024-09-23 11:15:14.994817,0,16.360957,-0.0031339382481259063,-0.023181236725942318,0.09720203344245934,36.09446859390736,-100.26678939585686,88.23529758782387
2024-09-23 11:15:15.006095,0,16.361008,-0.003382661564999035,-0.023181236725942318,0.09720203344245934,36.09446859390736,-100.26678939585686,80.21211738781929
2024-09-23 11:15:15.048301,42.97,16.361008,-0.003382661564999035,-0.02362894446842532,0.0970030596496862,28.07457030097246,-96.25519929585457,84.22370748782159
2024-09-23 11:15:15.060346,42.97,16.361096,-0.003382661564999035,-0.02362894446842532,0.0970030596496862,28.07457030097246,-96.25519929585457,84.22370748782159
2024-09-23 11:15:15.092616,42.97,16.361096,-0.0035318979854855937,-0.023479709566915436,0.0970030596496862,28.07457030097246,-96.25519929585457,84.22370748782159
2024-09-23 11:15:15.104451,42.97,16.361096,-0.0035318979854855937,-0.023479709566915436,0.0973512698629459,36.09446859390736,-104.27510100388527,84.22370748782159
2024-09-23 11:15:15.147930,42.97,16.361148,-0.003482159473966507,-0.023579196463302005,0.09710254654607277,36.09446859390736,-96.25519929585457,84.22370748782159
2024-09-23 11:15:15.191674,42.97,16.361198,-0.0032831742888682963,-0.023579196463302005,0.09710254654607277,36.09446859390736,-96.25519929585457,80.21211738781929
2024-09-23 11:15:15.203960,42.97,16.361198,-0.0032831742888682963,-0.02362894446842532,0.09715228999426605,36.09446859390736,-96.25519929585457,80.21211738781929
2024-09-23 11:15:15.235858,42.97,16.361198,-0.0032831742888682963,-0.02362894446842532,0.09715228999426605,36.09446859390736,-92.24360919585227,80.21211738781929
2024-09-23 11:15:15.248329,42.97,16.361249,-0.003233425524256645,-0.022982261414192504,0.0973512698629459,36.09446859390736,-92.24360919585227,84.22370748782159
2024-09-23 11:15:15.290177,42.97,16.3613,-0.003233425524256645,-0.022982261414192504,0.0973512698629459,40.106058693909645,-92.24360919585227,88.23529758782387
2024-09-23 11:15:15.301388,42.97,16.3613,-0.0028354659767690416,-0.02338022115155219,0.0973512698629459,40.106058693909645,-92.24360919585227,88.23529758782387
2024-09-23 11:15:15.334715,42.97,16.3613,-0.0028354659767690416,-0.02338022115155219,0.09695331012558621,40.106058693909645,-92.24360919585227,88.23529758782387
2024-09-23 11:15:15.345855,42.97,16.36135,-0.0037308827908396356,-0.02338022115155219,0.09695331012558621,40.106058693909645,-88.23529758782387,84.22370748782159
2024-09-23 11:15:15.388771,42.97,16.36135,-0.0037308827908396356,-0.022982261414192504,0.09705279702197278,36.09446859390736,-100.26678939585686,84.22370748782159
2024-09-23 11:15:15.400091,42.97,16.361437,-0.0037308827908396356,-0.022982261414192504,0.09705279702197278,36.09446859390736,-100.26678939585686,80.21211738781929
2024-09-23 11:15:15.431645,42.97,16.361437,-0.0037308827908396356,-0.022982261414192504,0.09705279702197278,36.09446859390736,-100.26678939585686,80.21211738781929
2024-09-23 11:15:15.443721,42.97,16.361437,-0.0037308827908396356,-0.023479709566915436,0.0973015264147526,40.106058693909645,-100.26678939585686,72.1922225099802
2024-09-23 11:15:15.486379,42.97,16.361489,-0.002785727465249955,-0.02313149783467906,0.09725178296655933,40.106058693909645,-100.26678939585686,72.1922225099802
2024-09-23 11:15:15.497572,42.97,16.361489,-0.002785727465249955,-0.02313149783467906,0.09725178296655933,32.08287849390507,-100.26678939585686,72.1922225099802
2024-09-23 11:15:15.530887,42.97,16.36154,-0.002785727465249955,-0.02313149783467906,0.09725178296655933,32.08287849390507,-100.26678939585686,80.21211738781929
2024-09-23 11:15:15.541821,42.97,16.36154,-0.0035318979854855937,-0.023280723622328886,0.09695331012558621,36.09446859390736,-100.26678939585686,80.21211738781929
2024-09-23 11:15:15.585683,42.97,16.361591,-0.003631395514708897,-0.024076653729884996,0.09715228999426605,36.09446859390736,-96.25519929585457,80.21211738781929
2024-09-23 11:15:15.628070,42.97,16.361591,-0.003631395514708897,-0.024076653729884996,0.09715228999426605,32.08287849390507,-104.27510100388527,80.21211738781929
2024-09-23 11:15:15.639420,42.97,16.361641,-0.003233425524256645,-0.02338022115155219,0.09715228999426605,32.08287849390507,-104.27510100388527,72.1922225099802
2024-09-23 11:15:15.682181,42.97,16.361692,-0.003233425524256645,-0.02338022115155219,0.09675432418099966,40.106058693909645,-104.27510100388527,76.200527287817
2024-09-23 11:15:15.694259,42.97,16.361692,-0.003382661564999035,-0.02338022115155219,0.09675432418099966,40.106058693909645,-104.27510100388527,76.200527287817
2024-09-23 11:15:15.778444,42.97,16.361692,-0.003382661564999035,-0.023230986250042305,0.09745075675933246,40.106058693909645,-96.25519929585457,76.200527287817
2024-09-23 11:15:15.790425,42.97,16.361779,-0.003382661564999035,-0.023230986250042305,0.09745075675933246,40.106058693909645,-96.25519929585457,80.21211738781929
2024-09-23 11:15:15.823559,42.97,16.361779,-0.0036811340262279837,-0.023230986250042305,0.09745075675933246,40.106058693909645,-96.25519929585457,80.21211738781929
2024-09-23 11:15:15.835418,42.97,16.361779,-0.0036811340262279837,-0.023479709566915436,0.09710254654607277,40.106058693909645,-100.26678939585686,80.21211738781929
2024-09-23 11:15:15.877697,42.97,16.36183,-0.003233425524256645,-0.023429960042815445,0.09710254654607277,40.106058693909645,-100.26678939585686,80.21211738781929
2024-09-23 11:15:15.920303,42.97,16.36183,-0.003233425524256645,-0.023429960042815445,0.09690356060148622,36.09446859390736,-100.26678939585686,80.21211738781929
2024-09-23 11:15:15.933157,42.97,16.361881,-0.0032831742888682963,-0.023429960042815445,0.09690356060148622,36.09446859390736,-92.24360919585227,76.200527287817
2024-09-23 11:15:15.976306,42.97,16.361932,-0.0032831742888682963,-0.023280723622328886,0.09720203344245934,36.09446859390736,-100.26678939585686,76.200527287817
2024-09-23 11:15:16.018782,42.97,16.361932,-0.0029847020175114316,-0.023429960042815445,0.09720203344245934,36.09446859390736,-100.26678939585686,76.200527287817
2024-09-23 11:15:16.030596,42.97,16.361932,-0.0029847020175114316,-0.023429960042815445,0.09695331012558621,40.106058693909645,-100.26678939585686,80.21211738781929
2024-09-23 11:15:16.074112,43.42,16.362025,-0.004029355252068585,-0.023181236725942318,0.09670458680871308,40.106058693909645,-104.27510100388527,80.21211738781929
2024-09-23 11:15:16.116738,43.42,16.362075,-0.0030841997366068195,-0.023181236725942318,0.09670458680871308,40.106058693909645,-104.27510100388527,80.21211738781929
2024-09-23 11:15:16.127934,43.42,16.362075,-0.0030841997366068195,-0.023230986250042305,0.09710254654607277,32.08287849390507,-104.27510100388527,80.21211738781929
2024-09-23 11:15:16.170699,43.42,16.36217,-0.0030344509719951677,-0.02397715620066169,0.09764974270391902,32.08287849390507,-96.25519929585457,88.23529758782387
2024-09-23 11:15:16.214481,43.42,16.36217,-0.0030344509719951677,-0.02397715620066169,0.09764974270391902,44.11764879391193,-100.26678939585686,84.22370748782159
2024-09-23 11:15:16.225436,43.42,16.362221,-0.0035816467500972456,-0.023280723622328886,0.09764974270391902,44.11764879391193,-100.26678939585686,84.22370748782159
2024-09-23 11:15:16.267646,43.42,16.362272,-0.003482159473966507,-0.023280723622328886,0.09710254654607277,48.12595698684454,-100.26678939585686,84.22370748782159
2024-09-23 11:15:16.310095,43.42,16.362272,-0.003482159473966507,-0.023181236725942318,0.09710254654607277,48.12595698684454,-100.26678939585686,84.22370748782159
2024-09-23 11:15:16.322214,43.42,16.362364,-0.003482159473966507,-0.023181236725942318,0.0966050877605131,36.09446859390736,-100.26678939585686,84.22370748782159
2024-09-23 11:15:16.364511,43.42,16.362364,-0.0028354659767690416,-0.02397715620066169,0.09750050628343246,32.08287849390507,-100.26678939585686,84.22370748782159
2024-09-23 11:15:16.376856,43.42,16.362364,-0.0028354659767690416,-0.02397715620066169,0.09750050628343246,32.08287849390507,-100.26678939585686,84.22370748782159
2024-09-23 11:15:16.409567,43.42,16.362415,-0.003233425524256645,-0.023479709566915436,0.09750050628343246,32.08287849390507,-100.26678939585686,84.22370748782159
2024-09-23 11:15:16.420621,43.42,16.362415,-0.003233425524256645,-0.023479709566915436,0.0973015264147526,36.09446859390736,-100.26678939585686,84.22370748782159
2024-09-23 11:15:16.464176,43.42,16.362466,-0.0033329230534799477,-0.02313149783467906,0.09745075675933246,24.06297849342227,-100.26678939585686,80.21211738781929
2024-09-23 11:15:16.507880,43.42,16.362517,-0.0033329230534799477,-0.02313149783467906,0.09745075675933246,24.06297849342227,-100.26678939585686,80.21211738781929
2024-09-23 11:15:16.519200,43.42,16.362517,-0.0031836870127375577,-0.023330473146428877,0.09725178296655933,24.06297849342227,-100.26678939585686,80.21211738781929
2024-09-23 11:15:16.561828,43.42,16.362567,-0.0033329230534799477,-0.023479709566915436,0.09725178296655933,32.08287849390507,-104.27510100388527,76.200527287817
2024-09-23 11:15:16.605048,43.42,16.362567,-0.0033329230534799477,-0.023479709566915436,0.0973512698629459,40.106058693909645,-96.25519929585457,76.200527287817
2024-09-23 11:15:16.618043,43.42,16.362618,-0.002785727465249955,-0.023479709566915436,0.0973512698629459,40.106058693909645,-96.25519929585457,76.200527287817
2024-09-23 11:15:16.652286,43.42,16.362618,-0.002785727465249955,-0.023230986250042305,0.09685382322919964,40.106058693909645,-96.25519929585457,76.200527287817
2024-09-23 11:15:16.664021,43.42,16.362705,-0.002785727465249955,-0.023230986250042305,0.09685382322919964,40.106058693909645,-96.25519929585457,84.22370748782159
2024-09-23 11:15:16.707412,43.42,16.362705,-0.0038801188315820256,-0.023429960042815445,0.09725178296655933,36.09446859390736,-100.26678939585686,80.21211738781929
2024-09-23 11:15:16.801915,43.42,16.362757,-0.0029847020175114316,-0.023479709566915436,0.09695331012558621,36.09446859390736,-100.26678939585686,80.21211738781929
2024-09-23 11:15:16.813480,43.42,16.362757,-0.0029847020175114316,-0.023479709566915436,0.09695331012558621,44.11764879391193,-100.26678939585686,80.21211738781929
2024-09-23 11:15:16.846273,43.42,16.362757,-0.0029847020175114316,-0.023479709566915436,0.09695331012558621,44.11764879391193,-100.26678939585686,76.200527287817
2024-09-23 11:15:16.857398,43.42,16.362807,-0.0029847020175114316,-0.02313149783467906,0.09755024973162574,40.106058693909645,-100.26678939585686,76.200527287817
2024-09-23 11:15:16.899568,43.42,16.362858,-0.0035318979854855937,-0.02313149783467906,0.09755024973162574,40.106058693909645,-100.26678939585686,80.21211738781929
2024-09-23 11:15:16.911316,43.42,16.362858,-0.0035318979854855937,-0.022982261414192504,0.09710254654607277,40.106058693909645,-100.26678939585686,80.21211738781929
2024-09-23 11:15:16.944294,43.42,16.362858,-0.0035318979854855937,-0.022982261414192504,0.09710254654607277,48.12595698684454,-92.24360919585227,80.21211738781929
2024-09-23 11:15:16.955760,43.42,16.362908,-0.0031339382481259063,-0.02293251340906919,0.09710254654607277,48.12595698684454,-92.24360919585227,84.22370748782159
2024-09-23 11:15:16.997874,43.42,16.362959,-0.0031339382481259063,-0.02293251340906919,0.09650560086412653,44.11764879391193,-96.25519929585457,80.21211738781929
2024-09-23 11:15:17.009690,43.42,16.362959,-0.0035816467500972456,-0.02293251340906919,0.09650560086412653,44.11764879391193,-96.25519929585457,80.21211738781929
2024-09-23 11:15:17.041412,43.42,16.362959,-0.0035816467500972456,-0.023181236725942318,0.09650560086412653,44.11764879391193,-96.25519929585457,80.21211738781929
2024-09-23 11:15:17.053378,43.42,16.363095,-0.0035816467500972456,-0.023181236725942318,0.09759999317981902,28.07457030097246,-96.25519929585457,80.21211738781929
2024-09-23 11:15:17.096185,42.64,16.363095,-0.0036811340262279837,-0.023330473146428877,0.09690356060148622,32.08287849390507,-100.26678939585686,80.21211738781929
2024-09-23 11:15:17.107965,42.64,16.363095,-0.0036811340262279837,-0.023330473146428877,0.09690356060148622,32.08287849390507,-100.26678939585686,80.21211738781929
2024-09-23 11:15:17.139933,42.64,16.363147,-0.0031339382481259063,-0.023330473146428877,0.09690356060148622,32.08287849390507,-100.26678939585686,80.21211738781929
2024-09-23 11:15:17.151154,42.64,16.363147,-0.0031339382481259063,-0.02293251340906919,0.09779897304849887,44.11764879391193,-100.26678939585686,80.21211738781929
2024-09-23 11:15:17.194618,42.64,16.363197,-0.0037308827908396356,-0.023579196463302005,0.09680407370509965,44.11764879391193,-100.26678939585686,76.200527287817
2024-09-23 11:15:17.206047,42.64,16.363197,-0.0037308827908396356,-0.023579196463302005,0.09680407370509965,32.08287849390507,-100.26678939585686,76.200527287817
2024-09-23 11:15:17.238235,42.64,16.363248,-0.0037308827908396356,-0.023579196463302005,0.09680407370509965,32.08287849390507,-104.27510100388527,80.21211738781929
2024-09-23 11:15:17.249156,42.64,16.363248,-0.0027359787006383035,-0.023330473146428877,0.09740101331113918,32.08287849390507,-104.27510100388527,80.21211738781929
2024-09-23 11:15:17.291369,42.64,16.363299,-0.0031339382481259063,-0.023330473146428877,0.09740101331113918,36.09446859390736,-104.27510100388527,80.21211738781929
2024-09-23 11:15:17.303268,42.64,16.363299,-0.0031339382481259063,-0.02352945757203875,0.09740101331113918,36.09446859390736,-104.27510100388527,80.21211738781929
2024-09-23 11:15:17.337175,42.64,16.363299,-0.0031339382481259063,-0.02352945757203875,0.0966050877605131,40.106058693909645,-104.27510100388527,80.21211738781929
2024-09-23 11:15:17.348225,42.64,16.363349,-0.0033329230534799477,-0.02352945757203875,0.0966050877605131,40.106058693909645,-104.27510100388527,84.22370748782159
2024-09-23 11:15:17.390125,42.64,16.363436,-0.0033329230534799477,-0.023479709566915436,0.09710254654607277,36.09446859390736,-92.24360919585227,80.21211738781929
2024-09-23 11:15:17.434103,42.64,16.363436,-0.003382661564999035,-0.02352945757203875,0.09670458680871308,36.09446859390736,-92.24360919585227,80.21211738781929
2024-09-23 11:15:17.447241,42.64,16.363436,-0.003382661564999035,-0.02352945757203875,0.09670458680871308,40.106058693909645,-100.26678939585686,76.200527287817
2024-09-23 11:15:17.479326,42.64,16.363488,-0.003382661564999035,-0.02352945757203875,0.09670458680871308,40.106058693909645,-100.26678939585686,76.200527287817
2024-09-23 11:15:17.491261,42.64,16.363488,-0.0031339382481259063,-0.023280723622328886,0.09675432418099966,40.106058693909645,-104.27510100388527,76.200527287817
2024-09-23 11:15:17.533062,42.64,16.363539,-0.0029847020175114316,-0.02397715620066169,0.09675432418099966,40.106058693909645,-104.27510100388527,80.21211738781929
2024-09-23 11:15:17.544016,42.64,16.363539,-0.0029847020175114316,-0.02397715620066169,0.09680407370509965,32.08287849390507,-104.27510100388527,80.21211738781929
2024-09-23 11:15:17.576140,42.64,16.363539,-0.0029847020175114316,-0.02397715620066169,0.09680407370509965,32.08287849390507,-96.25519929585457,80.21211738781929
2024-09-23 11:15:17.587112,42.64,16.363589,-0.002785727465249955,-0.023579196463302005,0.09710254654607277,32.08287849390507,-96.25519929585457,76.200527287817
2024-09-23 11:15:17.629601,42.64,16.36364,-0.002785727465249955,-0.023579196463302005,0.09710254654607277,28.07457030097246,-104.27510100388527,72.1922225099802
2024-09-23 11:15:17.641344,42.64,16.36364,-0.0031339382481259063,-0.023181236725942318,0.09710254654607277,28.07457030097246,-104.27510100388527,72.1922225099802
2024-09-23 11:15:17.675127,42.64,16.36364,-0.0031339382481259063,-0.023181236725942318,0.09705279702197278,28.07457030097246,-104.27510100388527,72.1922225099802
2024-09-23 11:15:17.687471,42.64,16.363691,-0.0031836870127375577,-0.023181236725942318,0.09705279702197278,32.08287849390507,-100.26678939585686,80.21211738781929
2024-09-23 11:15:17.730272,42.64,16.363691,-0.0031836870127375577,-0.023280723622328886,0.09670458680871308,40.106058693909645,-96.25519929585457,72.1922225099802
2024-09-23 11:15:17.742225,42.64,16.363778,-0.0031836870127375577,-0.023280723622328886,0.09670458680871308,40.106058693909645,-96.25519929585457,72.1922225099802
2024-09-23 11:15:17.775507,42.64,16.363778,-0.0030344509719951677,-0.023280723622328886,0.09710254654607277,40.106058693909645,-96.25519929585457,72.1922225099802
2024-09-23 11:15:17.786549,42.64,16.363778,-0.0030344509719951677,-0.023280723622328886,0.09710254654607277,32.08287849390507,-108.28669110388756,80.21211738781929
2024-09-23 11:15:17.829333,42.64,16.363829,-0.0030841997366068195,-0.023827930413011865,0.09690356060148622,36.09446859390736,-104.27510100388527,80.21211738781929
2024-09-23 11:15:17.872644,42.64,16.36388,-0.0031339382481259063,-0.023827930413011865,0.09690356060148622,36.09446859390736,-104.27510100388527,80.21211738781929
2024-09-23 11:15:17.884101,42.64,16.36388,-0.0031339382481259063,-0.02367869399252531,0.09680407370509965,40.106058693909645,-104.27510100388527,80.21211738781929
2024-09-23 11:15:17.926564,42.64,16.36393,-0.003233425524256645,-0.02338022115155219,0.09690356060148622,40.106058693909645,-96.25519929585457,80.21211738781929
2024-09-23 11:15:17.969317,42.64,16.36393,-0.003233425524256645,-0.02338022115155219,0.09690356060148622,32.08287849390507,-100.26678939585686,76.200527287817
2024-09-23 11:15:17.980792,42.64,16.363981,-0.0032831742888682963,-0.023579196463302005,0.09690356060148622,32.08287849390507,-100.26678939585686,76.200527287817
2024-09-23 11:15:18.023189,42.64,16.364032,-0.0035318979854855937,-0.023579196463302005,0.0970030596496862,40.106058693909645,-100.26678939585686,84.22370748782159
2024-09-23 11:15:18.066039,42.64,16.364032,-0.0035318979854855937,-0.02352945757203875,0.09720203344245934,40.106058693909645,-100.26678939585686,84.22370748782159
2024-09-23 11:15:18.078201,42.64,16.364119,-0.0035318979854855937,-0.02352945757203875,0.09720203344245934,36.09446859390736,-104.27510100388527,76.200527287817
2024-09-23 11:15:18.121577,43.2,16.364119,-0.0031836870127375577,-0.023579196463302005,0.0973015264147526,40.106058693909645,-96.25519929585457,80.21211738781929
2024-09-23 11:15:18.164832,43.2,16.36417,-0.003233425524256645,-0.023280723622328886,0.0973015264147526,40.106058693909645,-96.25519929585457,80.21211738781929
2024-09-23 11:15:18.176474,43.2,16.36417,-0.003233425524256645,-0.023280723622328886,0.09725178296655933,32.08287849390507,-104.27510100388527,80.21211738781929
2024-09-23 11:15:18.219423,43.2,16.364221,-0.0035318979854855937,-0.023429960042815445,0.09685382322919964,36.09446859390736,-104.27510100388527,80.21211738781929
2024-09-23 11:15:18.262386,43.2,16.364272,-0.0035318979854855937,-0.023429960042815445,0.09685382322919964,36.09446859390736,-96.25519929585457,84.22370748782159
2024-09-23 11:15:18.273938,43.2,16.364272,-0.0030344509719951677,-0.023579196463302005,0.09670458680871308,36.09446859390736,-96.25519929585457,84.22370748782159
2024-09-23 11:15:18.316549,43.2,16.364322,-0.003979606107712764,-0.023778180888911878,0.09670458680871308,36.09446859390736,-92.24360919585227,84.22370748782159
2024-09-23 11:15:18.359793,43.2,16.364322,-0.003979606107712764,-0.023778180888911878,0.09740101331113918,40.106058693909645,-96.25519929585457,84.22370748782159
2024-09-23 11:15:18.371873,43.2,16.364373,-0.0030344509719951677,-0.023778180888911878,0.09740101331113918,40.106058693909645,-96.25519929585457,76.200527287817
2024-09-23 11:15:18.414147,43.2,16.36446,-0.0030344509719951677,-0.022833026512682618,0.09655535038822652,36.09446859390736,-92.24360919585227,80.21211738781929
2024-09-23 11:15:18.455820,43.2,16.36446,-0.003482159473966507,-0.023280723622328886,0.09655535038822652,36.09446859390736,-92.24360919585227,80.21211738781929
2024-09-23 11:15:18.467366,43.2,16.36446,-0.003482159473966507,-0.023280723622328886,0.0970030596496862,32.08287849390507,-96.25519929585457,76.200527287817
2024-09-23 11:15:18.510273,43.2,16.364512,-0.0029847020175114316,-0.02367869399252531,0.09665483728461309,40.106058693909645,-96.25519929585457,76.200527287817
2024-09-23 11:15:18.553255,43.2,16.364562,-0.0029847020175114316,-0.02367869399252531,0.09665483728461309,40.106058693909645,-96.25519929585457,76.200527287817
2024-09-23 11:15:18.564299,43.2,16.364562,-0.0028354659767690416,-0.02303200030545576,0.09740101331113918,40.106058693909645,-96.25519929585457,76.200527287817
2024-09-23 11:15:18.606739,43.2,16.364613,-0.0032831742888682963,-0.02397715620066169,0.09740101331113918,40.106058693909645,-100.26678939585686,80.21211738781929
2024-09-23 11:15:18.618277,43.2,16.364613,-0.0032831742888682963,-0.02397715620066169,0.09710254654607277,40.106058693909645,-100.26678939585686,80.21211738781929
2024-09-23 11:15:18.650477,43.2,16.364613,-0.0032831742888682963,-0.02397715620066169,0.09710254654607277,32.08287849390507,-96.25519929585457,80.21211738781929
2024-09-23 11:15:18.661994,43.2,16.364664,-0.0035318979854855937,-0.023827930413011865,0.09710254654607277,32.08287849390507,-96.25519929585457,80.21211738781929
2024-09-23 11:15:18.703858,43.2,16.364714,-0.0035318979854855937,-0.023827930413011865,0.09710254654607277,24.06297849342227,-100.26678939585686,80.21211738781929
2024-09-23 11:15:18.715911,43.2,16.364714,-0.003382661564999035,-0.023827930413011865,0.09710254654607277,24.06297849342227,-100.26678939585686,80.21211738781929
2024-09-23 11:15:18.748606,43.2,16.364714,-0.003382661564999035,-0.02308174982955575,0.09774922960030558,24.06297849342227,-100.26678939585686,80.21211738781929
2024-09-23 11:15:18.760625,43.2,16.364801,-0.003382661564999035,-0.02308174982955575,0.09774922960030558,44.11764879391193,-96.25519929585457,80.21211738781929
2024-09-23 11:15:18.843666,43.2,16.364801,-0.003382661564999035,-0.02308174982955575,0.09774922960030558,44.11764879391193,-96.25519929585457,80.21211738781929
2024-09-23 11:15:18.855777,43.2,16.364801,-0.003382661564999035,-0.02367869399252531,0.09750050628343246,48.12595698684454,-100.26678939585686,80.21211738781929
2024-09-23 11:15:18.898126,43.2,16.364853,-0.0033329230534799477,-0.02362894446842532,0.09720203344245934,48.12595698684454,-100.26678939585686,80.21211738781929
2024-09-23 11:15:18.910042,43.2,16.364853,-0.0033329230534799477,-0.02362894446842532,0.09720203344245934,44.11764879391193,-100.26678939585686,80.21211738781929
2024-09-23 11:15:18.941963,43.2,16.364853,-0.0033329230534799477,-0.02362894446842532,0.09720203344245934,44.11764879391193,-100.26678939585686,76.200527287817
2024-09-23 11:15:18.953882,43.2,16.364903,-0.0035816467500972456,-0.02338022115155219,0.09759999317981902,44.11764879391193,-100.26678939585686,76.200527287817
2024-09-23 11:15:18.997273,43.2,16.364954,-0.0030344509719951677,-0.023330473146428877,0.09759999317981902,44.11764879391193,-96.25519929585457,80.21211738781929
2024-09-23 11:15:19.009368,43.2,16.364954,-0.0030344509719951677,-0.023330473146428877,0.09695331012558621,44.11764879391193,-96.25519929585457,80.21211738781929
2024-09-23 11:15:19.041002,43.2,16.364954,-0.0030344509719951677,-0.023330473146428877,0.09695331012558621,36.09446859390736,-96.25519929585457,80.21211738781929
2024-09-23 11:15:19.052266,43.2,16.365005,-0.0038303700669703737,-0.02308174982955575,0.09695331012558621,36.09446859390736,-96.25519929585457,80.21211738781929
2024-09-23 11:15:19.095540,43.2,16.365097,-0.0028354659767690416,-0.02308174982955575,0.0973512698629459,40.106058693909645,-96.25519929585457,84.22370748782159
2024-09-23 11:15:19.138000,42.82,16.365097,-0.0028354659767690416,-0.023181236725942318,0.09750050628343246,40.106058693909645,-96.25519929585457,84.22370748782159
2024-09-23 11:15:19.149966,42.82,16.365097,-0.0028354659767690416,-0.023181236725942318,0.09750050628343246,36.09446859390736,-104.27510100388527,80.21211738781929
2024-09-23 11:15:19.192143,42.82,16.365191,-0.003482159473966507,-0.023579196463302005,0.09764974270391902,44.11764879391193,-104.27510100388527,80.21211738781929
2024-09-23 11:15:19.204178,42.82,16.365191,-0.003482159473966507,-0.023579196463302005,0.09764974270391902,44.11764879391193,-104.27510100388527,80.21211738781929
2024-09-23 11:15:19.236830,42.82,16.365243,-0.003482159473966507,-0.023579196463302005,0.09764974270391902,44.11764879391193,-104.27510100388527,76.200527287817
2024-09-23 11:15:19.248087,42.82,16.365243,-0.003482159473966507,-0.023429960042815445,0.09675432418099966,40.106058693909645,-104.27510100388527,76.200527287817
2024-09-23 11:15:19.290181,42.82,16.365293,-0.0035318979854855937,-0.02338022115155219,0.09675432418099966,40.106058693909645,-88.23529758782387,76.200527287817
2024-09-23 11:15:19.332588,42.82,16.365293,-0.0035318979854855937,-0.02338022115155219,0.09675432418099966,44.11764879391193,-88.23529758782387,76.200527287817
2024-09-23 11:15:19.344350,42.82,16.365344,-0.0033329230534799477,-0.023579196463302005,0.09675432418099966,44.11764879391193,-88.23529758782387,76.200527287817
2024-09-23 11:15:19.387299,42.82,16.365395,-0.0033329230534799477,-0.023579196463302005,0.09695331012558621,44.11764879391193,-96.25519929585457,76.200527287817
2024-09-23 11:15:19.398990,42.82,16.365395,-0.0031339382481259063,-0.023579196463302005,0.09695331012558621,44.11764879391193,-96.25519929585457,76.200527287817
2024-09-23 11:15:19.430977,42.82,16.365395,-0.0031339382481259063,-0.023230986250042305,0.0966050877605131,44.11764879391193,-96.25519929585457,76.200527287817
2024-09-23 11:15:19.442057,42.82,16.365484,-0.0031339382481259063,-0.023230986250042305,0.0966050877605131,36.09446859390736,-100.26678939585686,76.200527287817
2024-09-23 11:15:19.486205,42.82,16.365484,-0.0028354659767690416,-0.023181236725942318,0.09680407370509965,44.11764879391193,-104.27510100388527,80.21211738781929
2024-09-23 11:15:19.528636,42.82,16.365535,-0.0031339382481259063,-0.023181236725942318,0.09680407370509965,44.11764879391193,-104.27510100388527,80.21211738781929
2024-09-23 11:15:19.540553,42.82,16.365535,-0.0031339382481259063,-0.022982261414192504,0.09675432418099966,36.09446859390736,-100.26678939585686,80.21211738781929
2024-09-23 11:15:19.582398,42.82,16.365586,-0.0037308827908396356,-0.023927417309398437,0.09720203344245934,36.09446859390736,-100.26678939585686,80.21211738781929
2024-09-23 11:15:19.594294,42.82,16.365586,-0.0037308827908396356,-0.023927417309398437,0.09720203344245934,40.106058693909645,-100.26678939585686,80.21211738781929
2024-09-23 11:15:19.626146,42.82,16.365586,-0.0037308827908396356,-0.023927417309398437,0.09720203344245934,40.106058693909645,-92.24360919585227,84.22370748782159
2024-09-23 11:15:19.637460,42.82,16.365637,-0.0030344509719951677,-0.02338022115155219,0.09705279702197278,40.106058693909645,-92.24360919585227,84.22370748782159
2024-09-23 11:15:19.679715,42.82,16.365688,-0.0030344509719951677,-0.02338022115155219,0.09705279702197278,36.09446859390736,-100.26678939585686,80.21211738781929
2024-09-23 11:15:19.691322,42.82,16.365688,-0.0030344509719951677,-0.023479709566915436,0.09705279702197278,36.09446859390736,-100.26678939585686,80.21211738781929
2024-09-23 11:15:19.723606,42.82,16.365688,-0.0030344509719951677,-0.023479709566915436,0.0973015264147526,40.106058693909645,-100.26678939585686,80.21211738781929
2024-09-23 11:15:19.735158,42.82,16.365738,-0.003631395514708897,-0.023479709566915436,0.0973015264147526,40.106058693909645,-104.27510100388527,80.21211738781929
2024-09-23 11:15:19.778091,42.82,16.365825,-0.003631395514708897,-0.02362894446842532,0.09710254654607277,32.08287849390507,-96.25519929585457,84.22370748782159
2024-09-23 11:15:19.872066,42.82,16.365825,-0.002785727465249955,-0.023728432883788564,0.0970030596496862,40.106058693909645,-96.25519929585457,84.22370748782159
2024-09-23 11:15:19.883858,42.82,16.365825,-0.002785727465249955,-0.023728432883788564,0.0970030596496862,40.106058693909645,-92.24360919585227,76.200527287817
2024-09-23 11:15:19.916613,42.82,16.365877,-0.002785727465249955,-0.023728432883788564,0.0970030596496862,40.106058693909645,-92.24360919585227,76.200527287817
2024-09-23 11:15:19.928005,42.82,16.365877,-0.0028852147413806935,-0.023230986250042305,0.09670458680871308,40.106058693909645,-96.25519929585457,76.200527287817
2024-09-23 11:15:19.970549,42.82,16.365927,-0.0035816467500972456,-0.023479709566915436,0.09670458680871308,40.106058693909645,-96.25519929585457,76.200527287817
2024-09-23 11:15:19.982472,42.82,16.365927,-0.0035816467500972456,-0.023479709566915436,0.09710254654607277,44.11764879391193,-96.25519929585457,76.200527287817
2024-09-23 11:15:20.015521,42.82,16.365927,-0.0035816467500972456,-0.023479709566915436,0.09710254654607277,44.11764879391193,-96.25519929585457,76.200527287817
2024-09-23 11:15:20.067952,42.82,16.365978,-0.003233425524256645,-0.023429960042815445,0.09715228999426605,44.11764879391193,-96.25519929585457,76.200527287817
2024-09-23 11:15:20.079843,42.82,16.365978,-0.003233425524256645,-0.023429960042815445,0.09715228999426605,40.106058693909645,-100.26678939585686,76.200527287817
2024-09-23 11:15:20.112045,42.82,16.365978,-0.003233425524256645,-0.023429960042815445,0.09715228999426605,40.106058693909645,-100.26678939585686,80.21211738781929
2024-09-23 11:15:20.123828,42.82,16.366029,-0.0032831742888682963,-0.02352945757203875,0.09740101331113918,36.09446859390736,-100.26678939585686,80.21211738781929
2024-09-23 11:15:20.167412,42.81,16.36612,-0.003382661564999035,-0.023728432883788564,0.09740101331113918,36.09446859390736,-100.26678939585686,80.21211738781929
2024-09-23 11:15:20.179380,42.81,16.36612,-0.003382661564999035,-0.023728432883788564,0.09745075675933246,36.09446859390736,-100.26678939585686,80.21211738781929
2024-09-23 11:15:20.212399,42.81,16.36612,-0.003382661564999035,-0.023728432883788564,0.09745075675933246,36.09446859390736,-96.25519929585457,76.200527287817
2024-09-23 11:15:20.224003,42.81,16.366215,-0.003482159473966507,-0.022833026512682618,0.09745075675933246,36.09446859390736,-96.25519929585457,76.200527287817
2024-09-23 11:15:20.267343,42.81,16.366266,-0.0035816467500972456,-0.022833026512682618,0.09695331012558621,44.11764879391193,-92.24360919585227,76.200527287817
2024-09-23 11:15:20.309156,42.81,16.366266,-0.0035816467500972456,-0.023728432883788564,0.0973015264147526,40.106058693909645,-92.24360919585227,76.200527287817
2024-09-23 11:15:20.320678,42.81,16.366361,-0.0035816467500972456,-0.023728432883788564,0.0973015264147526,40.106058693909645,-96.25519929585457,76.200527287817
2024-09-23 11:15:20.363285,42.81,16.366361,-0.0036811340262279837,-0.023827930413011865,0.09680407370509965,40.106058693909645,-100.26678939585686,80.21211738781929
2024-09-23 11:15:20.405805,42.81,16.366413,-0.003382661564999035,-0.023827930413011865,0.09680407370509965,40.106058693909645,-100.26678939585686,80.21211738781929
2024-09-23 11:15:20.417375,42.81,16.366413,-0.003382661564999035,-0.02367869399252531,0.09710254654607277,40.106058693909645,-96.25519929585457,80.21211738781929
2024-09-23 11:15:20.459767,42.81,16.366463,-0.0029847020175114316,-0.023778180888911878,0.0973015264147526,40.106058693909645,-96.25519929585457,76.200527287817
2024-09-23 11:15:20.472116,42.81,16.366463,-0.0029847020175114316,-0.023778180888911878,0.0973015264147526,36.09446859390736,-96.25519929585457,76.200527287817
2024-09-23 11:15:20.505075,42.81,16.366514,-0.0029847020175114316,-0.023778180888911878,0.0973015264147526,36.09446859390736,-96.25519929585457,80.21211738781929
2024-09-23 11:15:20.516511,42.81,16.366514,-0.0027359787006383035,-0.024375126570858115,0.09710254654607277,36.09446859390736,-96.25519929585457,80.21211738781929
2024-09-23 11:15:20.559034,42.81,16.366565,-0.0028354659767690416,-0.02338022115155219,0.09710254654607277,40.106058693909645,-100.26678939585686,80.21211738781929
2024-09-23 11:15:20.601251,42.81,16.366565,-0.0028354659767690416,-0.02338022115155219,0.09720203344245934,36.09446859390736,-100.26678939585686,80.21211738781929
2024-09-23 11:15:20.613451,42.81,16.366615,-0.0032831742888682963,-0.02338022115155219,0.09720203344245934,36.09446859390736,-96.25519929585457,84.22370748782159
2024-09-23 11:15:20.656758,42.81,16.366703,-0.0032831742888682963,-0.02338022115155219,0.09764974270391902,32.08287849390507,-100.26678939585686,76.200527287817
2024-09-23 11:15:20.699067,42.81,16.366703,-0.0028354659767690416,-0.02303200030545576,0.09764974270391902,32.08287849390507,-100.26678939585686,76.200527287817
2024-09-23 11:15:20.710323,42.81,16.366703,-0.0028354659767690416,-0.02303200030545576,0.09725178296655933,40.106058693909645,-96.25519929585457,84.22370748782159
2024-09-23 11:15:20.754015,42.81,16.366754,-0.0036811340262279837,-0.023230986250042305,0.09690356060148622,40.106058693909645,-100.26678939585686,84.22370748782159
2024-09-23 11:15:20.796045,42.81,16.366805,-0.0036811340262279837,-0.023230986250042305,0.09690356060148622,40.106058693909645,-100.26678939585686,80.21211738781929
2024-09-23 11:15:20.807545,42.81,16.366805,-0.003482159473966507,-0.023579196463302005,0.09705279702197278,40.106058693909645,-100.26678939585686,80.21211738781929
2024-09-23 11:15:20.849112,42.81,16.366856,-0.0034324103296106863,-0.023330473146428877,0.09705279702197278,40.106058693909645,-100.26678939585686,72.1922225099802
2024-09-23 11:15:20.861000,42.81,16.366856,-0.0034324103296106863,-0.023330473146428877,0.09745075675933246,40.106058693909645,-100.26678939585686,72.1922225099802
2024-09-23 11:15:20.892910,42.81,16.366856,-0.0034324103296106863,-0.023330473146428877,0.09745075675933246,40.106058693909645,-100.26678939585686,72.1922225099802
2024-09-23 11:15:20.904723,42.81,16.366907,-0.003482159473966507,-0.023280723622328886,0.09745075675933246,40.106058693909645,-100.26678939585686,76.200527287817
2024-09-23 11:15:20.946560,42.81,16.366957,-0.003482159473966507,-0.023280723622328886,0.09695331012558621,32.08287849390507,-88.23529758782387,92.24360919585227
2024-09-23 11:15:20.958349,42.81,16.366957,-0.0030344509719951677,-0.023280723622328886,0.09695331012558621,32.08287849390507,-88.23529758782387,92.24360919585227
2024-09-23 11:15:20.991129,42.81,16.366957,-0.0030344509719951677,-0.02352945757203875,0.0970030596496862,32.08287849390507,-88.23529758782387,92.24360919585227
2024-09-23 11:15:21.002180,42.81,16.367044,-0.0030344509719951677,-0.02352945757203875,0.0970030596496862,36.09446859390736,-96.25519929585457,84.22370748782159
2024-09-23 11:15:21.044039,42.81,16.367044,-0.003780631555451287,-0.023181236725942318,0.09695331012558621,32.08287849390507,-100.26678939585686,84.22370748782159
2024-09-23 11:15:21.055690,42.81,16.367044,-0.003780631555451287,-0.023181236725942318,0.09695331012558621,32.08287849390507,-100.26678939585686,84.22370748782159
2024-09-23 11:15:21.089246,42.81,16.367095,-0.0033329230534799477,-0.023728432883788564,0.09695331012558621,32.08287849390507,-100.26678939585686,84.22370748782159
2024-09-23 11:15:21.101889,42.81,16.367095,-0.0033329230534799477,-0.023728432883788564,0.0973015264147526,40.106058693909645,-100.26678939585686,84.22370748782159
2024-09-23 11:15:21.145197,42.81,16.367146,-0.0030841997366068195,-0.022833026512682618,0.09655535038822652,40.106058693909645,-100.26678939585686,80.21211738781929
2024-09-23 11:15:21.188327,42.85,16.367197,-0.003482159473966507,-0.022833026512682618,0.09655535038822652,40.106058693909645,-104.27510100388527,76.200527287817
2024-09-23 11:15:21.199795,42.85,16.367197,-0.003482159473966507,-0.02362894446842532,0.09695331012558621,40.106058693909645,-104.27510100388527,76.200527287817
2024-09-23 11:15:21.232838,42.85,16.367197,-0.003482159473966507,-0.02362894446842532,0.09695331012558621,28.07457030097246,-104.27510100388527,76.200527287817
2024-09-23 11:15:21.243870,42.85,16.367247,-0.003233425524256645,-0.02338022115155219,0.09695331012558621,28.07457030097246,-104.27510100388527,80.21211738781929
2024-09-23 11:15:21.286092,42.85,16.367247,-0.003233425524256645,-0.02338022115155219,0.09665483728461309,40.106058693909645,-104.27510100388527,80.21211738781929
2024-09-23 11:15:21.297192,42.85,16.367298,-0.0031339382481259063,-0.02338022115155219,0.09665483728461309,40.106058693909645,-104.27510100388527,76.200527287817
2024-09-23 11:15:21.340183,42.85,16.367385,-0.0031339382481259063,-0.02362894446842532,0.09725178296655933,44.11764879391193,-92.24360919585227,84.22370748782159
2024-09-23 11:15:21.384031,42.85,16.367385,-0.0028354659767690416,-0.023280723622328886,0.09740101331113918,36.09446859390736,-92.24360919585227,84.22370748782159
2024-09-23 11:15:21.395925,42.85,16.367385,-0.0028354659767690416,-0.023280723622328886,0.09740101331113918,36.09446859390736,-100.26678939585686,76.200527287817
2024-09-23 11:15:21.428683,42.85,16.367437,-0.0028354659767690416,-0.023280723622328886,0.09740101331113918,36.09446859390736,-100.26678939585686,76.200527287817
2024-09-23 11:15:21.440832,42.85,16.367437,-0.0031836870127375577,-0.023330473146428877,0.09690356060148622,36.09446859390736,-96.25519929585457,76.200527287817
2024-09-23 11:15:21.484058,42.85,16.367487,-0.003382661564999035,-0.023479709566915436,0.0966050877605131,36.09446859390736,-96.25519929585457,84.22370748782159
2024-09-23 11:15:21.526493,42.85,16.367487,-0.003382661564999035,-0.023479709566915436,0.0966050877605131,36.09446859390736,-96.25519929585457,80.21211738781929
2024-09-23 11:15:21.537840,42.85,16.367538,-0.0031836870127375577,-0.023230986250042305,0.09710254654607277,36.09446859390736,-96.25519929585457,80.21211738781929
2024-09-23 11:15:21.579671,42.85,16.367589,-0.0031836870127375577,-0.023230986250042305,0.09710254654607277,40.106058693909645,-100.26678939585686,84.22370748782159
2024-09-23 11:15:21.593389,42.85,16.367589,-0.0033329230534799477,-0.02313149783467906,0.09710254654607277,40.106058693909645,-100.26678939585686,84.22370748782159
2024-09-23 11:15:21.627892,42.85,16.367589,-0.0033329230534799477,-0.02313149783467906,0.0973015264147526,36.09446859390736,-100.26678939585686,84.22370748782159
2024-09-23 11:15:21.639510,42.85,16.367639,-0.0033329230534799477,-0.02313149783467906,0.0973015264147526,36.09446859390736,-100.26678939585686,84.22370748782159
2024-09-23 11:15:21.670972,42.85,16.367639,-0.0033329230534799477,-0.022982261414192504,0.0973015264147526,36.09446859390736,-100.26678939585686,84.22370748782159
2024-09-23 11:15:21.682724,42.85,16.367726,-0.0033329230534799477,-0.022982261414192504,0.09675432418099966,44.11764879391193,-104.27510100388527,76.200527287817
2024-09-23 11:15:21.726337,42.85,16.367726,-0.0036811340262279837,-0.02367869399252531,0.09725178296655933,36.09446859390736,-104.27510100388527,76.200527287817
2024-09-23 11:15:21.738061,42.85,16.367726,-0.0036811340262279837,-0.02367869399252531,0.09725178296655933,36.09446859390736,-104.27510100388527,72.1922225099802
2024-09-23 11:15:21.770489,42.85,16.367778,-0.0035318979854855937,-0.02367869399252531,0.09725178296655933,36.09446859390736,-104.27510100388527,72.1922225099802
2024-09-23 11:15:21.782046,42.85,16.367778,-0.0035318979854855937,-0.02352945757203875,0.09680407370509965,36.09446859390736,-92.24360919585227,72.1922225099802
2024-09-23 11:15:21.876556,42.85,16.367829,-0.0034324103296106863,-0.02278327698858263,0.09690356060148622,32.08287849390507,-92.24360919585227,76.200527287817
2024-09-23 11:15:21.920303,42.85,16.367879,-0.0031836870127375577,-0.02278327698858263,0.09690356060148622,32.08287849390507,-100.26678939585686,84.22370748782159
2024-09-23 11:15:21.932311,42.85,16.367879,-0.0031836870127375577,-0.02313149783467906,0.09755024973162574,32.08287849390507,-100.26678939585686,84.22370748782159
2024-09-23 11:15:22.016031,42.85,16.367879,-0.0031836870127375577,-0.02313149783467906,0.09755024973162574,28.07457030097246,-100.26678939585686,84.22370748782159
2024-09-23 11:15:22.028137,42.85,16.36793,-0.003382661564999035,-0.02338022115155219,0.09755024973162574,28.07457030097246,-100.26678939585686,84.22370748782159
2024-09-23 11:15:22.070715,42.85,16.36798,-0.0030841997366068195,-0.02338022115155219,0.09755024973162574,32.08287849390507,-100.26678939585686,84.22370748782159
2024-09-23 11:15:22.115403,42.85,16.36798,-0.0030841997366068195,-0.023280723622328886,0.09695331012558621,36.09446859390736,-100.26678939585686,84.22370748782159
2024-09-23 11:15:22.127332,42.85,16.368068,-0.0030841997366068195,-0.023280723622328886,0.09695331012558621,36.09446859390736,-96.25519929585457,80.21211738781929
2024-09-23 11:15:22.161106,42.85,16.368068,-0.0029847020175114316,-0.023479709566915436,0.09695331012558621,36.09446859390736,-96.25519929585457,80.21211738781929
2024-09-23 11:15:22.172305,42.85,16.368068,-0.0029847020175114316,-0.023479709566915436,0.0973512698629459,36.09446859390736,-100.26678939585686,76.200527287817
2024-09-23 11:15:22.214004,42.61,16.368166,-0.0028852147413806935,-0.023429960042815445,0.0966050877605131,36.09446859390736,-100.26678939585686,76.200527287817
2024-09-23 11:15:22.225040,42.61,16.368166,-0.0028852147413806935,-0.023429960042815445,0.0966050877605131,40.106058693909645,-100.26678939585686,76.200527287817
2024-09-23 11:15:22.257774,42.61,16.368166,-0.0028852147413806935,-0.023429960042815445,0.0966050877605131,40.106058693909645,-100.26678939585686,80.21211738781929
2024-09-23 11:15:22.269206,42.61,16.368264,-0.0035318979854855937,-0.023579196463302005,0.09675432418099966,36.09446859390736,-100.26678939585686,80.21211738781929
2024-09-23 11:15:22.312303,42.61,16.368315,-0.0033329230534799477,-0.023479709566915436,0.09675432418099966,36.09446859390736,-104.27510100388527,80.21211738781929
2024-09-23 11:15:22.324343,42.61,16.368315,-0.0033329230534799477,-0.023479709566915436,0.09740101331113918,36.09446859390736,-104.27510100388527,80.21211738781929
2024-09-23 11:15:22.355780,42.61,16.368315,-0.0033329230534799477,-0.023479709566915436,0.09740101331113918,40.106058693909645,-96.25519929585457,80.21211738781929
2024-09-23 11:15:22.367232,42.61,16.368365,-0.0035816467500972456,-0.023230986250042305,0.09740101331113918,40.106058693909645,-96.25519929585457,80.21211738781929
2024-09-23 11:15:22.410625,42.61,16.368416,-0.003233425524256645,-0.023230986250042305,0.09655535038822652,36.09446859390736,-104.27510100388527,80.21211738781929
2024-09-23 11:15:22.453015,42.61,16.368416,-0.003233425524256645,-0.023330473146428877,0.09720203344245934,36.09446859390736,-104.27510100388527,80.21211738781929
2024-09-23 11:15:22.464291,42.61,16.368506,-0.003233425524256645,-0.023330473146428877,0.09720203344245934,36.09446859390736,-92.24360919585227,84.22370748782159
2024-09-23 11:15:22.506954,42.61,16.368506,-0.0038303700669703737,-0.02412639262114825,0.09680407370509965,40.106058693909645,-96.25519929585457,84.22370748782159
2024-09-23 11:15:22.519077,42.61,16.368506,-0.0038303700669703737,-0.02412639262114825,0.09680407370509965,40.106058693909645,-96.25519929585457,80.21211738781929
2024-09-23 11:15:22.552237,42.61,16.368558,-0.003233425524256645,-0.02313149783467906,0.09680407370509965,40.106058693909645,-96.25519929585457,80.21211738781929
2024-09-23 11:15:22.564400,42.61,16.368558,-0.003233425524256645,-0.02313149783467906,0.0973512698629459,40.106058693909645,-96.25519929585457,80.21211738781929
2024-09-23 11:15:22.606724,42.61,16.368609,-0.003233425524256645,-0.02338022115155219,0.0973512698629459,40.106058693909645,-88.23529758782387,84.22370748782159
2024-09-23 11:15:22.649235,42.61,16.368609,-0.003233425524256645,-0.02338022115155219,0.09690356060148622,40.106058693909645,-88.23529758782387,84.22370748782159
2024-09-23 11:15:22.660714,42.61,16.368659,-0.003382661564999035,-0.02338022115155219,0.09690356060148622,40.106058693909645,-88.23529758782387,84.22370748782159
2024-09-23 11:15:22.704820,42.61,16.36871,-0.003382661564999035,-0.02362894446842532,0.09725178296655933,40.106058693909645,-96.25519929585457,80.21211738781929
2024-09-23 11:15:22.747633,42.61,16.36871,-0.0031836870127375577,-0.023429960042815445,0.09779897304849887,40.106058693909645,-96.25519929585457,80.21211738781929
2024-09-23 11:15:22.759127,42.61,16.36871,-0.0031836870127375577,-0.023429960042815445,0.09779897304849887,36.09446859390736,-96.25519929585457,84.22370748782159
2024-09-23 11:15:22.802058,42.61,16.368761,-0.003233425524256645,-0.02278327698858263,0.0973512698629459,36.09446859390736,-100.26678939585686,84.22370748782159
2024-09-23 11:15:22.844344,42.61,16.368849,-0.0029847020175114316,-0.02278327698858263,0.0973512698629459,36.09446859390736,-100.26678939585686,76.200527287817
2024-09-23 11:15:22.855556,42.61,16.368849,-0.0029847020175114316,-0.023429960042815445,0.09720203344245934,32.08287849390507,-100.26678939585686,76.200527287817
2024-09-23 11:15:22.897831,42.61,16.3689,-0.0035816467500972456,-0.02362894446842532,0.09720203344245934,32.08287849390507,-96.25519929585457,84.22370748782159
2024-09-23 11:15:22.909926,42.61,16.3689,-0.0035816467500972456,-0.02362894446842532,0.09725178296655933,32.08287849390507,-96.25519929585457,84.22370748782159
2024-09-23 11:15:22.942309,42.61,16.3689,-0.0035816467500972456,-0.02362894446842532,0.09725178296655933,36.09446859390736,-100.26678939585686,76.200527287817
2024-09-23 11:15:22.954206,42.61,16.36895,-0.0033329230534799477,-0.023280723622328886,0.09725178296655933,36.09446859390736,-100.26678939585686,76.200527287817
2024-09-23 11:15:22.996784,42.61,16.369002,-0.0031836870127375577,-0.023280723622328886,0.09725178296655933,40.106058693909645,-104.27510100388527,80.21211738781929
2024-09-23 11:15:23.039329,42.61,16.369002,-0.0031836870127375577,-0.02352945757203875,0.09685382322919964,36.09446859390736,-104.27510100388527,80.21211738781929
2024-09-23 11:15:23.050838,42.61,16.369091,-0.0031836870127375577,-0.02352945757203875,0.09685382322919964,36.09446859390736,-100.26678939585686,84.22370748782159
2024-09-23 11:15:23.095187,42.61,16.369091,-0.003631395514708897,-0.023230986250042305,0.09695331012558621,32.08287849390507,-88.23529758782387,80.21211738781929
2024-09-23 11:15:23.138016,42.61,16.369143,-0.003233425524256645,-0.02367869399252531,0.09695331012558621,32.08287849390507,-88.23529758782387,80.21211738781929
2024-09-23 11:15:23.149248,42.61,16.369143,-0.003233425524256645,-0.02367869399252531,0.09705279702197278,28.07457030097246,-108.28669110388756,80.21211738781929
2024-09-23 11:15:23.182579,42.61,16.369143,-0.003233425524256645,-0.02367869399252531,0.09705279702197278,28.07457030097246,-108.28669110388756,80.21211738781929
2024-09-23 11:15:23.195428,42.61,16.369194,-0.0034324103296106863,-0.023330473146428877,0.09720203344245934,36.09446859390736,-108.28669110388756,80.21211738781929
2024-09-23 11:15:23.237584,42.65,16.369245,-0.0034324103296106863,-0.023778180888911878,0.09720203344245934,36.09446859390736,-104.27510100388527,84.22370748782159
2024-09-23 11:15:23.249242,42.65,16.369245,-0.0034324103296106863,-0.023778180888911878,0.09740101331113918,36.09446859390736,-104.27510100388527,84.22370748782159
2024-09-23 11:15:23.281554,42.65,16.369245,-0.0034324103296106863,-0.023778180888911878,0.09740101331113918,36.09446859390736,-104.27510100388527,84.22370748782159
2024-09-23 11:15:23.293458,42.65,16.369295,-0.0032831742888682963,-0.023479709566915436,0.09740101331113918,36.09446859390736,-96.25519929585457,84.22370748782159
2024-09-23 11:15:23.336108,42.65,16.369346,-0.0032831742888682963,-0.023479709566915436,0.09640611396773996,48.12595698684454,-84.22370748782159,80.21211738781929
2024-09-23 11:15:23.347996,42.65,16.369346,-0.0031339382481259063,-0.023479709566915436,0.09640611396773996,48.12595698684454,-84.22370748782159,80.21211738781929
2024-09-23 11:15:23.380433,42.65,16.369346,-0.0031339382481259063,-0.023181236725942318,0.09675432418099966,48.12595698684454,-84.22370748782159,80.21211738781929
2024-09-23 11:15:23.391446,42.65,16.369433,-0.0031339382481259063,-0.023181236725942318,0.09675432418099966,40.106058693909645,-92.24360919585227,84.22370748782159
2024-09-23 11:15:23.434447,42.65,16.369433,-0.003929857343101113,-0.023479709566915436,0.09695331012558621,40.106058693909645,-100.26678939585686,84.22370748782159
2024-09-23 11:15:23.477079,42.65,16.369484,-0.0034324103296106863,-0.023479709566915436,0.09695331012558621,40.106058693909645,-100.26678939585686,84.22370748782159
2024-09-23 11:15:23.488335,42.65,16.369484,-0.0034324103296106863,-0.023181236725942318,0.09680407370509965,40.106058693909645,-96.25519929585457,84.22370748782159
2024-09-23 11:15:23.530323,42.65,16.369535,-0.0028354659767690416,-0.02338022115155219,0.09680407370509965,40.106058693909645,-96.25519929585457,76.200527287817
2024-09-23 11:15:23.545931,42.65,16.369535,-0.0028354659767690416,-0.02338022115155219,0.09720203344245934,36.09446859390736,-96.25519929585457,76.200527287817
2024-09-23 11:15:23.578988,42.65,16.369585,-0.003382661564999035,-0.023230986250042305,0.09720203344245934,36.09446859390736,-96.25519929585457,84.22370748782159
2024-09-23 11:15:23.590923,42.65,16.369585,-0.003382661564999035,-0.023230986250042305,0.09675432418099966,36.09446859390736,-96.25519929585457,84.22370748782159
2024-09-23 11:15:23.623091,42.65,16.369585,-0.003382661564999035,-0.023230986250042305,0.09675432418099966,32.08287849390507,-100.26678939585686,84.22370748782159
2024-09-23 11:15:23.634624,42.65,16.369636,-0.003382661564999035,-0.023479709566915436,0.09675432418099966,32.08287849390507,-100.26678939585686,84.22370748782159
2024-09-23 11:15:23.678352,42.65,16.369687,-0.0036811340262279837,-0.023479709566915436,0.09670458680871308,36.09446859390736,-92.24360919585227,84.22370748782159
2024-09-23 11:15:23.720593,42.65,16.369687,-0.0036811340262279837,-0.023181236725942318,0.09715228999426605,36.09446859390736,-92.24360919585227,84.22370748782159
2024-09-23 11:15:23.732257,42.65,16.369774,-0.0036811340262279837,-0.023181236725942318,0.09715228999426605,32.08287849390507,-112.29828120388984,76.200527287817
2024-09-23 11:15:23.773904,42.65,16.369774,-0.003233425524256645,-0.023330473146428877,0.09725178296655933,44.11764879391193,-100.26678939585686,76.200527287817
2024-09-23 11:15:23.785918,42.65,16.369774,-0.003233425524256645,-0.023330473146428877,0.09725178296655933,44.11764879391193,-100.26678939585686,80.21211738781929
2024-09-23 11:15:23.818943,42.65,16.369825,-0.003233425524256645,-0.023330473146428877,0.09725178296655933,44.11764879391193,-100.26678939585686,80.21211738781929
2024-09-23 11:15:23.830758,42.65,16.369825,-0.003233425524256645,-0.023479709566915436,0.09685382322919964,40.106058693909645,-92.24360919585227,80.21211738781929
2024-09-23 11:15:23.873749,42.65,16.369876,-0.003233425524256645,-0.023479709566915436,0.09685382322919964,40.106058693909645,-92.24360919585227,80.21211738781929
2024-09-23 11:15:23.915974,42.65,16.369876,-0.0030344509719951677,-0.023877669304275123,0.09685382322919964,40.106058693909645,-92.24360919585227,80.21211738781929
2024-09-23 11:15:23.928062,42.65,16.369876,-0.0030344509719951677,-0.023877669304275123,0.0976994861521123,44.11764879391193,-100.26678939585686,80.21211738781929
2024-09-23 11:15:23.971322,42.65,16.369927,-0.003631395514708897,-0.023230986250042305,0.09784872257259886,32.08287849390507,-100.26678939585686,80.21211738781929
2024-09-23 11:15:24.014996,42.65,16.369978,-0.0037308827908396356,-0.023230986250042305,0.09784872257259886,32.08287849390507,-100.26678939585686,80.21211738781929
2024-09-23 11:15:24.026529,42.65,16.369978,-0.0037308827908396356,-0.02308174982955575,0.09720203344245934,36.09446859390736,-100.26678939585686,80.21211738781929
2024-09-23 11:15:24.069329,42.65,16.370028,-0.0037308827908396356,-0.02352945757203875,0.0973512698629459,36.09446859390736,-96.25519929585457,76.200527287817
2024-09-23 11:15:24.111472,42.65,16.370028,-0.0037308827908396356,-0.02352945757203875,0.0973512698629459,40.106058693909645,-100.26678939585686,76.200527287817
2024-09-23 11:15:24.123365,42.65,16.370115,-0.0030344509719951677,-0.022982261414192504,0.0973512698629459,40.106058693909645,-100.26678939585686,76.200527287817
2024-09-23 11:15:24.166595,42.65,16.370167,-0.0030344509719951677,-0.022982261414192504,0.09710254654607277,32.08287849390507,-104.27510100388527,80.21211738781929
2024-09-23 11:15:24.178726,42.65,16.370167,-0.003382661564999035,-0.022982261414192504,0.09710254654607277,32.08287849390507,-104.27510100388527,80.21211738781929
2024-09-23 11:15:24.211167,42.65,16.370167,-0.003382661564999035,-0.023827930413011865,0.09725178296655933,28.07457030097246,-100.26678939585686,80.21211738781929
2024-09-23 11:15:24.222516,42.65,16.370261,-0.003382661564999035,-0.023827930413011865,0.09725178296655933,28.07457030097246,-100.26678939585686,80.21211738781929
2024-09-23 11:15:24.255082,42.81,16.370261,-0.003233425524256645,-0.023827930413011865,0.09725178296655933,28.07457030097246,-100.26678939585686,80.21211738781929
2024-09-23 11:15:24.266486,42.81,16.370261,-0.003233425524256645,-0.02338022115155219,0.09630662707135339,32.08287849390507,-100.26678939585686,84.22370748782159
2024-09-23 11:15:24.309123,42.81,16.370313,-0.0036811340262279837,-0.023280723622328886,0.09720203344245934,32.08287849390507,-100.26678939585686,84.22370748782159
2024-09-23 11:15:24.321144,42.81,16.370313,-0.0036811340262279837,-0.023280723622328886,0.09720203344245934,36.09446859390736,-96.25519929585457,84.22370748782159
2024-09-23 11:15:24.354592,42.81,16.370364,-0.0036811340262279837,-0.023280723622328886,0.09720203344245934,36.09446859390736,-96.25519929585457,80.21211738781929
2024-09-23 11:15:24.365743,42.81,16.370364,-0.0031836870127375577,-0.02308174982955575,0.09685382322919964,32.08287849390507,-96.25519929585457,80.21211738781929
2024-09-23 11:15:24.407696,42.81,16.370415,-0.0029847020175114316,-0.023827930413011865,0.09685382322919964,32.08287849390507,-88.23529758782387,76.200527287817
2024-09-23 11:15:24.419734,42.81,16.370415,-0.0029847020175114316,-0.023827930413011865,0.09720203344245934,32.08287849390507,-88.23529758782387,76.200527287817
2024-09-23 11:15:24.453244,42.81,16.370415,-0.0029847020175114316,-0.023827930413011865,0.09720203344245934,36.09446859390736,-100.26678939585686,76.200527287817
2024-09-23 11:15:24.465068,42.81,16.370466,-0.0029349636958644295,-0.023827930413011865,0.09720203344245934,36.09446859390736,-100.26678939585686,76.200527287817
2024-09-23 11:15:24.507782,42.81,16.370516,-0.0035318979854855937,-0.023827930413011865,0.09680407370509965,44.11764879391193,-96.25519929585457,80.21211738781929
2024-09-23 11:15:24.550078,42.81,16.370516,-0.0035318979854855937,-0.02313149783467906,0.09680407370509965,44.11764879391193,-96.25519929585457,80.21211738781929
2024-09-23 11:15:24.602907,42.81,16.370516,-0.0035318979854855937,-0.02313149783467906,0.0966050877605131,40.106058693909645,-92.24360919585227,76.200527287817
2024-09-23 11:15:24.614485,42.81,16.370603,-0.003780631555451287,-0.02313149783467906,0.0966050877605131,40.106058693909645,-92.24360919585227,76.200527287817
2024-09-23 11:15:24.646990,42.81,16.370603,-0.003780631555451287,-0.02352945757203875,0.09680407370509965,40.106058693909645,-92.24360919585227,76.200527287817
2024-09-23 11:15:24.658115,42.81,16.370654,-0.003780631555451287,-0.02352945757203875,0.09680407370509965,36.09446859390736,-100.26678939585686,84.22370748782159
2024-09-23 11:15:24.701599,42.81,16.370654,-0.0032831742888682963,-0.02397715620066169,0.09655535038822652,32.08287849390507,-104.27510100388527,84.22370748782159
2024-09-23 11:15:24.713484,42.81,16.370654,-0.0032831742888682963,-0.02397715620066169,0.09655535038822652,32.08287849390507,-104.27510100388527,80.21211738781929
2024-09-23 11:15:24.745797,42.81,16.370705,-0.003382661564999035,-0.023280723622328886,0.09655535038822652,32.08287849390507,-104.27510100388527,80.21211738781929
2024-09-23 11:15:24.756759,42.81,16.370705,-0.003382661564999035,-0.023280723622328886,0.09710254654607277,32.08287849390507,-96.25519929585457,80.21211738781929
2024-09-23 11:15:24.799246,42.81,16.370755,-0.0035318979854855937,-0.02367869399252531,0.09680407370509965,28.07457030097246,-96.25519929585457,84.22370748782159
2024-09-23 11:15:24.842272,42.81,16.370755,-0.0035318979854855937,-0.02367869399252531,0.09680407370509965,28.07457030097246,-100.26678939585686,80.21211738781929
2024-09-23 11:15:24.853442,42.81,16.370848,-0.003979606107712764,-0.023230986250042305,0.09755024973162574,28.07457030097246,-100.26678939585686,80.21211738781929
2024-09-23 11:15:24.895871,42.81,16.370899,-0.003382661564999035,-0.023230986250042305,0.09755024973162574,32.08287849390507,-96.25519929585457,76.200527287817
2024-09-23 11:15:24.908077,42.81,16.370899,-0.003382661564999035,-0.02362894446842532,0.09755024973162574,32.08287849390507,-96.25519929585457,76.200527287817
2024-09-23 11:15:24.941207,42.81,16.370899,-0.003382661564999035,-0.02362894446842532,0.0970030596496862,36.09446859390736,-104.27510100388527,76.200527287817
2024-09-23 11:15:24.953101,42.81,16.370949,-0.0031339382481259063,-0.02362894446842532,0.0970030596496862,36.09446859390736,-104.27510100388527,76.200527287817
2024-09-23 11:15:24.995810,42.81,16.371041,-0.0031339382481259063,-0.02352945757203875,0.09690356060148622,36.09446859390736,-96.25519929585457,88.23529758782387
2024-09-23 11:15:25.038670,42.81,16.371041,-0.0030344509719951677,-0.02352945757203875,0.09690356060148622,36.09446859390736,-96.25519929585457,88.23529758782387
2024-09-23 11:15:25.092688,42.81,16.371093,-0.0030344509719951677,-0.023778180888911878,0.09685382322919964,40.106058693909645,-96.25519929585457,80.21211738781929
2024-09-23 11:15:25.136081,42.81,16.371093,-0.0029847020175114316,-0.023877669304275123,0.09685382322919964,40.106058693909645,-96.25519929585457,80.21211738781929
2024-09-23 11:15:25.147175,42.81,16.371093,-0.0029847020175114316,-0.023877669304275123,0.09645586349183995,32.08287849390507,-96.25519929585457,80.21211738781929
2024-09-23 11:15:25.191037,42.81,16.371144,-0.0032831742888682963,-0.02352945757203875,0.09695331012558621,36.09446859390736,-100.26678939585686,80.21211738781929
2024-09-23 11:15:25.233410,42.81,16.371194,-0.0032831742888682963,-0.02352945757203875,0.09695331012558621,36.09446859390736,-100.26678939585686,80.21211738781929
2024-09-23 11:15:25.245227,42.81,16.371194,-0.0032831742888682963,-0.02338022115155219,0.09695331012558621,40.106058693909645,-100.26678939585686,80.21211738781929
2024-09-23 11:15:25.287790,42.68,16.371245,-0.0030841997366068195,-0.02338022115155219,0.09680407370509965,40.106058693909645,-108.28669110388756,80.21211738781929
2024-09-23 11:15:25.331438,42.68,16.371245,-0.0030841997366068195,-0.02338022115155219,0.09680407370509965,40.106058693909645,-104.27510100388527,76.200527287817
2024-09-23 11:15:25.342890,42.68,16.371336,-0.0031339382481259063,-0.023280723622328886,0.09680407370509965,40.106058693909645,-104.27510100388527,76.200527287817
2024-09-23 11:15:25.385478,42.68,16.371387,-0.0035318979854855937,-0.023280723622328886,0.09710254654607277,36.09446859390736,-100.26678939585686,84.22370748782159
2024-09-23 11:15:25.428874,42.68,16.371387,-0.0035318979854855937,-0.023827930413011865,0.0970030596496862,36.09446859390736,-100.26678939585686,84.22370748782159
2024-09-23 11:15:25.440635,42.68,16.37148,-0.0035318979854855937,-0.023827930413011865,0.0970030596496862,36.09446859390736,-100.26678939585686,84.22370748782159
2024-09-23 11:15:25.483846,42.68,16.37148,-0.0029349636958644295,-0.023429960042815445,0.0970030596496862,32.08287849390507,-96.25519929585457,84.22370748782159
2024-09-23 11:15:25.526543,42.68,16.371532,-0.003631395514708897,-0.02362894446842532,0.0970030596496862,32.08287849390507,-96.25519929585457,84.22370748782159
2024-09-23 11:15:25.537647,42.68,16.371532,-0.003631395514708897,-0.02362894446842532,0.0966050877605131,24.06297849342227,-100.26678939585686,84.22370748782159
2024-09-23 11:15:25.580640,42.68,16.371582,-0.0032831742888682963,-0.023230986250042305,0.0970030596496862,32.08287849390507,-100.26678939585686,80.21211738781929
2024-09-23 11:15:25.623552,42.68,16.371582,-0.0032831742888682963,-0.023230986250042305,0.0970030596496862,32.08287849390507,-92.24360919585227,84.22370748782159
2024-09-23 11:15:25.634507,42.68,16.371633,-0.0031836870127375577,-0.023429960042815445,0.0970030596496862,32.08287849390507,-92.24360919585227,84.22370748782159
2024-09-23 11:15:25.676555,42.68,16.371684,-0.0030841997366068195,-0.023429960042815445,0.0970030596496862,36.09446859390736,-92.24360919585227,76.200527287817
2024-09-23 11:15:25.718986,42.68,16.371684,-0.0030841997366068195,-0.023429960042815445,0.09720203344245934,28.07457030097246,-92.24360919585227,76.200527287817
2024-09-23 11:15:25.730499,42.68,16.371734,-0.0032831742888682963,-0.023429960042815445,0.09720203344245934,28.07457030097246,-92.24360919585227,88.23529758782387
2024-09-23 11:15:25.772339,42.68,16.371734,-0.0032831742888682963,-0.023429960042815445,0.09705279702197278,32.08287849390507,-100.26678939585686,76.200527287817
2024-09-23 11:15:25.784117,42.68,16.371821,-0.0032831742888682963,-0.023429960042815445,0.09705279702197278,32.08287849390507,-100.26678939585686,76.200527287817
2024-09-23 11:15:25.816517,42.68,16.371821,-0.0031836870127375577,-0.02367869399252531,0.09705279702197278,32.08287849390507,-100.26678939585686,76.200527287817
2024-09-23 11:15:25.828768,42.68,16.371821,-0.0031836870127375577,-0.02367869399252531,0.09665483728461309,32.08287849390507,-100.26678939585686,76.200527287817
2024-09-23 11:15:25.870938,42.68,16.371873,-0.0030841997366068195,-0.02367869399252531,0.09665483728461309,32.08287849390507,-96.25519929585457,76.200527287817
2024-09-23 11:15:25.882939,42.68,16.371873,-0.0030841997366068195,-0.02303200030545576,0.09665483728461309,32.08287849390507,-96.25519929585457,76.200527287817
2024-09-23 11:15:25.914381,42.68,16.371873,-0.0030841997366068195,-0.02303200030545576,0.0973015264147526,28.07457030097246,-96.25519929585457,76.200527287817
2024-09-23 11:15:25.926554,42.68,16.371873,-0.0030841997366068195,-0.02303200030545576,0.0973015264147526,28.07457030097246,-96.25519929585457,76.200527287817
2024-09-23 11:15:26.010057,42.68,16.371873,-0.0030841997366068195,-0.02303200030545576,0.0973015264147526,28.07457030097246,-96.25519929585457,80.21211738781929
2024-09-23 11:15:26.021684,42.68,16.371924,-0.0033329230534799477,-0.02338022115155219,0.09695331012558621,32.08287849390507,-96.25519929585457,80.21211738781929
2024-09-23 11:15:26.064818,42.68,16.371974,-0.003233425524256645,-0.02338022115155219,0.09695331012558621,32.08287849390507,-100.26678939585686,76.200527287817
2024-09-23 11:15:26.076019,42.68,16.371974,-0.003233425524256645,-0.022833026512682618,0.09710254654607277,32.08287849390507,-100.26678939585686,76.200527287817
2024-09-23 11:15:26.108226,42.68,16.371974,-0.003233425524256645,-0.022833026512682618,0.09710254654607277,40.106058693909645,-100.26678939585686,76.200527287817
2024-09-23 11:15:26.119685,42.68,16.372025,-0.003482159473966507,-0.02352945757203875,0.09710254654607277,40.106058693909645,-100.26678939585686,80.21211738781929
2024-09-23 11:15:26.162705,42.68,16.372115,-0.003482159473966507,-0.02352945757203875,0.09670458680871308,36.09446859390736,-100.26678939585686,72.1922225099802
2024-09-23 11:15:26.174673,42.68,16.372115,-0.002785727465249955,-0.02352945757203875,0.09670458680871308,36.09446859390736,-100.26678939585686,72.1922225099802
2024-09-23 11:15:26.207310,42.68,16.372115,-0.002785727465249955,-0.02303200030545576,0.09655535038822652,36.09446859390736,-100.26678939585686,72.1922225099802
2024-09-23 11:15:26.218304,42.68,16.372166,-0.002785727465249955,-0.02303200030545576,0.09655535038822652,28.07457030097246,-96.25519929585457,84.22370748782159
2024-09-23 11:15:26.261816,42.68,16.372166,-0.0029847020175114316,-0.02278327698858263,0.0962568775472534,40.106058693909645,-96.25519929585457,84.22370748782159
2024-09-23 11:15:26.273915,42.68,16.372166,-0.0029847020175114316,-0.02278327698858263,0.0962568775472534,40.106058693909645,-96.25519929585457,76.200527287817
2024-09-23 11:15:26.306283,42.61,16.372309,-0.0034324103296106863,-0.02308174982955575,0.0962568775472534,40.106058693909645,-96.25519929585457,76.200527287817
2024-09-23 11:15:26.317955,42.61,16.372309,-0.0034324103296106863,-0.02308174982955575,0.09690356060148622,40.106058693909645,-96.25519929585457,76.200527287817
2024-09-23 11:15:26.361016,42.61,16.372361,-0.003631395514708897,-0.02352945757203875,0.0973512698629459,40.106058693909645,-96.25519929585457,80.21211738781929
2024-09-23 11:15:26.402680,42.61,16.372411,-0.003631395514708897,-0.02352945757203875,0.0973512698629459,40.106058693909645,-100.26678939585686,80.21211738781929
2024-09-23 11:15:26.455583,42.61,16.372411,-0.0035318979854855937,-0.02313149783467906,0.09705279702197278,28.07457030097246,-92.24360919585227,80.21211738781929
2024-09-23 11:15:26.467606,42.61,16.372411,-0.0035318979854855937,-0.02313149783467906,0.09705279702197278,28.07457030097246,-92.24360919585227,84.22370748782159
2024-09-23 11:15:26.499456,42.61,16.372462,-0.0035816467500972456,-0.02313149783467906,0.09705279702197278,28.07457030097246,-92.24360919585227,84.22370748782159
2024-09-23 11:15:26.510446,42.61,16.372462,-0.0035816467500972456,-0.023280723622328886,0.09705279702197278,36.09446859390736,-88.23529758782387,84.22370748782159
2024-09-23 11:15:26.553723,42.61,16.372513,-0.0034324103296106863,-0.02367869399252531,0.09685382322919964,36.09446859390736,-88.23529758782387,84.22370748782159
2024-09-23 11:15:26.565425,42.61,16.372513,-0.0034324103296106863,-0.02367869399252531,0.09685382322919964,32.08287849390507,-88.23529758782387,84.22370748782159
2024-09-23 11:15:26.598936,42.61,16.372601,-0.0034324103296106863,-0.02367869399252531,0.09685382322919964,32.08287849390507,-100.26678939585686,76.200527287817
2024-09-23 11:15:26.610131,42.61,16.372601,-0.0032831742888682963,-0.023230986250042305,0.09685382322919964,32.08287849390507,-100.26678939585686,76.200527287817
2024-09-23 11:15:26.652919,42.61,16.372652,-0.0037308827908396356,-0.02362894446842532,0.09685382322919964,32.08287849390507,-88.23529758782387,88.23529758782387
2024-09-23 11:15:26.696157,42.61,16.372652,-0.0037308827908396356,-0.02362894446842532,0.09640611396773996,36.09446859390736,-96.25519929585457,88.23529758782387
2024-09-23 11:15:26.707778,42.61,16.372703,-0.0030344509719951677,-0.02362894446842532,0.09640611396773996,36.09446859390736,-96.25519929585457,84.22370748782159
2024-09-23 11:15:26.750436,42.61,16.372796,-0.0030344509719951677,-0.02308174982955575,0.0973512698629459,32.08287849390507,-96.25519929585457,80.21211738781929
2024-09-23 11:15:26.793830,42.61,16.372796,-0.003233425524256645,-0.02303200030545576,0.09745075675933246,32.08287849390507,-96.25519929585457,80.21211738781929
2024-09-23 11:15:26.806526,42.61,16.372796,-0.003233425524256645,-0.02303200030545576,0.09745075675933246,36.09446859390736,-96.25519929585457,80.21211738781929
2024-09-23 11:15:26.838931,42.61,16.372848,-0.003233425524256645,-0.02303200030545576,0.09745075675933246,36.09446859390736,-96.25519929585457,80.21211738781929
2024-09-23 11:15:26.850370,42.61,16.372848,-0.0028852147413806935,-0.023181236725942318,0.09755024973162574,32.08287849390507,-100.26678939585686,80.21211738781929
2024-09-23 11:15:26.892181,42.61,16.372899,-0.003631395514708897,-0.024325377046758124,0.09755024973162574,32.08287849390507,-100.26678939585686,80.21211738781929
2024-09-23 11:15:26.903149,42.61,16.372899,-0.003631395514708897,-0.024325377046758124,0.09685382322919964,40.106058693909645,-100.26678939585686,80.21211738781929
2024-09-23 11:15:26.946614,42.61,16.372949,-0.0031836870127375577,-0.02308174982955575,0.09725178296655933,40.106058693909645,-96.25519929585457,84.22370748782159
2024-09-23 11:15:26.988920,42.61,16.372949,-0.0031836870127375577,-0.02308174982955575,0.09725178296655933,32.08287849390507,-96.25519929585457,72.1922225099802
2024-09-23 11:15:27.000442,42.61,16.373,-0.0030344509719951677,-0.02352945757203875,0.09725178296655933,32.08287849390507,-96.25519929585457,72.1922225099802
2024-09-23 11:15:27.044080,42.61,16.373051,-0.0031339382481259063,-0.02352945757203875,0.0973512698629459,32.08287849390507,-88.23529758782387,76.200527287817
2024-09-23 11:15:27.087427,42.61,16.373051,-0.0031339382481259063,-0.023230986250042305,0.09774922960030558,40.106058693909645,-100.26678939585686,76.200527287817
2024-09-23 11:15:27.098701,42.61,16.373138,-0.0031339382481259063,-0.023230986250042305,0.09774922960030558,40.106058693909645,-100.26678939585686,80.21211738781929
2024-09-23 11:15:27.130807,42.61,16.373138,-0.003233425524256645,-0.023230986250042305,0.09774922960030558,40.106058693909645,-100.26678939585686,80.21211738781929
2024-09-23 11:15:27.143310,42.61,16.373138,-0.003233425524256645,-0.02338022115155219,0.09705279702197278,44.11764879391193,-96.25519929585457,80.21211738781929
2024-09-23 11:15:27.185136,42.61,16.373189,-0.0035318979854855937,-0.02308174982955575,0.09705279702197278,44.11764879391193,-96.25519929585457,80.21211738781929
2024-09-23 11:15:27.196606,42.61,16.373189,-0.0035318979854855937,-0.02308174982955575,0.09670458680871308,36.09446859390736,-100.26678939585686,80.21211738781929
2024-09-23 11:15:27.228449,42.61,16.373189,-0.0035318979854855937,-0.02308174982955575,0.09670458680871308,36.09446859390736,-100.26678939585686,76.200527287817
2024-09-23 11:15:27.283980,42.61,16.37324,-0.0028852147413806935,-0.023280723622328886,0.09685382322919964,36.09446859390736,-100.26678939585686,76.200527287817
2024-09-23 11:15:27.295453,42.61,16.37324,-0.0028852147413806935,-0.023280723622328886,0.09685382322919964,32.08287849390507,-92.24360919585227,76.200527287817
2024-09-23 11:15:27.329473,42.7,16.373291,-0.0028852147413806935,-0.023280723622328886,0.09685382322919964,32.08287849390507,-92.24360919585227,80.21211738781929
2024-09-23 11:15:27.340924,42.7,16.373291,-0.003382661564999035,-0.023230986250042305,0.09690356060148622,32.08287849390507,-92.24360919585227,80.21211738781929
2024-09-23 11:15:27.383064,42.7,16.373341,-0.0027359787006383035,-0.02367869399252531,0.0970030596496862,32.08287849390507,-92.24360919585227,88.23529758782387
2024-09-23 11:15:27.426120,42.7,16.373341,-0.0027359787006383035,-0.02367869399252531,0.0970030596496862,36.09446859390736,-96.25519929585457,88.23529758782387
2024-09-23 11:15:27.437292,42.7,16.373392,-0.0035318979854855937,-0.023778180888911878,0.0970030596496862,36.09446859390736,-96.25519929585457,72.1922225099802
2024-09-23 11:15:27.480440,42.7,16.373479,-0.0035318979854855937,-0.023778180888911878,0.0973512698629459,40.106058693909645,-100.26678939585686,84.22370748782159
2024-09-23 11:15:27.492174,42.7,16.373479,-0.0032831742888682963,-0.023778180888911878,0.0973512698629459,40.106058693909645,-100.26678939585686,84.22370748782159
2024-09-23 11:15:27.523610,42.7,16.373479,-0.0032831742888682963,-0.02362894446842532,0.0970030596496862,40.106058693909645,-100.26678939585686,84.22370748782159
2024-09-23 11:15:27.535244,42.7,16.373576,-0.0032831742888682963,-0.02362894446842532,0.0970030596496862,28.07457030097246,-96.25519929585457,76.200527287817
2024-09-23 11:15:27.579293,42.7,16.373576,-0.003233425524256645,-0.023778180888911878,0.09685382322919964,36.09446859390736,-104.27510100388527,80.21211738781929
2024-09-23 11:15:27.621607,42.7,16.373628,-0.0032831742888682963,-0.02367869399252531,0.09685382322919964,36.09446859390736,-104.27510100388527,80.21211738781929
2024-09-23 11:15:27.632826,42.7,16.373628,-0.0032831742888682963,-0.02367869399252531,0.0973512698629459,44.11764879391193,-96.25519929585457,80.21211738781929
2024-09-23 11:15:27.676053,42.7,16.373679,-0.004178591292810975,-0.023877669304275123,0.0976994861521123,36.09446859390736,-96.25519929585457,80.21211738781929
2024-09-23 11:15:27.719706,42.7,16.37373,-0.004178591292810975,-0.023877669304275123,0.0976994861521123,36.09446859390736,-100.26678939585686,80.21211738781929
2024-09-23 11:15:27.731429,42.7,16.37373,-0.003233425524256645,-0.02367869399252531,0.0976994861521123,36.09446859390736,-100.26678939585686,80.21211738781929
2024-09-23 11:15:27.774762,42.7,16.373781,-0.003482159473966507,-0.02367869399252531,0.09725178296655933,44.11764879391193,-104.27510100388527,80.21211738781929
2024-09-23 11:15:27.818841,42.7,16.373781,-0.003482159473966507,-0.023181236725942318,0.0973015264147526,40.106058693909645,-100.26678939585686,80.21211738781929
2024-09-23 11:15:27.831573,42.7,16.373832,-0.003482159473966507,-0.023181236725942318,0.0973015264147526,40.106058693909645,-100.26678939585686,80.21211738781929
2024-09-23 11:15:27.863983,42.7,16.373832,-0.0033329230534799477,-0.02338022115155219,0.0973015264147526,40.106058693909645,-100.26678939585686,80.21211738781929
2024-09-23 11:15:27.875647,42.7,16.373832,-0.0033329230534799477,-0.02338022115155219,0.09695331012558621,36.09446859390736,-92.24360919585227,80.21211738781929
2024-09-23 11:15:27.918505,42.7,16.373918,-0.0028852147413806935,-0.023280723622328886,0.09725178296655933,36.09446859390736,-92.24360919585227,80.21211738781929
2024-09-23 11:15:27.930485,42.7,16.373918,-0.0028852147413806935,-0.023280723622328886,0.09725178296655933,36.09446859390736,-92.24360919585227,80.21211738781929
2024-09-23 11:15:27.963906,42.7,16.373969,-0.0028852147413806935,-0.023280723622328886,0.09725178296655933,36.09446859390736,-96.25519929585457,76.200527287817
2024-09-23 11:15:27.975407,42.7,16.373969,-0.0035816467500972456,-0.023579196463302005,0.09690356060148622,36.09446859390736,-96.25519929585457,76.200527287817
2024-09-23 11:15:28.018157,42.7,16.37402,-0.0034324103296106863,-0.02367869399252531,0.09690356060148622,28.07457030097246,-88.23529758782387,80.21211738781929
2024-09-23 11:15:28.060426,42.7,16.37402,-0.0034324103296106863,-0.02367869399252531,0.09705279702197278,24.06297849342227,-92.24360919585227,80.21211738781929
2024-09-23 11:15:28.072838,42.7,16.374071,-0.003233425524256645,-0.02367869399252531,0.09705279702197278,24.06297849342227,-92.24360919585227,80.21211738781929
2024-09-23 11:15:28.116586,42.7,16.374121,-0.003233425524256645,-0.023230986250042305,0.09705279702197278,36.09446859390736,-100.26678939585686,80.21211738781929
2024-09-23 11:15:28.158417,42.7,16.374121,-0.003382661564999035,-0.02352945757203875,0.09705279702197278,36.09446859390736,-100.26678939585686,80.21211738781929
2024-09-23 11:15:28.169558,42.7,16.374121,-0.003382661564999035,-0.02352945757203875,0.09745075675933246,36.09446859390736,-96.25519929585457,76.200527287817
2024-09-23 11:15:28.213468,42.7,16.374211,-0.0030841997366068195,-0.02352945757203875,0.09690356060148622,32.08287849390507,-96.25519929585457,76.200527287817
2024-09-23 11:15:28.257274,42.7,16.374262,-0.0035318979854855937,-0.02352945757203875,0.09690356060148622,32.08287849390507,-96.25519929585457,80.21211738781929
2024-09-23 11:15:28.268430,42.7,16.374262,-0.0035318979854855937,-0.023479709566915436,0.09645586349183995,36.09446859390736,-96.25519929585457,80.21211738781929
2024-09-23 11:15:28.311536,42.7,16.374313,-0.0030841997366068195,-0.02338022115155219,0.09789846602079214,36.09446859390736,-96.25519929585457,84.22370748782159
2024-09-23 11:15:28.354806,42.32,16.374313,-0.0030841997366068195,-0.02338022115155219,0.09789846602079214,44.11764879391193,-92.24360919585227,80.21211738781929
2024-09-23 11:15:28.407797,42.32,16.374363,-0.0036811340262279837,-0.02352945757203875,0.09725178296655933,40.106058693909645,-92.24360919585227,80.21211738781929
2024-09-23 11:15:28.451393,42.32,16.374414,-0.0031836870127375577,-0.02352945757203875,0.09725178296655933,40.106058693909645,-92.24360919585227,80.21211738781929
2024-09-23 11:15:28.462778,42.32,16.374414,-0.0031836870127375577,-0.023330473146428877,0.09670458680871308,36.09446859390736,-92.24360919585227,80.21211738781929
2024-09-23 11:15:28.505423,42.32,16.374503,-0.0032831742888682963,-0.02362894446842532,0.09665483728461309,36.09446859390736,-92.24360919585227,76.200527287817
2024-09-23 11:15:28.547712,42.32,16.374503,-0.0032831742888682963,-0.02362894446842532,0.09665483728461309,36.09446859390736,-92.24360919585227,76.200527287817
2024-09-23 11:15:28.559122,42.32,16.374554,-0.003382661564999035,-0.023280723622328886,0.09665483728461309,36.09446859390736,-92.24360919585227,84.22370748782159
2024-09-23 11:15:28.603598,42.32,16.374605,-0.0033329230534799477,-0.023280723622328886,0.09715228999426605,32.08287849390507,-92.24360919585227,88.23529758782387
2024-09-23 11:15:28.645653,42.32,16.374605,-0.0033329230534799477,-0.023330473146428877,0.09759999317981902,36.09446859390736,-92.24360919585227,88.23529758782387
2024-09-23 11:15:28.657545,42.32,16.374698,-0.0033329230534799477,-0.023330473146428877,0.09759999317981902,36.09446859390736,-100.26678939585686,80.21211738781929
2024-09-23 11:15:28.700031,42.32,16.374698,-0.003382661564999035,-0.023579196463302005,0.09690356060148622,36.09446859390736,-104.27510100388527,84.22370748782159
2024-09-23 11:15:28.744218,42.32,16.374749,-0.0031836870127375577,-0.023181236725942318,0.09690356060148622,36.09446859390736,-104.27510100388527,84.22370748782159
2024-09-23 11:15:28.755416,42.32,16.374749,-0.0031836870127375577,-0.023181236725942318,0.09670458680871308,32.08287849390507,-100.26678939585686,84.22370748782159
2024-09-23 11:15:28.798055,42.32,16.3748,-0.0029847020175114316,-0.02367869399252531,0.09784872257259886,40.106058693909645,-100.26678939585686,84.22370748782159
2024-09-23 11:15:28.840861,42.32,16.374851,-0.0029847020175114316,-0.02367869399252531,0.09784872257259886,40.106058693909645,-104.27510100388527,80.21211738781929
2024-09-23 11:15:28.852539,42.32,16.374851,-0.0031836870127375577,-0.023778180888911878,0.09685382322919964,40.106058693909645,-104.27510100388527,80.21211738781929
2024-09-23 11:15:28.895649,42.32,16.374901,-0.0035816467500972456,-0.022982261414192504,0.09685382322919964,36.09446859390736,-104.27510100388527,80.21211738781929
2024-09-23 11:15:28.937218,42.32,16.374901,-0.0035816467500972456,-0.022982261414192504,0.09680407370509965,36.09446859390736,-104.27510100388527,80.21211738781929
2024-09-23 11:15:28.948258,42.32,16.374952,-0.0032831742888682963,-0.022982261414192504,0.09680407370509965,36.09446859390736,-96.25519929585457,84.22370748782159
2024-09-23 11:15:28.991801,42.32,16.375039,-0.0032831742888682963,-0.022982261414192504,0.09710254654607277,40.106058693909645,-100.26678939585686,72.1922225099802
2024-09-23 11:15:29.034792,42.32,16.375039,-0.003233425524256645,-0.02308174982955575,0.09710254654607277,40.106058693909645,-100.26678939585686,72.1922225099802
2024-09-23 11:15:29.046547,42.32,16.375039,-0.003233425524256645,-0.02308174982955575,0.09685382322919964,32.08287849390507,-100.26678939585686,84.22370748782159
2024-09-23 11:15:29.088697,42.32,16.375091,-0.0034324103296106863,-0.02362894446842532,0.09665483728461309,32.08287849390507,-100.26678939585686,84.22370748782159
2024-09-23 11:15:29.101416,42.32,16.375091,-0.0034324103296106863,-0.02362894446842532,0.09665483728461309,32.08287849390507,-100.26678939585686,84.22370748782159
2024-09-23 11:15:29.133421,42.32,16.375142,-0.0034324103296106863,-0.02362894446842532,0.09665483728461309,32.08287849390507,-100.26678939585686,84.22370748782159
2024-09-23 11:15:29.144566,42.32,16.375142,-0.0035318979854855937,-0.023181236725942318,0.0966050877605131,32.08287849390507,-100.26678939585686,84.22370748782159
2024-09-23 11:15:29.187013,42.32,16.375193,-0.0031836870127375577,-0.02352945757203875,0.09710254654607277,32.08287849390507,-104.27510100388527,80.21211738781929
2024-09-23 11:15:29.229743,42.32,16.375193,-0.0031836870127375577,-0.02352945757203875,0.09710254654607277,36.09446859390736,-100.26678939585686,80.21211738781929
2024-09-23 11:15:29.241202,42.32,16.375243,-0.0031339382481259063,-0.023280723622328886,0.09710254654607277,36.09446859390736,-100.26678939585686,84.22370748782159
2024-09-23 11:15:29.283826,42.32,16.375243,-0.0031339382481259063,-0.023280723622328886,0.09690356060148622,40.106058693909645,-88.23529758782387,80.21211738781929
2024-09-23 11:15:29.326415,42.32,16.375294,-0.0031339382481259063,-0.023280723622328886,0.09690356060148622,40.106058693909645,-88.23529758782387,80.21211738781929
2024-09-23 11:15:29.338098,42.32,16.375294,-0.003780631555451287,-0.023429960042815445,0.0976994861521123,32.08287849390507,-108.28669110388756,80.21211738781929
2024-09-23 11:15:29.380994,42.08,16.37538,-0.0032831742888682963,-0.023330473146428877,0.09740101331113918,32.08287849390507,-108.28669110388756,76.200527287817
2024-09-23 11:15:29.392829,42.08,16.37538,-0.0032831742888682963,-0.023330473146428877,0.09740101331113918,32.08287849390507,-108.28669110388756,76.200527287817
2024-09-23 11:15:29.424462,42.08,16.37538,-0.0032831742888682963,-0.023330473146428877,0.09740101331113918,32.08287849390507,-100.26678939585686,84.22370748782159
2024-09-23 11:15:29.436321,42.08,16.375432,-0.0031339382481259063,-0.023280723622328886,0.09740101331113918,32.08287849390507,-100.26678939585686,84.22370748782159
2024-09-23 11:15:29.479357,42.08,16.375482,-0.0036811340262279837,-0.023280723622328886,0.09740101331113918,36.09446859390736,-100.26678939585686,80.21211738781929
2024-09-23 11:15:29.522484,42.08,16.375482,-0.0036811340262279837,-0.023280723622328886,0.09710254654607277,36.09446859390736,-100.26678939585686,80.21211738781929
2024-09-23 11:15:29.533689,42.08,16.375533,-0.003382661564999035,-0.023280723622328886,0.09710254654607277,36.09446859390736,-100.26678939585686,80.21211738781929
2024-09-23 11:15:29.575850,42.08,16.375533,-0.003382661564999035,-0.023230986250042305,0.09745075675933246,32.08287849390507,-100.26678939585686,80.21211738781929
2024-09-23 11:15:29.587940,42.08,16.375624,-0.003382661564999035,-0.023230986250042305,0.09745075675933246,32.08287849390507,-100.26678939585686,80.21211738781929
2024-09-23 11:15:29.621957,42.08,16.375624,-0.0038303700669703737,-0.023330473146428877,0.09715228999426605,32.08287849390507,-100.26678939585686,80.21211738781929
2024-09-23 11:15:29.633073,42.08,16.375624,-0.0038303700669703737,-0.023330473146428877,0.09715228999426605,32.08287849390507,-96.25519929585457,84.22370748782159
2024-09-23 11:15:29.675392,42.08,16.375676,-0.0030841997366068195,-0.023230986250042305,0.09710254654607277,36.09446859390736,-96.25519929585457,84.22370748782159
2024-09-23 11:15:29.717574,42.08,16.375726,-0.003233425524256645,-0.023230986250042305,0.09710254654607277,36.09446859390736,-96.25519929585457,76.200527287817
2024-09-23 11:15:29.729073,42.08,16.375726,-0.003233425524256645,-0.023280723622328886,0.09740101331113918,32.08287849390507,-96.25519929585457,76.200527287817
2024-09-23 11:15:29.771786,42.08,16.375777,-0.0036811340262279837,-0.02367869399252531,0.09720203344245934,32.08287849390507,-100.26678939585686,84.22370748782159
2024-09-23 11:15:29.814002,42.08,16.375777,-0.0036811340262279837,-0.02367869399252531,0.09720203344245934,32.08287849390507,-100.26678939585686,84.22370748782159
2024-09-23 11:15:29.825607,42.08,16.375828,-0.003482159473966507,-0.02352945757203875,0.09720203344245934,32.08287849390507,-100.26678939585686,84.22370748782159
2024-09-23 11:15:29.868561,42.08,16.375878,-0.003482159473966507,-0.02352945757203875,0.09764974270391902,32.08287849390507,-100.26678939585686,80.21211738781929
2024-09-23 11:15:29.880402,42.08,16.375878,-0.0031836870127375577,-0.02352945757203875,0.09764974270391902,32.08287849390507,-100.26678939585686,80.21211738781929
2024-09-23 11:15:29.912352,42.08,16.375878,-0.0031836870127375577,-0.02352945757203875,0.09695331012558621,32.08287849390507,-100.26678939585686,80.21211738781929
2024-09-23 11:15:29.923527,42.08,16.375965,-0.0031836870127375577,-0.02352945757203875,0.09695331012558621,32.08287849390507,-92.24360919585227,80.21211738781929
2024-09-23 11:15:29.965305,42.08,16.375965,-0.0032831742888682963,-0.02352945757203875,0.09670458680871308,40.106058693909645,-88.23529758782387,80.21211738781929
2024-09-23 11:15:29.977288,42.08,16.375965,-0.0032831742888682963,-0.02352945757203875,0.09670458680871308,40.106058693909645,-88.23529758782387,80.21211738781929
2024-09-23 11:15:30.009796,42.08,16.376017,-0.0031339382481259063,-0.02352945757203875,0.09670458680871308,40.106058693909645,-88.23529758782387,80.21211738781929
2024-09-23 11:15:30.021736,42.08,16.376017,-0.0031339382481259063,-0.02308174982955575,0.09705279702197278,36.09446859390736,-100.26678939585686,80.21211738781929
2024-09-23 11:15:30.064806,42.08,16.376068,-0.0030344509719951677,-0.023479709566915436,0.0976994861521123,36.09446859390736,-100.26678939585686,84.22370748782159
2024-09-23 11:15:30.076334,42.08,16.376068,-0.0030344509719951677,-0.023479709566915436,0.0976994861521123,36.09446859390736,-100.26678939585686,84.22370748782159
2024-09-23 11:15:30.110941,42.08,16.376119,-0.0033329230534799477,-0.023479709566915436,0.0976994861521123,36.09446859390736,-100.26678939585686,76.200527287817
2024-09-23 11:15:30.122611,42.08,16.376119,-0.0033329230534799477,-0.02313149783467906,0.09740101331113918,36.09446859390736,-100.26678939585686,76.200527287817
2024-09-23 11:15:30.154806,42.08,16.376119,-0.0033329230534799477,-0.02313149783467906,0.09740101331113918,36.09446859390736,-100.26678939585686,76.200527287817
2024-09-23 11:15:30.167270,42.08,16.37617,-0.0030344509719951677,-0.02362894446842532,0.09740101331113918,36.09446859390736,-92.24360919585227,80.21211738781929
2024-09-23 11:15:30.209954,42.08,16.37622,-0.0030344509719951677,-0.02362894446842532,0.0970030596496862,36.09446859390736,-96.25519929585457,80.21211738781929
2024-09-23 11:15:30.222099,42.08,16.37622,-0.0032831742888682963,-0.02362894446842532,0.0970030596496862,36.09446859390736,-96.25519929585457,80.21211738781929
2024-09-23 11:15:30.254300,42.08,16.37622,-0.0032831742888682963,-0.02338022115155219,0.09685382322919964,36.09446859390736,-96.25519929585457,80.21211738781929
2024-09-23 11:15:30.265602,42.08,16.376307,-0.0032831742888682963,-0.02338022115155219,0.09685382322919964,36.09446859390736,-104.27510100388527,80.21211738781929
2024-09-23 11:15:30.307703,42.08,16.376307,-0.0032831742888682963,-0.02313149783467906,0.09680407370509965,36.09446859390736,-96.25519929585457,88.23529758782387
2024-09-23 11:15:30.350136,42.08,16.376358,-0.0032831742888682963,-0.02313149783467906,0.09680407370509965,36.09446859390736,-96.25519929585457,88.23529758782387
2024-09-23 11:15:30.362089,42.08,16.376358,-0.0030344509719951677,-0.023429960042815445,0.09710254654607277,36.09446859390736,-92.24360919585227,88.23529758782387
2024-09-23 11:15:30.404597,42.3,16.376409,-0.0027359787006383035,-0.02362894446842532,0.09740101331113918,36.09446859390736,-92.24360919585227,84.22370748782159
2024-09-23 11:15:30.417190,42.3,16.376409,-0.0027359787006383035,-0.02362894446842532,0.09740101331113918,32.08287849390507,-92.24360919585227,84.22370748782159
2024-09-23 11:15:30.449985,42.3,16.376459,-0.0027359787006383035,-0.02362894446842532,0.09740101331113918,32.08287849390507,-96.25519929585457,80.21211738781929
2024-09-23 11:15:30.461811,42.3,16.376459,-0.0031339382481259063,-0.023579196463302005,0.09705279702197278,32.08287849390507,-96.25519929585457,80.21211738781929
2024-09-23 11:15:30.505175,42.3,16.37651,-0.003631395514708897,-0.023579196463302005,0.09705279702197278,40.106058693909645,-104.27510100388527,72.1922225099802
2024-09-23 11:15:30.547597,42.3,16.37651,-0.003631395514708897,-0.023579196463302005,0.09725178296655933,32.08287849390507,-104.27510100388527,72.1922225099802
2024-09-23 11:15:30.558847,42.3,16.376561,-0.003631395514708897,-0.023579196463302005,0.09725178296655933,32.08287849390507,-104.27510100388527,72.1922225099802
2024-09-23 11:15:30.601704,42.3,16.376561,-0.0031339382481259063,-0.0228827638849692,0.09725178296655933,36.09446859390736,-112.29828120388984,80.21211738781929
2024-09-23 11:15:30.644990,42.3,16.376648,-0.0029847020175114316,-0.023429960042815445,0.09725178296655933,36.09446859390736,-112.29828120388984,80.21211738781929
2024-09-23 11:15:30.656806,42.3,16.376648,-0.0029847020175114316,-0.023429960042815445,0.0973015264147526,32.08287849390507,-112.29828120388984,80.21211738781929
2024-09-23 11:15:30.699734,42.3,16.376699,-0.003631395514708897,-0.02352945757203875,0.09755024973162574,40.106058693909645,-112.29828120388984,72.1922225099802
2024-09-23 11:15:30.741757,42.3,16.37675,-0.003631395514708897,-0.02352945757203875,0.09755024973162574,40.106058693909645,-100.26678939585686,80.21211738781929
2024-09-23 11:15:30.753282,42.3,16.37675,-0.0033329230534799477,-0.023579196463302005,0.09685382322919964,40.106058693909645,-100.26678939585686,80.21211738781929
2024-09-23 11:15:30.796704,42.3,16.376801,-0.0028354659767690416,-0.02338022115155219,0.09685382322919964,36.09446859390736,-96.25519929585457,80.21211738781929
2024-09-23 11:15:30.839483,42.3,16.376801,-0.0028354659767690416,-0.02338022115155219,0.09695331012558621,36.09446859390736,-100.26678939585686,80.21211738781929
2024-09-23 11:15:30.851301,42.3,16.376851,-0.0029847020175114316,-0.02338022115155219,0.09695331012558621,36.09446859390736,-100.26678939585686,76.200527287817
2024-09-23 11:15:30.894090,42.3,16.376941,-0.0029847020175114316,-0.023579196463302005,0.09755024973162574,36.09446859390736,-104.27510100388527,84.22370748782159
2024-09-23 11:15:30.937184,42.3,16.376941,-0.0029349636958644295,-0.02362894446842532,0.0973512698629459,36.09446859390736,-104.27510100388527,84.22370748782159
2024-09-23 11:15:30.948602,42.3,16.376941,-0.0029349636958644295,-0.02362894446842532,0.0973512698629459,36.09446859390736,-96.25519929585457,76.200527287817
2024-09-23 11:15:30.990640,42.3,16.376992,-0.0035318979854855937,-0.023330473146428877,0.09675432418099966,40.106058693909645,-96.25519929585457,76.200527287817
2024-09-23 11:15:31.034403,42.3,16.377043,-0.0031339382481259063,-0.023330473146428877,0.09675432418099966,40.106058693909645,-96.25519929585457,84.22370748782159
2024-09-23 11:15:31.045824,42.3,16.377043,-0.0031339382481259063,-0.02352945757203875,0.09710254654607277,32.08287849390507,-96.25519929585457,84.22370748782159
2024-09-23 11:15:31.089582,42.3,16.377043,-0.0031339382481259063,-0.02352945757203875,0.09710254654607277,32.08287849390507,-92.24360919585227,84.22370748782159
2024-09-23 11:15:31.132610,42.3,16.377093,-0.0035318979854855937,-0.02352945757203875,0.09710254654607277,32.08287849390507,-92.24360919585227,84.22370748782159
2024-09-23 11:15:31.144827,42.3,16.377093,-0.0035318979854855937,-0.023330473146428877,0.09715228999426605,36.09446859390736,-92.24360919585227,84.22370748782159
2024-09-23 11:15:31.177250,42.3,16.377093,-0.0035318979854855937,-0.023330473146428877,0.09715228999426605,36.09446859390736,-96.25519929585457,84.22370748782159
2024-09-23 11:15:31.188899,42.3,16.377144,-0.003631395514708897,-0.023479709566915436,0.0973512698629459,36.09446859390736,-96.25519929585457,80.21211738781929
2024-09-23 11:15:31.231643,42.3,16.377195,-0.003631395514708897,-0.023479709566915436,0.0973512698629459,40.106058693909645,-96.25519929585457,76.200527287817
2024-09-23 11:15:31.243288,42.3,16.377195,-0.003482159473966507,-0.023181236725942318,0.0973512698629459,40.106058693909645,-96.25519929585457,76.200527287817
2024-09-23 11:15:31.327638,42.3,16.377195,-0.003482159473966507,-0.023181236725942318,0.09705279702197278,36.09446859390736,-92.24360919585227,76.200527287817
2024-09-23 11:15:31.339161,42.3,16.377282,-0.0031836870127375577,-0.023181236725942318,0.09705279702197278,36.09446859390736,-92.24360919585227,88.23529758782387
2024-09-23 11:15:31.382981,42.3,16.377332,-0.0031836870127375577,-0.023330473146428877,0.0973015264147526,32.08287849390507,-92.24360919585227,80.21211738781929
2024-09-23 11:15:31.427001,41.9,16.377332,-0.0035318979854855937,-0.02367869399252531,0.09779897304849887,32.08287849390507,-92.24360919585227,80.21211738781929
2024-09-23 11:15:31.440054,41.9,16.377332,-0.0035318979854855937,-0.02367869399252531,0.09779897304849887,32.08287849390507,-96.25519929585457,80.21211738781929
2024-09-23 11:15:31.472090,41.9,16.377428,-0.003382661564999035,-0.02367869399252531,0.09779897304849887,32.08287849390507,-96.25519929585457,80.21211738781929
2024-09-23 11:15:31.483814,41.9,16.377428,-0.003382661564999035,-0.02352945757203875,0.09675432418099966,28.07457030097246,-96.25519929585457,80.21211738781929
2024-09-23 11:15:31.526809,41.9,16.37748,-0.003482159473966507,-0.023181236725942318,0.09670458680871308,44.11764879391193,-96.25519929585457,76.200527287817
2024-09-23 11:15:31.569627,41.9,16.37748,-0.003482159473966507,-0.023181236725942318,0.09670458680871308,44.11764879391193,-104.27510100388527,72.1922225099802
2024-09-23 11:15:31.581527,41.9,16.377576,-0.003482159473966507,-0.022982261414192504,0.0970030596496862,44.11764879391193,-104.27510100388527,72.1922225099802
2024-09-23 11:15:31.623472,41.9,16.377626,-0.0035816467500972456,-0.022982261414192504,0.0970030596496862,44.11764879391193,-92.24360919585227,84.22370748782159
2024-09-23 11:15:31.635679,41.9,16.377626,-0.0035816467500972456,-0.023280723622328886,0.0970030596496862,44.11764879391193,-92.24360919585227,84.22370748782159
2024-09-23 11:15:31.667494,41.9,16.377626,-0.0035816467500972456,-0.023280723622328886,0.0973015264147526,44.11764879391193,-92.24360919585227,84.22370748782159
2024-09-23 11:15:31.679306,41.9,16.377677,-0.0035318979854855937,-0.023280723622328886,0.0973015264147526,44.11764879391193,-96.25519929585457,80.21211738781929
2024-09-23 11:15:31.721715,41.9,16.377769,-0.0035318979854855937,-0.02362894446842532,0.09740101331113918,36.09446859390736,-100.26678939585686,84.22370748782159
2024-09-23 11:15:31.764147,41.9,16.377769,-0.0034324103296106863,-0.02367869399252531,0.09740101331113918,36.09446859390736,-100.26678939585686,84.22370748782159
2024-09-23 11:15:31.776428,41.9,16.377769,-0.0034324103296106863,-0.02367869399252531,0.09750050628343246,36.09446859390736,-100.26678939585686,72.1922225099802
2024-09-23 11:15:31.820280,41.9,16.377821,-0.0033329230534799477,-0.023479709566915436,0.09715228999426605,36.09446859390736,-96.25519929585457,72.1922225099802
2024-09-23 11:15:31.862810,41.9,16.377871,-0.0033329230534799477,-0.023479709566915436,0.09715228999426605,36.09446859390736,-96.25519929585457,80.21211738781929
2024-09-23 11:15:31.874300,41.9,16.377871,-0.003631395514708897,-0.02338022115155219,0.09710254654607277,32.08287849390507,-96.25519929585457,80.21211738781929
2024-09-23 11:15:31.918275,41.9,16.377922,-0.003233425524256645,-0.02352945757203875,0.09715228999426605,32.08287849390507,-100.26678939585686,84.22370748782159
2024-09-23 11:15:32.012852,41.9,16.377973,-0.003233425524256645,-0.02352945757203875,0.09715228999426605,32.08287849390507,-96.25519929585457,84.22370748782159
2024-09-23 11:15:32.025960,41.9,16.377973,-0.003233425524256645,-0.02338022115155219,0.09715228999426605,32.08287849390507,-96.25519929585457,84.22370748782159
2024-09-23 11:15:32.059287,41.9,16.377973,-0.003233425524256645,-0.02338022115155219,0.09710254654607277,32.08287849390507,-96.25519929585457,84.22370748782159
2024-09-23 11:15:32.070600,41.9,16.378023,-0.002586742470023829,-0.02338022115155219,0.09710254654607277,32.08287849390507,-96.25519929585457,84.22370748782159
2024-09-23 11:15:32.113168,41.9,16.37811,-0.002586742470023829,-0.023230986250042305,0.09740101331113918,40.106058693909645,-100.26678939585686,80.21211738781929
2024-09-23 11:15:32.155352,41.9,16.37811,-0.0036811340262279837,-0.023927417309398437,0.09695331012558621,40.106058693909645,-100.26678939585686,80.21211738781929
2024-09-23 11:15:32.166736,41.9,16.37811,-0.0036811340262279837,-0.023927417309398437,0.09695331012558621,36.09446859390736,-96.25519929585457,84.22370748782159
2024-09-23 11:15:32.210257,41.9,16.378162,-0.0032831742888682963,-0.02367869399252531,0.09695331012558621,32.08287849390507,-100.26678939585686,84.22370748782159
2024-09-23 11:15:32.253480,41.9,16.378258,-0.0026862297461545674,-0.02367869399252531,0.09695331012558621,32.08287849390507,-100.26678939585686,76.200527287817
2024-09-23 11:15:32.265247,41.9,16.378258,-0.0026862297461545674,-0.02338022115155219,0.09690356060148622,40.106058693909645,-100.26678939585686,76.200527287817
2024-09-23 11:15:32.308912,41.9,16.378309,-0.0031836870127375577,-0.023479709566915436,0.0970030596496862,40.106058693909645,-96.25519929585457,80.21211738781929
2024-09-23 11:15:32.351280,41.9,16.378309,-0.0031836870127375577,-0.023479709566915436,0.0970030596496862,32.08287849390507,-96.25519929585457,88.23529758782387
2024-09-23 11:15:32.362750,41.9,16.378359,-0.0033329230534799477,-0.023479709566915436,0.0970030596496862,32.08287849390507,-96.25519929585457,88.23529758782387
2024-09-23 11:15:32.405034,41.9,16.37841,-0.0030841997366068195,-0.023479709566915436,0.09764974270391902,40.106058693909645,-100.26678939585686,80.21211738781929
2024-09-23 11:15:32.448928,41.72,16.37841,-0.0030841997366068195,-0.023778180888911878,0.09710254654607277,36.09446859390736,-100.26678939585686,80.21211738781929
2024-09-23 11:15:32.460050,41.72,16.37841,-0.0030841997366068195,-0.023778180888911878,0.09710254654607277,36.09446859390736,-100.26678939585686,80.21211738781929
2024-09-23 11:15:32.503421,41.72,16.3785,-0.0030841997366068195,-0.023778180888911878,0.09710254654607277,36.09446859390736,-100.26678939585686,80.21211738781929
2024-09-23 11:15:32.546688,41.72,16.3785,-0.003233425524256645,-0.023827930413011865,0.09755024973162574,36.09446859390736,-100.26678939585686,80.21211738781929
2024-09-23 11:15:32.559002,41.72,16.3785,-0.003233425524256645,-0.023827930413011865,0.09755024973162574,40.106058693909645,-104.27510100388527,76.200527287817
2024-09-23 11:15:32.593398,41.72,16.378552,-0.003233425524256645,-0.023827930413011865,0.09755024973162574,40.106058693909645,-104.27510100388527,76.200527287817
2024-09-23 11:15:32.605176,41.72,16.378552,-0.003233425524256645,-0.023230986250042305,0.09725178296655933,40.106058693909645,-100.26678939585686,76.200527287817
2024-09-23 11:15:32.647067,41.72,16.378602,-0.0030841997366068195,-0.023479709566915436,0.09755024973162574,40.106058693909645,-100.26678939585686,76.200527287817
2024-09-23 11:15:32.659224,41.72,16.378602,-0.0030841997366068195,-0.023479709566915436,0.09755024973162574,32.08287849390507,-100.26678939585686,76.200527287817
2024-09-23 11:15:32.692365,41.72,16.378653,-0.0030841997366068195,-0.023479709566915436,0.09755024973162574,32.08287849390507,-100.26678939585686,84.22370748782159
2024-09-23 11:15:32.704503,41.72,16.378653,-0.0031836870127375577,-0.023877669304275123,0.09740101331113918,32.08287849390507,-100.26678939585686,84.22370748782159
2024-09-23 11:15:32.747127,41.72,16.378704,-0.0032831742888682963,-0.023181236725942318,0.09740101331113918,40.106058693909645,-96.25519929585457,80.21211738781929
2024-09-23 11:15:32.789123,41.72,16.378704,-0.0032831742888682963,-0.023181236725942318,0.09690356060148622,44.11764879391193,-100.26678939585686,80.21211738781929
2024-09-23 11:15:32.800725,41.72,16.378795,-0.0030344509719951677,-0.023181236725942318,0.09690356060148622,44.11764879391193,-100.26678939585686,76.200527287817
2024-09-23 11:15:32.843693,41.72,16.37889,-0.0030344509719951677,-0.023429960042815445,0.0966050877605131,32.08287849390507,-96.25519929585457,88.23529758782387
2024-09-23 11:15:32.886386,41.72,16.37889,-0.0035816467500972456,-0.023479709566915436,0.0966050877605131,32.08287849390507,-96.25519929585457,88.23529758782387
2024-09-23 11:15:32.897404,41.72,16.37889,-0.0035816467500972456,-0.023479709566915436,0.09750050628343246,32.08287849390507,-100.26678939585686,80.21211738781929
2024-09-23 11:15:32.940388,41.72,16.378942,-0.003780631555451287,-0.02362894446842532,0.0970030596496862,36.09446859390736,-104.27510100388527,80.21211738781929
2024-09-23 11:15:32.982735,41.72,16.378992,-0.003780631555451287,-0.02362894446842532,0.0970030596496862,36.09446859390736,-104.27510100388527,76.200527287817
2024-09-23 11:15:32.994272,41.72,16.378992,-0.0035318979854855937,-0.02362894446842532,0.09670458680871308,40.106058693909645,-104.27510100388527,76.200527287817
2024-09-23 11:15:33.037803,41.72,16.379043,-0.0028852147413806935,-0.023330473146428877,0.09670458680871308,40.106058693909645,-100.26678939585686,76.200527287817
2024-09-23 11:15:33.050564,41.72,16.379043,-0.0028852147413806935,-0.023330473146428877,0.09755024973162574,40.106058693909645,-100.26678939585686,76.200527287817
2024-09-23 11:15:33.082535,41.72,16.379043,-0.0028852147413806935,-0.023330473146428877,0.09755024973162574,24.06297849342227,-104.27510100388527,72.1922225099802
2024-09-23 11:15:33.094160,41.72,16.379094,-0.003233425524256645,-0.02308174982955575,0.09755024973162574,24.06297849342227,-104.27510100388527,72.1922225099802
2024-09-23 11:15:33.136423,41.72,16.379094,-0.003233425524256645,-0.02308174982955575,0.09720203344245934,32.08287849390507,-96.25519929585457,72.1922225099802
2024-09-23 11:15:33.180180,41.72,16.379144,-0.0032831742888682963,-0.02308174982955575,0.09720203344245934,32.08287849390507,-96.25519929585457,72.1922225099802
2024-09-23 11:15:33.191489,41.72,16.379144,-0.0032831742888682963,-0.023877669304275123,0.09725178296655933,32.08287849390507,-96.25519929585457,72.1922225099802
2024-09-23 11:15:33.234799,41.72,16.379231,-0.0035816467500972456,-0.023230986250042305,0.09720203344245934,32.08287849390507,-96.25519929585457,80.21211738781929
2024-09-23 11:15:33.277313,41.72,16.379231,-0.0035816467500972456,-0.023230986250042305,0.09720203344245934,40.106058693909645,-100.26678939585686,84.22370748782159
2024-09-23 11:15:33.289126,41.72,16.379283,-0.0035816467500972456,-0.02367869399252531,0.09720203344245934,40.106058693909645,-100.26678939585686,84.22370748782159
2024-09-23 11:15:33.322544,41.72,16.379283,-0.0035816467500972456,-0.02367869399252531,0.09710254654607277,40.106058693909645,-100.26678939585686,84.22370748782159
2024-09-23 11:15:33.335791,41.72,16.379334,-0.003482159473966507,-0.02367869399252531,0.09710254654607277,36.09446859390736,-104.27510100388527,80.21211738781929
2024-09-23 11:15:33.378392,41.72,16.379334,-0.003482159473966507,-0.02362894446842532,0.09725178296655933,36.09446859390736,-104.27510100388527,80.21211738781929
2024-09-23 11:15:33.422084,41.72,16.379384,-0.003482159473966507,-0.02362894446842532,0.09725178296655933,36.09446859390736,-104.27510100388527,80.21211738781929
2024-09-23 11:15:33.433354,41.72,16.379384,-0.003929857343101113,-0.023181236725942318,0.09710254654607277,44.11764879391193,-104.27510100388527,80.21211738781929
2024-09-23 11:15:33.475985,41.61,16.379476,-0.0029847020175114316,-0.02352945757203875,0.09710254654607277,44.11764879391193,-96.25519929585457,76.200527287817
2024-09-23 11:15:33.487743,41.61,16.379476,-0.0029847020175114316,-0.02352945757203875,0.09655535038822652,44.11764879391193,-96.25519929585457,76.200527287817
2024-09-23 11:15:33.519646,41.61,16.379476,-0.0029847020175114316,-0.02352945757203875,0.09655535038822652,36.09446859390736,-96.25519929585457,76.200527287817
2024-09-23 11:15:33.530858,41.61,16.379527,-0.0031339382481259063,-0.023429960042815445,0.09655535038822652,36.09446859390736,-96.25519929585457,80.21211738781929
2024-09-23 11:15:33.573410,41.61,16.379578,-0.0031339382481259063,-0.023429960042815445,0.0970030596496862,32.08287849390507,-100.26678939585686,80.21211738781929
2024-09-23 11:15:33.585597,41.61,16.379578,-0.003929857343101113,-0.023429960042815445,0.0970030596496862,32.08287849390507,-100.26678939585686,80.21211738781929
2024-09-23 11:15:33.618745,41.61,16.379578,-0.003929857343101113,-0.02308174982955575,0.09710254654607277,40.106058693909645,-100.26678939585686,80.21211738781929
2024-09-23 11:15:33.630054,41.61,16.379628,-0.003929857343101113,-0.02308174982955575,0.09710254654607277,40.106058693909645,-100.26678939585686,80.21211738781929
2024-09-23 11:15:33.672737,41.61,16.379628,-0.0037308827908396356,-0.023429960042815445,0.09695331012558621,40.106058693909645,-96.25519929585457,80.21211738781929
2024-09-23 11:15:33.716202,41.61,16.37972,-0.0038801188315820256,-0.023181236725942318,0.09695331012558621,40.106058693909645,-96.25519929585457,80.21211738781929
2024-09-23 11:15:33.727784,41.61,16.37972,-0.0038801188315820256,-0.023181236725942318,0.09685382322919964,36.09446859390736,-100.26678939585686,80.21211738781929
2024-09-23 11:15:33.770214,41.61,16.379771,-0.0031836870127375577,-0.02313149783467906,0.09759999317981902,36.09446859390736,-100.26678939585686,80.21211738781929
2024-09-23 11:15:33.863907,41.61,16.379822,-0.003929857343101113,-0.02313149783467906,0.09759999317981902,36.09446859390736,-92.24360919585227,84.22370748782159
2024-09-23 11:15:33.876180,41.61,16.379822,-0.003929857343101113,-0.02352945757203875,0.09759999317981902,36.09446859390736,-92.24360919585227,84.22370748782159
2024-09-23 11:15:33.908766,41.61,16.379822,-0.003929857343101113,-0.02352945757203875,0.09705279702197278,36.09446859390736,-92.24360919585227,84.22370748782159
2024-09-23 11:15:33.920716,41.61,16.379872,-0.0035816467500972456,-0.02352945757203875,0.09705279702197278,40.106058693909645,-96.25519929585457,80.21211738781929
2024-09-23 11:15:33.963413,41.61,16.379872,-0.0035816467500972456,-0.023479709566915436,0.09705279702197278,36.09446859390736,-92.24360919585227,76.200527287817
2024-09-23 11:15:34.006531,41.61,16.379923,-0.0035816467500972456,-0.023479709566915436,0.09705279702197278,36.09446859390736,-92.24360919585227,76.200527287817
2024-09-23 11:15:34.018334,41.61,16.379923,-0.0032831742888682963,-0.02338022115155219,0.09740101331113918,36.09446859390736,-92.24360919585227,76.200527287817
2024-09-23 11:15:34.061222,41.61,16.380012,-0.0031339382481259063,-0.023877669304275123,0.09670458680871308,36.09446859390736,-92.24360919585227,84.22370748782159
2024-09-23 11:15:34.073422,41.61,16.380012,-0.0031339382481259063,-0.023877669304275123,0.09670458680871308,40.106058693909645,-92.24360919585227,84.22370748782159
2024-09-23 11:15:34.106160,41.61,16.380012,-0.0031339382481259063,-0.023877669304275123,0.09670458680871308,40.106058693909645,-104.27510100388527,76.200527287817
2024-09-23 11:15:34.118181,41.61,16.38011,-0.0032831742888682963,-0.023230986250042305,0.09675432418099966,40.106058693909645,-104.27510100388527,76.200527287817
2024-09-23 11:15:34.151310,41.61,16.38011,-0.0032831742888682963,-0.023230986250042305,0.09675432418099966,36.09446859390736,-104.27510100388527,76.200527287817
2024-09-23 11:15:34.162390,41.61,16.380161,-0.0035318979854855937,-0.023280723622328886,0.09675432418099966,36.09446859390736,-108.28669110388756,80.21211738781929
2024-09-23 11:15:34.204269,41.61,16.380161,-0.0035318979854855937,-0.023280723622328886,0.09675432418099966,36.09446859390736,-96.25519929585457,80.21211738781929
2024-09-23 11:15:34.215539,41.61,16.380212,-0.0028852147413806935,-0.023280723622328886,0.09675432418099966,36.09446859390736,-96.25519929585457,76.200527287817
2024-09-23 11:15:34.257865,41.61,16.380304,-0.0028852147413806935,-0.02313149783467906,0.0973015264147526,32.08287849390507,-100.26678939585686,80.21211738781929
2024-09-23 11:15:34.301716,41.61,16.380304,-0.0031339382481259063,-0.023330473146428877,0.0973015264147526,32.08287849390507,-100.26678939585686,80.21211738781929
2024-09-23 11:15:34.313066,41.61,16.380304,-0.0031339382481259063,-0.023330473146428877,0.0973015264147526,36.09446859390736,-96.25519929585457,84.22370748782159
2024-09-23 11:15:34.355644,41.61,16.380356,-0.0027359787006383035,-0.02352945757203875,0.09764974270391902,40.106058693909645,-96.25519929585457,84.22370748782159
2024-09-23 11:15:34.398226,41.61,16.380406,-0.0035816467500972456,-0.02352945757203875,0.09764974270391902,40.106058693909645,-96.25519929585457,80.21211738781929
2024-09-23 11:15:34.410369,41.61,16.380406,-0.0035816467500972456,-0.023330473146428877,0.09690356060148622,36.09446859390736,-96.25519929585457,80.21211738781929
2024-09-23 11:15:34.453168,41.61,16.380457,-0.0028354659767690416,-0.023330473146428877,0.09690356060148622,36.09446859390736,-96.25519929585457,76.200527287817
2024-09-23 11:15:34.496126,41.21,16.380457,-0.0028354659767690416,-0.023579196463302005,0.09720203344245934,36.09446859390736,-96.25519929585457,76.200527287817
2024-09-23 11:15:34.507599,41.21,16.380508,-0.0028354659767690416,-0.023579196463302005,0.09720203344245934,36.09446859390736,-96.25519929585457,80.21211738781929
2024-09-23 11:15:34.551756,41.21,16.380508,-0.0031836870127375577,-0.023778180888911878,0.09725178296655933,36.09446859390736,-96.25519929585457,80.21211738781929
2024-09-23 11:15:34.593717,41.21,16.380558,-0.0031836870127375577,-0.023778180888911878,0.09725178296655933,36.09446859390736,-96.25519929585457,80.21211738781929
2024-09-23 11:15:34.605290,41.21,16.380558,-0.0027359787006383035,-0.02338022115155219,0.09685382322919964,36.09446859390736,-96.25519929585457,80.21211738781929
2024-09-23 11:15:34.648319,41.21,16.380645,-0.003233425524256645,-0.02367869399252531,0.09685382322919964,48.12595698684454,-92.24360919585227,80.21211738781929
2024-09-23 11:15:34.691450,41.21,16.380645,-0.003233425524256645,-0.02367869399252531,0.09695331012558621,44.11764879391193,-92.24360919585227,80.21211738781929
2024-09-23 11:15:34.702901,41.21,16.380697,-0.0031836870127375577,-0.02367869399252531,0.09695331012558621,44.11764879391193,-92.24360919585227,80.21211738781929
2024-09-23 11:15:34.745445,41.21,16.380747,-0.0031836870127375577,-0.023280723622328886,0.09720203344245934,36.09446859390736,-88.23529758782387,92.24360919585227
2024-09-23 11:15:34.788751,41.21,16.380747,-0.0031339382481259063,-0.023230986250042305,0.09695331012558621,36.09446859390736,-88.23529758782387,92.24360919585227
2024-09-23 11:15:34.801133,41.21,16.380747,-0.0031339382481259063,-0.023230986250042305,0.09695331012558621,32.08287849390507,-100.26678939585686,84.22370748782159
2024-09-23 11:15:34.833837,41.21,16.380841,-0.0031339382481259063,-0.023230986250042305,0.09695331012558621,32.08287849390507,-100.26678939585686,84.22370748782159
2024-09-23 11:15:34.845307,41.21,16.380841,-0.003929857343101113,-0.023230986250042305,0.09750050628343246,40.106058693909645,-100.26678939585686,84.22370748782159
2024-09-23 11:15:34.887701,41.21,16.380892,-0.0028852147413806935,-0.023330473146428877,0.09750050628343246,40.106058693909645,-100.26678939585686,84.22370748782159
2024-09-23 11:15:34.899630,41.21,16.380892,-0.0028852147413806935,-0.023330473146428877,0.0973015264147526,36.09446859390736,-100.26678939585686,84.22370748782159
2024-09-23 11:15:34.933327,41.21,16.380892,-0.0028852147413806935,-0.023330473146428877,0.0973015264147526,36.09446859390736,-96.25519929585457,80.21211738781929
2024-09-23 11:15:34.944526,41.21,16.380943,-0.0026862297461545674,-0.023181236725942318,0.09685382322919964,36.09446859390736,-96.25519929585457,80.21211738781929
2024-09-23 11:15:34.986199,41.21,16.380994,-0.0029847020175114316,-0.023181236725942318,0.09685382322919964,36.09446859390736,-100.26678939585686,80.21211738781929
2024-09-23 11:15:34.997854,41.21,16.380994,-0.0029847020175114316,-0.02313149783467906,0.09685382322919964,36.09446859390736,-100.26678939585686,80.21211738781929
2024-09-23 11:15:35.029574,41.21,16.380994,-0.0029847020175114316,-0.02313149783467906,0.09720203344245934,36.09446859390736,-100.26678939585686,80.21211738781929
2024-09-23 11:15:35.041017,41.21,16.381044,-0.0030344509719951677,-0.02313149783467906,0.09720203344245934,40.106058693909645,-96.25519929585457,80.21211738781929
2024-09-23 11:15:35.084707,41.21,16.381044,-0.0030344509719951677,-0.02367869399252531,0.09720203344245934,44.11764879391193,-100.26678939585686,80.21211738781929
2024-09-23 11:15:35.097107,41.21,16.381133,-0.0030344509719951677,-0.02367869399252531,0.09720203344245934,44.11764879391193,-100.26678939585686,80.21211738781929
2024-09-23 11:15:35.130064,41.21,16.381133,-0.003233425524256645,-0.023728432883788564,0.09759999317981902,44.11764879391193,-100.26678939585686,80.21211738781929
2024-09-23 11:15:35.141674,41.21,16.381133,-0.003233425524256645,-0.023728432883788564,0.09759999317981902,44.11764879391193,-100.26678939585686,80.21211738781929
2024-09-23 11:15:35.185017,41.21,16.381184,-0.0035816467500972456,-0.02293251340906919,0.09645586349183995,36.09446859390736,-96.25519929585457,80.21211738781929
2024-09-23 11:15:35.228415,41.21,16.381235,-0.0031836870127375577,-0.02293251340906919,0.09645586349183995,36.09446859390736,-96.25519929585457,80.21211738781929
2024-09-23 11:15:35.239815,41.21,16.381235,-0.0031836870127375577,-0.02303200030545576,0.09695331012558621,40.106058693909645,-96.25519929585457,80.21211738781929
2024-09-23 11:15:35.272345,41.21,16.381235,-0.0031836870127375577,-0.02303200030545576,0.09695331012558621,40.106058693909645,-96.25519929585457,80.21211738781929
2024-09-23 11:15:35.283982,41.21,16.381286,-0.0030344509719951677,-0.023579196463302005,0.09690356060148622,40.106058693909645,-96.25519929585457,80.21211738781929
2024-09-23 11:15:35.326419,41.21,16.381336,-0.0030344509719951677,-0.023579196463302005,0.09690356060148622,36.09446859390736,-104.27510100388527,80.21211738781929
2024-09-23 11:15:35.338288,41.21,16.381336,-0.003631395514708897,-0.023429960042815445,0.09690356060148622,36.09446859390736,-104.27510100388527,80.21211738781929
2024-09-23 11:15:35.370737,41.21,16.381336,-0.003631395514708897,-0.023429960042815445,0.09685382322919964,36.09446859390736,-104.27510100388527,80.21211738781929
2024-09-23 11:15:35.385953,41.21,16.381387,-0.0036811340262279837,-0.023429960042815445,0.09685382322919964,36.09446859390736,-104.27510100388527,76.200527287817
2024-09-23 11:15:35.418477,41.21,16.381387,-0.0036811340262279837,-0.023330473146428877,0.09685382322919964,36.09446859390736,-104.27510100388527,76.200527287817
2024-09-23 11:15:35.430218,41.21,16.381474,-0.0036811340262279837,-0.023330473146428877,0.09685382322919964,32.08287849390507,-96.25519929585457,80.21211738781929
2024-09-23 11:15:35.472222,41.21,16.381474,-0.0030344509719951677,-0.02352945757203875,0.09705279702197278,36.09446859390736,-96.25519929585457,80.21211738781929
2024-09-23 11:15:35.484063,41.21,16.381474,-0.0030344509719951677,-0.02352945757203875,0.09705279702197278,36.09446859390736,-100.26678939585686,76.200527287817
