Ayaan's Suite
Timestamp,Sample Rate (Hz),Time,Ax,Ay,Az,Gx,Gy,Gz
2024-09-23 10:31:13.385441,0,13.71932,-0.0030344509719951677,-0.02338022115155219,0.09740101331113918,36.09446859390736,-100.26678939585686,80.21211738781929
2024-09-23 10:31:13.396466,0,13.71932,-0.0030344509719951677,-0.02338022115155219,0.09740101331113918,44.11764879391193,-104.27510100388527,80.21211738781929
2024-09-23 10:31:13.428554,0,13.71932,-0.0030344509719951677,-0.02338022115155219,0.09740101331113918,44.11764879391193,-104.27510100388527,72.1922225099802
2024-09-23 10:31:13.440200,0,13.719371,-0.003482159473966507,-0.023827930413011865,0.09710254654607277,36.09446859390736,-104.27510100388527,72.1922225099802
2024-09-23 10:31:13.482893,0,13.719422,-0.003482159473966507,-0.023827930413011865,0.09710254654607277,36.09446859390736,-100.26678939585686,80.21211738781929
2024-09-23 10:31:13.496108,0,13.719422,-0.0038303700669703737,-0.023877669304275123,0.0976994861521123,36.09446859390736,-100.26678939585686,80.21211738781929
2024-09-23 10:31:13.529734,0,13.719422,-0.0038303700669703737,-0.023877669304275123,0.0976994861521123,44.11764879391193,-92.24360919585227,80.21211738781929
2024-09-23 10:31:13.541393,0,13.719473,-0.0031836870127375577,-0.02308174982955575,0.0976994861521123,44.11764879391193,-92.24360919585227,80.21211738781929
2024-09-23 10:31:13.584097,0,13.719523,-0.0037308827908396356,-0.02308174982955575,0.0973015264147526,44.11764879391193,-84.22370748782159,76.200527287817
2024-09-23 10:31:13.627358,0,13.719523,-0.0037308827908396356,-0.023579196463302005,0.0973512698629459,44.11764879391193,-84.22370748782159,76.200527287817
2024-09-23 10:31:13.639073,0,13.719612,-0.0037308827908396356,-0.023579196463302005,0.0973512698629459,44.11764879391193,-96.25519929585457,72.1922225099802
2024-09-23 10:31:13.681849,0,13.719612,-0.0030344509719951677,-0.023728432883788564,0.09705279702197278,44.11764879391193,-96.25519929585457,72.1922225099802
2024-09-23 10:31:13.724983,0,13.719664,-0.0035816467500972456,-0.02397715620066169,0.09705279702197278,44.11764879391193,-96.25519929585457,72.1922225099802
2024-09-23 10:31:13.736758,0,13.719664,-0.0035816467500972456,-0.02397715620066169,0.09710254654607277,40.106058693909645,-100.26678939585686,72.1922225099802
2024-09-23 10:31:13.779013,0,13.719714,-0.0031836870127375577,-0.023330473146428877,0.09705279702197278,44.11764879391193,-100.26678939585686,72.1922225099802
2024-09-23 10:31:13.821752,0,13.719765,-0.0031836870127375577,-0.023330473146428877,0.09705279702197278,44.11764879391193,-96.25519929585457,76.200527287817
2024-09-23 10:31:13.832702,0,13.719765,-0.0035318979854855937,-0.023579196463302005,0.09740101331113918,44.11764879391193,-96.25519929585457,76.200527287817
2024-09-23 10:31:13.875667,0,13.719816,-0.003233425524256645,-0.02308174982955575,0.09740101331113918,36.09446859390736,-104.27510100388527,80.21211738781929
2024-09-23 10:31:13.969700,0,13.719816,-0.003233425524256645,-0.02308174982955575,0.09725178296655933,32.08287849390507,-96.25519929585457,80.21211738781929
2024-09-23 10:31:13.981833,0,13.719866,-0.0034324103296106863,-0.02308174982955575,0.09725178296655933,32.08287849390507,-96.25519929585457,84.22370748782159
2024-09-23 10:31:14.013677,0,13.719866,-0.0034324103296106863,-0.023479709566915436,0.09725178296655933,32.08287849390507,-96.25519929585457,84.22370748782159
2024-09-23 10:31:14.025124,0,13.719953,-0.0034324103296106863,-0.023479709566915436,0.09725178296655933,36.09446859390736,-100.26678939585686,84.22370748782159
2024-09-23 10:31:14.067970,0,13.719953,-0.0034324103296106863,-0.022982261414192504,0.09745075675933246,36.09446859390736,-100.26678939585686,84.22370748782159
2024-09-23 10:31:14.079885,0,13.719953,-0.0034324103296106863,-0.022982261414192504,0.09745075675933246,36.09446859390736,-104.27510100388527,84.22370748782159
2024-09-23 10:31:14.113631,0,13.720005,-0.0035816467500972456,-0.022982261414192504,0.09745075675933246,36.09446859390736,-104.27510100388527,84.22370748782159
2024-09-23 10:31:14.124798,0,13.720005,-0.0035816467500972456,-0.024176140626271565,0.09720203344245934,36.09446859390736,-100.26678939585686,84.22370748782159
2024-09-23 10:31:14.166425,0,13.720056,-0.0028852147413806935,-0.023479709566915436,0.09670458680871308,36.09446859390736,-100.26678939585686,80.21211738781929
2024-09-23 10:31:14.178013,0,13.720056,-0.0028852147413806935,-0.023479709566915436,0.09670458680871308,44.11764879391193,-100.26678939585686,80.21211738781929
2024-09-23 10:31:14.210501,0,13.720056,-0.0028852147413806935,-0.023479709566915436,0.09670458680871308,44.11764879391193,-96.25519929585457,80.21211738781929
2024-09-23 10:31:14.222321,0,13.72015,-0.003233425524256645,-0.02367869399252531,0.09680407370509965,44.11764879391193,-96.25519929585457,80.21211738781929
2024-09-23 10:31:14.264682,0,13.720201,-0.003233425524256645,-0.02367869399252531,0.09680407370509965,44.11764879391193,-96.25519929585457,76.200527287817
2024-09-23 10:31:14.276771,0,13.720201,-0.003233425524256645,-0.02352945757203875,0.09680407370509965,44.11764879391193,-96.25519929585457,76.200527287817
2024-09-23 10:31:14.310218,0,13.720201,-0.003233425524256645,-0.02352945757203875,0.09705279702197278,32.08287849390507,-100.26678939585686,76.200527287817
2024-09-23 10:31:14.321388,0,13.720251,-0.0036811340262279837,-0.02352945757203875,0.09705279702197278,32.08287849390507,-100.26678939585686,84.22370748782159
2024-09-23 10:31:14.364365,42.08,13.720343,-0.0036811340262279837,-0.023579196463302005,0.0973015264147526,48.12595698684454,-100.26678939585686,76.200527287817
2024-09-23 10:31:14.407300,42.08,13.720343,-0.0035318979854855937,-0.02457410036363125,0.0970030596496862,48.12595698684454,-100.26678939585686,76.200527287817
2024-09-23 10:31:14.418826,42.08,13.720343,-0.0035318979854855937,-0.02457410036363125,0.0970030596496862,40.106058693909645,-96.25519929585457,76.200527287817
2024-09-23 10:31:14.461745,42.08,13.720395,-0.0035816467500972456,-0.023579196463302005,0.09725178296655933,32.08287849390507,-104.27510100388527,76.200527287817
2024-09-23 10:31:14.505042,42.08,13.720446,-0.0031339382481259063,-0.023579196463302005,0.09725178296655933,32.08287849390507,-104.27510100388527,72.1922225099802
2024-09-23 10:31:14.516436,42.08,13.720446,-0.0031339382481259063,-0.02338022115155219,0.0976994861521123,32.08287849390507,-104.27510100388527,72.1922225099802
2024-09-23 10:31:14.559288,42.08,13.720496,-0.0032831742888682963,-0.02352945757203875,0.0970030596496862,32.08287849390507,-100.26678939585686,88.23529758782387
2024-09-23 10:31:14.602483,42.08,13.720496,-0.0032831742888682963,-0.02352945757203875,0.0970030596496862,36.09446859390736,-96.25519929585457,84.22370748782159
2024-09-23 10:31:14.614040,42.08,13.720547,-0.0031836870127375577,-0.02338022115155219,0.0970030596496862,36.09446859390736,-96.25519929585457,84.22370748782159
2024-09-23 10:31:14.656685,42.08,13.720547,-0.0031836870127375577,-0.02338022115155219,0.09750050628343246,36.09446859390736,-100.26678939585686,84.22370748782159
2024-09-23 10:31:14.749994,42.08,13.720598,-0.003631395514708897,-0.02338022115155219,0.09750050628343246,36.09446859390736,-100.26678939585686,76.200527287817
2024-09-23 10:31:14.762009,42.08,13.720598,-0.003631395514708897,-0.02362894446842532,0.0970030596496862,40.106058693909645,-100.26678939585686,76.200527287817
2024-09-23 10:31:14.794833,42.08,13.720598,-0.003631395514708897,-0.02362894446842532,0.0970030596496862,40.106058693909645,-96.25519929585457,76.200527287817
2024-09-23 10:31:14.806354,42.08,13.720685,-0.0033329230534799477,-0.023330473146428877,0.09675432418099966,40.106058693909645,-96.25519929585457,80.21211738781929
2024-09-23 10:31:14.848449,42.08,13.720736,-0.0033329230534799477,-0.023330473146428877,0.09675432418099966,28.07457030097246,-96.25519929585457,76.200527287817
2024-09-23 10:31:14.901474,42.08,13.720736,-0.003631395514708897,-0.023280723622328886,0.09680407370509965,40.106058693909645,-96.25519929585457,76.200527287817
2024-09-23 10:31:14.943783,42.08,13.720787,-0.003233425524256645,-0.023579196463302005,0.09680407370509965,40.106058693909645,-96.25519929585457,76.200527287817
2024-09-23 10:31:14.956608,42.08,13.720787,-0.003233425524256645,-0.023579196463302005,0.09690356060148622,40.106058693909645,-96.25519929585457,76.200527287817
2024-09-23 10:31:14.988482,42.08,13.720787,-0.003233425524256645,-0.023579196463302005,0.09690356060148622,40.106058693909645,-96.25519929585457,80.21211738781929
2024-09-23 10:31:15.000230,42.08,13.720838,-0.003233425524256645,-0.023579196463302005,0.09690356060148622,40.106058693909645,-96.25519929585457,80.21211738781929
2024-09-23 10:31:15.042926,42.08,13.720838,-0.003631395514708897,-0.023479709566915436,0.0973512698629459,28.07457030097246,-96.25519929585457,80.21211738781929
2024-09-23 10:31:15.054209,42.08,13.720838,-0.003631395514708897,-0.023479709566915436,0.0973512698629459,28.07457030097246,-104.27510100388527,80.21211738781929
2024-09-23 10:31:15.086781,42.08,13.720978,-0.003631395514708897,-0.023479709566915436,0.0973512698629459,28.07457030097246,-104.27510100388527,80.21211738781929
2024-09-23 10:31:15.098666,42.08,13.720978,-0.003233425524256645,-0.02397715620066169,0.09680407370509965,36.09446859390736,-92.24360919585227,80.21211738781929
2024-09-23 10:31:15.140499,42.08,13.721029,-0.0031339382481259063,-0.02278327698858263,0.09680407370509965,36.09446859390736,-92.24360919585227,88.23529758782387
2024-09-23 10:31:15.152192,42.08,13.721029,-0.0031339382481259063,-0.02278327698858263,0.09750050628343246,32.08287849390507,-92.24360919585227,88.23529758782387
2024-09-23 10:31:15.185404,42.08,13.721029,-0.0031339382481259063,-0.02278327698858263,0.09750050628343246,32.08287849390507,-88.23529758782387,84.22370748782159
2024-09-23 10:31:15.197058,42.08,13.72108,-0.0037308827908396356,-0.023181236725942318,0.09720203344245934,32.08287849390507,-88.23529758782387,84.22370748782159
2024-09-23 10:31:15.239229,42.08,13.721172,-0.003233425524256645,-0.023181236725942318,0.09720203344245934,32.08287849390507,-100.26678939585686,76.200527287817
2024-09-23 10:31:15.250693,42.08,13.721172,-0.003233425524256645,-0.023479709566915436,0.09720203344245934,32.08287849390507,-100.26678939585686,76.200527287817
2024-09-23 10:31:15.283305,42.08,13.721172,-0.003233425524256645,-0.023479709566915436,0.09645586349183995,40.106058693909645,-100.26678939585686,76.200527287817
2024-09-23 10:31:15.294537,42.08,13.721224,-0.0031339382481259063,-0.023479709566915436,0.09645586349183995,40.106058693909645,-100.26678939585686,72.1922225099802
2024-09-23 10:31:15.337216,42.08,13.721224,-0.0031339382481259063,-0.02352945757203875,0.09685382322919964,44.11764879391193,-96.25519929585457,80.21211738781929
2024-09-23 10:31:15.349211,42.08,13.721318,-0.0031339382481259063,-0.02352945757203875,0.09685382322919964,44.11764879391193,-96.25519929585457,80.21211738781929
2024-09-23 10:31:15.381900,41.19,13.721318,-0.003233425524256645,-0.023479709566915436,0.09720203344245934,44.11764879391193,-96.25519929585457,80.21211738781929
2024-09-23 10:31:15.393140,41.19,13.721318,-0.003233425524256645,-0.023479709566915436,0.09720203344245934,32.08287849390507,-104.27510100388527,80.21211738781929
2024-09-23 10:31:15.435583,41.19,13.72137,-0.0029847020175114316,-0.023280723622328886,0.09690356060148622,32.08287849390507,-96.25519929585457,80.21211738781929
2024-09-23 10:31:15.478466,41.19,13.721421,-0.0029847020175114316,-0.023280723622328886,0.09690356060148622,32.08287849390507,-96.25519929585457,76.200527287817
2024-09-23 10:31:15.489679,41.19,13.721421,-0.003382661564999035,-0.02367869399252531,0.09764974270391902,28.07457030097246,-96.25519929585457,76.200527287817
2024-09-23 10:31:15.532233,41.19,13.721471,-0.0029847020175114316,-0.023280723622328886,0.09764974270391902,28.07457030097246,-100.26678939585686,76.200527287817
2024-09-23 10:31:15.544539,41.19,13.721471,-0.0029847020175114316,-0.023280723622328886,0.09740101331113918,28.07457030097246,-100.26678939585686,76.200527287817
2024-09-23 10:31:15.576805,41.19,13.721471,-0.0029847020175114316,-0.023280723622328886,0.09740101331113918,36.09446859390736,-104.27510100388527,80.21211738781929
2024-09-23 10:31:15.588689,41.19,13.721522,-0.0034324103296106863,-0.023181236725942318,0.09740101331113918,36.09446859390736,-104.27510100388527,80.21211738781929
2024-09-23 10:31:15.630568,41.19,13.721573,-0.0037308827908396356,-0.023181236725942318,0.09675432418099966,36.09446859390736,-96.25519929585457,80.21211738781929
2024-09-23 10:31:15.673550,41.19,13.721573,-0.0037308827908396356,-0.023181236725942318,0.0970030596496862,36.09446859390736,-96.25519929585457,80.21211738781929
2024-09-23 10:31:15.685828,41.19,13.72166,-0.0037308827908396356,-0.023181236725942318,0.0970030596496862,40.106058693909645,-96.25519929585457,80.21211738781929
2024-09-23 10:31:15.728975,41.19,13.72166,-0.003979606107712764,-0.0228827638849692,0.09675432418099966,40.106058693909645,-104.27510100388527,76.200527287817
2024-09-23 10:31:15.770953,41.19,13.721711,-0.0030841997366068195,-0.0228827638849692,0.09675432418099966,40.106058693909645,-104.27510100388527,76.200527287817
2024-09-23 10:31:15.782077,41.19,13.721711,-0.0030841997366068195,-0.023579196463302005,0.09675432418099966,28.07457030097246,-84.22370748782159,76.200527287817
2024-09-23 10:31:15.824354,41.19,13.721762,-0.0033329230534799477,-0.02367869399252531,0.09675432418099966,28.07457030097246,-84.22370748782159,80.21211738781929
2024-09-23 10:31:15.835805,41.19,13.721762,-0.0033329230534799477,-0.02367869399252531,0.09675432418099966,36.09446859390736,-84.22370748782159,80.21211738781929
2024-09-23 10:31:15.868274,41.19,13.721762,-0.0033329230534799477,-0.02367869399252531,0.09675432418099966,36.09446859390736,-92.24360919585227,80.21211738781929
2024-09-23 10:31:15.880091,41.19,13.721813,-0.0028852147413806935,-0.023479709566915436,0.09655535038822652,36.09446859390736,-92.24360919585227,80.21211738781929
2024-09-23 10:31:15.922395,41.19,13.721863,-0.0028852147413806935,-0.023479709566915436,0.09655535038822652,36.09446859390736,-96.25519929585457,80.21211738781929
2024-09-23 10:31:15.934661,41.19,13.721863,-0.0031836870127375577,-0.023280723622328886,0.09655535038822652,36.09446859390736,-96.25519929585457,80.21211738781929
2024-09-23 10:31:15.967367,41.19,13.721863,-0.0031836870127375577,-0.023280723622328886,0.09750050628343246,44.11764879391193,-96.25519929585457,80.21211738781929
2024-09-23 10:31:15.979203,41.19,13.721914,-0.0028852147413806935,-0.023280723622328886,0.09750050628343246,44.11764879391193,-96.25519929585457,72.1922225099802
2024-09-23 10:31:16.021872,41.19,13.722001,-0.0028852147413806935,-0.02352945757203875,0.0973015264147526,40.106058693909645,-96.25519929585457,80.21211738781929
2024-09-23 10:31:16.064251,41.19,13.722001,-0.003780631555451287,-0.023230986250042305,0.0973015264147526,40.106058693909645,-96.25519929585457,80.21211738781929
2024-09-23 10:31:16.075920,41.19,13.722001,-0.003780631555451287,-0.023230986250042305,0.09720203344245934,44.11764879391193,-96.25519929585457,80.21211738781929
2024-09-23 10:31:16.119837,41.19,13.722053,-0.003382661564999035,-0.02352945757203875,0.09720203344245934,32.08287849390507,-96.25519929585457,80.21211738781929
2024-09-23 10:31:16.131702,41.19,13.722053,-0.003382661564999035,-0.02352945757203875,0.09720203344245934,32.08287849390507,-96.25519929585457,80.21211738781929
2024-09-23 10:31:16.164287,41.19,13.722103,-0.0031836870127375577,-0.023479709566915436,0.09720203344245934,32.08287849390507,-96.25519929585457,80.21211738781929
2024-09-23 10:31:16.175288,41.19,13.722103,-0.0031836870127375577,-0.023479709566915436,0.09759999317981902,44.11764879391193,-96.25519929585457,80.21211738781929
2024-09-23 10:31:16.207121,41.19,13.722103,-0.0031836870127375577,-0.023479709566915436,0.09759999317981902,44.11764879391193,-96.25519929585457,80.21211738781929
2024-09-23 10:31:16.218156,41.19,13.722154,-0.0030344509719951677,-0.023877669304275123,0.09725178296655933,44.11764879391193,-96.25519929585457,80.21211738781929
2024-09-23 10:31:16.259983,41.19,13.722154,-0.0030344509719951677,-0.023877669304275123,0.09725178296655933,48.12595698684454,-96.25519929585457,76.200527287817
2024-09-23 10:31:16.271557,41.19,13.722204,-0.003482159473966507,-0.02352945757203875,0.09725178296655933,48.12595698684454,-96.25519929585457,76.200527287817
2024-09-23 10:31:16.314154,41.19,13.722255,-0.0038801188315820256,-0.02352945757203875,0.09720203344245934,40.106058693909645,-100.26678939585686,72.1922225099802
2024-09-23 10:31:16.357298,41.19,13.722255,-0.0038801188315820256,-0.023429960042815445,0.09720203344245934,32.08287849390507,-100.26678939585686,72.1922225099802
2024-09-23 10:31:16.369051,41.19,13.722342,-0.0038801188315820256,-0.023429960042815445,0.09720203344245934,32.08287849390507,-96.25519929585457,80.21211738781929
2024-09-23 10:31:16.411440,42.03,13.722342,-0.003382661564999035,-0.024325377046758124,0.09720203344245934,40.106058693909645,-96.25519929585457,80.21211738781929
2024-09-23 10:31:16.455180,42.03,13.722394,-0.003382661564999035,-0.02308174982955575,0.09720203344245934,40.106058693909645,-96.25519929585457,80.21211738781929
2024-09-23 10:31:16.466846,42.03,13.722394,-0.003382661564999035,-0.02308174982955575,0.09720203344245934,36.09446859390736,-92.24360919585227,80.21211738781929
2024-09-23 10:31:16.509748,42.03,13.722444,-0.002636491424507565,-0.023778180888911878,0.09685382322919964,48.12595698684454,-92.24360919585227,80.21211738781929
2024-09-23 10:31:16.552650,42.03,13.722495,-0.002636491424507565,-0.023778180888911878,0.09685382322919964,48.12595698684454,-104.27510100388527,80.21211738781929
2024-09-23 10:31:16.564553,42.03,13.722495,-0.0030344509719951677,-0.023579196463302005,0.09645586349183995,48.12595698684454,-104.27510100388527,80.21211738781929
2024-09-23 10:31:16.597270,42.03,13.722495,-0.0030344509719951677,-0.023579196463302005,0.09645586349183995,36.09446859390736,-104.27510100388527,80.21211738781929
2024-09-23 10:31:16.608945,42.03,13.722546,-0.0031339382481259063,-0.023479709566915436,0.09645586349183995,36.09446859390736,-104.27510100388527,80.21211738781929
2024-09-23 10:31:16.651465,42.03,13.722546,-0.0031339382481259063,-0.023479709566915436,0.09675432418099966,40.106058693909645,-100.26678939585686,76.200527287817
2024-09-23 10:31:16.662878,42.03,13.722596,-0.003482159473966507,-0.023479709566915436,0.09675432418099966,40.106058693909645,-100.26678939585686,76.200527287817
2024-09-23 10:31:16.695003,42.03,13.722596,-0.003482159473966507,-0.02397715620066169,0.09675432418099966,40.106058693909645,-100.26678939585686,76.200527287817
2024-09-23 10:31:16.706560,42.03,13.722684,-0.003482159473966507,-0.02397715620066169,0.09685382322919964,36.09446859390736,-104.27510100388527,80.21211738781929
2024-09-23 10:31:16.750219,42.03,13.722684,-0.002785727465249955,-0.023181236725942318,0.09740101331113918,52.137550501942634,-104.27510100388527,80.21211738781929
2024-09-23 10:31:16.762103,42.03,13.722684,-0.002785727465249955,-0.023181236725942318,0.09740101331113918,52.137550501942634,-96.25519929585457,76.200527287817
2024-09-23 10:31:16.794249,42.03,13.722735,-0.0031836870127375577,-0.023181236725942318,0.09740101331113918,52.137550501942634,-96.25519929585457,76.200527287817
2024-09-23 10:31:16.805854,42.03,13.722735,-0.0031836870127375577,-0.02303200030545576,0.0973015264147526,36.09446859390736,-92.24360919585227,76.200527287817
2024-09-23 10:31:16.849066,42.03,13.722786,-0.0032831742888682963,-0.023429960042815445,0.09690356060148622,44.11764879391193,-92.24360919585227,80.21211738781929
2024-09-23 10:31:16.891910,42.03,13.722786,-0.0032831742888682963,-0.023429960042815445,0.09690356060148622,44.11764879391193,-96.25519929585457,76.200527287817
2024-09-23 10:31:16.903423,42.03,13.722836,-0.003631395514708897,-0.023280723622328886,0.09690356060148622,44.11764879391193,-96.25519929585457,76.200527287817
2024-09-23 10:31:16.945967,42.03,13.722887,-0.003631395514708897,-0.023280723622328886,0.09715228999426605,40.106058693909645,-100.26678939585686,80.21211738781929
2024-09-23 10:31:16.958065,42.03,13.722887,-0.0038303700669703737,-0.023280723622328886,0.09715228999426605,40.106058693909645,-100.26678939585686,80.21211738781929
2024-09-23 10:31:16.990571,42.03,13.722887,-0.0038303700669703737,-0.023579196463302005,0.09705279702197278,40.106058693909645,-100.26678939585686,80.21211738781929
2024-09-23 10:31:17.001801,42.03,13.722938,-0.0038303700669703737,-0.023579196463302005,0.09705279702197278,40.106058693909645,-96.25519929585457,84.22370748782159
2024-09-23 10:31:17.043739,42.03,13.722938,-0.0032831742888682963,-0.023330473146428877,0.09695331012558621,32.08287849390507,-100.26678939585686,84.22370748782159
2024-09-23 10:31:17.055502,42.03,13.722938,-0.0032831742888682963,-0.023330473146428877,0.09695331012558621,32.08287849390507,-100.26678939585686,76.200527287817
2024-09-23 10:31:17.088960,42.03,13.723025,-0.0031836870127375577,-0.02313149783467906,0.09695331012558621,32.08287849390507,-100.26678939585686,76.200527287817
2024-09-23 10:31:17.100854,42.03,13.723025,-0.0031836870127375577,-0.02313149783467906,0.09690356060148622,40.106058693909645,-100.26678939585686,76.200527287817
2024-09-23 10:31:17.143752,42.03,13.723076,-0.0030841997366068195,-0.02338022115155219,0.09685382322919964,36.09446859390736,-100.26678939585686,76.200527287817
2024-09-23 10:31:17.185906,42.03,13.723127,-0.0030841997366068195,-0.02338022115155219,0.09685382322919964,36.09446859390736,-96.25519929585457,84.22370748782159
2024-09-23 10:31:17.198001,42.03,13.723127,-0.0033329230534799477,-0.022833026512682618,0.09750050628343246,36.09446859390736,-96.25519929585457,84.22370748782159
2024-09-23 10:31:17.240471,42.03,13.723178,-0.003482159473966507,-0.02397715620066169,0.09750050628343246,40.106058693909645,-88.23529758782387,84.22370748782159
2024-09-23 10:31:17.282445,42.03,13.723178,-0.003482159473966507,-0.02397715620066169,0.09675432418099966,44.11764879391193,-88.23529758782387,84.22370748782159
2024-09-23 10:31:17.293748,42.03,13.723228,-0.0028852147413806935,-0.02397715620066169,0.09675432418099966,44.11764879391193,-92.24360919585227,80.21211738781929
2024-09-23 10:31:17.336215,42.03,13.723228,-0.0028852147413806935,-0.023778180888911878,0.09695331012558621,40.106058693909645,-96.25519929585457,80.21211738781929
2024-09-23 10:31:17.348090,42.03,13.723317,-0.0028852147413806935,-0.023778180888911878,0.09695331012558621,40.106058693909645,-96.25519929585457,80.21211738781929
2024-09-23 10:31:17.379653,42.03,13.723317,-0.0031339382481259063,-0.023429960042815445,0.09695331012558621,40.106058693909645,-96.25519929585457,80.21211738781929
2024-09-23 10:31:17.393472,42.03,13.723317,-0.0031339382481259063,-0.023429960042815445,0.09710254654607277,36.09446859390736,-96.25519929585457,80.21211738781929
2024-09-23 10:31:17.436570,42.5,13.723369,-0.003780631555451287,-0.02308174982955575,0.09670458680871308,36.09446859390736,-100.26678939585686,80.21211738781929
2024-09-23 10:31:17.480496,42.5,13.72342,-0.003780631555451287,-0.02308174982955575,0.09670458680871308,44.11764879391193,-92.24360919585227,88.23529758782387
2024-09-23 10:31:17.492436,42.5,13.72342,-0.0035816467500972456,-0.023778180888911878,0.09670458680871308,44.11764879391193,-92.24360919585227,88.23529758782387
2024-09-23 10:31:17.525150,42.5,13.72342,-0.0035816467500972456,-0.023778180888911878,0.09685382322919964,44.11764879391193,-92.24360919585227,88.23529758782387
2024-09-23 10:31:17.537134,42.5,13.72347,-0.0035318979854855937,-0.023778180888911878,0.09685382322919964,40.106058693909645,-96.25519929585457,88.23529758782387
2024-09-23 10:31:17.579703,42.5,13.72347,-0.0035318979854855937,-0.023230986250042305,0.09750050628343246,36.09446859390736,-104.27510100388527,76.200527287817
2024-09-23 10:31:17.591868,42.5,13.723521,-0.0035318979854855937,-0.023230986250042305,0.09750050628343246,36.09446859390736,-104.27510100388527,76.200527287817
2024-09-23 10:31:17.624576,42.5,13.723521,-0.003233425524256645,-0.023778180888911878,0.09725178296655933,36.09446859390736,-104.27510100388527,76.200527287817
2024-09-23 10:31:17.635464,42.5,13.723521,-0.003233425524256645,-0.023778180888911878,0.09725178296655933,40.106058693909645,-88.23529758782387,88.23529758782387
2024-09-23 10:31:17.677943,42.5,13.72361,-0.0038801188315820256,-0.023330473146428877,0.09695331012558621,36.09446859390736,-96.25519929585457,88.23529758782387
2024-09-23 10:31:17.720929,42.5,13.723662,-0.0038801188315820256,-0.023330473146428877,0.09695331012558621,36.09446859390736,-96.25519929585457,84.22370748782159
2024-09-23 10:31:17.732160,42.5,13.723662,-0.003382661564999035,-0.022733528983459317,0.09720203344245934,24.06297849342227,-96.25519929585457,84.22370748782159
2024-09-23 10:31:17.774732,42.5,13.723713,-0.003233425524256645,-0.02362894446842532,0.09720203344245934,24.06297849342227,-96.25519929585457,80.21211738781929
2024-09-23 10:31:17.786566,42.5,13.723713,-0.003233425524256645,-0.02362894446842532,0.09750050628343246,24.06297849342227,-96.25519929585457,80.21211738781929
2024-09-23 10:31:17.871541,42.5,13.723763,-0.0034324103296106863,-0.02362894446842532,0.09750050628343246,32.08287849390507,-92.24360919585227,84.22370748782159
2024-09-23 10:31:17.883183,42.5,13.723763,-0.0034324103296106863,-0.023728432883788564,0.09750050628343246,32.08287849390507,-92.24360919585227,84.22370748782159
2024-09-23 10:31:17.914875,42.5,13.723763,-0.0034324103296106863,-0.023728432883788564,0.0970030596496862,32.08287849390507,-92.24360919585227,84.22370748782159
2024-09-23 10:31:17.926443,42.5,13.723814,-0.0033329230534799477,-0.023728432883788564,0.0970030596496862,36.09446859390736,-88.23529758782387,80.21211738781929
2024-09-23 10:31:17.969624,42.5,13.723814,-0.0033329230534799477,-0.023479709566915436,0.09715228999426605,36.09446859390736,-100.26678939585686,72.1922225099802
2024-09-23 10:31:17.981838,42.5,13.723902,-0.0033329230534799477,-0.023479709566915436,0.09715228999426605,36.09446859390736,-100.26678939585686,72.1922225099802
2024-09-23 10:31:18.014266,42.5,13.723902,-0.0033329230534799477,-0.02338022115155219,0.09715228999426605,36.09446859390736,-100.26678939585686,72.1922225099802
2024-09-23 10:31:18.025921,42.5,13.723902,-0.0033329230534799477,-0.02338022115155219,0.09720203344245934,36.09446859390736,-96.25519929585457,72.1922225099802
2024-09-23 10:31:18.111196,42.5,13.723954,-0.0030841997366068195,-0.02338022115155219,0.09720203344245934,36.09446859390736,-96.25519929585457,72.1922225099802
2024-09-23 10:31:18.123509,42.5,13.723954,-0.0030841997366068195,-0.023728432883788564,0.09725178296655933,36.09446859390736,-96.25519929585457,72.1922225099802
2024-09-23 10:31:18.166399,42.5,13.72405,-0.0034324103296106863,-0.023330473146428877,0.09725178296655933,36.09446859390736,-100.26678939585686,80.21211738781929
2024-09-23 10:31:18.209076,42.5,13.72405,-0.0034324103296106863,-0.023330473146428877,0.09630662707135339,24.06297849342227,-100.26678939585686,80.21211738781929
2024-09-23 10:31:18.220303,42.5,13.724101,-0.0033329230534799477,-0.023330473146428877,0.09630662707135339,24.06297849342227,-100.26678939585686,84.22370748782159
2024-09-23 10:31:18.262559,42.5,13.724101,-0.0033329230534799477,-0.02338022115155219,0.09690356060148622,40.106058693909645,-104.27510100388527,84.22370748782159
2024-09-23 10:31:18.273685,42.5,13.724151,-0.0033329230534799477,-0.02338022115155219,0.09690356060148622,40.106058693909645,-104.27510100388527,80.21211738781929
2024-09-23 10:31:18.307692,42.5,13.724151,-0.0031339382481259063,-0.024076653729884996,0.09690356060148622,40.106058693909645,-104.27510100388527,80.21211738781929
2024-09-23 10:31:18.318821,42.5,13.724151,-0.0031339382481259063,-0.024076653729884996,0.09720203344245934,40.106058693909645,-100.26678939585686,76.200527287817
2024-09-23 10:31:18.361395,42.5,13.724202,-0.0030344509719951677,-0.023579196463302005,0.0970030596496862,40.106058693909645,-108.28669110388756,76.200527287817
2024-09-23 10:31:18.455833,41.84,13.724342,-0.003382661564999035,-0.02362894446842532,0.0970030596496862,40.106058693909645,-108.28669110388756,76.200527287817
2024-09-23 10:31:18.467430,41.84,13.724342,-0.003382661564999035,-0.02362894446842532,0.09695331012558621,36.09446859390736,-108.28669110388756,76.200527287817
2024-09-23 10:31:18.500893,41.84,13.724342,-0.003382661564999035,-0.02362894446842532,0.09695331012558621,36.09446859390736,-100.26678939585686,76.200527287817
2024-09-23 10:31:18.511995,41.84,13.724394,-0.003631395514708897,-0.023827930413011865,0.0973015264147526,36.09446859390736,-100.26678939585686,76.200527287817
2024-09-23 10:31:18.553854,41.84,13.724444,-0.0031339382481259063,-0.023827930413011865,0.0973015264147526,32.08287849390507,-96.25519929585457,76.200527287817
2024-09-23 10:31:18.565759,41.84,13.724444,-0.0031339382481259063,-0.023579196463302005,0.0973015264147526,32.08287849390507,-96.25519929585457,76.200527287817
2024-09-23 10:31:18.598592,41.84,13.724444,-0.0031339382481259063,-0.023579196463302005,0.09720203344245934,36.09446859390736,-96.25519929585457,76.200527287817
2024-09-23 10:31:18.610172,41.84,13.724495,-0.0032831742888682963,-0.023579196463302005,0.09720203344245934,36.09446859390736,-96.25519929585457,76.200527287817
2024-09-23 10:31:18.652874,41.84,13.724585,-0.0032831742888682963,-0.02308174982955575,0.09745075675933246,36.09446859390736,-100.26678939585686,80.21211738781929
2024-09-23 10:31:18.696107,41.84,13.724585,-0.0035318979854855937,-0.023330473146428877,0.09745075675933246,36.09446859390736,-100.26678939585686,80.21211738781929
2024-09-23 10:31:18.708789,41.84,13.724585,-0.0035318979854855937,-0.023330473146428877,0.09690356060148622,32.08287849390507,-96.25519929585457,84.22370748782159
2024-09-23 10:31:18.752052,41.84,13.724683,-0.0026862297461545674,-0.024225890150371555,0.09745075675933246,40.106058693909645,-96.25519929585457,84.22370748782159
2024-09-23 10:31:18.794875,41.84,13.724734,-0.003482159473966507,-0.024225890150371555,0.09745075675933246,40.106058693909645,-96.25519929585457,76.200527287817
2024-09-23 10:31:18.806444,41.84,13.724734,-0.003482159473966507,-0.02367869399252531,0.09630662707135339,40.106058693909645,-96.25519929585457,76.200527287817
2024-09-23 10:31:18.849996,41.84,13.724785,-0.0034324103296106863,-0.023479709566915436,0.09690356060148622,40.106058693909645,-100.26678939585686,80.21211738781929
2024-09-23 10:31:18.892756,41.84,13.724785,-0.0034324103296106863,-0.023479709566915436,0.09690356060148622,36.09446859390736,-96.25519929585457,80.21211738781929
2024-09-23 10:31:18.904567,41.84,13.724836,-0.0032831742888682963,-0.02338022115155219,0.09690356060148622,36.09446859390736,-96.25519929585457,84.22370748782159
2024-09-23 10:31:18.947676,41.84,13.724886,-0.0025369937054121774,-0.02338022115155219,0.09720203344245934,44.11764879391193,-104.27510100388527,80.21211738781929
2024-09-23 10:31:18.991617,41.84,13.724886,-0.0025369937054121774,-0.02367869399252531,0.09705279702197278,36.09446859390736,-92.24360919585227,80.21211738781929
2024-09-23 10:31:19.002684,41.84,13.724975,-0.0025369937054121774,-0.02367869399252531,0.09705279702197278,36.09446859390736,-92.24360919585227,80.21211738781929
2024-09-23 10:31:19.035604,41.84,13.724975,-0.003482159473966507,-0.02367869399252531,0.09705279702197278,36.09446859390736,-92.24360919585227,80.21211738781929
2024-09-23 10:31:19.047494,41.84,13.724975,-0.003482159473966507,-0.02313149783467906,0.09715228999426605,36.09446859390736,-92.24360919585227,84.22370748782159
2024-09-23 10:31:19.089671,41.84,13.725026,-0.0028852147413806935,-0.023429960042815445,0.09645586349183995,36.09446859390736,-92.24360919585227,84.22370748782159
2024-09-23 10:31:19.101418,41.84,13.725026,-0.0028852147413806935,-0.023429960042815445,0.09645586349183995,40.106058693909645,-108.28669110388756,84.22370748782159
2024-09-23 10:31:19.134428,41.84,13.725077,-0.0028852147413806935,-0.023429960042815445,0.09645586349183995,40.106058693909645,-108.28669110388756,76.200527287817
2024-09-23 10:31:19.145638,41.84,13.725077,-0.0028852147413806935,-0.02352945757203875,0.09750050628343246,44.11764879391193,-108.28669110388756,76.200527287817
2024-09-23 10:31:19.187495,41.84,13.725128,-0.0028354659767690416,-0.023181236725942318,0.09750050628343246,44.11764879391193,-96.25519929585457,76.200527287817
2024-09-23 10:31:19.199448,41.84,13.725128,-0.0028354659767690416,-0.023181236725942318,0.09715228999426605,44.11764879391193,-96.25519929585457,76.200527287817
2024-09-23 10:31:19.231511,41.84,13.725128,-0.0028354659767690416,-0.023181236725942318,0.09715228999426605,40.106058693909645,-96.25519929585457,76.200527287817
2024-09-23 10:31:19.243303,41.84,13.725178,-0.0027359787006383035,-0.02362894446842532,0.09715228999426605,40.106058693909645,-96.25519929585457,80.21211738781929
2024-09-23 10:31:19.285260,41.84,13.725229,-0.0027359787006383035,-0.02362894446842532,0.09670458680871308,36.09446859390736,-92.24360919585227,80.21211738781929
2024-09-23 10:31:19.297122,41.84,13.725229,-0.0032831742888682963,-0.02362894446842532,0.09670458680871308,36.09446859390736,-92.24360919585227,80.21211738781929
2024-09-23 10:31:19.329703,41.84,13.725229,-0.0032831742888682963,-0.023280723622328886,0.09680407370509965,36.09446859390736,-92.24360919585227,80.21211738781929
2024-09-23 10:31:19.341113,41.84,13.725316,-0.0032831742888682963,-0.023280723622328886,0.09680407370509965,36.09446859390736,-100.26678939585686,80.21211738781929
2024-09-23 10:31:19.383927,41.84,13.725316,-0.003979606107712764,-0.023280723622328886,0.09680407370509965,36.09446859390736,-100.26678939585686,80.21211738781929
2024-09-23 10:31:19.425952,41.84,13.725316,-0.003979606107712764,-0.023330473146428877,0.09680407370509965,36.09446859390736,-100.26678939585686,80.21211738781929
2024-09-23 10:31:19.437752,41.84,13.725368,-0.003979606107712764,-0.023330473146428877,0.0970030596496862,36.09446859390736,-100.26678939585686,76.200527287817
2024-09-23 10:31:19.481784,42.34,13.725368,-0.0035816467500972456,-0.023579196463302005,0.09695331012558621,44.11764879391193,-100.26678939585686,76.200527287817
2024-09-23 10:31:19.493557,42.34,13.725368,-0.0035816467500972456,-0.023579196463302005,0.09695331012558621,44.11764879391193,-100.26678939585686,76.200527287817
2024-09-23 10:31:19.526014,42.34,13.725418,-0.0032831742888682963,-0.02338022115155219,0.09695331012558621,44.11764879391193,-100.26678939585686,76.200527287817
2024-09-23 10:31:19.537960,42.34,13.725418,-0.0032831742888682963,-0.02338022115155219,0.09740101331113918,44.11764879391193,-104.27510100388527,76.200527287817
2024-09-23 10:31:19.580598,42.34,13.725469,-0.0031339382481259063,-0.022982261414192504,0.09720203344245934,32.08287849390507,-104.27510100388527,76.200527287817
2024-09-23 10:31:19.623116,42.34,13.72552,-0.0031339382481259063,-0.022982261414192504,0.09720203344245934,32.08287849390507,-88.23529758782387,76.200527287817
2024-09-23 10:31:19.634846,42.34,13.72552,-0.0035318979854855937,-0.023479709566915436,0.0976994861521123,32.08287849390507,-88.23529758782387,76.200527287817
2024-09-23 10:31:19.677175,42.34,13.725611,-0.0032831742888682963,-0.023479709566915436,0.0976994861521123,32.08287849390507,-100.26678939585686,80.21211738781929
2024-09-23 10:31:19.688928,42.34,13.725611,-0.0032831742888682963,-0.023330473146428877,0.0976994861521123,32.08287849390507,-100.26678939585686,80.21211738781929
2024-09-23 10:31:19.722559,42.34,13.725611,-0.0032831742888682963,-0.023330473146428877,0.09710254654607277,40.106058693909645,-96.25519929585457,80.21211738781929
2024-09-23 10:31:19.733817,42.34,13.725661,-0.0038801188315820256,-0.023330473146428877,0.09710254654607277,40.106058693909645,-96.25519929585457,76.200527287817
2024-09-23 10:31:19.768038,42.34,13.725661,-0.0038801188315820256,-0.023330473146428877,0.09710254654607277,40.106058693909645,-96.25519929585457,76.200527287817
2024-09-23 10:31:19.779958,42.34,13.725755,-0.0038801188315820256,-0.023330473146428877,0.0973015264147526,36.09446859390736,-96.25519929585457,80.21211738781929
2024-09-23 10:31:19.822359,42.34,13.725755,-0.0028852147413806935,-0.02367869399252531,0.0973015264147526,32.08287849390507,-96.25519929585457,80.21211738781929
2024-09-23 10:31:19.834388,42.34,13.725755,-0.0028852147413806935,-0.02367869399252531,0.0973015264147526,32.08287849390507,-96.25519929585457,80.21211738781929
2024-09-23 10:31:19.866860,42.34,13.725806,-0.0031339382481259063,-0.02367869399252531,0.0973015264147526,32.08287849390507,-96.25519929585457,80.21211738781929
2024-09-23 10:31:19.878246,42.34,13.725806,-0.0031339382481259063,-0.02367869399252531,0.0970030596496862,44.11764879391193,-100.26678939585686,80.21211738781929
2024-09-23 10:31:19.921186,42.34,13.725857,-0.0029349636958644295,-0.02352945757203875,0.09720203344245934,40.106058693909645,-100.26678939585686,80.21211738781929
2024-09-23 10:31:19.963859,42.34,13.725857,-0.0029349636958644295,-0.02352945757203875,0.09720203344245934,40.106058693909645,-100.26678939585686,76.200527287817
2024-09-23 10:31:19.975872,42.34,13.725908,-0.0033329230534799477,-0.023728432883788564,0.09740101331113918,40.106058693909645,-100.26678939585686,76.200527287817
2024-09-23 10:31:20.019121,42.34,13.725958,-0.003631395514708897,-0.023877669304275123,0.09740101331113918,40.106058693909645,-100.26678939585686,84.22370748782159
2024-09-23 10:31:20.113890,42.34,13.726009,-0.003631395514708897,-0.023877669304275123,0.09740101331113918,40.106058693909645,-92.24360919585227,84.22370748782159
2024-09-23 10:31:20.125918,42.34,13.726009,-0.0029847020175114316,-0.023877669304275123,0.09740101331113918,40.106058693909645,-92.24360919585227,84.22370748782159
2024-09-23 10:31:20.158924,42.34,13.726009,-0.0029847020175114316,-0.023479709566915436,0.09745075675933246,44.11764879391193,-92.24360919585227,84.22370748782159
2024-09-23 10:31:20.212101,42.34,13.726096,-0.0025369937054121774,-0.023579196463302005,0.09745075675933246,44.11764879391193,-100.26678939585686,76.200527287817
2024-09-23 10:31:20.224566,42.34,13.726096,-0.0025369937054121774,-0.023579196463302005,0.0973512698629459,44.11764879391193,-100.26678939585686,76.200527287817
2024-09-23 10:31:20.256534,42.34,13.726096,-0.0025369937054121774,-0.023579196463302005,0.0973512698629459,44.11764879391193,-104.27510100388527,76.200527287817
2024-09-23 10:31:20.267676,42.34,13.726148,-0.0030344509719951677,-0.023778180888911878,0.0973512698629459,44.11764879391193,-104.27510100388527,76.200527287817
2024-09-23 10:31:20.310475,42.34,13.726198,-0.0029847020175114316,-0.023778180888911878,0.09750050628343246,36.09446859390736,-100.26678939585686,80.21211738781929
2024-09-23 10:31:20.353895,42.34,13.726198,-0.0029847020175114316,-0.02308174982955575,0.09715228999426605,36.09446859390736,-100.26678939585686,80.21211738781929
2024-09-23 10:31:20.365616,42.34,13.726293,-0.0029847020175114316,-0.02308174982955575,0.09715228999426605,32.08287849390507,-104.27510100388527,72.1922225099802
2024-09-23 10:31:20.409105,42.34,13.726293,-0.0029349636958644295,-0.023579196463302005,0.09710254654607277,36.09446859390736,-96.25519929585457,80.21211738781929
2024-09-23 10:31:20.452373,42.34,13.726389,-0.0032831742888682963,-0.02338022115155219,0.09710254654607277,36.09446859390736,-96.25519929585457,80.21211738781929
2024-09-23 10:31:20.463845,42.34,13.726389,-0.0032831742888682963,-0.02338022115155219,0.0973015264147526,32.08287849390507,-92.24360919585227,80.21211738781929
2024-09-23 10:31:20.507833,42.14,13.726441,-0.0029847020175114316,-0.023429960042815445,0.09715228999426605,32.08287849390507,-92.24360919585227,76.200527287817
2024-09-23 10:31:20.550089,42.14,13.726491,-0.0029847020175114316,-0.023429960042815445,0.09715228999426605,32.08287849390507,-100.26678939585686,80.21211738781929
2024-09-23 10:31:20.561326,42.14,13.726491,-0.0036811340262279837,-0.024076653729884996,0.09690356060148622,32.08287849390507,-100.26678939585686,80.21211738781929
2024-09-23 10:31:20.603579,42.14,13.726542,-0.0029847020175114316,-0.024076653729884996,0.09690356060148622,36.09446859390736,-100.26678939585686,80.21211738781929
2024-09-23 10:31:20.615720,42.14,13.726542,-0.0029847020175114316,-0.022733528983459317,0.09690356060148622,36.09446859390736,-100.26678939585686,80.21211738781929
2024-09-23 10:31:20.647616,42.14,13.726542,-0.0029847020175114316,-0.022733528983459317,0.09715228999426605,36.09446859390736,-100.26678939585686,80.21211738781929
2024-09-23 10:31:20.659261,42.14,13.726592,-0.0032831742888682963,-0.022733528983459317,0.09715228999426605,36.09446859390736,-100.26678939585686,84.22370748782159
2024-09-23 10:31:20.702917,42.14,13.726681,-0.0032831742888682963,-0.02352945757203875,0.09740101331113918,40.106058693909645,-100.26678939585686,80.21211738781929
2024-09-23 10:31:20.744941,42.14,13.726681,-0.0031339382481259063,-0.023877669304275123,0.09755024973162574,40.106058693909645,-100.26678939585686,80.21211738781929
2024-09-23 10:31:20.756644,42.14,13.726681,-0.0031339382481259063,-0.023877669304275123,0.09755024973162574,40.106058693909645,-104.27510100388527,64.16903547978401
2024-09-23 10:31:20.799258,42.14,13.726733,-0.0030841997366068195,-0.02313149783467906,0.09670458680871308,36.09446859390736,-100.26678939585686,64.16903547978401
2024-09-23 10:31:20.842659,42.14,13.726783,-0.0034324103296106863,-0.02313149783467906,0.09670458680871308,36.09446859390736,-100.26678939585686,72.1922225099802
2024-09-23 10:31:20.854006,42.14,13.726783,-0.0034324103296106863,-0.024076653729884996,0.09715228999426605,44.11764879391193,-100.26678939585686,72.1922225099802
2024-09-23 10:31:20.896979,42.14,13.726834,-0.0033329230534799477,-0.023330473146428877,0.09705279702197278,44.11764879391193,-100.26678939585686,76.200527287817
2024-09-23 10:31:20.939345,42.14,13.726834,-0.0033329230534799477,-0.023330473146428877,0.09705279702197278,40.106058693909645,-100.26678939585686,76.200527287817
2024-09-23 10:31:20.950498,42.14,13.726885,-0.0034324103296106863,-0.02367869399252531,0.09705279702197278,40.106058693909645,-100.26678939585686,76.200527287817
2024-09-23 10:31:20.992688,42.14,13.726935,-0.0034324103296106863,-0.02367869399252531,0.0973512698629459,44.11764879391193,-100.26678939585686,72.1922225099802
2024-09-23 10:31:21.004788,42.14,13.726935,-0.0029847020175114316,-0.02367869399252531,0.0973512698629459,44.11764879391193,-100.26678939585686,72.1922225099802
2024-09-23 10:31:21.037833,42.14,13.726935,-0.0029847020175114316,-0.02338022115155219,0.0973512698629459,44.11764879391193,-100.26678939585686,72.1922225099802
2024-09-23 10:31:21.049069,42.14,13.727022,-0.0029847020175114316,-0.02338022115155219,0.0973512698629459,44.11764879391193,-100.26678939585686,80.21211738781929
2024-09-23 10:31:21.091645,42.14,13.727022,-0.0030344509719951677,-0.023479709566915436,0.09665483728461309,48.12595698684454,-104.27510100388527,80.21211738781929
2024-09-23 10:31:21.133367,42.14,13.727074,-0.0029847020175114316,-0.023479709566915436,0.09665483728461309,48.12595698684454,-104.27510100388527,80.21211738781929
2024-09-23 10:31:21.144724,42.14,13.727074,-0.0029847020175114316,-0.023181236725942318,0.09670458680871308,40.106058693909645,-104.27510100388527,80.21211738781929
2024-09-23 10:31:21.187721,42.14,13.727125,-0.003382661564999035,-0.023479709566915436,0.09670458680871308,36.09446859390736,-104.27510100388527,76.200527287817
2024-09-23 10:31:21.230973,42.14,13.727125,-0.003382661564999035,-0.023479709566915436,0.09670458680871308,36.09446859390736,-96.25519929585457,76.200527287817
2024-09-23 10:31:21.242348,42.14,13.727175,-0.0029349636958644295,-0.023230986250042305,0.09710254654607277,36.09446859390736,-96.25519929585457,76.200527287817
2024-09-23 10:31:21.285379,42.14,13.727226,-0.0030841997366068195,-0.023429960042815445,0.09710254654607277,28.07457030097246,-100.26678939585686,80.21211738781929
2024-09-23 10:31:21.328133,42.14,13.727226,-0.0030841997366068195,-0.023429960042815445,0.09675432418099966,36.09446859390736,-100.26678939585686,80.21211738781929
2024-09-23 10:31:21.339469,42.14,13.727276,-0.0036811340262279837,-0.023429960042815445,0.09675432418099966,36.09446859390736,-92.24360919585227,80.21211738781929
2024-09-23 10:31:21.381673,42.14,13.727276,-0.0036811340262279837,-0.02367869399252531,0.09685382322919964,36.09446859390736,-92.24360919585227,80.21211738781929
2024-09-23 10:31:21.425702,42.14,13.727276,-0.0036811340262279837,-0.02367869399252531,0.09685382322919964,40.106058693909645,-96.25519929585457,80.21211738781929
2024-09-23 10:31:21.436861,42.14,13.727364,-0.0035318979854855937,-0.02338022115155219,0.09685382322919964,40.106058693909645,-96.25519929585457,84.22370748782159
2024-09-23 10:31:21.479694,42.14,13.727415,-0.0035318979854855937,-0.02338022115155219,0.09720203344245934,40.106058693909645,-100.26678939585686,80.21211738781929
2024-09-23 10:31:21.491485,42.14,13.727415,-0.0035816467500972456,-0.02338022115155219,0.09720203344245934,40.106058693909645,-100.26678939585686,80.21211738781929
2024-09-23 10:31:21.525248,42.03,13.727415,-0.0035816467500972456,-0.02338022115155219,0.09670458680871308,36.09446859390736,-100.26678939585686,80.21211738781929
2024-09-23 10:31:21.536484,42.03,13.727466,-0.0035816467500972456,-0.02338022115155219,0.09670458680871308,36.09446859390736,-92.24360919585227,84.22370748782159
2024-09-23 10:31:21.579039,42.03,13.727466,-0.0037308827908396356,-0.024076653729884996,0.09685382322919964,44.11764879391193,-96.25519929585457,84.22370748782159
2024-09-23 10:31:21.622842,42.03,13.727516,-0.0029847020175114316,-0.023579196463302005,0.09685382322919964,44.11764879391193,-96.25519929585457,84.22370748782159
2024-09-23 10:31:21.634954,42.03,13.727516,-0.0029847020175114316,-0.023579196463302005,0.09680407370509965,36.09446859390736,-104.27510100388527,84.22370748782159
2024-09-23 10:31:21.667403,42.03,13.727516,-0.0029847020175114316,-0.023579196463302005,0.09680407370509965,36.09446859390736,-104.27510100388527,84.22370748782159
2024-09-23 10:31:21.678801,42.03,13.727608,-0.0036811340262279837,-0.023728432883788564,0.09720203344245934,36.09446859390736,-104.27510100388527,84.22370748782159
2024-09-23 10:31:21.721974,42.03,13.727659,-0.0029847020175114316,-0.023728432883788564,0.09720203344245934,36.09446859390736,-88.23529758782387,84.22370748782159
2024-09-23 10:31:21.733410,42.03,13.727659,-0.0029847020175114316,-0.023181236725942318,0.09645586349183995,36.09446859390736,-88.23529758782387,84.22370748782159
2024-09-23 10:31:21.768021,42.03,13.727659,-0.0029847020175114316,-0.023181236725942318,0.09645586349183995,48.12595698684454,-92.24360919585227,84.22370748782159
2024-09-23 10:31:21.779226,42.03,13.72771,-0.0037308827908396356,-0.02293251340906919,0.09645586349183995,48.12595698684454,-92.24360919585227,84.22370748782159
2024-09-23 10:31:21.822164,42.03,13.727761,-0.003631395514708897,-0.02293251340906919,0.09725178296655933,40.106058693909645,-100.26678939585686,76.200527287817
2024-09-23 10:31:21.864456,42.03,13.727761,-0.003631395514708897,-0.023429960042815445,0.09690356060148622,40.106058693909645,-100.26678939585686,76.200527287817
2024-09-23 10:31:21.876708,42.03,13.727851,-0.003631395514708897,-0.023429960042815445,0.09690356060148622,40.106058693909645,-100.26678939585686,80.21211738781929
2024-09-23 10:31:21.920624,42.03,13.727851,-0.0035318979854855937,-0.023429960042815445,0.09715228999426605,40.106058693909645,-92.24360919585227,80.21211738781929
2024-09-23 10:31:21.962858,42.03,13.727903,-0.0031836870127375577,-0.023429960042815445,0.09715228999426605,40.106058693909645,-92.24360919585227,80.21211738781929
2024-09-23 10:31:21.974653,42.03,13.727903,-0.0031836870127375577,-0.023280723622328886,0.0970030596496862,40.106058693909645,-100.26678939585686,80.21211738781929
2024-09-23 10:31:22.017363,42.03,13.727953,-0.0034324103296106863,-0.023181236725942318,0.09720203344245934,44.11764879391193,-100.26678939585686,80.21211738781929
2024-09-23 10:31:22.060457,42.03,13.728004,-0.0034324103296106863,-0.023181236725942318,0.09720203344245934,44.11764879391193,-96.25519929585457,76.200527287817
2024-09-23 10:31:22.071457,42.03,13.728004,-0.0029847020175114316,-0.02308174982955575,0.09705279702197278,44.11764879391193,-96.25519929585457,76.200527287817
2024-09-23 10:31:22.115777,42.03,13.728055,-0.0029847020175114316,-0.02308174982955575,0.09705279702197278,52.137550501942634,-100.26678939585686,80.21211738781929
2024-09-23 10:31:22.128398,42.03,13.728055,-0.003780631555451287,-0.023280723622328886,0.09705279702197278,52.137550501942634,-100.26678939585686,80.21211738781929
2024-09-23 10:31:22.162458,42.03,13.728106,-0.003233425524256645,-0.023280723622328886,0.09745075675933246,44.11764879391193,-100.26678939585686,80.21211738781929
2024-09-23 10:31:22.204799,42.03,13.728106,-0.003233425524256645,-0.023579196463302005,0.09725178296655933,44.11764879391193,-100.26678939585686,80.21211738781929
2024-09-23 10:31:22.216692,42.03,13.728106,-0.003233425524256645,-0.023579196463302005,0.09725178296655933,40.106058693909645,-100.26678939585686,80.21211738781929
2024-09-23 10:31:22.259589,42.03,13.728192,-0.0028354659767690416,-0.023330473146428877,0.09725178296655933,40.106058693909645,-92.24360919585227,80.21211738781929
2024-09-23 10:31:22.271732,42.03,13.728192,-0.0028354659767690416,-0.023330473146428877,0.09690356060148622,40.106058693909645,-92.24360919585227,80.21211738781929
2024-09-23 10:31:22.303462,42.03,13.728192,-0.0028354659767690416,-0.023330473146428877,0.09690356060148622,40.106058693909645,-100.26678939585686,80.21211738781929
2024-09-23 10:31:22.314579,42.03,13.728244,-0.003382661564999035,-0.023579196463302005,0.09690356060148622,40.106058693909645,-100.26678939585686,76.200527287817
2024-09-23 10:31:22.357844,42.03,13.728295,-0.0029847020175114316,-0.023579196463302005,0.09695331012558621,32.08287849390507,-100.26678939585686,76.200527287817
2024-09-23 10:31:22.400201,42.03,13.728295,-0.0029847020175114316,-0.02397715620066169,0.09745075675933246,32.08287849390507,-100.26678939585686,76.200527287817
2024-09-23 10:31:22.412064,42.03,13.728345,-0.0029847020175114316,-0.02397715620066169,0.09745075675933246,44.11764879391193,-96.25519929585457,76.200527287817
2024-09-23 10:31:22.454661,42.03,13.728345,-0.0034324103296106863,-0.02352945757203875,0.09745075675933246,32.08287849390507,-96.25519929585457,76.200527287817
2024-09-23 10:31:22.466451,42.03,13.728345,-0.0034324103296106863,-0.02352945757203875,0.09745075675933246,32.08287849390507,-96.25519929585457,72.1922225099802
2024-09-23 10:31:22.500403,42.03,13.728437,-0.0038303700669703737,-0.02367869399252531,0.09745075675933246,32.08287849390507,-96.25519929585457,72.1922225099802
2024-09-23 10:31:22.512331,42.03,13.728437,-0.0038303700669703737,-0.02367869399252531,0.0970030596496862,40.106058693909645,-96.25519929585457,72.1922225099802
2024-09-23 10:31:22.544476,42.16,13.728437,-0.0038303700669703737,-0.02367869399252531,0.0970030596496862,40.106058693909645,-96.25519929585457,76.200527287817
2024-09-23 10:31:22.556349,42.16,13.728488,-0.003631395514708897,-0.023927417309398437,0.09680407370509965,32.08287849390507,-96.25519929585457,76.200527287817
2024-09-23 10:31:22.598958,42.16,13.728539,-0.0033329230534799477,-0.023927417309398437,0.09680407370509965,32.08287849390507,-100.26678939585686,80.21211738781929
2024-09-23 10:31:22.610642,42.16,13.728539,-0.0033329230534799477,-0.023479709566915436,0.09720203344245934,32.08287849390507,-100.26678939585686,80.21211738781929
2024-09-23 10:31:22.644369,42.16,13.728539,-0.0033329230534799477,-0.023479709566915436,0.09720203344245934,40.106058693909645,-104.27510100388527,80.21211738781929
2024-09-23 10:31:22.655901,42.16,13.728589,-0.003482159473966507,-0.02412639262114825,0.09720203344245934,40.106058693909645,-104.27510100388527,72.1922225099802
2024-09-23 10:31:22.698494,42.16,13.72864,-0.003482159473966507,-0.02412639262114825,0.09740101331113918,48.12595698684454,-108.28669110388756,76.200527287817
2024-09-23 10:31:22.710293,42.16,13.72864,-0.0030841997366068195,-0.02412639262114825,0.09740101331113918,48.12595698684454,-108.28669110388756,76.200527287817
2024-09-23 10:31:22.742554,42.16,13.72864,-0.0030841997366068195,-0.023728432883788564,0.0973512698629459,48.12595698684454,-108.28669110388756,76.200527287817
2024-09-23 10:31:22.753997,42.16,13.728729,-0.0030841997366068195,-0.023728432883788564,0.0973512698629459,36.09446859390736,-96.25519929585457,76.200527287817
2024-09-23 10:31:22.796474,42.16,13.728729,-0.003780631555451287,-0.023778180888911878,0.09779897304849887,32.08287849390507,-92.24360919585227,76.200527287817
2024-09-23 10:31:22.808776,42.16,13.728729,-0.003780631555451287,-0.023778180888911878,0.09779897304849887,32.08287849390507,-92.24360919585227,84.22370748782159
2024-09-23 10:31:22.843717,42.16,13.72878,-0.0028852147413806935,-0.023330473146428877,0.09715228999426605,32.08287849390507,-92.24360919585227,84.22370748782159
2024-09-23 10:31:22.855783,42.16,13.72878,-0.0028852147413806935,-0.023330473146428877,0.09715228999426605,36.09446859390736,-104.27510100388527,84.22370748782159
2024-09-23 10:31:22.888087,42.16,13.728831,-0.0028852147413806935,-0.023330473146428877,0.09715228999426605,36.09446859390736,-104.27510100388527,84.22370748782159
2024-09-23 10:31:22.899721,42.16,13.728831,-0.0035318979854855937,-0.02338022115155219,0.09715228999426605,40.106058693909645,-104.27510100388527,84.22370748782159
2024-09-23 10:31:22.993816,42.16,13.728881,-0.0033329230534799477,-0.02352945757203875,0.0970030596496862,40.106058693909645,-100.26678939585686,76.200527287817
2024-09-23 10:31:23.036247,42.16,13.728881,-0.0033329230534799477,-0.02352945757203875,0.0970030596496862,36.09446859390736,-96.25519929585457,76.200527287817
2024-09-23 10:31:23.047599,42.16,13.728932,-0.003482159473966507,-0.023927417309398437,0.0970030596496862,36.09446859390736,-96.25519929585457,76.200527287817
2024-09-23 10:31:23.089402,42.16,13.728983,-0.004029355252068585,-0.023927417309398437,0.09695331012558621,48.12595698684454,-96.25519929585457,80.21211738781929
2024-09-23 10:31:23.131494,42.16,13.728983,-0.004029355252068585,-0.02308174982955575,0.09690356060148622,48.12595698684454,-96.25519929585457,80.21211738781929
2024-09-23 10:31:23.143262,42.16,13.72907,-0.004029355252068585,-0.02308174982955575,0.09690356060148622,40.106058693909645,-100.26678939585686,80.21211738781929
2024-09-23 10:31:23.186331,42.16,13.72907,-0.0030841997366068195,-0.02362894446842532,0.09759999317981902,40.106058693909645,-96.25519929585457,80.21211738781929
2024-09-23 10:31:23.198172,42.16,13.72907,-0.0030841997366068195,-0.02362894446842532,0.09759999317981902,40.106058693909645,-96.25519929585457,80.21211738781929
2024-09-23 10:31:23.230995,42.16,13.729168,-0.0034324103296106863,-0.023728432883788564,0.09759999317981902,40.106058693909645,-96.25519929585457,80.21211738781929
2024-09-23 10:31:23.242752,42.16,13.729168,-0.0034324103296106863,-0.023728432883788564,0.09745075675933246,40.106058693909645,-100.26678939585686,80.21211738781929
2024-09-23 10:31:23.286471,42.16,13.729219,-0.003482159473966507,-0.023778180888911878,0.09645586349183995,40.106058693909645,-100.26678939585686,80.21211738781929
2024-09-23 10:31:23.329461,42.16,13.72927,-0.003482159473966507,-0.023778180888911878,0.09645586349183995,40.106058693909645,-92.24360919585227,80.21211738781929
2024-09-23 10:31:23.341237,42.16,13.72927,-0.003482159473966507,-0.02352945757203875,0.09755024973162574,40.106058693909645,-92.24360919585227,80.21211738781929
2024-09-23 10:31:23.373824,42.16,13.72927,-0.003482159473966507,-0.02352945757203875,0.09755024973162574,36.09446859390736,-92.24360919585227,80.21211738781929
2024-09-23 10:31:23.385963,42.16,13.729321,-0.0029847020175114316,-0.023429960042815445,0.09755024973162574,36.09446859390736,-88.23529758782387,88.23529758782387
2024-09-23 10:31:23.428824,42.16,13.729321,-0.0029847020175114316,-0.023429960042815445,0.0973512698629459,36.09446859390736,-92.24360919585227,84.22370748782159
2024-09-23 10:31:23.473071,42.16,13.729371,-0.003482159473966507,-0.023429960042815445,0.0973512698629459,36.09446859390736,-92.24360919585227,84.22370748782159
2024-09-23 10:31:23.484197,42.16,13.729371,-0.003482159473966507,-0.02338022115155219,0.09710254654607277,44.11764879391193,-100.26678939585686,84.22370748782159
2024-09-23 10:31:23.528809,42.16,13.72946,-0.0035318979854855937,-0.023280723622328886,0.0973015264147526,36.09446859390736,-100.26678939585686,80.21211738781929
2024-09-23 10:31:23.572202,42.13,13.729511,-0.0035318979854855937,-0.023280723622328886,0.0973015264147526,36.09446859390736,-100.26678939585686,80.21211738781929
2024-09-23 10:31:23.583716,42.13,13.729511,-0.003233425524256645,-0.023429960042815445,0.09710254654607277,36.09446859390736,-100.26678939585686,80.21211738781929
2024-09-23 10:31:23.626502,42.13,13.729562,-0.0031836870127375577,-0.023778180888911878,0.09710254654607277,40.106058693909645,-92.24360919585227,80.21211738781929
2024-09-23 10:31:23.670571,42.13,13.729562,-0.0031836870127375577,-0.023778180888911878,0.0973512698629459,40.106058693909645,-96.25519929585457,80.21211738781929
2024-09-23 10:31:23.682543,42.13,13.729613,-0.0031339382481259063,-0.023778180888911878,0.0973512698629459,40.106058693909645,-96.25519929585457,80.21211738781929
2024-09-23 10:31:23.714759,42.13,13.729613,-0.0031339382481259063,-0.023429960042815445,0.0973512698629459,40.106058693909645,-96.25519929585457,80.21211738781929
2024-09-23 10:31:23.726101,42.13,13.729704,-0.0031339382481259063,-0.023429960042815445,0.09690356060148622,32.08287849390507,-104.27510100388527,84.22370748782159
2024-09-23 10:31:23.769203,42.13,13.729704,-0.003382661564999035,-0.023280723622328886,0.09720203344245934,40.106058693909645,-104.27510100388527,84.22370748782159
2024-09-23 10:31:23.781235,42.13,13.729704,-0.003382661564999035,-0.023280723622328886,0.09720203344245934,40.106058693909645,-88.23529758782387,76.200527287817
2024-09-23 10:31:23.814494,42.13,13.729755,-0.0029847020175114316,-0.023280723622328886,0.09720203344245934,40.106058693909645,-88.23529758782387,76.200527287817
2024-09-23 10:31:23.825711,42.13,13.729755,-0.0029847020175114316,-0.02338022115155219,0.0973512698629459,40.106058693909645,-88.23529758782387,76.200527287817
2024-09-23 10:31:23.868236,42.13,13.729806,-0.0030344509719951677,-0.023230986250042305,0.0973512698629459,40.106058693909645,-88.23529758782387,80.21211738781929
2024-09-23 10:31:23.880845,42.13,13.729806,-0.0030344509719951677,-0.023230986250042305,0.09705279702197278,40.106058693909645,-88.23529758782387,80.21211738781929
2024-09-23 10:31:23.913718,42.13,13.729856,-0.0030344509719951677,-0.023230986250042305,0.09705279702197278,40.106058693909645,-104.27510100388527,76.200527287817
2024-09-23 10:31:23.925279,42.13,13.729856,-0.003233425524256645,-0.023827930413011865,0.09764974270391902,40.106058693909645,-104.27510100388527,76.200527287817
2024-09-23 10:31:23.968091,42.13,13.729907,-0.0031339382481259063,-0.02367869399252531,0.09764974270391902,32.08287849390507,-96.25519929585457,80.21211738781929
2024-09-23 10:31:24.010729,42.13,13.729907,-0.0031339382481259063,-0.02367869399252531,0.09705279702197278,32.08287849390507,-100.26678939585686,80.21211738781929
2024-09-23 10:31:24.022740,42.13,13.729958,-0.002785727465249955,-0.02367869399252531,0.09705279702197278,32.08287849390507,-100.26678939585686,76.200527287817
2024-09-23 10:31:24.065221,42.13,13.730045,-0.002785727465249955,-0.023579196463302005,0.09750050628343246,36.09446859390736,-100.26678939585686,80.21211738781929
2024-09-23 10:31:24.107910,42.13,13.730045,-0.003382661564999035,-0.02352945757203875,0.0973015264147526,36.09446859390736,-100.26678939585686,80.21211738781929
2024-09-23 10:31:24.118944,42.13,13.730045,-0.003382661564999035,-0.02352945757203875,0.0973015264147526,44.11764879391193,-100.26678939585686,76.200527287817
2024-09-23 10:31:24.161821,42.13,13.730097,-0.002636491424507565,-0.023479709566915436,0.09670458680871308,44.11764879391193,-100.26678939585686,76.200527287817
2024-09-23 10:31:24.204062,42.13,13.730097,-0.002636491424507565,-0.023479709566915436,0.09670458680871308,44.11764879391193,-92.24360919585227,76.200527287817
2024-09-23 10:31:24.215699,42.13,13.730147,-0.0035816467500972456,-0.023429960042815445,0.09690356060148622,44.11764879391193,-92.24360919585227,76.200527287817
2024-09-23 10:31:24.258015,42.13,13.730147,-0.0035816467500972456,-0.023429960042815445,0.09690356060148622,32.08287849390507,-92.24360919585227,76.200527287817
2024-09-23 10:31:24.302010,42.13,13.730147,-0.0035816467500972456,-0.023429960042815445,0.09690356060148622,32.08287849390507,-92.24360919585227,76.200527287817
2024-09-23 10:31:24.314295,42.13,13.730198,-0.0031339382481259063,-0.02367869399252531,0.09680407370509965,32.08287849390507,-92.24360919585227,76.200527287817
2024-09-23 10:31:24.357673,42.13,13.730248,-0.0028852147413806935,-0.02397715620066169,0.09680407370509965,32.08287849390507,-104.27510100388527,76.200527287817
2024-09-23 10:31:24.401094,42.13,13.730248,-0.0028852147413806935,-0.02397715620066169,0.09774922960030558,36.09446859390736,-108.28669110388756,76.200527287817
2024-09-23 10:31:24.412890,42.13,13.730299,-0.0028354659767690416,-0.02397715620066169,0.09774922960030558,36.09446859390736,-108.28669110388756,84.22370748782159
2024-09-23 10:31:24.455343,42.13,13.730387,-0.0028354659767690416,-0.02338022115155219,0.09745075675933246,36.09446859390736,-104.27510100388527,84.22370748782159
2024-09-23 10:31:24.497918,42.13,13.730387,-0.0035318979854855937,-0.023579196463302005,0.09695331012558621,36.09446859390736,-104.27510100388527,84.22370748782159
2024-09-23 10:31:24.509197,42.13,13.730387,-0.0035318979854855937,-0.023579196463302005,0.09695331012558621,40.106058693909645,-96.25519929585457,80.21211738781929
2024-09-23 10:31:24.552847,42.13,13.730484,-0.0035318979854855937,-0.023429960042815445,0.09710254654607277,40.106058693909645,-92.24360919585227,80.21211738781929
2024-09-23 10:31:24.595738,42.02,13.730535,-0.0035318979854855937,-0.023429960042815445,0.09710254654607277,40.106058693909645,-92.24360919585227,76.200527287817
2024-09-23 10:31:24.606911,42.02,13.730535,-0.0032831742888682963,-0.023330473146428877,0.0973015264147526,40.106058693909645,-92.24360919585227,76.200527287817
2024-09-23 10:31:24.648720,42.02,13.730586,-0.0030344509719951677,-0.023330473146428877,0.0973015264147526,40.106058693909645,-96.25519929585457,80.21211738781929
2024-09-23 10:31:24.660444,42.02,13.730586,-0.0030344509719951677,-0.022833026512682618,0.09680407370509965,40.106058693909645,-96.25519929585457,80.21211738781929
2024-09-23 10:31:24.693393,42.02,13.730586,-0.0030344509719951677,-0.022833026512682618,0.09680407370509965,44.11764879391193,-108.28669110388756,80.21211738781929
2024-09-23 10:31:24.704544,42.02,13.730637,-0.002785727465249955,-0.023280723622328886,0.09680407370509965,44.11764879391193,-108.28669110388756,80.21211738781929
2024-09-23 10:31:24.747343,42.02,13.730688,-0.0029349636958644295,-0.023280723622328886,0.0966050877605131,40.106058693909645,-100.26678939585686,84.22370748782159
2024-09-23 10:31:24.789403,42.02,13.730688,-0.0029349636958644295,-0.02303200030545576,0.0966050877605131,40.106058693909645,-100.26678939585686,84.22370748782159
2024-09-23 10:31:24.801242,42.02,13.730776,-0.0029349636958644295,-0.02303200030545576,0.09720203344245934,32.08287849390507,-96.25519929585457,76.200527287817
2024-09-23 10:31:24.845175,42.02,13.730776,-0.003233425524256645,-0.02313149783467906,0.09685382322919964,36.09446859390736,-96.25519929585457,76.200527287817
2024-09-23 10:31:24.888647,42.02,13.730828,-0.003382661564999035,-0.02352945757203875,0.09685382322919964,36.09446859390736,-96.25519929585457,76.200527287817
2024-09-23 10:31:24.899654,42.02,13.730828,-0.003382661564999035,-0.02352945757203875,0.09680407370509965,36.09446859390736,-96.25519929585457,76.200527287817
2024-09-23 10:31:24.943046,42.02,13.730878,-0.0028354659767690416,-0.023330473146428877,0.09715228999426605,40.106058693909645,-96.25519929585457,76.200527287817
2024-09-23 10:31:25.037464,42.02,13.730929,-0.0038801188315820256,-0.023330473146428877,0.09715228999426605,40.106058693909645,-96.25519929585457,80.21211738781929
2024-09-23 10:31:25.053960,42.02,13.730929,-0.0038801188315820256,-0.023280723622328886,0.0973015264147526,40.106058693909645,-96.25519929585457,80.21211738781929
2024-09-23 10:31:25.086654,42.02,13.73098,-0.0035816467500972456,-0.023280723622328886,0.0973015264147526,44.11764879391193,-100.26678939585686,84.22370748782159
2024-09-23 10:31:25.098734,42.02,13.73098,-0.0035816467500972456,-0.02352945757203875,0.0973015264147526,44.11764879391193,-100.26678939585686,84.22370748782159
2024-09-23 10:31:25.130815,42.02,13.73098,-0.0035816467500972456,-0.02352945757203875,0.09720203344245934,48.12595698684454,-100.26678939585686,84.22370748782159
2024-09-23 10:31:25.142438,42.02,13.73103,-0.0031339382481259063,-0.02352945757203875,0.09720203344245934,48.12595698684454,-100.26678939585686,80.21211738781929
2024-09-23 10:31:25.186127,42.02,13.731117,-0.0031339382481259063,-0.024076653729884996,0.09725178296655933,32.08287849390507,-96.25519929585457,80.21211738781929
2024-09-23 10:31:25.228347,42.02,13.731117,-0.0031836870127375577,-0.023429960042815445,0.09725178296655933,32.08287849390507,-96.25519929585457,80.21211738781929
2024-09-23 10:31:25.239620,42.02,13.731117,-0.0031836870127375577,-0.023429960042815445,0.09650560086412653,48.12595698684454,-100.26678939585686,76.200527287817
2024-09-23 10:31:25.281954,42.02,13.731215,-0.0032831742888682963,-0.023181236725942318,0.09720203344245934,44.11764879391193,-100.26678939585686,76.200527287817
2024-09-23 10:31:25.294184,42.02,13.731215,-0.0032831742888682963,-0.023181236725942318,0.09720203344245934,44.11764879391193,-104.27510100388527,76.200527287817
2024-09-23 10:31:25.326497,42.02,13.731267,-0.0031836870127375577,-0.023181236725942318,0.09720203344245934,44.11764879391193,-104.27510100388527,80.21211738781929
2024-09-23 10:31:25.338036,42.02,13.731267,-0.0031836870127375577,-0.0228827638849692,0.09720203344245934,44.11764879391193,-104.27510100388527,80.21211738781929
2024-09-23 10:31:25.380340,42.02,13.731317,-0.003780631555451287,-0.0228827638849692,0.09715228999426605,28.07457030097246,-96.25519929585457,80.21211738781929
2024-09-23 10:31:25.423183,42.02,13.731317,-0.003780631555451287,-0.023479709566915436,0.09680407370509965,28.07457030097246,-96.25519929585457,80.21211738781929
2024-09-23 10:31:25.434717,42.02,13.731368,-0.003780631555451287,-0.023479709566915436,0.09680407370509965,44.11764879391193,-96.25519929585457,84.22370748782159
2024-09-23 10:31:25.478178,42.02,13.731368,-0.003482159473966507,-0.02397715620066169,0.0970030596496862,36.09446859390736,-100.26678939585686,84.22370748782159
2024-09-23 10:31:25.489699,42.02,13.731368,-0.003482159473966507,-0.02397715620066169,0.0970030596496862,36.09446859390736,-100.26678939585686,88.23529758782387
2024-09-23 10:31:25.521310,42.02,13.731419,-0.003482159473966507,-0.02397715620066169,0.0970030596496862,36.09446859390736,-100.26678939585686,88.23529758782387
2024-09-23 10:31:25.573562,42.02,13.731419,-0.0031836870127375577,-0.022833026512682618,0.09685382322919964,28.07457030097246,-92.24360919585227,88.23529758782387
2024-09-23 10:31:25.585724,42.02,13.731419,-0.0031836870127375577,-0.022833026512682618,0.09685382322919964,28.07457030097246,-92.24360919585227,80.21211738781929
2024-09-23 10:31:25.618623,42.1,13.731507,-0.0029349636958644295,-0.022833026512682618,0.09685382322919964,28.07457030097246,-92.24360919585227,80.21211738781929
2024-09-23 10:31:25.629800,42.1,13.731507,-0.0029349636958644295,-0.023429960042815445,0.09720203344245934,40.106058693909645,-96.25519929585457,80.21211738781929
2024-09-23 10:31:25.673775,42.1,13.731559,-0.002785727465249955,-0.023877669304275123,0.09720203344245934,40.106058693909645,-96.25519929585457,80.21211738781929
2024-09-23 10:31:25.686189,42.1,13.731559,-0.002785727465249955,-0.023877669304275123,0.09705279702197278,32.08287849390507,-96.25519929585457,80.21211738781929
2024-09-23 10:31:25.719494,42.1,13.73161,-0.0030841997366068195,-0.023877669304275123,0.09705279702197278,32.08287849390507,-104.27510100388527,80.21211738781929
2024-09-23 10:31:25.730796,42.1,13.73161,-0.0030841997366068195,-0.024026904205785005,0.09725178296655933,32.08287849390507,-104.27510100388527,80.21211738781929
2024-09-23 10:31:25.764931,42.1,13.73161,-0.0030841997366068195,-0.024026904205785005,0.09725178296655933,36.09446859390736,-100.26678939585686,80.21211738781929
2024-09-23 10:31:25.776546,42.1,13.73166,-0.0031339382481259063,-0.023330473146428877,0.09725178296655933,36.09446859390736,-100.26678939585686,76.200527287817
2024-09-23 10:31:25.810733,42.1,13.73166,-0.0031339382481259063,-0.023330473146428877,0.0970030596496862,36.09446859390736,-100.26678939585686,76.200527287817
2024-09-23 10:31:25.822307,42.1,13.731754,-0.0033329230534799477,-0.023330473146428877,0.0970030596496862,36.09446859390736,-104.27510100388527,80.21211738781929
2024-09-23 10:31:25.864647,42.1,13.731754,-0.0033329230534799477,-0.02397715620066169,0.09755024973162574,36.09446859390736,-92.24360919585227,80.21211738781929
2024-09-23 10:31:25.876333,42.1,13.731849,-0.0033329230534799477,-0.02397715620066169,0.09755024973162574,36.09446859390736,-92.24360919585227,80.21211738781929
2024-09-23 10:31:25.909871,42.1,13.731849,-0.0030841997366068195,-0.02397715620066169,0.09755024973162574,36.09446859390736,-92.24360919585227,80.21211738781929
2024-09-23 10:31:25.921273,42.1,13.731849,-0.0030841997366068195,-0.023280723622328886,0.09710254654607277,32.08287849390507,-96.25519929585457,76.200527287817
2024-09-23 10:31:25.963782,42.1,13.7319,-0.0033329230534799477,-0.023330473146428877,0.09715228999426605,36.09446859390736,-96.25519929585457,76.200527287817
2024-09-23 10:31:25.975415,42.1,13.7319,-0.0033329230534799477,-0.023330473146428877,0.09715228999426605,36.09446859390736,-100.26678939585686,76.200527287817
2024-09-23 10:31:26.008025,42.1,13.731951,-0.0033329230534799477,-0.023330473146428877,0.09715228999426605,36.09446859390736,-100.26678939585686,80.21211738781929
2024-09-23 10:31:26.019603,42.1,13.731951,-0.003233425524256645,-0.023330473146428877,0.09764974270391902,36.09446859390736,-100.26678939585686,80.21211738781929
2024-09-23 10:31:26.061270,42.1,13.732001,-0.0036811340262279837,-0.02367869399252531,0.09764974270391902,36.09446859390736,-96.25519929585457,80.21211738781929
2024-09-23 10:31:26.073284,42.1,13.732001,-0.0036811340262279837,-0.02367869399252531,0.09680407370509965,36.09446859390736,-96.25519929585457,80.21211738781929
2024-09-23 10:31:26.105895,42.1,13.732001,-0.0036811340262279837,-0.02367869399252531,0.09680407370509965,40.106058693909645,-100.26678939585686,80.21211738781929
2024-09-23 10:31:26.117175,42.1,13.732052,-0.003233425524256645,-0.023877669304275123,0.09680407370509965,40.106058693909645,-100.26678939585686,84.22370748782159
2024-09-23 10:31:26.159661,42.1,13.732103,-0.003233425524256645,-0.023877669304275123,0.09695331012558621,40.106058693909645,-96.25519929585457,76.200527287817
2024-09-23 10:31:26.171695,42.1,13.732103,-0.0036811340262279837,-0.023877669304275123,0.09695331012558621,40.106058693909645,-96.25519929585457,76.200527287817
2024-09-23 10:31:26.205465,42.1,13.732103,-0.0036811340262279837,-0.02367869399252531,0.09680407370509965,24.06297849342227,-96.25519929585457,76.200527287817
2024-09-23 10:31:26.217611,42.1,13.73219,-0.0036811340262279837,-0.02367869399252531,0.09680407370509965,24.06297849342227,-96.25519929585457,76.200527287817
2024-09-23 10:31:26.249776,42.1,13.73219,-0.0035318979854855937,-0.02367869399252531,0.09680407370509965,24.06297849342227,-96.25519929585457,76.200527287817
2024-09-23 10:31:26.260959,42.1,13.73219,-0.0035318979854855937,-0.02313149783467906,0.09670458680871308,32.08287849390507,-96.25519929585457,76.200527287817
2024-09-23 10:31:26.302891,42.1,13.732241,-0.003382661564999035,-0.023280723622328886,0.09670458680871308,32.08287849390507,-96.25519929585457,76.200527287817
2024-09-23 10:31:26.315179,42.1,13.732241,-0.003382661564999035,-0.023280723622328886,0.0970030596496862,40.106058693909645,-96.25519929585457,76.200527287817
2024-09-23 10:31:26.348330,42.1,13.732241,-0.003382661564999035,-0.023280723622328886,0.0970030596496862,40.106058693909645,-96.25519929585457,88.23529758782387
2024-09-23 10:31:26.359441,42.1,13.732292,-0.0029847020175114316,-0.02308174982955575,0.09665483728461309,40.106058693909645,-96.25519929585457,88.23529758782387
2024-09-23 10:31:26.401591,42.1,13.732343,-0.0034324103296106863,-0.02308174982955575,0.09665483728461309,40.106058693909645,-100.26678939585686,80.21211738781929
2024-09-23 10:31:26.413463,42.1,13.732343,-0.0034324103296106863,-0.023230986250042305,0.0973512698629459,40.106058693909645,-100.26678939585686,80.21211738781929
2024-09-23 10:31:26.446370,42.1,13.732343,-0.0034324103296106863,-0.023230986250042305,0.0973512698629459,32.08287849390507,-100.26678939585686,80.21211738781929
2024-09-23 10:31:26.457355,42.1,13.732393,-0.0032831742888682963,-0.023181236725942318,0.0973512698629459,32.08287849390507,-100.26678939585686,76.200527287817
2024-09-23 10:31:26.501058,42.1,13.732393,-0.0032831742888682963,-0.023181236725942318,0.09710254654607277,36.09446859390736,-100.26678939585686,88.23529758782387
2024-09-23 10:31:26.512328,42.1,13.732444,-0.0038303700669703737,-0.023181236725942318,0.09710254654607277,36.09446859390736,-100.26678939585686,88.23529758782387
2024-09-23 10:31:26.544392,42.1,13.732444,-0.0038303700669703737,-0.02362894446842532,0.09685382322919964,36.09446859390736,-100.26678939585686,88.23529758782387
2024-09-23 10:31:26.556065,42.1,13.732531,-0.0038303700669703737,-0.02362894446842532,0.09685382322919964,44.11764879391193,-104.27510100388527,84.22370748782159
2024-09-23 10:31:26.598719,42.1,13.732531,-0.0035816467500972456,-0.023728432883788564,0.09740101331113918,40.106058693909645,-100.26678939585686,84.22370748782159
2024-09-23 10:31:26.610527,42.1,13.732531,-0.0035816467500972456,-0.023728432883788564,0.09740101331113918,40.106058693909645,-100.26678939585686,76.200527287817
2024-09-23 10:31:26.643439,42.61,13.732583,-0.0031339382481259063,-0.02313149783467906,0.09740101331113918,40.106058693909645,-100.26678939585686,76.200527287817
2024-09-23 10:31:26.655294,42.61,13.732583,-0.0031339382481259063,-0.02313149783467906,0.09655535038822652,40.106058693909645,-96.25519929585457,76.200527287817
2024-09-23 10:31:26.698743,42.61,13.732633,-0.0030841997366068195,-0.02367869399252531,0.09715228999426605,44.11764879391193,-96.25519929585457,84.22370748782159
2024-09-23 10:31:26.741701,42.61,13.732684,-0.0030841997366068195,-0.02367869399252531,0.09715228999426605,44.11764879391193,-96.25519929585457,80.21211738781929
2024-09-23 10:31:26.752724,42.61,13.732684,-0.0035816467500972456,-0.02313149783467906,0.09725178296655933,44.11764879391193,-96.25519929585457,80.21211738781929
2024-09-23 10:31:26.796175,42.61,13.732735,-0.003233425524256645,-0.02338022115155219,0.09725178296655933,36.09446859390736,-96.25519929585457,80.21211738781929
2024-09-23 10:31:26.838490,42.61,13.732735,-0.003233425524256645,-0.02338022115155219,0.09665483728461309,40.106058693909645,-88.23529758782387,80.21211738781929
2024-09-23 10:31:26.850168,42.61,13.732785,-0.002636491424507565,-0.02338022115155219,0.09665483728461309,40.106058693909645,-88.23529758782387,76.200527287817
2024-09-23 10:31:26.892826,42.61,13.732873,-0.002636491424507565,-0.023479709566915436,0.09705279702197278,36.09446859390736,-92.24360919585227,84.22370748782159
2024-09-23 10:31:26.934913,42.61,13.732873,-0.003382661564999035,-0.023778180888911878,0.09705279702197278,36.09446859390736,-92.24360919585227,84.22370748782159
2024-09-23 10:31:26.946381,42.61,13.732873,-0.003382661564999035,-0.023778180888911878,0.09675432418099966,40.106058693909645,-100.26678939585686,76.200527287817
2024-09-23 10:31:26.989780,42.61,13.732924,-0.003233425524256645,-0.023280723622328886,0.09670458680871308,36.09446859390736,-104.27510100388527,76.200527287817
2024-09-23 10:31:27.032680,42.61,13.732924,-0.003233425524256645,-0.023280723622328886,0.09670458680871308,36.09446859390736,-104.27510100388527,72.1922225099802
2024-09-23 10:31:27.084842,42.61,13.732975,-0.0033329230534799477,-0.02303200030545576,0.09670458680871308,36.09446859390736,-104.27510100388527,72.1922225099802
2024-09-23 10:31:27.096432,42.61,13.732975,-0.0033329230534799477,-0.02303200030545576,0.09670458680871308,44.11764879391193,-100.26678939585686,72.1922225099802
2024-09-23 10:31:27.128697,42.61,13.732975,-0.0033329230534799477,-0.02303200030545576,0.09670458680871308,44.11764879391193,-100.26678939585686,76.200527287817
2024-09-23 10:31:27.140724,42.61,13.733026,-0.0030344509719951677,-0.02367869399252531,0.09690356060148622,48.12595698684454,-100.26678939585686,76.200527287817
2024-09-23 10:31:27.183305,42.61,13.733076,-0.0032831742888682963,-0.02362894446842532,0.09690356060148622,48.12595698684454,-104.27510100388527,76.200527287817
2024-09-23 10:31:27.194972,42.61,13.733076,-0.0032831742888682963,-0.02362894446842532,0.0973015264147526,48.12595698684454,-104.27510100388527,76.200527287817
2024-09-23 10:31:27.228099,42.61,13.733076,-0.0032831742888682963,-0.02362894446842532,0.0973015264147526,40.106058693909645,-100.26678939585686,76.200527287817
2024-09-23 10:31:27.239237,42.61,13.733127,-0.003233425524256645,-0.024076653729884996,0.0973015264147526,40.106058693909645,-100.26678939585686,76.200527287817
2024-09-23 10:31:27.281626,42.61,13.733214,-0.0029349636958644295,-0.024076653729884996,0.09695331012558621,40.106058693909645,-100.26678939585686,76.200527287817
2024-09-23 10:31:27.324340,42.61,13.733214,-0.0029349636958644295,-0.02352945757203875,0.09755024973162574,40.106058693909645,-100.26678939585686,76.200527287817
2024-09-23 10:31:27.336449,42.61,13.733311,-0.0029349636958644295,-0.02352945757203875,0.09755024973162574,40.106058693909645,-100.26678939585686,84.22370748782159
2024-09-23 10:31:27.379328,42.61,13.733311,-0.003482159473966507,-0.023429960042815445,0.09675432418099966,40.106058693909645,-100.26678939585686,84.22370748782159
2024-09-23 10:31:27.422111,42.61,13.733311,-0.003482159473966507,-0.023429960042815445,0.09675432418099966,44.11764879391193,-100.26678939585686,84.22370748782159
2024-09-23 10:31:27.433821,42.61,13.733363,-0.0031836870127375577,-0.023728432883788564,0.09675432418099966,44.11764879391193,-104.27510100388527,76.200527287817
2024-09-23 10:31:27.477632,42.61,13.733363,-0.0031836870127375577,-0.023728432883788564,0.09650560086412653,40.106058693909645,-104.27510100388527,76.200527287817
2024-09-23 10:31:27.519500,42.61,13.733363,-0.0031836870127375577,-0.023728432883788564,0.09650560086412653,40.106058693909645,-104.27510100388527,72.1922225099802
2024-09-23 10:31:27.530823,42.61,13.733413,-0.0030344509719951677,-0.02303200030545576,0.09675432418099966,40.106058693909645,-104.27510100388527,72.1922225099802
2024-09-23 10:31:27.573174,42.61,13.733464,-0.0033329230534799477,-0.02303200030545576,0.09675432418099966,40.106058693909645,-92.24360919585227,76.200527287817
2024-09-23 10:31:27.585393,42.61,13.733464,-0.0033329230534799477,-0.023579196463302005,0.09675432418099966,40.106058693909645,-92.24360919585227,76.200527287817
2024-09-23 10:31:27.617899,42.61,13.733464,-0.0033329230534799477,-0.023579196463302005,0.09640611396773996,40.106058693909645,-92.24360919585227,76.200527287817
2024-09-23 10:31:27.630156,42.61,13.733515,-0.0034324103296106863,-0.023579196463302005,0.09640611396773996,40.106058693909645,-100.26678939585686,80.21211738781929
2024-09-23 10:31:27.673129,42.3,13.733605,-0.0034324103296106863,-0.023230986250042305,0.09680407370509965,40.106058693909645,-104.27510100388527,80.21211738781929
2024-09-23 10:31:27.715426,42.3,13.733605,-0.0029349636958644295,-0.022982261414192504,0.09665483728461309,40.106058693909645,-104.27510100388527,80.21211738781929
2024-09-23 10:31:27.727751,42.3,13.733605,-0.0029349636958644295,-0.022982261414192504,0.09665483728461309,28.07457030097246,-104.27510100388527,76.200527287817
2024-09-23 10:31:27.770284,42.3,13.733702,-0.0027359787006383035,-0.02313149783467906,0.09695331012558621,44.11764879391193,-100.26678939585686,76.200527287817
2024-09-23 10:31:27.811992,42.3,13.733753,-0.0027359787006383035,-0.02313149783467906,0.09695331012558621,44.11764879391193,-100.26678939585686,80.21211738781929
2024-09-23 10:31:27.823283,42.3,13.733753,-0.0026862297461545674,-0.023429960042815445,0.09645586349183995,44.11764879391193,-100.26678939585686,80.21211738781929
2024-09-23 10:31:27.866775,42.3,13.733804,-0.0035318979854855937,-0.02352945757203875,0.09725178296655933,44.11764879391193,-100.26678939585686,84.22370748782159
2024-09-23 10:31:27.909636,42.3,13.733804,-0.0035318979854855937,-0.02352945757203875,0.09725178296655933,40.106058693909645,-96.25519929585457,84.22370748782159
2024-09-23 10:31:27.921451,42.3,13.733854,-0.003631395514708897,-0.023280723622328886,0.09725178296655933,40.106058693909645,-96.25519929585457,84.22370748782159
2024-09-23 10:31:27.963161,42.3,13.733905,-0.003631395514708897,-0.023280723622328886,0.09725178296655933,44.11764879391193,-96.25519929585457,80.21211738781929
2024-09-23 10:31:27.975617,42.3,13.733905,-0.0037308827908396356,-0.023280723622328886,0.09725178296655933,44.11764879391193,-96.25519929585457,80.21211738781929
2024-09-23 10:31:28.007741,42.3,13.733905,-0.0037308827908396356,-0.02352945757203875,0.09720203344245934,40.106058693909645,-96.25519929585457,80.21211738781929
2024-09-23 10:31:28.018800,42.3,13.733994,-0.0037308827908396356,-0.02352945757203875,0.09720203344245934,40.106058693909645,-96.25519929585457,80.21211738781929
2024-09-23 10:31:28.061277,42.3,13.733994,-0.0029847020175114316,-0.023230986250042305,0.09670458680871308,40.106058693909645,-96.25519929585457,80.21211738781929
2024-09-23 10:31:28.073060,42.3,13.733994,-0.0029847020175114316,-0.023230986250042305,0.09670458680871308,40.106058693909645,-96.25519929585457,80.21211738781929
2024-09-23 10:31:28.105863,42.3,13.734045,-0.0028852147413806935,-0.02338022115155219,0.09670458680871308,40.106058693909645,-96.25519929585457,80.21211738781929
2024-09-23 10:31:28.117663,42.3,13.734045,-0.0028852147413806935,-0.02338022115155219,0.09710254654607277,36.09446859390736,-88.23529758782387,80.21211738781929
2024-09-23 10:31:28.159969,42.3,13.734096,-0.0036811340262279837,-0.023579196463302005,0.09695331012558621,36.09446859390736,-88.23529758782387,84.22370748782159
2024-09-23 10:31:28.202033,42.3,13.734096,-0.0036811340262279837,-0.023579196463302005,0.09695331012558621,36.09446859390736,-96.25519929585457,76.200527287817
2024-09-23 10:31:28.213240,42.3,13.734147,-0.0032831742888682963,-0.023429960042815445,0.09680407370509965,36.09446859390736,-96.25519929585457,76.200527287817
2024-09-23 10:31:28.255460,42.3,13.734197,-0.0035816467500972456,-0.023429960042815445,0.09680407370509965,40.106058693909645,-96.25519929585457,76.200527287817
2024-09-23 10:31:28.267061,42.3,13.734197,-0.0035816467500972456,-0.023230986250042305,0.09680407370509965,40.106058693909645,-96.25519929585457,76.200527287817
2024-09-23 10:31:28.299508,42.3,13.734197,-0.0035816467500972456,-0.023230986250042305,0.09645586349183995,44.11764879391193,-96.25519929585457,76.200527287817
2024-09-23 10:31:28.311322,42.3,13.734248,-0.0033329230534799477,-0.023230986250042305,0.09645586349183995,44.11764879391193,-96.25519929585457,80.21211738781929
2024-09-23 10:31:28.354656,42.3,13.734248,-0.0033329230534799477,-0.02362894446842532,0.09720203344245934,36.09446859390736,-100.26678939585686,80.21211738781929
2024-09-23 10:31:28.366128,42.3,13.734335,-0.0033329230534799477,-0.02362894446842532,0.09720203344245934,36.09446859390736,-100.26678939585686,80.21211738781929
2024-09-23 10:31:28.398560,42.3,13.734335,-0.003482159473966507,-0.023778180888911878,0.09745075675933246,36.09446859390736,-100.26678939585686,80.21211738781929
2024-09-23 10:31:28.410293,42.3,13.734335,-0.003482159473966507,-0.023778180888911878,0.09745075675933246,36.09446859390736,-100.26678939585686,80.21211738781929
2024-09-23 10:31:28.452681,42.3,13.734387,-0.0031339382481259063,-0.023579196463302005,0.09655535038822652,36.09446859390736,-104.27510100388527,80.21211738781929
2024-09-23 10:31:28.496328,42.3,13.734437,-0.0035318979854855937,-0.023579196463302005,0.09655535038822652,36.09446859390736,-104.27510100388527,76.200527287817
2024-09-23 10:31:28.508069,42.3,13.734437,-0.0035318979854855937,-0.023429960042815445,0.09764974270391902,40.106058693909645,-104.27510100388527,76.200527287817
2024-09-23 10:31:28.550858,42.3,13.734488,-0.003382661564999035,-0.02313149783467906,0.09695331012558621,40.106058693909645,-100.26678939585686,76.200527287817
2024-09-23 10:31:28.593296,42.3,13.734488,-0.003382661564999035,-0.02313149783467906,0.09695331012558621,32.08287849390507,-96.25519929585457,80.21211738781929
2024-09-23 10:31:28.605431,42.3,13.734539,-0.0030841997366068195,-0.02308174982955575,0.09695331012558621,32.08287849390507,-96.25519929585457,80.21211738781929
2024-09-23 10:31:28.648962,42.3,13.734589,-0.0028852147413806935,-0.02308174982955575,0.09720203344245934,32.08287849390507,-100.26678939585686,80.21211738781929
2024-09-23 10:31:28.691251,42.6,13.734589,-0.0028852147413806935,-0.023827930413011865,0.09675432418099966,48.12595698684454,-100.26678939585686,80.21211738781929
2024-09-23 10:31:28.702374,42.6,13.734676,-0.0028852147413806935,-0.023827930413011865,0.09675432418099966,48.12595698684454,-92.24360919585227,80.21211738781929
2024-09-23 10:31:28.745354,42.6,13.734676,-0.0028354659767690416,-0.02352945757203875,0.09764974270391902,48.12595698684454,-96.25519929585457,80.21211738781929
2024-09-23 10:31:28.788037,42.6,13.734728,-0.003482159473966507,-0.02412639262114825,0.09764974270391902,48.12595698684454,-96.25519929585457,80.21211738781929
2024-09-23 10:31:28.799113,42.6,13.734728,-0.003482159473966507,-0.02412639262114825,0.09665483728461309,36.09446859390736,-104.27510100388527,80.21211738781929
2024-09-23 10:31:28.841617,42.6,13.734778,-0.003382661564999035,-0.022982261414192504,0.09725178296655933,36.09446859390736,-104.27510100388527,84.22370748782159
2024-09-23 10:31:28.884068,42.6,13.734778,-0.003382661564999035,-0.022982261414192504,0.09725178296655933,36.09446859390736,-88.23529758782387,84.22370748782159
2024-09-23 10:31:28.895694,42.6,13.734829,-0.003382661564999035,-0.022982261414192504,0.09725178296655933,36.09446859390736,-88.23529758782387,80.21211738781929
2024-09-23 10:31:28.937905,42.6,13.734829,-0.0034324103296106863,-0.023579196463302005,0.09725178296655933,36.09446859390736,-88.23529758782387,80.21211738781929
2024-09-23 10:31:28.979630,42.6,13.734829,-0.0034324103296106863,-0.023579196463302005,0.09710254654607277,36.09446859390736,-88.23529758782387,80.21211738781929
2024-09-23 10:31:29.035203,42.6,13.73488,-0.0030344509719951677,-0.023579196463302005,0.09710254654607277,40.106058693909645,-88.23529758782387,76.200527287817
2024-09-23 10:31:29.047459,42.6,13.73488,-0.0030344509719951677,-0.023728432883788564,0.09710254654607277,40.106058693909645,-88.23529758782387,76.200527287817
2024-09-23 10:31:29.078988,42.6,13.73488,-0.0030344509719951677,-0.023728432883788564,0.09710254654607277,36.09446859390736,-88.23529758782387,76.200527287817
2024-09-23 10:31:29.131888,42.6,13.73493,-0.003233425524256645,-0.023728432883788564,0.09710254654607277,36.09446859390736,-92.24360919585227,76.200527287817
2024-09-23 10:31:29.144031,42.6,13.73493,-0.003233425524256645,-0.023579196463302005,0.0973015264147526,36.09446859390736,-92.24360919585227,76.200527287817
2024-09-23 10:31:29.176338,42.6,13.73493,-0.003233425524256645,-0.023579196463302005,0.0973015264147526,36.09446859390736,-92.24360919585227,76.200527287817
2024-09-23 10:31:29.188309,42.6,13.735017,-0.0032831742888682963,-0.02367869399252531,0.0973015264147526,36.09446859390736,-92.24360919585227,88.23529758782387
2024-09-23 10:31:29.230422,42.6,13.735069,-0.0032831742888682963,-0.02367869399252531,0.09640611396773996,44.11764879391193,-96.25519929585457,80.21211738781929
2024-09-23 10:31:29.241568,42.6,13.735069,-0.003631395514708897,-0.02367869399252531,0.09640611396773996,44.11764879391193,-96.25519929585457,80.21211738781929
2024-09-23 10:31:29.274447,42.6,13.735069,-0.003631395514708897,-0.024076653729884996,0.09650560086412653,44.11764879391193,-96.25519929585457,80.21211738781929
2024-09-23 10:31:29.285898,42.6,13.735214,-0.003631395514708897,-0.024076653729884996,0.09650560086412653,36.09446859390736,-92.24360919585227,80.21211738781929
2024-09-23 10:31:29.328329,42.6,13.735214,-0.0030841997366068195,-0.023579196463302005,0.09670458680871308,32.08287849390507,-96.25519929585457,80.21211738781929
2024-09-23 10:31:29.340323,42.6,13.735214,-0.0030841997366068195,-0.023579196463302005,0.09670458680871308,32.08287849390507,-96.25519929585457,72.1922225099802
2024-09-23 10:31:29.372116,42.6,13.735311,-0.003482159473966507,-0.023579196463302005,0.09670458680871308,32.08287849390507,-96.25519929585457,72.1922225099802
2024-09-23 10:31:29.383437,42.6,13.735311,-0.003482159473966507,-0.023827930413011865,0.09695331012558621,32.08287849390507,-100.26678939585686,72.1922225099802
2024-09-23 10:31:29.426525,42.6,13.735311,-0.003482159473966507,-0.023827930413011865,0.09695331012558621,32.08287849390507,-100.26678939585686,76.200527287817
2024-09-23 10:31:29.469406,42.6,13.735362,-0.004029355252068585,-0.023827930413011865,0.09695331012558621,32.08287849390507,-100.26678939585686,76.200527287817
2024-09-23 10:31:29.480576,42.6,13.735362,-0.004029355252068585,-0.023429960042815445,0.09715228999426605,40.106058693909645,-108.28669110388756,76.200527287817
2024-09-23 10:31:29.523285,42.6,13.735413,-0.0036811340262279837,-0.02308174982955575,0.09715228999426605,40.106058693909645,-108.28669110388756,80.21211738781929
2024-09-23 10:31:29.535107,42.6,13.735413,-0.0036811340262279837,-0.02308174982955575,0.09715228999426605,32.08287849390507,-108.28669110388756,80.21211738781929
2024-09-23 10:31:29.567565,42.6,13.735413,-0.0036811340262279837,-0.02308174982955575,0.09715228999426605,32.08287849390507,-100.26678939585686,76.200527287817
2024-09-23 10:31:29.579184,42.6,13.735463,-0.003233425524256645,-0.024026904205785005,0.0970030596496862,32.08287849390507,-100.26678939585686,76.200527287817
2024-09-23 10:31:29.621939,42.6,13.735514,-0.0034324103296106863,-0.024026904205785005,0.0970030596496862,40.106058693909645,-96.25519929585457,80.21211738781929
2024-09-23 10:31:29.633705,42.6,13.735514,-0.0034324103296106863,-0.02362894446842532,0.0970030596496862,40.106058693909645,-96.25519929585457,80.21211738781929
2024-09-23 10:31:29.666204,42.6,13.735514,-0.0034324103296106863,-0.02362894446842532,0.0966050877605131,40.106058693909645,-100.26678939585686,80.21211738781929
2024-09-23 10:31:29.677806,42.6,13.735602,-0.0030344509719951677,-0.02362894446842532,0.0966050877605131,40.106058693909645,-100.26678939585686,80.21211738781929
2024-09-23 10:31:29.719796,42.39,13.7357,-0.0030344509719951677,-0.023479709566915436,0.09725178296655933,44.11764879391193,-96.25519929585457,80.21211738781929
2024-09-23 10:31:29.762891,42.39,13.7357,-0.0037308827908396356,-0.023429960042815445,0.09705279702197278,44.11764879391193,-96.25519929585457,80.21211738781929
2024-09-23 10:31:29.774307,42.39,13.7357,-0.0037308827908396356,-0.023429960042815445,0.09705279702197278,36.09446859390736,-100.26678939585686,72.1922225099802
2024-09-23 10:31:29.816854,42.39,13.735752,-0.0035318979854855937,-0.023877669304275123,0.0973512698629459,36.09446859390736,-104.27510100388527,72.1922225099802
2024-09-23 10:31:29.859665,42.39,13.735802,-0.0035318979854855937,-0.023877669304275123,0.0973512698629459,36.09446859390736,-104.27510100388527,72.1922225099802
2024-09-23 10:31:29.870666,42.39,13.735802,-0.0030344509719951677,-0.02367869399252531,0.09705279702197278,52.137550501942634,-104.27510100388527,72.1922225099802
2024-09-23 10:31:29.914189,42.39,13.735853,-0.003382661564999035,-0.023927417309398437,0.09759999317981902,52.137550501942634,-92.24360919585227,76.200527287817
2024-09-23 10:31:29.956976,42.39,13.735853,-0.003382661564999035,-0.023927417309398437,0.09759999317981902,36.09446859390736,-100.26678939585686,76.200527287817
2024-09-23 10:31:29.968057,42.39,13.735904,-0.0035318979854855937,-0.02313149783467906,0.09759999317981902,36.09446859390736,-100.26678939585686,80.21211738781929
2024-09-23 10:31:30.010290,42.39,13.735954,-0.0035318979854855937,-0.02313149783467906,0.09685382322919964,32.08287849390507,-96.25519929585457,80.21211738781929
2024-09-23 10:31:30.022309,42.39,13.735954,-0.0038303700669703737,-0.02313149783467906,0.09685382322919964,32.08287849390507,-96.25519929585457,80.21211738781929
2024-09-23 10:31:30.055011,42.39,13.735954,-0.0038303700669703737,-0.024076653729884996,0.09690356060148622,32.08287849390507,-96.25519929585457,80.21211738781929
2024-09-23 10:31:30.066305,42.39,13.736041,-0.0038303700669703737,-0.024076653729884996,0.09690356060148622,40.106058693909645,-100.26678939585686,84.22370748782159
2024-09-23 10:31:30.108578,42.39,13.736041,-0.0034324103296106863,-0.023429960042815445,0.09645586349183995,36.09446859390736,-100.26678939585686,84.22370748782159
2024-09-23 10:31:30.120702,42.39,13.736041,-0.0034324103296106863,-0.023429960042815445,0.09645586349183995,36.09446859390736,-100.26678939585686,80.21211738781929
2024-09-23 10:31:30.153975,42.39,13.736093,-0.003780631555451287,-0.02338022115155219,0.09645586349183995,36.09446859390736,-100.26678939585686,80.21211738781929
2024-09-23 10:31:30.165374,42.39,13.736093,-0.003780631555451287,-0.02338022115155219,0.09675432418099966,36.09446859390736,-100.26678939585686,80.21211738781929
2024-09-23 10:31:30.207872,42.39,13.736143,-0.0034324103296106863,-0.02367869399252531,0.09740101331113918,36.09446859390736,-100.26678939585686,72.1922225099802
2024-09-23 10:31:30.250559,42.39,13.736194,-0.0034324103296106863,-0.02367869399252531,0.09740101331113918,36.09446859390736,-96.25519929585457,80.21211738781929
2024-09-23 10:31:30.262411,42.39,13.736194,-0.0035318979854855937,-0.02293251340906919,0.09715228999426605,36.09446859390736,-96.25519929585457,80.21211738781929
2024-09-23 10:31:30.305232,42.39,13.736245,-0.003382661564999035,-0.023330473146428877,0.09715228999426605,36.09446859390736,-92.24360919585227,72.1922225099802
2024-09-23 10:31:30.347480,42.39,13.736245,-0.003382661564999035,-0.023330473146428877,0.09725178296655933,28.07457030097246,-92.24360919585227,72.1922225099802
2024-09-23 10:31:30.358868,42.39,13.736295,-0.004128842528199323,-0.023330473146428877,0.09725178296655933,28.07457030097246,-108.28669110388756,76.200527287817
2024-09-23 10:31:30.401955,42.39,13.736295,-0.004128842528199323,-0.02352945757203875,0.09750050628343246,36.09446859390736,-100.26678939585686,80.21211738781929
2024-09-23 10:31:30.413753,42.39,13.736383,-0.004128842528199323,-0.02352945757203875,0.09750050628343246,36.09446859390736,-100.26678939585686,80.21211738781929
2024-09-23 10:31:30.445964,42.39,13.736383,-0.0031836870127375577,-0.02352945757203875,0.09750050628343246,36.09446859390736,-100.26678939585686,80.21211738781929
2024-09-23 10:31:30.498516,42.39,13.736383,-0.0031836870127375577,-0.022982261414192504,0.09715228999426605,36.09446859390736,-100.26678939585686,76.200527287817
2024-09-23 10:31:30.542091,42.39,13.736434,-0.0030344509719951677,-0.022982261414192504,0.09715228999426605,36.09446859390736,-100.26678939585686,76.200527287817
2024-09-23 10:31:30.553280,42.39,13.736434,-0.0030344509719951677,-0.023728432883788564,0.09750050628343246,36.09446859390736,-108.28669110388756,76.200527287817
2024-09-23 10:31:30.595865,42.39,13.736485,-0.003233425524256645,-0.023728432883788564,0.09685382322919964,36.09446859390736,-108.28669110388756,76.200527287817
2024-09-23 10:31:30.638508,42.39,13.736485,-0.003233425524256645,-0.023728432883788564,0.09685382322919964,40.106058693909645,-108.28669110388756,76.200527287817
2024-09-23 10:31:30.650518,42.39,13.736535,-0.0032831742888682963,-0.023728432883788564,0.09685382322919964,40.106058693909645,-100.26678939585686,76.200527287817
2024-09-23 10:31:30.694150,42.39,13.736586,-0.0032831742888682963,-0.023728432883788564,0.09750050628343246,32.08287849390507,-96.25519929585457,76.200527287817
2024-09-23 10:31:30.737094,42.33,13.736586,-0.0032831742888682963,-0.023230986250042305,0.09655535038822652,32.08287849390507,-96.25519929585457,76.200527287817
2024-09-23 10:31:30.748479,42.33,13.736677,-0.0032831742888682963,-0.023230986250042305,0.09655535038822652,36.09446859390736,-100.26678939585686,80.21211738781929
2024-09-23 10:31:30.791751,42.33,13.736677,-0.0031339382481259063,-0.024325377046758124,0.09705279702197278,36.09446859390736,-96.25519929585457,84.22370748782159
2024-09-23 10:31:30.834212,42.33,13.736773,-0.003382661564999035,-0.024325377046758124,0.09705279702197278,36.09446859390736,-96.25519929585457,84.22370748782159
2024-09-23 10:31:30.845707,42.33,13.736773,-0.003382661564999035,-0.023280723622328886,0.09725178296655933,36.09446859390736,-96.25519929585457,84.22370748782159
2024-09-23 10:31:30.939141,42.33,13.736824,-0.0029847020175114316,-0.023728432883788564,0.0970030596496862,44.11764879391193,-96.25519929585457,80.21211738781929
2024-09-23 10:31:30.982541,42.33,13.736875,-0.0029847020175114316,-0.023728432883788564,0.0970030596496862,44.11764879391193,-100.26678939585686,76.200527287817
2024-09-23 10:31:30.994112,42.33,13.736875,-0.004079093383843503,-0.023230986250042305,0.09715228999426605,44.11764879391193,-100.26678939585686,76.200527287817
2024-09-23 10:31:31.037021,42.33,13.736925,-0.0030841997366068195,-0.02338022115155219,0.09715228999426605,36.09446859390736,-96.25519929585457,80.21211738781929
2024-09-23 10:31:31.079684,42.33,13.736925,-0.0030841997366068195,-0.02338022115155219,0.09680407370509965,36.09446859390736,-100.26678939585686,80.21211738781929
2024-09-23 10:31:31.091524,42.33,13.736976,-0.003382661564999035,-0.02338022115155219,0.09680407370509965,36.09446859390736,-100.26678939585686,72.1922225099802
2024-09-23 10:31:31.126363,42.33,13.736976,-0.003382661564999035,-0.023429960042815445,0.0973015264147526,36.09446859390736,-100.26678939585686,72.1922225099802
2024-09-23 10:31:31.137954,42.33,13.737065,-0.003382661564999035,-0.023429960042815445,0.0973015264147526,44.11764879391193,-92.24360919585227,76.200527287817
2024-09-23 10:31:31.180704,42.33,13.737065,-0.0037308827908396356,-0.023330473146428877,0.09665483728461309,28.07457030097246,-96.25519929585457,76.200527287817
2024-09-23 10:31:31.192947,42.33,13.737065,-0.0037308827908396356,-0.023330473146428877,0.09665483728461309,28.07457030097246,-96.25519929585457,80.21211738781929
2024-09-23 10:31:31.226959,42.33,13.737163,-0.0036811340262279837,-0.023479709566915436,0.09665483728461309,28.07457030097246,-96.25519929585457,80.21211738781929
2024-09-23 10:31:31.238762,42.33,13.737163,-0.0036811340262279837,-0.023479709566915436,0.0973015264147526,32.08287849390507,-100.26678939585686,80.21211738781929
2024-09-23 10:31:31.271183,42.33,13.737163,-0.0036811340262279837,-0.023479709566915436,0.0973015264147526,32.08287849390507,-100.26678939585686,84.22370748782159
2024-09-23 10:31:31.283004,42.33,13.737214,-0.0030841997366068195,-0.023827930413011865,0.0966050877605131,40.106058693909645,-100.26678939585686,84.22370748782159
2024-09-23 10:31:31.325420,42.33,13.737266,-0.003631395514708897,-0.023827930413011865,0.0966050877605131,40.106058693909645,-100.26678939585686,76.200527287817
2024-09-23 10:31:31.337270,42.33,13.737266,-0.003631395514708897,-0.023728432883788564,0.09685382322919964,40.106058693909645,-100.26678939585686,76.200527287817
2024-09-23 10:31:31.371084,42.33,13.737266,-0.003631395514708897,-0.023728432883788564,0.09685382322919964,28.07457030097246,-100.26678939585686,76.200527287817
2024-09-23 10:31:31.382951,42.33,13.737316,-0.003631395514708897,-0.023579196463302005,0.09685382322919964,28.07457030097246,-100.26678939585686,80.21211738781929
2024-09-23 10:31:31.425045,42.33,13.737367,-0.0028852147413806935,-0.023579196463302005,0.0970030596496862,24.06297849342227,-104.27510100388527,80.21211738781929
2024-09-23 10:31:31.467874,42.33,13.737367,-0.0028852147413806935,-0.02367869399252531,0.0970030596496862,24.06297849342227,-104.27510100388527,80.21211738781929
2024-09-23 10:31:31.521009,42.33,13.737367,-0.0028852147413806935,-0.02367869399252531,0.09675432418099966,44.11764879391193,-96.25519929585457,76.200527287817
2024-09-23 10:31:31.532164,42.33,13.737455,-0.003233425524256645,-0.02367869399252531,0.09675432418099966,44.11764879391193,-96.25519929585457,76.200527287817
2024-09-23 10:31:31.564662,42.33,13.737455,-0.003233425524256645,-0.023479709566915436,0.09675432418099966,44.11764879391193,-96.25519929585457,76.200527287817
2024-09-23 10:31:31.575660,42.33,13.737507,-0.003233425524256645,-0.023479709566915436,0.09695331012558621,32.08287849390507,-88.23529758782387,76.200527287817
2024-09-23 10:31:31.618121,42.33,13.737507,-0.0035816467500972456,-0.023280723622328886,0.0973015264147526,36.09446859390736,-88.23529758782387,76.200527287817
2024-09-23 10:31:31.629122,42.33,13.737507,-0.0035816467500972456,-0.023280723622328886,0.0973015264147526,36.09446859390736,-100.26678939585686,76.200527287817
2024-09-23 10:31:31.661092,42.33,13.737557,-0.0035816467500972456,-0.023280723622328886,0.0973015264147526,36.09446859390736,-100.26678939585686,76.200527287817
2024-09-23 10:31:31.673031,42.33,13.737557,-0.003233425524256645,-0.024275627522658133,0.0973512698629459,40.106058693909645,-96.25519929585457,76.200527287817
2024-09-23 10:31:31.715404,42.33,13.737608,-0.0035318979854855937,-0.02412639262114825,0.0973512698629459,40.106058693909645,-96.25519929585457,84.22370748782159
2024-09-23 10:31:31.727412,42.33,13.737608,-0.0035318979854855937,-0.02412639262114825,0.09745075675933246,36.09446859390736,-96.25519929585457,84.22370748782159
2024-09-23 10:31:31.759555,42.41,13.737608,-0.0035318979854855937,-0.02412639262114825,0.09745075675933246,36.09446859390736,-96.25519929585457,84.22370748782159
2024-09-23 10:31:31.770789,42.41,13.737701,-0.0031836870127375577,-0.023479709566915436,0.0973015264147526,36.09446859390736,-96.25519929585457,76.200527287817
2024-09-23 10:31:31.813675,42.41,13.737751,-0.003382661564999035,-0.023479709566915436,0.0973015264147526,36.09446859390736,-100.26678939585686,80.21211738781929
2024-09-23 10:31:31.825587,42.41,13.737751,-0.003382661564999035,-0.02313149783467906,0.0973015264147526,36.09446859390736,-100.26678939585686,80.21211738781929
2024-09-23 10:31:31.857592,42.41,13.737751,-0.003382661564999035,-0.02313149783467906,0.09710254654607277,44.11764879391193,-100.26678939585686,80.21211738781929
2024-09-23 10:31:31.869174,42.41,13.737802,-0.0031339382481259063,-0.02313149783467906,0.09710254654607277,44.11764879391193,-96.25519929585457,84.22370748782159
2024-09-23 10:31:31.911132,42.41,13.737802,-0.0031339382481259063,-0.023579196463302005,0.09750050628343246,40.106058693909645,-104.27510100388527,80.21211738781929
2024-09-23 10:31:31.923105,42.41,13.737894,-0.0031339382481259063,-0.023579196463302005,0.09750050628343246,40.106058693909645,-104.27510100388527,80.21211738781929
2024-09-23 10:31:31.955321,42.41,13.737894,-0.0031836870127375577,-0.023579196463302005,0.09750050628343246,40.106058693909645,-104.27510100388527,80.21211738781929
2024-09-23 10:31:31.966628,42.41,13.737894,-0.0031836870127375577,-0.023579196463302005,0.09725178296655933,40.106058693909645,-100.26678939585686,80.21211738781929
2024-09-23 10:31:32.008870,42.41,13.737945,-0.003631395514708897,-0.023280723622328886,0.09764974270391902,40.106058693909645,-100.26678939585686,80.21211738781929
2024-09-23 10:31:32.019942,42.41,13.737945,-0.003631395514708897,-0.023280723622328886,0.09764974270391902,44.11764879391193,-92.24360919585227,80.21211738781929
2024-09-23 10:31:32.051984,42.41,13.737945,-0.003631395514708897,-0.023280723622328886,0.09764974270391902,44.11764879391193,-92.24360919585227,80.21211738781929
2024-09-23 10:31:32.063566,42.41,13.737996,-0.0027359787006383035,-0.023181236725942318,0.09665483728461309,40.106058693909645,-92.24360919585227,80.21211738781929
2024-09-23 10:31:32.106150,42.41,13.738047,-0.0031339382481259063,-0.023579196463302005,0.09665483728461309,40.106058693909645,-92.24360919585227,76.200527287817
2024-09-23 10:31:32.117922,42.41,13.738047,-0.0031339382481259063,-0.023579196463302005,0.09675432418099966,40.106058693909645,-92.24360919585227,76.200527287817
2024-09-23 10:31:32.150203,42.41,13.738047,-0.0031339382481259063,-0.023579196463302005,0.09675432418099966,32.08287849390507,-96.25519929585457,76.200527287817
2024-09-23 10:31:32.162847,42.41,13.738097,-0.0030841997366068195,-0.02367869399252531,0.09675432418099966,32.08287849390507,-96.25519929585457,80.21211738781929
2024-09-23 10:31:32.205243,42.41,13.738148,-0.0030841997366068195,-0.02367869399252531,0.09665483728461309,32.08287849390507,-92.24360919585227,96.25519929585457
2024-09-23 10:31:32.217681,42.41,13.738148,-0.003233425524256645,-0.02367869399252531,0.09665483728461309,32.08287849390507,-92.24360919585227,96.25519929585457
2024-09-23 10:31:32.249869,42.41,13.738148,-0.003233425524256645,-0.024076653729884996,0.09759999317981902,36.09446859390736,-92.24360919585227,96.25519929585457
2024-09-23 10:31:32.261720,42.41,13.738235,-0.003233425524256645,-0.024076653729884996,0.09759999317981902,36.09446859390736,-100.26678939585686,84.22370748782159
2024-09-23 10:31:32.305409,42.41,13.738235,-0.003631395514708897,-0.023579196463302005,0.09710254654607277,36.09446859390736,-100.26678939585686,84.22370748782159
2024-09-23 10:31:32.348368,42.41,13.738287,-0.002785727465249955,-0.02362894446842532,0.09665483728461309,36.09446859390736,-100.26678939585686,84.22370748782159
2024-09-23 10:31:32.359763,42.41,13.738287,-0.002785727465249955,-0.02362894446842532,0.09665483728461309,40.106058693909645,-96.25519929585457,84.22370748782159
2024-09-23 10:31:32.402519,42.41,13.738337,-0.0030841997366068195,-0.023579196463302005,0.09695331012558621,40.106058693909645,-96.25519929585457,88.23529758782387
2024-09-23 10:31:32.446845,42.41,13.738388,-0.0032831742888682963,-0.023579196463302005,0.09695331012558621,40.106058693909645,-100.26678939585686,84.22370748782159
2024-09-23 10:31:32.458160,42.41,13.738388,-0.0032831742888682963,-0.02338022115155219,0.09710254654607277,40.106058693909645,-100.26678939585686,84.22370748782159
2024-09-23 10:31:32.489755,42.41,13.738388,-0.0032831742888682963,-0.02338022115155219,0.09710254654607277,36.09446859390736,-100.26678939585686,84.22370748782159
2024-09-23 10:31:32.501094,42.41,13.738439,-0.0030841997366068195,-0.02338022115155219,0.09710254654607277,36.09446859390736,-100.26678939585686,76.200527287817
2024-09-23 10:31:32.544410,42.41,13.738439,-0.0030841997366068195,-0.02338022115155219,0.09670458680871308,36.09446859390736,-92.24360919585227,80.21211738781929
2024-09-23 10:31:32.556482,42.41,13.738489,-0.003233425524256645,-0.02338022115155219,0.09670458680871308,36.09446859390736,-92.24360919585227,80.21211738781929
2024-09-23 10:31:32.588745,42.41,13.738489,-0.003233425524256645,-0.023330473146428877,0.09670458680871308,36.09446859390736,-92.24360919585227,80.21211738781929
2024-09-23 10:31:32.600442,42.41,13.738577,-0.003233425524256645,-0.023330473146428877,0.09755024973162574,40.106058693909645,-100.26678939585686,76.200527287817
2024-09-23 10:31:32.643252,42.41,13.738577,-0.003233425524256645,-0.023280723622328886,0.0973015264147526,28.07457030097246,-96.25519929585457,76.200527287817
2024-09-23 10:31:32.654960,42.41,13.738577,-0.003233425524256645,-0.023280723622328886,0.0973015264147526,28.07457030097246,-96.25519929585457,84.22370748782159
2024-09-23 10:31:32.687109,42.41,13.738628,-0.0032831742888682963,-0.023280723622328886,0.0973015264147526,28.07457030097246,-96.25519929585457,84.22370748782159
2024-09-23 10:31:32.698217,42.41,13.738628,-0.0032831742888682963,-0.023479709566915436,0.09740101331113918,36.09446859390736,-96.25519929585457,84.22370748782159
2024-09-23 10:31:32.740944,42.41,13.738679,-0.003382661564999035,-0.023579196463302005,0.09705279702197278,36.09446859390736,-96.25519929585457,76.200527287817
2024-09-23 10:31:32.753213,42.41,13.738679,-0.003382661564999035,-0.023579196463302005,0.09705279702197278,40.106058693909645,-96.25519929585457,76.200527287817
2024-09-23 10:31:32.786554,42.76,13.738729,-0.003382661564999035,-0.023579196463302005,0.09705279702197278,40.106058693909645,-92.24360919585227,80.21211738781929
2024-09-23 10:31:32.797919,42.76,13.738729,-0.0034324103296106863,-0.02338022115155219,0.09750050628343246,40.106058693909645,-92.24360919585227,80.21211738781929
2024-09-23 10:31:32.840364,42.76,13.73878,-0.003233425524256645,-0.023827930413011865,0.09750050628343246,44.11764879391193,-96.25519929585457,80.21211738781929
2024-09-23 10:31:32.883281,42.76,13.73878,-0.003233425524256645,-0.023827930413011865,0.09685382322919964,32.08287849390507,-96.25519929585457,80.21211738781929
2024-09-23 10:31:32.894607,42.76,13.73883,-0.0032831742888682963,-0.023827930413011865,0.09685382322919964,32.08287849390507,-96.25519929585457,76.200527287817
2024-09-23 10:31:32.937858,42.76,13.738918,-0.0032831742888682963,-0.023579196463302005,0.09690356060148622,28.07457030097246,-104.27510100388527,80.21211738781929
2024-09-23 10:31:32.980746,42.76,13.738918,-0.0034324103296106863,-0.02313149783467906,0.09655535038822652,28.07457030097246,-104.27510100388527,80.21211738781929
2024-09-23 10:31:32.991828,42.76,13.738918,-0.0034324103296106863,-0.02313149783467906,0.09655535038822652,32.08287849390507,-96.25519929585457,80.21211738781929
2024-09-23 10:31:33.033742,42.76,13.738969,-0.0028852147413806935,-0.023479709566915436,0.0973512698629459,36.09446859390736,-96.25519929585457,80.21211738781929
2024-09-23 10:31:33.045882,42.76,13.738969,-0.0028852147413806935,-0.023479709566915436,0.0973512698629459,36.09446859390736,-96.25519929585457,80.21211738781929
2024-09-23 10:31:33.078711,42.76,13.73902,-0.004029355252068585,-0.023479709566915436,0.0973512698629459,36.09446859390736,-96.25519929585457,80.21211738781929
2024-09-23 10:31:33.089738,42.76,13.73902,-0.004029355252068585,-0.02367869399252531,0.09745075675933246,32.08287849390507,-96.25519929585457,80.21211738781929
2024-09-23 10:31:33.131548,42.76,13.73907,-0.0033329230534799477,-0.023230986250042305,0.0970030596496862,32.08287849390507,-96.25519929585457,72.1922225099802
2024-09-23 10:31:33.175220,42.76,13.73907,-0.0033329230534799477,-0.023230986250042305,0.0970030596496862,40.106058693909645,-96.25519929585457,72.1922225099802
2024-09-23 10:31:33.186401,42.76,13.739121,-0.0029847020175114316,-0.023330473146428877,0.0970030596496862,40.106058693909645,-96.25519929585457,76.200527287817
2024-09-23 10:31:33.229030,42.76,13.739121,-0.0029847020175114316,-0.023330473146428877,0.0970030596496862,40.106058693909645,-88.23529758782387,80.21211738781929
2024-09-23 10:31:33.240276,42.76,13.739172,-0.0035816467500972456,-0.023330473146428877,0.0970030596496862,40.106058693909645,-88.23529758782387,80.21211738781929
2024-09-23 10:31:33.272227,42.76,13.739172,-0.0035816467500972456,-0.02338022115155219,0.09720203344245934,40.106058693909645,-88.23529758782387,80.21211738781929
2024-09-23 10:31:33.283469,42.76,13.739259,-0.0035816467500972456,-0.02338022115155219,0.09720203344245934,32.08287849390507,-96.25519929585457,80.21211738781929
2024-09-23 10:31:33.326509,42.76,13.739259,-0.0031836870127375577,-0.02313149783467906,0.09685382322919964,40.106058693909645,-96.25519929585457,80.21211738781929
2024-09-23 10:31:33.369072,42.76,13.739259,-0.0031836870127375577,-0.02313149783467906,0.09685382322919964,40.106058693909645,-100.26678939585686,80.21211738781929
2024-09-23 10:31:33.380711,42.76,13.73931,-0.003482159473966507,-0.023479709566915436,0.09650560086412653,40.106058693909645,-100.26678939585686,80.21211738781929
2024-09-23 10:31:33.423236,42.76,13.739361,-0.0033329230534799477,-0.023479709566915436,0.09650560086412653,40.106058693909645,-100.26678939585686,76.200527287817
2024-09-23 10:31:33.435412,42.76,13.739361,-0.0033329230534799477,-0.023479709566915436,0.09650560086412653,40.106058693909645,-100.26678939585686,76.200527287817
2024-09-23 10:31:33.468435,42.76,13.739361,-0.0033329230534799477,-0.023479709566915436,0.09725178296655933,40.106058693909645,-88.23529758782387,76.200527287817
2024-09-23 10:31:33.520705,42.76,13.739412,-0.0035318979854855937,-0.023579196463302005,0.09685382322919964,40.106058693909645,-88.23529758782387,84.22370748782159
2024-09-23 10:31:33.532688,42.76,13.739412,-0.0035318979854855937,-0.023579196463302005,0.09685382322919964,40.106058693909645,-88.23529758782387,84.22370748782159
2024-09-23 10:31:33.566873,42.76,13.739463,-0.0035318979854855937,-0.023579196463302005,0.09685382322919964,40.106058693909645,-92.24360919585227,80.21211738781929
2024-09-23 10:31:33.577946,42.76,13.739463,-0.0029847020175114316,-0.02313149783467906,0.09720203344245934,40.106058693909645,-92.24360919585227,80.21211738781929
2024-09-23 10:31:33.620957,42.76,13.739552,-0.0029847020175114316,-0.02313149783467906,0.09720203344245934,36.09446859390736,-96.25519929585457,84.22370748782159
2024-09-23 10:31:33.663140,42.76,13.739552,-0.0032831742888682963,-0.024026904205785005,0.09720203344245934,36.09446859390736,-96.25519929585457,84.22370748782159
2024-09-23 10:31:33.675269,42.76,13.739552,-0.0032831742888682963,-0.024026904205785005,0.09720203344245934,36.09446859390736,-96.25519929585457,80.21211738781929
2024-09-23 10:31:33.717818,42.76,13.739603,-0.0033329230534799477,-0.023479709566915436,0.09750050628343246,36.09446859390736,-88.23529758782387,80.21211738781929
2024-09-23 10:31:33.759984,42.76,13.739654,-0.0033329230534799477,-0.023479709566915436,0.09750050628343246,36.09446859390736,-88.23529758782387,80.21211738781929
2024-09-23 10:31:33.771186,42.76,13.739654,-0.003482159473966507,-0.023927417309398437,0.0973512698629459,48.12595698684454,-88.23529758782387,80.21211738781929
2024-09-23 10:31:33.814555,42.86,13.739747,-0.0028852147413806935,-0.023927417309398437,0.0973512698629459,48.12595698684454,-88.23529758782387,80.21211738781929
2024-09-23 10:31:33.826961,42.86,13.739747,-0.0028852147413806935,-0.023927417309398437,0.09740101331113918,48.12595698684454,-88.23529758782387,80.21211738781929
2024-09-23 10:31:33.858547,42.86,13.739747,-0.0028852147413806935,-0.023927417309398437,0.09740101331113918,40.106058693909645,-96.25519929585457,72.1922225099802
2024-09-23 10:31:33.870128,42.86,13.739798,-0.0032831742888682963,-0.02352945757203875,0.09740101331113918,40.106058693909645,-96.25519929585457,72.1922225099802
2024-09-23 10:31:33.912855,42.86,13.739849,-0.0032831742888682963,-0.02352945757203875,0.09705279702197278,40.106058693909645,-96.25519929585457,76.200527287817
2024-09-23 10:31:33.956153,42.86,13.739849,-0.0032831742888682963,-0.023827930413011865,0.09640611396773996,36.09446859390736,-96.25519929585457,76.200527287817
2024-09-23 10:31:33.967827,42.86,13.739941,-0.0032831742888682963,-0.023827930413011865,0.09640611396773996,36.09446859390736,-96.25519929585457,80.21211738781929
2024-09-23 10:31:34.011031,42.86,13.739941,-0.0033329230534799477,-0.023479709566915436,0.09715228999426605,40.106058693909645,-100.26678939585686,76.200527287817
2024-09-23 10:31:34.054843,42.86,13.739993,-0.003382661564999035,-0.02338022115155219,0.09715228999426605,40.106058693909645,-100.26678939585686,76.200527287817
2024-09-23 10:31:34.067624,42.86,13.739993,-0.003382661564999035,-0.02338022115155219,0.09665483728461309,32.08287849390507,-96.25519929585457,76.200527287817
2024-09-23 10:31:34.100035,42.86,13.740044,-0.003382661564999035,-0.02338022115155219,0.09665483728461309,32.08287849390507,-96.25519929585457,80.21211738781929
2024-09-23 10:31:34.111897,42.86,13.740044,-0.0029349636958644295,-0.023280723622328886,0.09685382322919964,32.08287849390507,-96.25519929585457,80.21211738781929
2024-09-23 10:31:34.155314,42.86,13.740094,-0.003631395514708897,-0.023827930413011865,0.09685382322919964,32.08287849390507,-96.25519929585457,84.22370748782159
2024-09-23 10:31:34.167189,42.86,13.740094,-0.003631395514708897,-0.023827930413011865,0.09725178296655933,32.08287849390507,-96.25519929585457,84.22370748782159
2024-09-23 10:31:34.199483,42.86,13.740094,-0.003631395514708897,-0.023827930413011865,0.09725178296655933,40.106058693909645,-96.25519929585457,84.22370748782159
2024-09-23 10:31:34.210564,42.86,13.740145,-0.0035318979854855937,-0.023827930413011865,0.09725178296655933,40.106058693909645,-96.25519929585457,72.1922225099802
2024-09-23 10:31:34.252900,42.86,13.740195,-0.003382661564999035,-0.023827930413011865,0.0970030596496862,36.09446859390736,-100.26678939585686,76.200527287817
2024-09-23 10:31:34.295309,42.86,13.740195,-0.003382661564999035,-0.023181236725942318,0.09665483728461309,36.09446859390736,-100.26678939585686,76.200527287817
2024-09-23 10:31:34.306933,42.86,13.740283,-0.003382661564999035,-0.023181236725942318,0.09665483728461309,28.07457030097246,-100.26678939585686,72.1922225099802
2024-09-23 10:31:34.349796,42.86,13.740283,-0.0034324103296106863,-0.02412639262114825,0.09695331012558621,32.08287849390507,-100.26678939585686,72.1922225099802
2024-09-23 10:31:34.361598,42.86,13.740283,-0.0034324103296106863,-0.02412639262114825,0.09695331012558621,32.08287849390507,-100.26678939585686,72.1922225099802
2024-09-23 10:31:34.394115,42.86,13.740334,-0.003233425524256645,-0.02412639262114825,0.09695331012558621,32.08287849390507,-100.26678939585686,72.1922225099802
2024-09-23 10:31:34.405746,42.86,13.740334,-0.003233425524256645,-0.023429960042815445,0.09750050628343246,40.106058693909645,-96.25519929585457,72.1922225099802
2024-09-23 10:31:34.448969,42.86,13.740385,-0.0032831742888682963,-0.02352945757203875,0.09675432418099966,36.09446859390736,-96.25519929585457,80.21211738781929
2024-09-23 10:31:34.491000,42.86,13.740385,-0.0032831742888682963,-0.02352945757203875,0.09675432418099966,36.09446859390736,-100.26678939585686,88.23529758782387
2024-09-23 10:31:34.502297,42.86,13.740435,-0.0038303700669703737,-0.023230986250042305,0.09690356060148622,36.09446859390736,-100.26678939585686,88.23529758782387
2024-09-23 10:31:34.545132,42.86,13.740486,-0.003233425524256645,-0.023230986250042305,0.09690356060148622,32.08287849390507,-104.27510100388527,84.22370748782159
2024-09-23 10:31:34.557359,42.86,13.740486,-0.003233425524256645,-0.02278327698858263,0.09690356060148622,32.08287849390507,-104.27510100388527,84.22370748782159
