Ayaan's Suite
Timestamp,Sample Rate (Hz),Time,Ax,Ay,Az,Gx,Gy,Gz
2024-09-23 01:54:52.629459,0,8.315639,-0.017379001010813116,0.01823272210499319,1.0137175930384832,0.24499683869630098,-1.0630662837389857,-1.404320052330941
2024-09-23 01:54:52.661429,0,8.315689,-0.017379001010813116,0.01823272210499319,1.0137175930384832,0.24499683869630098,-1.0630662837389857,-1.2862334031555802
2024-09-23 01:54:52.672703,0,8.315689,-0.012073802565215924,0.020427930488741967,1.0151202039495033,0.3193667930966243,-1.0630662837389857,-1.2862334031555802
2024-09-23 01:54:52.716113,0,8.31574,-0.013171458402297304,0.01914740125216718,1.0151202039495033,0.3193667930966243,-1.0893650827679784,-1.3649578715130686
2024-09-23 01:54:52.727462,0,8.31574,-0.013171458402297304,0.01914740125216718,1.0139006479556893,0.3193667930966243,-1.0893650827679784,-1.3649578715130686
2024-09-23 01:54:52.760658,0,8.31574,-0.013171458402297304,0.01914740125216718,1.0139006479556893,0.2668265312955715,-1.1637349838074296,-1.483101830264926
2024-09-23 01:54:52.772151,0,8.315791,-0.01256167205101853,0.021708563015730736,1.0139006479556893,0.2668265312955715,-1.1637349838074296,-1.483101830264926
2024-09-23 01:54:52.814370,0,8.315841,-0.014574005516297226,0.021708563015730736,1.0138396944596255,0.3368419984191656,-1.2336931146740913,-1.496222521630302
2024-09-23 01:54:52.857672,0,8.315841,-0.014574005516297226,0.017927828549609635,1.0134736818397203,0.29306802074806765,-1.2336931146740913,-1.496222521630302
2024-09-23 01:54:52.869366,0,8.315928,-0.014574005516297226,0.017927828549609635,1.0134736818397203,0.29306802074806765,-1.1680894444037229,-1.3693696416858583
2024-09-23 01:54:52.912288,0,8.315928,-0.00987859342197881,0.020793883868556746,1.0131078636488298,0.3280757409696467,-1.1243154934130608,-1.4306188513599336
2024-09-23 01:54:52.955039,0,8.31598,-0.013476350438704184,0.018415698035412244,1.0131078636488298,0.3280757409696467,-1.1243154934130608,-1.4306188513599336
2024-09-23 01:54:52.966082,0,8.31598,-0.013476350438704184,0.018415698035412244,1.011034569852092,0.3193667930966243,-1.1374934943549335,-1.4306188513599336
2024-09-23 01:54:53.008750,0,8.316031,-0.013171458402297304,0.019574312684975875,1.0153641151482662,0.3324875378228724,-1.1374934943549335,-1.4524485706396402
2024-09-23 01:54:53.050946,0,8.316031,-0.013171458402297304,0.019574312684975875,1.0153641151482662,0.3324875378228724,-1.0980740039605648,-1.4218526205908506
2024-09-23 01:54:53.062331,0,8.316081,-0.011098165365048018,0.020915799974544576,1.0162788064472537,0.3324875378228724,-1.0980740039605648,-1.4218526205908506
2024-09-23 01:54:53.104364,0,8.316132,-0.010793271809664462,0.020915799974544576,1.0162788064472537,0.3280757409696467,-1.0674780539117754,-1.4174980532728136
2024-09-23 01:54:53.116278,0,8.316132,-0.010793271809664462,0.022318348607521174,1.0162788064472537,0.3280757409696467,-1.0674780539117754,-1.4174980532728136
2024-09-23 01:54:53.149070,0,8.316132,-0.010793271809664462,0.022318348607521174,1.0131078636488298,0.29306802074806765,-1.0674780539117754,-1.4174980532728136
2024-09-23 01:54:53.160202,0,8.316183,-0.015793578218854774,0.022318348607521174,1.0131078636488298,0.29306802074806765,-1.1287272635858505,-1.531230241851881
2024-09-23 01:54:53.202704,0,8.316183,-0.015793578218854774,0.02067186599113161,1.01231507934197,0.38932495064372197,-1.1330817241821438,-1.531230241851881
2024-09-23 01:54:53.214333,0,8.316269,-0.015793578218854774,0.02067186599113161,1.01231507934197,0.38932495064372197,-1.1330817241821438,-1.448094003321603
2024-09-23 01:54:53.246377,0,8.316269,-0.014025177977500705,0.02225739055452726,1.01231507934197,0.38932495064372197,-1.1330817241821438,-1.448094003321603
2024-09-23 01:54:53.257706,0,8.316269,-0.014025177977500705,0.02225739055452726,1.013778546534547,0.37620423259790986,-1.2118635021161288,-1.531230241851881
2024-09-23 01:54:53.299412,0,8.316321,-0.013720285941093825,0.019818144896951533,1.0161568022406187,0.39809120809324083,-1.2118635021161288,-1.531230241851881
2024-09-23 01:54:53.311185,0,8.316321,-0.013720285941093825,0.019818144896951533,1.0161568022406187,0.39809120809324083,-1.1156065722204744,-1.531230241851881
2024-09-23 01:54:53.343848,0,8.316372,-0.013720285941093825,0.019818144896951533,1.0161568022406187,0.39809120809324083,-1.1156065722204744,-1.404320052330941
2024-09-23 01:54:53.355760,0,8.316372,-0.012866564846913748,0.02134260963591596,1.0117664006628877,0.3499627431454137,-1.1156065722204744,-1.404320052330941
2024-09-23 01:54:53.398929,0,8.316423,-0.011890927646745842,0.021037716080532405,1.0140835084438808,0.3499627431454137,-1.1024857741333545,-1.3693696416858583
2024-09-23 01:54:53.442811,0,8.316423,-0.011890927646745842,0.021037716080532405,1.0140835084438808,0.3368419984191656,-1.1506142924420535,-1.3956111311383546
2024-09-23 01:54:53.454582,0,8.316473,-0.016281345933220073,0.018415698035412244,1.0140835084438808,0.3368419984191656,-1.1506142924420535,-1.3956111311383546
2024-09-23 01:54:53.498026,0,8.316524,-0.013537308491698099,0.018415698035412244,1.0125589905407328,0.31060053564710544,-1.1724439050000162,-1.3911993609655648
2024-09-23 01:54:53.540952,0,8.316524,-0.013537308491698099,0.021098777423940302,1.012498037044669,0.3149550229238346,-1.1724439050000162,-1.3911993609655648
2024-09-23 01:54:53.552241,0,8.316611,-0.013537308491698099,0.021098777423940302,1.012498037044669,0.3149550229238346,-1.0105833048339934,-1.4174980532728136
2024-09-23 01:54:53.594800,0,8.316611,-0.015610600769459046,0.023537919791102042,1.0112784810508548,0.3456082558686845,-1.0893650827679784,-1.461214801408723
2024-09-23 01:54:53.638756,44.03,8.316662,-0.013293374508285133,0.02134260963591596,1.0112784810508548,0.3456082558686845,-1.0893650827679784,-1.461214801408723
2024-09-23 01:54:53.650483,44.03,8.316662,-0.013293374508285133,0.02134260963591596,1.0173154047383688,0.4374534422719851,-1.0193495356030762,-1.461214801408723
2024-09-23 01:54:53.682554,44.03,8.316662,-0.013293374508285133,0.02134260963591596,1.0173154047383688,0.4374534422719851,-1.0193495356030762,-1.4306188513599336
2024-09-23 01:54:53.694478,44.03,8.316713,-0.011586034850850625,0.020610907938137694,1.0133517748475924,0.3324875378228724,-1.0193495356030762,-1.4306188513599336
2024-09-23 01:54:53.737173,44.03,8.316764,-0.013110498830326714,0.020610907938137694,1.0133517748475924,0.3324875378228724,-1.1374934943549335,-1.3737241022821516
2024-09-23 01:54:53.750480,44.03,8.316764,-0.013110498830326714,0.02140366946034718,1.0145713308414066,0.3324875378228724,-1.1374934943549335,-1.3737241022821516
2024-09-23 01:54:53.782600,44.03,8.316764,-0.013110498830326714,0.02140366946034718,1.0145713308414066,0.28871353347133843,-1.1724439050000162,-1.3737241022821516
2024-09-23 01:54:53.793798,44.03,8.316815,-0.010671253932239326,0.023415901913676908,1.0145713308414066,0.28871353347133843,-1.1724439050000162,-1.3343619214642792
2024-09-23 01:54:53.888470,44.03,8.316865,-0.01396421992450679,0.023415901913676908,1.0166446246381442,0.2318188110739924,-1.0893650827679784,-1.3999655917346479
2024-09-23 01:54:53.932703,44.03,8.316865,-0.01396421992450679,0.022196330730096036,1.0104247432479314,0.39373674749694765,-1.1768557818945498,-1.3999655917346479
2024-09-23 01:54:53.944093,44.03,8.316952,-0.01396421992450679,0.022196330730096036,1.0104247432479314,0.39373674749694765,-1.1768557818945498,-1.4524485706396402
2024-09-23 01:54:53.975679,44.03,8.316952,-0.012317737308117227,0.022196330730096036,1.0104247432479314,0.39373674749694765,-1.1768557818945498,-1.4524485706396402
2024-09-23 01:54:53.986731,44.03,8.316952,-0.012317737308117227,0.02012303845233509,1.0149982969573756,0.3411964856958948,-1.0455910250555724,-1.404320052330941
2024-09-23 01:54:54.029658,44.03,8.317004,-0.011159123418041933,0.019574312684975875,1.0121322188537785,0.3411964856958948,-1.0455910250555724,-1.404320052330941
2024-09-23 01:54:54.041630,44.03,8.317004,-0.011159123418041933,0.019574312684975875,1.0121322188537785,0.3324875378228724,-1.0980740039605648,-1.404320052330941
2024-09-23 01:54:54.075078,44.03,8.317054,-0.011159123418041933,0.019574312684975875,1.0121322188537785,0.3324875378228724,-1.0980740039605648,-1.5355847024481744
2024-09-23 01:54:54.086545,44.03,8.317054,-0.010976248499571852,0.024086748848875243,1.0122541258459061,0.3456082558686845,-1.0980740039605648,-1.5355847024481744
2024-09-23 01:54:54.129430,44.03,8.317149,-0.010122528164880112,0.019574312684975875,1.0132298678554648,0.3456082558686845,-1.0587118231426924,-1.4568603408124299
2024-09-23 01:54:54.172367,44.03,8.317149,-0.010122528164880112,0.019574312684975875,1.0132298678554648,0.2362305812467821,-1.1111946953259408,-1.4568603408124299
2024-09-23 01:54:54.184074,44.03,8.3172,-0.01182986782231462,0.01975718684395762,1.0132298678554648,0.2362305812467821,-1.1111946953259408,-1.3911993609655648
2024-09-23 01:54:54.226358,44.03,8.31725,-0.01182986782231462,0.01975718684395762,1.015486022140394,0.2668265312955715,-1.0805987452771515,-1.4524485706396402
2024-09-23 01:54:54.238478,44.03,8.31725,-0.011768909009832369,0.01975718684395762,1.015486022140394,0.2668265312955715,-1.0805987452771515,-1.4524485706396402
2024-09-23 01:54:54.270820,44.03,8.31725,-0.011768909009832369,0.02152558556633501,1.019937474428696,0.2668265312955715,-1.0805987452771515,-1.4524485706396402
2024-09-23 01:54:54.281903,44.03,8.317342,-0.011768909009832369,0.02152558556633501,1.019937474428696,0.3193667930966243,-1.1068402347296475,-1.434973311956227
2024-09-23 01:54:54.325115,44.03,8.317342,-0.012805606793919833,0.020366972435748053,1.0115223922496177,0.3543172304221429,-1.1330817241821438,-1.426207081187144
2024-09-23 01:54:54.366994,44.03,8.317394,-0.011281142054955407,0.020366972435748053,1.0115223922496177,0.3543172304221429,-1.1330817241821438,-1.426207081187144
2024-09-23 01:54:54.378656,44.03,8.317394,-0.011281142054955407,0.02176952106872465,1.0116442992417454,0.31060053564710544,-1.0674780539117754,-1.426207081187144
2024-09-23 01:54:54.421728,44.03,8.317444,-0.012927522899907663,0.019452293288574063,1.0090832802619896,0.31060053564710544,-1.0674780539117754,-1.3518370734259486
2024-09-23 01:54:54.433823,44.03,8.317444,-0.012927522899907663,0.019452293288574063,1.0090832802619896,0.31060053564710544,-1.0674780539117754,-1.3518370734259486
2024-09-23 01:54:54.467335,44.03,8.317495,-0.012927522899907663,0.019452293288574063,1.0090832802619896,0.31060053564710544,-1.1068402347296475,-1.3999655917346479
2024-09-23 01:54:54.478594,44.03,8.317495,-0.009756574785065334,0.020549948366167105,1.0153641151482662,0.31060053564710544,-1.1068402347296475,-1.3999655917346479
2024-09-23 01:54:54.522093,44.03,8.317546,-0.013598266544692013,0.020245056329760223,1.0153641151482662,0.26247207069927825,-1.0937195433642715,-1.4306188513599336
2024-09-23 01:54:54.566622,44.03,8.317546,-0.013598266544692013,0.020245056329760223,1.0119492611510794,0.3237212803733535,-1.1243154934130608,-1.4306188513599336
2024-09-23 01:54:54.578414,44.03,8.317597,-0.010183486217874026,0.020245056329760223,1.0119492611510794,0.3237212803733535,-1.1243154934130608,-1.434973311956227
2024-09-23 01:54:54.609996,44.03,8.317597,-0.010183486217874026,0.02213537267710212,1.0119492611510794,0.3237212803733535,-1.1243154934130608,-1.434973311956227
2024-09-23 01:54:54.621452,44.03,8.317684,-0.010183486217874026,0.02213537267710212,1.014205512650516,0.28871353347133843,-1.2774671723864972,-1.3999655917346479
2024-09-23 01:54:54.664246,42.98,8.317684,-0.014208053655459124,0.018049744655597465,1.0135347325502915,0.28871353347133843,-1.2774671723864972,-1.3999655917346479
2024-09-23 01:54:54.675988,42.98,8.317684,-0.014208053655459124,0.018049744655597465,1.0135347325502915,0.28871353347133843,-1.1637349838074296,-1.434973311956227
2024-09-23 01:54:54.709967,42.98,8.317735,-0.01219582044264106,0.018049744655597465,1.0135347325502915,0.28871353347133843,-1.1637349838074296,-1.434973311956227
2024-09-23 01:54:54.721552,42.98,8.317735,-0.01219582044264106,0.019086441680196593,1.0146322843374704,0.3193667930966243,-1.0893650827679784,-1.434973311956227
2024-09-23 01:54:54.764372,42.98,8.317786,-0.013720285941093825,0.01786687049661572,1.0167666288447792,0.35872900059493257,-1.0893650827679784,-1.426207081187144
2024-09-23 01:54:54.807024,42.98,8.317786,-0.013720285941093825,0.01786687049661572,1.0167666288447792,0.35872900059493257,-1.1330817241821438,-1.3737241022821516
2024-09-23 01:54:54.821904,42.98,8.317836,-0.01445198763887209,0.020915799974544576,1.0164007134393813,0.35872900059493257,-1.1330817241821438,-1.3737241022821516
2024-09-23 01:54:54.854771,42.98,8.317836,-0.01445198763887209,0.020915799974544576,1.0164007134393813,0.31060053564710544,-1.1199610328167677,-1.3737241022821516
2024-09-23 01:54:54.866486,42.98,8.317836,-0.01445198763887209,0.020915799974544576,1.0164007134393813,0.31060053564710544,-1.1199610328167677,-1.3649578715130686
2024-09-23 01:54:54.909821,42.98,8.317887,-0.011403058160943235,0.02018409827676631,1.0117053499523165,0.3411964856958948,-1.216217962712422,-1.3649578715130686
2024-09-23 01:54:54.952507,42.98,8.317938,-0.011403058160943235,0.02018409827676631,1.0117053499523165,0.3411964856958948,-1.216217962712422,-1.4437395427253097
2024-09-23 01:54:54.963401,42.98,8.317938,-0.013049540777332799,0.019940162774376668,1.0123761300525411,0.3237212803733535,-1.216217962712422,-1.4437395427253097
2024-09-23 01:54:55.006177,42.98,8.318025,-0.013598266544692013,0.017744852619190586,1.0123761300525411,0.3237212803733535,-1.216217962712422,-1.4568603408124299
2024-09-23 01:54:55.018221,42.98,8.318025,-0.013598266544692013,0.017744852619190586,1.0122541258459061,0.3237212803733535,-1.216217962712422,-1.4568603408124299
2024-09-23 01:54:55.050541,42.98,8.318025,-0.013598266544692013,0.017744852619190586,1.0122541258459061,0.38932495064372197,-1.3037086618389935,-1.4568603408124299
2024-09-23 01:54:55.062236,42.98,8.318076,-0.015488684663471218,0.019574312684975875,1.0122541258459061,0.38932495064372197,-1.3037086618389935,-1.4568603408124299
2024-09-23 01:54:55.105393,42.98,8.318127,-0.011768909009832369,0.019574312684975875,1.0153641151482662,0.3149550229238346,-1.1068402347296475,-1.4218526205908506
2024-09-23 01:54:55.147355,42.98,8.318127,-0.011768909009832369,0.023354943860682993,1.0143883731387076,0.3149550229238346,-1.1068402347296475,-1.4218526205908506
2024-09-23 01:54:55.159052,42.98,8.31822,-0.011768909009832369,0.023354943860682993,1.0143883731387076,0.39373674749694765,-1.2205724233087152,-1.404320052330941
2024-09-23 01:54:55.202578,42.98,8.31822,-0.01365932788809991,0.02018409827676631,1.0118883076550156,0.35872900059493257,-1.1418479549512268,-1.461214801408723
2024-09-23 01:54:55.246962,42.98,8.318271,-0.015000815177668611,0.019574312684975875,1.0118883076550156,0.35872900059493257,-1.1418479549512268,-1.461214801408723
2024-09-23 01:54:55.258354,42.98,8.318271,-0.015000815177668611,0.019574312684975875,1.0122541258459061,0.3324875378228724,-1.1287272635858505,-1.461214801408723
2024-09-23 01:54:55.302068,42.98,8.318322,-0.011159123418041933,0.019086441680196593,1.0137175930384832,0.39809120809324083,-1.1287272635858505,-1.3999655917346479
2024-09-23 01:54:55.345216,42.98,8.318373,-0.014025177977500705,0.019086441680196593,1.0137175930384832,0.39809120809324083,-1.1768557818945498,-1.43932777255252
2024-09-23 01:54:55.356930,42.98,8.318373,-0.014025177977500705,0.02201345505213762,1.0103637897518674,0.39809120809324083,-1.1768557818945498,-1.43932777255252
2024-09-23 01:54:55.388744,42.98,8.318373,-0.014025177977500705,0.02201345505213762,1.0103637897518674,0.37184974532118065,-1.1768557818945498,-1.43932777255252
2024-09-23 01:54:55.400437,42.98,8.318424,-0.013842202047081654,0.021586543619328925,1.0103637897518674,0.37184974532118065,-1.1549687530383468,-1.3956111311383546
2024-09-23 01:54:55.443402,42.98,8.318424,-0.013842202047081654,0.021586543619328925,1.0153641151482662,0.35872900059493257,-1.0630662837389857,-1.4655692620050162
2024-09-23 01:54:55.454472,42.98,8.318474,-0.01182986782231462,0.021586543619328925,1.0153641151482662,0.35872900059493257,-1.0630662837389857,-1.4655692620050162
2024-09-23 01:54:55.537608,42.98,8.318474,-0.01182986782231462,0.02012303845233509,1.0129859566567019,0.35872900059493257,-1.0630662837389857,-1.4655692620050162
2024-09-23 01:54:55.549401,42.98,8.318561,-0.01182986782231462,0.02012303845233509,1.0129859566567019,0.2537058132497594,-1.1111946953259408,-1.4655692620050162
2024-09-23 01:54:55.591892,42.98,8.318561,-0.01481783924724956,0.019208359305161096,1.0137175930384832,0.3368419984191656,-1.1637349838074296,-1.4655692620050162
2024-09-23 01:54:55.603877,42.98,8.318561,-0.01481783924724956,0.019208359305161096,1.0137175930384832,0.3368419984191656,-1.1637349838074296,-1.4787472629468887
2024-09-23 01:54:55.636113,42.98,8.318612,-0.010671253932239326,0.020732824044125523,1.0137175930384832,0.3368419984191656,-1.1637349838074296,-1.4787472629468887
2024-09-23 01:54:55.647293,42.98,8.318612,-0.010671253932239326,0.020732824044125523,1.0153641151482662,0.3018342781975865,-1.15932321363464,-1.4787472629468887
2024-09-23 01:54:55.689933,42.95,8.318663,-0.01378124399408774,0.020732824044125523,1.0101198785531047,0.38061600277069957,-1.15932321363464,-1.4174980532728136
2024-09-23 01:54:55.732917,42.95,8.318663,-0.01378124399408774,0.020732824044125523,1.0101198785531047,0.38061600277069957,-1.1943309338562191,-1.426207081187144
2024-09-23 01:54:55.744010,42.95,8.318714,-0.012439653414105056,0.022318348607521174,1.0150592504534395,0.38061600277069957,-1.1943309338562191,-1.426207081187144
2024-09-23 01:54:55.786654,42.95,8.318807,-0.01256167205101853,0.022318348607521174,1.0150592504534395,0.3499627431454137,-1.1068402347296475,-1.413086283100024
2024-09-23 01:54:55.798761,42.95,8.318807,-0.01256167205101853,0.022928134199311608,1.0150592504534395,0.3499627431454137,-1.1068402347296475,-1.413086283100024
2024-09-23 01:54:55.831302,42.95,8.318807,-0.01256167205101853,0.022928134199311608,1.014205512650516,0.3456082558686845,-1.0893650827679784,-1.413086283100024
2024-09-23 01:54:55.842235,42.95,8.318858,-0.014634963569291141,0.022928134199311608,1.014205512650516,0.3456082558686845,-1.0893650827679784,-1.4218526205908506
2024-09-23 01:54:55.884478,42.95,8.318858,-0.014634963569291141,0.02012303845233509,1.012620041251304,0.27994727602181957,-1.1287272635858505,-1.518109550486505
2024-09-23 01:54:55.896136,42.95,8.318951,-0.014634963569291141,0.02012303845233509,1.012620041251304,0.27994727602181957,-1.1287272635858505,-1.518109550486505
2024-09-23 01:54:55.929083,42.95,8.318951,-0.012378695361111141,0.01939133523558015,1.0132298678554648,0.27994727602181957,-1.1287272635858505,-1.518109550486505
2024-09-23 01:54:55.940435,42.95,8.318951,-0.012378695361111141,0.01939133523558015,1.0132298678554648,0.3237212803733535,-1.1330817241821438,-1.483101830264926
2024-09-23 01:54:55.982259,42.95,8.319002,-0.013293374508285133,0.020732824044125523,1.0153641151482662,0.3630834878716618,-1.1637349838074296,-1.483101830264926
2024-09-23 01:54:56.024883,42.95,8.319053,-0.013293374508285133,0.020732824044125523,1.0153641151482662,0.3630834878716618,-1.1637349838074296,-1.491868061034009
2024-09-23 01:54:56.036364,42.95,8.319053,-0.01164699290384454,0.020732824044125523,1.0105467474545664,0.2668265312955715,-1.1637349838074296,-1.491868061034009
2024-09-23 01:54:56.079534,42.95,8.319104,-0.01164699290384454,0.019696228790963704,1.0116442992417454,0.2668265312955715,-1.1680894444037229,-1.3212411233771593
2024-09-23 01:54:56.122264,42.95,8.319104,-0.01164699290384454,0.019696228790963704,1.0116442992417454,0.27994727602181957,-1.2993542012427002,-1.3212411233771593
2024-09-23 01:54:56.133839,42.95,8.319155,-0.013354434332716355,0.02207441310513153,1.0116442992417454,0.27994727602181957,-1.2993542012427002,-1.413086283100024
2024-09-23 01:54:56.177223,42.95,8.319205,-0.01219582044264106,0.02207441310513153,1.012620041251304,0.3499627431454137,-1.2424594521649182,-1.434973311956227
2024-09-23 01:54:56.221434,42.95,8.319205,-0.01219582044264106,0.02140366946034718,1.017010540043542,0.3499627431454137,-1.2424594521649182,-1.434973311956227
2024-09-23 01:54:56.232965,42.95,8.319292,-0.01219582044264106,0.02140366946034718,1.017010540043542,0.3237212803733535,-1.1855647030871361,-1.4568603408124299
2024-09-23 01:54:56.275680,42.95,8.319292,-0.013537308491698099,0.01786687049661572,1.0135956860463553,0.4418652124447748,-1.1549687530383468,-1.3737241022821516
2024-09-23 01:54:56.318002,42.95,8.319344,-0.011707950956838454,0.01786687049661572,1.0135956860463553,0.4418652124447748,-1.1549687530383468,-1.3737241022821516
2024-09-23 01:54:56.329947,42.95,8.319344,-0.011707950956838454,0.020001120827370582,1.0158518403312846,0.4418652124447748,-1.1330817241821438,-1.3737241022821516
2024-09-23 01:54:56.373122,42.95,8.319394,-0.011159123418041933,0.020001120827370582,1.0158518403312846,0.4418652124447748,-1.1330817241821438,-1.3562488435987383
2024-09-23 01:54:56.415679,42.95,8.319394,-0.011159123418041933,0.02140366946034718,1.01426646614658,0.4418652124447748,-1.1330817241821438,-1.3562488435987383
2024-09-23 01:54:56.428009,42.95,8.319445,-0.011159123418041933,0.02140366946034718,1.01426646614658,0.3149550229238346,-1.1068402347296475,-1.413086283100024
2024-09-23 01:54:56.471205,42.95,8.319445,-0.012317737308117227,0.022684200215898644,1.0135956860463553,0.4418652124447748,-1.0105833048339934,-1.413086283100024
2024-09-23 01:54:56.514157,42.95,8.319496,-0.014756881194255646,0.022684200215898644,1.0135956860463553,0.4418652124447748,-1.0105833048339934,-1.4524485706396402
2024-09-23 01:54:56.525813,42.95,8.319496,-0.014756881194255646,0.02152558556633501,1.0153641151482662,0.3411964856958948,-1.0105833048339934,-1.4524485706396402
2024-09-23 01:54:56.568534,42.95,8.319547,-0.01798878660260355,0.02067186599113161,1.0139616014517532,0.3411964856958948,-1.1068402347296475,-1.469981032177806
2024-09-23 01:54:56.612312,42.95,8.319547,-0.01798878660260355,0.02067186599113161,1.0139616014517532,0.27123832814879717,-1.2205724233087152,-1.413086283100024
2024-09-23 01:54:56.623746,42.95,8.319634,-0.013720285941093825,0.020062078880364497,1.0139616014517532,0.27123832814879717,-1.2205724233087152,-1.413086283100024
2024-09-23 01:54:56.657672,42.95,8.319634,-0.013720285941093825,0.020062078880364497,1.0097540603622142,0.27123832814879717,-1.2205724233087152,-1.413086283100024
2024-09-23 01:54:56.669866,42.95,8.319685,-0.01365932788809991,0.020062078880364497,1.0097540603622142,0.3062460483703762,-1.0893650827679784,-1.469981032177806
2024-09-23 01:54:56.712214,42.48,8.319685,-0.01365932788809991,0.022440264713509,1.0143274196426437,0.29747979092085736,-1.2118635021161288,-1.469981032177806
2024-09-23 01:54:56.725061,42.48,8.31978,-0.01365932788809991,0.022440264713509,1.0143274196426437,0.29747979092085736,-1.2118635021161288,-1.448094003321603
2024-09-23 01:54:56.758520,42.48,8.31978,-0.010488379013769245,0.021037716080532405,1.0170715907541132,0.29747979092085736,-1.2118635021161288,-1.448094003321603
2024-09-23 01:54:56.770983,42.48,8.31978,-0.010488379013769245,0.021037716080532405,1.0170715907541132,0.3018342781975865,-1.224984193481505,-1.434973311956227
2024-09-23 01:54:56.803098,42.48,8.319831,-0.010488379013769245,0.021037716080532405,1.0170715907541132,0.3018342781975865,-1.224984193481505,-1.434973311956227
2024-09-23 01:54:56.814274,42.48,8.319831,-0.012622630104012445,0.02012303845233509,1.0112784810508548,0.3149550229238346,-1.0368247942864894,-1.434973311956227
2024-09-23 01:54:56.857109,42.48,8.319882,-0.014025177977500705,0.02176952106872465,1.0112784810508548,0.3149550229238346,-1.0368247942864894,-1.5880676813531667
2024-09-23 01:54:56.868877,42.48,8.319882,-0.014025177977500705,0.02176952106872465,1.012498037044669,0.27994727602181957,-1.0368247942864894,-1.5880676813531667
2024-09-23 01:54:56.902742,42.48,8.319882,-0.014025177977500705,0.02176952106872465,1.012498037044669,0.27994727602181957,-1.0762442846808582,-1.3562488435987383
2024-09-23 01:54:56.914819,42.48,8.319933,-0.010671253932239326,0.02097675802753849,1.0118273541589518,0.27994727602181957,-1.0762442846808582,-1.3562488435987383
2024-09-23 01:54:56.957321,42.48,8.319983,-0.013110498830326714,0.02262324216290473,1.0118273541589518,0.2668265312955715,-1.15932321363464,-1.3212411233771593
2024-09-23 01:54:56.999968,42.48,8.319983,-0.013110498830326714,0.02262324216290473,1.0132298678554648,0.2843590461946093,-1.15932321363464,-1.3212411233771593
2024-09-23 01:54:57.011575,42.48,8.320034,-0.014269113479890346,0.02262324216290473,1.0132298678554648,0.2843590461946093,-1.0587118231426924,-1.413086283100024
2024-09-23 01:54:57.054909,42.48,8.320121,-0.014269113479890346,0.022684200215898644,1.011034569852092,0.3018342781975865,-1.1549687530383468,-1.3693696416858583
2024-09-23 01:54:57.096907,42.48,8.320121,-0.011220081471035847,0.016891131525010507,1.011034569852092,0.3018342781975865,-1.1549687530383468,-1.3693696416858583
2024-09-23 01:54:57.108745,42.48,8.320121,-0.011220081471035847,0.016891131525010507,1.0106077981651376,0.19686837374847382,-1.0849533125951887,-1.4524485706396402
2024-09-23 01:54:57.152450,42.48,8.320173,-0.010732313756670548,0.019208359305161096,1.0132908213515286,0.31060053564710544,-1.203097164625302,-1.4524485706396402
2024-09-23 01:54:57.194486,42.48,8.320223,-0.010732313756670548,0.019208359305161096,1.0132908213515286,0.31060053564710544,-1.203097164625302,-1.3824903330512346
2024-09-23 01:54:57.206344,42.48,8.320223,-0.01268358815700636,0.019696228790963704,1.0118883076550156,0.3456082558686845,-1.203097164625302,-1.3824903330512346
2024-09-23 01:54:57.248163,42.48,8.320274,-0.010854230622146716,0.019086441680196593,1.0118883076550156,0.3456082558686845,-1.1943309338562191,-1.474335492774099
2024-09-23 01:54:57.260593,42.48,8.320274,-0.010854230622146716,0.019086441680196593,1.0148152420401695,0.3456082558686845,-1.1943309338562191,-1.474335492774099
2024-09-23 01:54:57.293045,42.48,8.320274,-0.010854230622146716,0.019086441680196593,1.0148152420401695,0.3237212803733535,-1.1462025222692638,-1.474335492774099
2024-09-23 01:54:57.304924,42.48,8.320325,-0.013293374508285133,0.019025483627202678,1.0148152420401695,0.3237212803733535,-1.1462025222692638,-1.448094003321603
2024-09-23 01:54:57.347841,42.48,8.320375,-0.013293374508285133,0.019025483627202678,1.012802998954003,0.31060053564710544,-1.0630662837389857,-1.3080631224352866
2024-09-23 01:54:57.359529,42.48,8.320375,-0.01433007153288426,0.019025483627202678,1.012802998954003,0.31060053564710544,-1.0630662837389857,-1.3080631224352866
2024-09-23 01:54:57.391380,42.48,8.320375,-0.01433007153288426,0.020732824044125523,1.0128639524500669,0.3368419984191656,-1.0630662837389857,-1.3080631224352866
2024-09-23 01:54:57.402323,42.48,8.320462,-0.01433007153288426,0.020732824044125523,1.0128639524500669,0.3368419984191656,-1.1024857741333545,-1.448094003321603
2024-09-23 01:54:57.444247,42.48,8.320462,-0.011890927646745842,0.020732824044125523,1.0128639524500669,0.3368419984191656,-1.1024857741333545,-1.448094003321603
2024-09-23 01:54:57.487409,42.48,8.320462,-0.011890927646745842,0.022928134199311608,1.0136566395424191,0.3368419984191656,-1.1024857741333545,-1.448094003321603
2024-09-23 01:54:57.499529,42.48,8.320514,-0.011890927646745842,0.022928134199311608,1.0136566395424191,0.3456082558686845,-1.0980740039605648,-1.43932777255252
2024-09-23 01:54:57.543315,42.48,8.320514,-0.013720285941093825,0.018659531766364576,1.0143883731387076,0.3499627431454137,-1.1812102424908428,-1.3999655917346479
2024-09-23 01:54:57.586756,42.48,8.320564,-0.013903160100075569,0.021098777423940302,1.0143883731387076,0.3499627431454137,-1.1812102424908428,-1.3999655917346479
2024-09-23 01:54:57.598299,42.48,8.320564,-0.013903160100075569,0.021098777423940302,1.015486022140394,0.3193667930966243,-1.1724439050000162,-1.3999655917346479
2024-09-23 01:54:57.640992,42.48,8.320615,-0.01256167205101853,0.019574312684975875,1.0115223922496177,0.24935132597303017,-1.1724439050000162,-1.43932777255252
2024-09-23 01:54:57.684258,42.48,8.320666,-0.01256167205101853,0.019574312684975875,1.0115223922496177,0.24935132597303017,-1.1111946953259408,-1.3124748926080763
2024-09-23 01:54:57.696071,42.48,8.320666,-0.012378695361111141,0.018049744655597465,1.0152421109416312,0.24935132597303017,-1.1111946953259408,-1.3124748926080763
2024-09-23 01:54:57.738595,42.56,8.320757,-0.010732313756670548,0.016830173472016593,1.0152421109416312,0.31060053564710544,-1.2424594521649182,-1.413086283100024
2024-09-23 01:54:57.781997,42.56,8.320757,-0.010732313756670548,0.016830173472016593,1.0149372462468045,0.49870265194606034,-1.1506142924420535,-1.413086283100024
2024-09-23 01:54:57.793655,42.56,8.320808,-0.01481783924724956,0.016830173472016593,1.0149372462468045,0.49870265194606034,-1.1506142924420535,-1.3649578715130686
2024-09-23 01:54:57.836177,42.56,8.320901,-0.01481783924724956,0.018476656088406155,1.012498037044669,0.3193667930966243,-1.15932321363464,-1.43932777255252
2024-09-23 01:54:57.930161,42.56,8.320901,-0.012500713238536278,0.018476656088406155,1.012498037044669,0.3193667930966243,-1.15932321363464,-1.43932777255252
2024-09-23 01:54:57.972798,42.56,8.320901,-0.012500713238536278,0.016830173472016593,1.012498037044669,0.3193667930966243,-1.15932321363464,-1.43932777255252
2024-09-23 01:54:57.984487,42.56,8.320953,-0.012500713238536278,0.016830173472016593,1.0132908213515286,0.3368419984191656,-1.1068402347296475,-1.448094003321603
2024-09-23 01:54:58.027004,42.56,8.320953,-0.011037206552565765,0.01975718684395762,1.0129859566567019,0.3368419984191656,-1.1068402347296475,-1.448094003321603
2024-09-23 01:54:58.039015,42.56,8.320953,-0.011037206552565765,0.01975718684395762,1.0129859566567019,0.3368419984191656,-1.1024857741333545,-1.5268184716790913
2024-09-23 01:54:58.071948,42.56,8.321003,-0.011037206552565765,0.01975718684395762,1.0129859566567019,0.3368419984191656,-1.1024857741333545,-1.5268184716790913
2024-09-23 01:54:58.083064,42.56,8.321003,-0.015549642716465131,0.019086441680196593,1.0144494238492787,0.3018342781975865,-1.203097164625302,-1.5268184716790913
2024-09-23 01:54:58.126376,42.56,8.321054,-0.008902956221810903,0.01914740125216718,1.0101808320491685,0.3018342781975865,-1.203097164625302,-1.4568603408124299
2024-09-23 01:54:58.138447,42.56,8.321054,-0.008902956221810903,0.01914740125216718,1.0101808320491685,0.39809120809324083,-1.203097164625302,-1.4568603408124299
2024-09-23 01:54:58.170146,42.56,8.321054,-0.008902956221810903,0.01914740125216718,1.0101808320491685,0.39809120809324083,-1.0543573625463993,-1.426207081187144
2024-09-23 01:54:58.182856,42.56,8.321105,-0.01268358815700636,0.019513251341567978,1.0132298678554648,0.39809120809324083,-1.0543573625463993,-1.426207081187144
2024-09-23 01:54:58.225682,42.56,8.321244,-0.00987859342197881,0.020062078880364497,1.0132298678554648,0.39373674749694765,-1.1680894444037229,-1.3911993609655648
2024-09-23 01:54:58.268170,42.56,8.321244,-0.00987859342197881,0.020062078880364497,1.011217527554791,0.2405850685235113,-1.0937195433642715,-1.3911993609655648
2024-09-23 01:54:58.279298,42.56,8.321295,-0.009024872327798732,0.020062078880364497,1.011217527554791,0.2405850685235113,-1.0937195433642715,-1.3387163820605725
2024-09-23 01:54:58.322725,42.56,8.321295,-0.009024872327798732,0.020732824044125523,1.0101808320491685,0.3062460483703762,-1.1462025222692638,-1.404320052330941
2024-09-23 01:54:58.334250,42.56,8.321388,-0.009024872327798732,0.020732824044125523,1.0101808320491685,0.3062460483703762,-1.1462025222692638,-1.404320052330941
2024-09-23 01:54:58.365892,42.56,8.321388,-0.014391029585878175,0.020549948366167105,1.0101808320491685,0.3062460483703762,-1.1462025222692638,-1.404320052330941
2024-09-23 01:54:58.377478,42.56,8.321388,-0.014391029585878175,0.020549948366167105,1.011095523348156,0.3062460483703762,-1.0980740039605648,-1.3693696416858583
2024-09-23 01:54:58.421002,42.56,8.32144,-0.01182986782231462,0.02018409827676631,1.0150592504534395,0.3368419984191656,-1.0980740039605648,-1.3693696416858583
2024-09-23 01:54:58.464170,42.56,8.321491,-0.012805606793919833,0.02018409827676631,1.0150592504534395,0.3368419984191656,-1.0980740039605648,-1.469981032177806
2024-09-23 01:54:58.475790,42.56,8.321491,-0.012805606793919833,0.019086441680196593,1.011095523348156,0.3499627431454137,-1.0980740039605648,-1.469981032177806
2024-09-23 01:54:58.519745,42.56,8.321542,-0.012805606793919833,0.019086441680196593,1.011095523348156,0.3499627431454137,-1.0849533125951887,-1.413086283100024
2024-09-23 01:54:58.562216,42.56,8.321542,-0.01164699290384454,0.01573262016586086,1.011095523348156,0.3499627431454137,-1.0849533125951887,-1.413086283100024
2024-09-23 01:54:58.574303,42.56,8.321542,-0.01164699290384454,0.01573262016586086,1.0135956860463553,0.3411964856958948,-1.0937195433642715,-1.474335492774099
2024-09-23 01:54:58.606604,42.56,8.321592,-0.01164699290384454,0.01573262016586086,1.0135956860463553,0.3411964856958948,-1.0937195433642715,-1.474335492774099
2024-09-23 01:54:58.618038,42.56,8.321592,-0.013537308491698099,0.019696228790963704,1.012498037044669,0.3411964856958948,-1.1243154934130608,-1.474335492774099
2024-09-23 01:54:58.660885,42.56,8.321643,-0.014574005516297226,0.020062078880364497,1.012498037044669,0.3411964856958948,-1.1243154934130608,-1.4218526205908506
2024-09-23 01:54:58.672712,42.56,8.321643,-0.014574005516297226,0.020062078880364497,1.014205512650516,0.3543172304221429,-1.1243154934130608,-1.4218526205908506
2024-09-23 01:54:58.706843,42.56,8.321643,-0.014574005516297226,0.020062078880364497,1.014205512650516,0.3543172304221429,-1.1024857741333545,-1.3911993609655648
2024-09-23 01:54:58.718258,42.56,8.32173,-0.011768909009832369,0.019818144896951533,1.0104856967439952,0.3543172304221429,-1.1024857741333545,-1.3911993609655648
2024-09-23 01:54:58.761227,42.31,8.321781,-0.012927522899907663,0.02280611632188647,1.0104856967439952,0.3456082558686845,-1.1899764732599258,-1.3868447936475277
2024-09-23 01:54:58.806216,42.31,8.321781,-0.012927522899907663,0.02280611632188647,1.0115223922496177,0.3411964856958948,-1.1287272635858505,-1.3868447936475277
2024-09-23 01:54:58.817576,42.31,8.321832,-0.014756881194255646,0.02280611632188647,1.0115223922496177,0.3411964856958948,-1.1287272635858505,-1.3649578715130686
2024-09-23 01:54:58.851892,42.31,8.321832,-0.014756881194255646,0.020001120827370582,1.0115223922496177,0.3411964856958948,-1.1287272635858505,-1.3649578715130686
2024-09-23 01:54:58.863619,42.31,8.321925,-0.014756881194255646,0.020001120827370582,1.0100589250570406,0.28871353347133843,-1.1330817241821438,-1.4218526205908506
2024-09-23 01:54:58.906727,42.31,8.321925,-0.013903160100075569,0.01823272210499319,1.0131688171448936,0.29306802074806765,-1.2468139127612115,-1.4218526205908506
2024-09-23 01:54:58.919152,42.31,8.321925,-0.013903160100075569,0.01823272210499319,1.0131688171448936,0.29306802074806765,-1.2468139127612115,-1.4174980532728136
2024-09-23 01:54:58.951452,42.31,8.321976,-0.012256778495634975,0.01823272210499319,1.0131688171448936,0.29306802074806765,-1.2468139127612115,-1.4174980532728136
2024-09-23 01:54:59.004405,42.31,8.322027,-0.012256778495634975,0.0187205915907958,1.0121322188537785,0.3630834878716618,-1.1243154934130608,-1.4306188513599336
2024-09-23 01:54:59.046993,42.31,8.322027,-0.010976248499571852,0.0187205915907958,1.0121322188537785,0.3630834878716618,-1.1243154934130608,-1.4306188513599336
2024-09-23 01:54:59.059251,42.31,8.322027,-0.010976248499571852,0.020062078880364497,1.0124370835486052,0.27559278874509036,-1.0980740039605648,-1.3780785628784449
2024-09-23 01:54:59.101980,42.31,8.322078,-0.014208053655459124,0.01963527073796979,1.0167666288447792,0.3368419984191656,-1.0980740039605648,-1.3780785628784449
2024-09-23 01:54:59.113714,42.31,8.322078,-0.014208053655459124,0.01963527073796979,1.0167666288447792,0.3368419984191656,-1.0718325145080685,-1.3780785628784449
2024-09-23 01:54:59.146864,42.31,8.322128,-0.01573262016586086,0.01963527073796979,1.0167666288447792,0.3368419984191656,-1.0718325145080685,-1.404320052330941
2024-09-23 01:54:59.158253,42.31,8.322128,-0.01573262016586086,0.017805912443621806,1.0135956860463553,0.27559278874509036,-1.0718325145080685,-1.404320052330941
2024-09-23 01:54:59.200865,42.31,8.322179,-0.01481783924724956,0.019208359305161096,1.012925003160638,0.27559278874509036,-1.0587118231426924,-1.413086283100024
2024-09-23 01:54:59.243236,42.31,8.322179,-0.01481783924724956,0.019208359305161096,1.012925003160638,0.3368419984191656,-1.203097164625302,-1.413086283100024
2024-09-23 01:54:59.254391,42.31,8.322268,-0.011159123418041933,0.02012303845233509,1.012925003160638,0.3368419984191656,-1.203097164625302,-1.448094003321603
2024-09-23 01:54:59.296348,42.31,8.322319,-0.011159123418041933,0.02012303845233509,1.0085344071538926,0.3018342781975865,-1.1680894444037229,-1.4524485706396402
2024-09-23 01:54:59.308562,42.31,8.322319,-0.01219582044264106,0.02012303845233509,1.0085344071538926,0.3018342781975865,-1.1680894444037229,-1.4524485706396402
2024-09-23 01:54:59.341000,42.31,8.322319,-0.01219582044264106,0.021159735476934217,1.012742045457939,0.4418652124447748,-1.1680894444037229,-1.4524485706396402
2024-09-23 01:54:59.352654,42.31,8.322412,-0.01219582044264106,0.021159735476934217,1.012742045457939,0.4418652124447748,-1.1199610328167677,-1.3956111311383546
2024-09-23 01:54:59.394598,42.31,8.322412,-0.011342100107949322,0.019696228790963704,1.016705578134208,0.3237212803733535,-1.0324703336901964,-1.3780785628784449
2024-09-23 01:54:59.436860,42.31,8.322464,-0.011342100107949322,0.019696228790963704,1.016705578134208,0.3237212803733535,-1.0324703336901964,-1.3780785628784449
2024-09-23 01:54:59.448901,42.31,8.322464,-0.01378124399408774,0.019879204721382753,1.01426646614658,0.27994727602181957,-1.0674780539117754,-1.3780785628784449
2024-09-23 01:54:59.491463,42.31,8.322515,-0.015610600769459046,0.02097675802753849,1.0146322843374704,0.27994727602181957,-1.0674780539117754,-1.3343619214642792
2024-09-23 01:54:59.503401,42.31,8.322515,-0.015610600769459046,0.02097675802753849,1.0146322843374704,0.3193667930966243,-1.0674780539117754,-1.3343619214642792
2024-09-23 01:54:59.535054,42.31,8.322515,-0.015610600769459046,0.02097675802753849,1.0146322843374704,0.3193667930966243,-1.1243154934130608,-1.3518370734259486
2024-09-23 01:54:59.546226,42.31,8.322565,-0.016708257366028764,0.019330377182586234,1.0132908213515286,0.3193667930966243,-1.1243154934130608,-1.3518370734259486
2024-09-23 01:54:59.589074,42.31,8.322616,-0.01182986782231462,0.019330377182586234,1.0132908213515286,0.3324875378228724,-1.1068402347296475,-1.3474826128296553
2024-09-23 01:54:59.601015,42.31,8.322616,-0.01182986782231462,0.019940162774376668,1.0132908213515286,0.3324875378228724,-1.1068402347296475,-1.3474826128296553
2024-09-23 01:54:59.632775,42.31,8.322616,-0.01182986782231462,0.019940162774376668,1.0143883731387076,0.40244569536997005,-1.1068402347296475,-1.3474826128296553
2024-09-23 01:54:59.644583,42.31,8.322667,-0.013354434332716355,0.019940162774376668,1.0143883731387076,0.40244569536997005,-1.1199610328167677,-1.43932777255252
2024-09-23 01:54:59.687389,42.31,8.322753,-0.013354434332716355,0.01835463821098102,1.015546975636458,0.3062460483703762,-1.1156065722204744,-1.4655692620050162
2024-09-23 01:54:59.730833,42.31,8.322753,-0.01378124399408774,0.021037716080532405,1.015546975636458,0.3062460483703762,-1.1156065722204744,-1.4655692620050162
2024-09-23 01:54:59.742464,42.31,8.322753,-0.01378124399408774,0.021037716080532405,1.0137175930384832,0.3280757409696467,-1.238104991568625,-1.404320052330941
2024-09-23 01:54:59.785991,42.4,8.322805,-0.012622630104012445,0.02067186599113161,1.0104856967439952,0.3062460483703762,-1.1068402347296475,-1.404320052330941
2024-09-23 01:54:59.829053,42.4,8.322856,-0.013110498830326714,0.02067186599113161,1.0104856967439952,0.3062460483703762,-1.1068402347296475,-1.4087318225037306
2024-09-23 01:54:59.840664,42.4,8.322856,-0.013110498830326714,0.02213537267710212,1.01231507934197,0.2843590461946093,-1.1068402347296475,-1.4087318225037306
2024-09-23 01:54:59.883597,42.4,8.322907,-0.011037206552565765,0.017561976941232165,1.0157908868352208,0.2843590461946093,-1.1024857741333545,-1.3693696416858583
2024-09-23 01:54:59.925442,42.4,8.322907,-0.011037206552565765,0.017561976941232165,1.0157908868352208,0.3368419984191656,-1.1768557818945498,-1.3693696416858583
2024-09-23 01:54:59.937903,42.4,8.322957,-0.010488379013769245,0.02140366946034718,1.0157908868352208,0.3368419984191656,-1.1768557818945498,-1.3343619214642792
2024-09-23 01:54:59.980684,42.4,8.323008,-0.00987859342197881,0.02140366946034718,1.0162788064472537,0.3499627431454137,-1.2205724233087152,-1.4524485706396402
2024-09-23 01:55:00.022735,42.4,8.323008,-0.00987859342197881,0.021464627513341095,1.0143883731387076,0.3499627431454137,-1.2205724233087152,-1.4524485706396402
2024-09-23 01:55:00.033834,42.4,8.323095,-0.00987859342197881,0.021464627513341095,1.0143883731387076,0.29306802074806765,-1.1549687530383468,-1.434973311956227
2024-09-23 01:55:00.075391,42.4,8.323095,-0.013232416455291218,0.020306014382754138,1.012620041251304,0.3499627431454137,-1.1549687530383468,-1.434973311956227
2024-09-23 01:55:00.087168,42.4,8.323095,-0.013232416455291218,0.020306014382754138,1.012620041251304,0.3499627431454137,-1.0412365644592791,-1.3737241022821516
2024-09-23 01:55:00.119600,42.4,8.323146,-0.01182986782231462,0.020306014382754138,1.012620041251304,0.3499627431454137,-1.0412365644592791,-1.3737241022821516
2024-09-23 01:55:00.131242,42.4,8.323146,-0.01182986782231462,0.021464627513341095,1.01231507934197,0.3193667930966243,-1.0412365644592791,-1.3737241022821516
2024-09-23 01:55:00.173584,42.4,8.323146,-0.01182986782231462,0.021464627513341095,1.01231507934197,0.3193667930966243,-1.0412365644592791,-1.3824903330512346
2024-09-23 01:55:00.216139,42.4,8.323197,-0.01182986782231462,0.021464627513341095,1.01231507934197,0.3193667930966243,-1.0412365644592791,-1.3824903330512346
2024-09-23 01:55:00.227780,42.4,8.323197,-0.014391029585878175,0.021464627513341095,1.01231507934197,0.3193667930966243,-1.0412365644592791,-1.3824903330512346
2024-09-23 01:55:00.322176,42.4,8.323248,-0.014391029585878175,0.018293680157987106,1.0113394345469187,0.3018342781975865,-1.216217962712422,-1.469981032177806
2024-09-23 01:55:00.366207,42.4,8.323248,-0.010671253932239326,0.021952496999143704,1.0120712653577144,0.3018342781975865,-1.216217962712422,-1.469981032177806
2024-09-23 01:55:00.377440,42.4,8.323248,-0.010671253932239326,0.021952496999143704,1.0120712653577144,0.2843590461946093,-1.0193495356030762,-1.3737241022821516
2024-09-23 01:55:00.461347,42.4,8.323299,-0.014391029585878175,0.021952496999143704,1.0120712653577144,0.2843590461946093,-1.0193495356030762,-1.3737241022821516
2024-09-23 01:55:00.473777,42.4,8.323299,-0.014391029585878175,0.021098777423940302,1.0167666288447792,0.3149550229238346,-1.1418479549512268,-1.3737241022821516
2024-09-23 01:55:00.517203,42.4,8.323349,-0.0187205915907958,0.018476656088406155,1.01231507934197,0.3149550229238346,-1.1418479549512268,-1.404320052330941
2024-09-23 01:55:00.560461,42.4,8.323436,-0.0187205915907958,0.018476656088406155,1.01231507934197,0.3149550229238346,-1.1724439050000162,-1.448094003321603
2024-09-23 01:55:00.572168,42.4,8.323436,-0.012134760618209839,0.017439959063807027,1.0153031616522024,0.3149550229238346,-1.1724439050000162,-1.448094003321603
2024-09-23 01:55:00.615460,42.4,8.323585,-0.01219582044264106,0.018964423802771455,1.0153031616522024,0.3018342781975865,-1.0543573625463993,-1.461214801408723
2024-09-23 01:55:00.658140,42.4,8.323585,-0.01219582044264106,0.018964423802771455,1.015546975636458,0.40244569536997005,-1.15932321363464,-1.461214801408723
2024-09-23 01:55:00.669571,42.4,8.323635,-0.015610600769459046,0.018964423802771455,1.015546975636458,0.40244569536997005,-1.15932321363464,-1.434973311956227
2024-09-23 01:55:00.712110,42.4,8.323777,-0.015610600769459046,0.022501222766502915,1.01542506864433,0.39809120809324083,-1.1943309338562191,-1.5749469899877906
2024-09-23 01:55:00.755488,42.4,8.323777,-0.013354434332716355,0.02018409827676631,1.015486022140394,0.39809120809324083,-1.1943309338562191,-1.5749469899877906
2024-09-23 01:55:00.766916,42.4,8.323777,-0.013354434332716355,0.02018409827676631,1.015486022140394,0.31060053564710544,-1.0980740039605648,-1.4218526205908506
2024-09-23 01:55:00.809804,41.74,8.323829,-0.013354434332716355,0.019513251341567978,1.0136566395424191,0.3630834878716618,-1.0674780539117754,-1.4218526205908506
2024-09-23 01:55:00.852468,41.74,8.32388,-0.018049744655597465,0.019513251341567978,1.0136566395424191,0.3630834878716618,-1.0674780539117754,-1.3737241022821516
2024-09-23 01:55:00.864053,41.74,8.32388,-0.018049744655597465,0.018964423802771455,1.0151202039495033,0.3324875378228724,-1.0674780539117754,-1.3737241022821516
2024-09-23 01:55:00.907104,41.74,8.32393,-0.013110498830326714,0.02097675802753849,1.0151202039495033,0.3324875378228724,-1.1111946953259408,-1.3255955839734523
2024-09-23 01:55:00.918609,41.74,8.32393,-0.013110498830326714,0.02097675802753849,1.0148152420401695,0.3324875378228724,-1.1111946953259408,-1.3255955839734523
2024-09-23 01:55:00.950883,41.74,8.32393,-0.013110498830326714,0.02097675802753849,1.0148152420401695,0.29747979092085736,-1.1462025222692638,-1.3255955839734523
2024-09-23 01:55:01.003976,41.74,8.323981,-0.016037512202267738,0.020001120827370582,1.0125589905407328,0.29747979092085736,-1.1462025222692638,-1.2731127117902041
2024-09-23 01:55:01.016365,41.74,8.323981,-0.016037512202267738,0.020001120827370582,1.0125589905407328,0.3193667930966243,-1.1462025222692638,-1.2731127117902041
2024-09-23 01:55:01.050411,41.74,8.324032,-0.016037512202267738,0.020001120827370582,1.0125589905407328,0.3193667930966243,-1.1724439050000162,-1.4655692620050162
2024-09-23 01:55:01.062125,41.74,8.324032,-0.012439653414105056,0.019818144896951533,1.015668979843093,0.3193667930966243,-1.1724439050000162,-1.4655692620050162
2024-09-23 01:55:01.093916,41.74,8.324032,-0.012439653414105056,0.019818144896951533,1.015668979843093,0.3018342781975865,-1.1724439050000162,-1.4655692620050162
2024-09-23 01:55:01.104825,41.74,8.324119,-0.012500713238536278,0.018476656088406155,1.015668979843093,0.3018342781975865,-1.0412365644592791,-1.404320052330941
2024-09-23 01:55:01.148088,41.74,8.324119,-0.012500713238536278,0.018476656088406155,1.017132544250177,0.2843590461946093,-1.0587118231426924,-1.3649578715130686
2024-09-23 01:55:01.159554,41.74,8.32417,-0.014878899071680782,0.018476656088406155,1.017132544250177,0.2843590461946093,-1.0587118231426924,-1.3649578715130686
2024-09-23 01:55:01.191054,41.74,8.32417,-0.014878899071680782,0.017744852619190586,1.017132544250177,0.2843590461946093,-1.0587118231426924,-1.3649578715130686
2024-09-23 01:55:01.202811,41.74,8.324221,-0.014878899071680782,0.017744852619190586,1.01542506864433,0.3411964856958948,-1.1111946953259408,-1.4218526205908506
2024-09-23 01:55:01.245424,41.74,8.324221,-0.011586034850850625,0.02189143717471248,1.0114614387535539,0.3411964856958948,-1.1680894444037229,-1.4218526205908506
2024-09-23 01:55:01.257474,41.74,8.324221,-0.011586034850850625,0.02189143717471248,1.0114614387535539,0.3411964856958948,-1.1680894444037229,-1.3737241022821516
2024-09-23 01:55:01.290033,41.74,8.324314,-0.014025177977500705,0.02189143717471248,1.0114614387535539,0.3411964856958948,-1.1680894444037229,-1.3737241022821516
2024-09-23 01:55:01.301265,41.74,8.324314,-0.014025177977500705,0.020610907938137694,1.0118883076550156,0.3280757409696467,-1.2512256829340012,-1.3737241022821516
2024-09-23 01:55:01.343668,41.74,8.324366,-0.014025177977500705,0.020610907938137694,1.0118883076550156,0.3280757409696467,-1.2512256829340012,-1.469981032177806
2024-09-23 01:55:01.386758,41.74,8.324366,-0.01146401621393715,0.020610907938137694,1.0118883076550156,0.3280757409696467,-1.2512256829340012,-1.469981032177806
2024-09-23 01:55:01.398359,41.74,8.324366,-0.01146401621393715,0.021098777423940302,1.0170715907541132,0.2843590461946093,-1.1768557818945498,-1.4874562908612192
2024-09-23 01:55:01.441396,41.74,8.324416,-0.011037206552565765,0.02067186599113161,1.0131688171448936,0.4155664400962181,-1.1768557818945498,-1.4874562908612192
2024-09-23 01:55:01.453589,41.74,8.324416,-0.011037206552565765,0.02067186599113161,1.0131688171448936,0.4155664400962181,-1.1243154934130608,-1.4874562908612192
2024-09-23 01:55:01.486879,41.74,8.324467,-0.010793271809664462,0.02067186599113161,1.0131688171448936,0.4155664400962181,-1.1243154934130608,-1.4306188513599336
2024-09-23 01:55:01.498366,41.74,8.324467,-0.010793271809664462,0.02201345505213762,1.0160348952484908,0.3149550229238346,-1.1243154934130608,-1.4306188513599336
2024-09-23 01:55:01.541822,41.74,8.324518,-0.01408613603049462,0.021281651582922046,1.012620041251304,0.3149550229238346,-1.15932321363464,-1.404320052330941
2024-09-23 01:55:01.584171,41.74,8.324518,-0.01408613603049462,0.021281651582922046,1.012620041251304,0.29747979092085736,-1.0849533125951887,-1.404320052330941
2024-09-23 01:55:01.636640,41.74,8.324606,-0.011586034850850625,0.02207441310513153,1.0152421109416312,0.29747979092085736,-1.0849533125951887,-1.4174980532728136
2024-09-23 01:55:01.648727,41.74,8.324606,-0.011586034850850625,0.02207441310513153,1.0152421109416312,0.27123832814879717,-1.0849533125951887,-1.4174980532728136
2024-09-23 01:55:01.681453,41.74,8.324658,-0.011586034850850625,0.02207441310513153,1.0152421109416312,0.27123832814879717,-1.1549687530383468,-1.4306188513599336
2024-09-23 01:55:01.693116,41.74,8.324658,-0.012378695361111141,0.016098470255261652,1.0129859566567019,0.27123832814879717,-1.1549687530383468,-1.4306188513599336
2024-09-23 01:55:01.736218,41.74,8.324752,-0.015122834574070423,0.023050050305299438,1.0129859566567019,0.2843590461946093,-1.1330817241821438,-1.5005769822265953
2024-09-23 01:55:01.779455,41.74,8.324752,-0.015122834574070423,0.023050050305299438,1.0107906586533293,0.31060053564710544,-1.0980740039605648,-1.5005769822265953
2024-09-23 01:55:01.791609,41.74,8.324804,-0.01182986782231462,0.023050050305299438,1.0107906586533293,0.31060053564710544,-1.0980740039605648,-1.426207081187144
2024-09-23 01:55:01.823794,41.92,8.324804,-0.01182986782231462,0.019452293288574063,1.0107906586533293,0.31060053564710544,-1.0980740039605648,-1.426207081187144
2024-09-23 01:55:01.835026,41.92,8.324899,-0.01182986782231462,0.019452293288574063,1.0152421109416312,0.4287444677185267,-1.0980740039605648,-1.4437395427253097
2024-09-23 01:55:01.877838,41.92,8.324899,-0.012073802565215924,0.01914740125216718,1.0130469101527657,0.35872900059493257,-1.0980740039605648,-1.4437395427253097
2024-09-23 01:55:01.889473,41.92,8.324899,-0.012073802565215924,0.01914740125216718,1.0130469101527657,0.35872900059493257,-1.1156065722204744,-1.426207081187144
2024-09-23 01:55:01.922076,41.92,8.32495,-0.012073802565215924,0.01914740125216718,1.0130469101527657,0.35872900059493257,-1.1156065722204744,-1.426207081187144
2024-09-23 01:55:01.933606,41.92,8.32495,-0.011159123418041933,0.021037716080532405,1.0135956860463553,0.27994727602181957,-1.1156065722204744,-1.426207081187144
2024-09-23 01:55:01.975323,41.92,8.325001,-0.01268358815700636,0.020366972435748053,1.0135956860463553,0.27994727602181957,-1.1156065722204744,-1.3606034109167755
2024-09-23 01:55:01.986646,41.92,8.325001,-0.01268358815700636,0.020366972435748053,1.010668654446694,0.3368419984191656,-1.1156065722204744,-1.3606034109167755
2024-09-23 01:55:02.029452,41.92,8.325052,-0.01445198763887209,0.01914740125216718,1.014144559154452,0.3368419984191656,-1.0587118231426924,-1.3518370734259486
2024-09-23 01:55:02.071724,41.92,8.325052,-0.01445198763887209,0.01914740125216718,1.014144559154452,0.38061600277069957,-1.1943309338562191,-1.43932777255252
2024-09-23 01:55:02.083364,41.92,8.325102,-0.014025177977500705,0.019452293288574063,1.014144559154452,0.38061600277069957,-1.1943309338562191,-1.43932777255252
2024-09-23 01:55:02.126155,41.92,8.325153,-0.009634658679077505,0.019452293288574063,1.014205512650516,0.3456082558686845,-1.1724439050000162,-1.4524485706396402
2024-09-23 01:55:02.168773,41.92,8.325153,-0.009634658679077505,0.02213537267710212,1.015608026347029,0.3062460483703762,-1.1724439050000162,-1.4524485706396402
2024-09-23 01:55:02.180894,41.92,8.32524,-0.009634658679077505,0.02213537267710212,1.015608026347029,0.3062460483703762,-1.2118635021161288,-1.3649578715130686
2024-09-23 01:55:02.224056,41.92,8.32524,-0.013232416455291218,0.02018409827676631,1.0151202039495033,0.2318188110739924,-1.1068402347296475,-1.3430708426568656
2024-09-23 01:55:02.266980,41.92,8.325292,-0.01481783924724956,0.019452293288574063,1.0151202039495033,0.2318188110739924,-1.1068402347296475,-1.3430708426568656
2024-09-23 01:55:02.278303,41.92,8.325292,-0.01481783924724956,0.019452293288574063,1.0125589905407328,0.3411964856958948,-1.1768557818945498,-1.3430708426568656
2024-09-23 01:55:02.321850,41.92,8.325343,-0.012134760618209839,0.01914740125216718,1.0136566395424191,0.3149550229238346,-1.1768557818945498,-1.3737241022821516
2024-09-23 01:55:02.364356,41.92,8.325393,-0.012134760618209839,0.01914740125216718,1.0136566395424191,0.3149550229238346,-1.1506142924420535,-1.3780785628784449
2024-09-23 01:55:02.376182,41.92,8.325393,-0.010854230622146716,0.021281651582922046,1.0135347325502915,0.3149550229238346,-1.1506142924420535,-1.3780785628784449
2024-09-23 01:55:02.418480,41.92,8.325444,-0.010122528164880112,0.020610907938137694,1.0135347325502915,0.3280757409696467,-1.2118635021161288,-1.3780785628784449
2024-09-23 01:55:02.461925,41.92,8.325444,-0.010122528164880112,0.020610907938137694,1.01426646614658,0.3018342781975865,-1.1680894444037229,-1.3780785628784449
2024-09-23 01:55:02.473568,41.92,8.325495,-0.013110498830326714,0.020610907938137694,1.01426646614658,0.3018342781975865,-1.1680894444037229,-1.4437395427253097
2024-09-23 01:55:02.515859,41.92,8.325581,-0.013110498830326714,0.019940162774376668,1.0135347325502915,0.37184974532118065,-1.1287272635858505,-1.483101830264926
2024-09-23 01:55:02.609456,41.92,8.325581,-0.012134760618209839,0.021037716080532405,1.0158518403312846,0.2843590461946093,-1.1287272635858505,-1.483101830264926
2024-09-23 01:55:02.621544,41.92,8.325581,-0.012134760618209839,0.021037716080532405,1.0158518403312846,0.2843590461946093,-1.0980740039605648,-1.4087318225037306
2024-09-23 01:55:02.654380,41.92,8.325633,-0.012134760618209839,0.021037716080532405,1.0158518403312846,0.2843590461946093,-1.0980740039605648,-1.4087318225037306
2024-09-23 01:55:02.666374,41.92,8.325633,-0.008963914274804818,0.02067186599113161,1.0129859566567019,0.29306802074806765,-1.15932321363464,-1.4087318225037306
2024-09-23 01:55:02.708502,41.92,8.325684,-0.012500713238536278,0.021098777423940302,1.0139006479556893,0.29306802074806765,-1.15932321363464,-1.3518370734259486
2024-09-23 01:55:02.720294,41.92,8.325684,-0.012500713238536278,0.021098777423940302,1.0139006479556893,0.3193667930966243,-1.15932321363464,-1.3518370734259486
2024-09-23 01:55:02.752706,41.92,8.325684,-0.012500713238536278,0.021098777423940302,1.0139006479556893,0.3193667930966243,-1.1462025222692638,-1.469981032177806
2024-09-23 01:55:02.764301,41.92,8.325735,-0.01341539238571027,0.02189143717471248,1.0161568022406187,0.3193667930966243,-1.1462025222692638,-1.469981032177806
2024-09-23 01:55:02.806206,41.92,8.325786,-0.013293374508285133,0.02189143717471248,1.0161568022406187,0.40685746554275976,-1.0805987452771515,-1.3868447936475277
2024-09-23 01:55:02.817753,41.92,8.325786,-0.013293374508285133,0.018293680157987106,1.0161568022406187,0.40685746554275976,-1.0805987452771515,-1.3868447936475277
2024-09-23 01:55:02.850256,41.73,8.325786,-0.013293374508285133,0.018293680157987106,1.0165836711420804,0.3411964856958948,-1.0805987452771515,-1.3868447936475277
2024-09-23 01:55:02.861720,41.73,8.325876,-0.012744546969488612,0.018293680157987106,1.0165836711420804,0.3411964856958948,-1.1111946953259408,-1.4306188513599336
2024-09-23 01:55:02.904336,41.73,8.325876,-0.012744546969488612,0.01835463821098102,1.0146322843374704,0.446219699721504,-1.0893650827679784,-1.3999655917346479
2024-09-23 01:55:02.916040,41.73,8.325971,-0.012744546969488612,0.01835463821098102,1.0146322843374704,0.446219699721504,-1.0893650827679784,-1.3999655917346479
2024-09-23 01:55:02.948105,41.73,8.325971,-0.00859796089499004,0.020549948366167105,1.0146322843374704,0.446219699721504,-1.0893650827679784,-1.3999655917346479
2024-09-23 01:55:02.960194,41.73,8.325971,-0.00859796089499004,0.020549948366167105,1.0120102146471432,0.38061600277069957,-1.1549687530383468,-1.448094003321603
2024-09-23 01:55:03.003571,41.73,8.326023,-0.014574005516297226,0.019940162774376668,1.011095523348156,0.24935132597303017,-1.2293386540777982,-1.448094003321603
2024-09-23 01:55:03.046833,41.73,8.326073,-0.012317737308117227,0.019940162774376668,1.011095523348156,0.24935132597303017,-1.2293386540777982,-1.3999655917346479
2024-09-23 01:55:03.058483,41.73,8.326073,-0.012317737308117227,0.02048899031317319,1.0135347325502915,0.24935132597303017,-1.2293386540777982,-1.3999655917346479
2024-09-23 01:55:03.100934,41.73,8.326124,-0.013110498830326714,0.020001120827370582,1.0115223922496177,0.24935132597303017,-1.0805987452771515,-1.483101830264926
2024-09-23 01:55:03.144386,41.73,8.326124,-0.013110498830326714,0.020001120827370582,1.0115223922496177,0.2668265312955715,-1.0499454856518655,-1.4874562908612192
2024-09-23 01:55:03.155827,41.73,8.326175,-0.013476350438704184,0.02213537267710212,1.0115223922496177,0.2668265312955715,-1.0499454856518655,-1.4874562908612192
2024-09-23 01:55:03.198548,41.73,8.326226,-0.011220081471035847,0.02213537267710212,1.0116442992417454,0.39373674749694765,-1.1111946953259408,-1.434973311956227
2024-09-23 01:55:03.241055,41.73,8.326226,-0.011220081471035847,0.01890346574977754,1.0124370835486052,0.2843590461946093,-1.1111946953259408,-1.434973311956227
2024-09-23 01:55:03.252707,41.73,8.326312,-0.011220081471035847,0.01890346574977754,1.0124370835486052,0.2843590461946093,-1.0980740039605648,-1.5487055005352943
2024-09-23 01:55:03.296083,41.73,8.326312,-0.01268358815700636,0.020915799974544576,1.015973941752427,0.3499627431454137,-1.1374934943549335,-1.4306188513599336
2024-09-23 01:55:03.390280,41.73,8.326364,-0.013232416455291218,0.018598572194393984,1.0136566395424191,0.3499627431454137,-1.1374934943549335,-1.4306188513599336
2024-09-23 01:55:03.402140,41.73,8.326364,-0.013232416455291218,0.018598572194393984,1.0136566395424191,0.28871353347133843,-1.1637349838074296,-1.4306188513599336
2024-09-23 01:55:03.486441,41.73,8.326415,-0.01256167205101853,0.018598572194393984,1.0136566395424191,0.28871353347133843,-1.1637349838074296,-1.3780785628784449
2024-09-23 01:55:03.497763,41.73,8.326415,-0.01256167205101853,0.021098777423940302,1.0104247432479314,0.3499627431454137,-1.1637349838074296,-1.3780785628784449
2024-09-23 01:55:03.530728,41.73,8.326415,-0.01256167205101853,0.021098777423940302,1.0104247432479314,0.3499627431454137,-1.0674780539117754,-1.3780785628784449
2024-09-23 01:55:03.542112,41.73,8.326465,-0.011707950956838454,0.021159735476934217,1.0139616014517532,0.3499627431454137,-1.0674780539117754,-1.4568603408124299
2024-09-23 01:55:03.584740,41.73,8.326516,-0.011707950956838454,0.021159735476934217,1.0139616014517532,0.29306802074806765,-1.15932321363464,-1.469981032177806
2024-09-23 01:55:03.596896,41.73,8.326516,-0.01622038788022616,0.021159735476934217,1.0139616014517532,0.29306802074806765,-1.15932321363464,-1.469981032177806
2024-09-23 01:55:03.680545,41.73,8.326516,-0.01622038788022616,0.020549948366167105,1.01426646614658,0.27994727602181957,-1.15932321363464,-1.469981032177806
2024-09-23 01:55:03.692398,41.73,8.326567,-0.01622038788022616,0.020549948366167105,1.01426646614658,0.27994727602181957,-1.0805987452771515,-1.413086283100024
2024-09-23 01:55:03.735598,41.73,8.326567,-0.01445198763887209,0.020245056329760223,1.0139006479556893,0.37620423259790986,-1.1156065722204744,-1.3999655917346479
2024-09-23 01:55:03.778026,41.73,8.326702,-0.010061467580960552,0.01926931735815501,1.0139006479556893,0.37620423259790986,-1.1156065722204744,-1.3999655917346479
2024-09-23 01:55:03.789753,41.73,8.326702,-0.010061467580960552,0.01926931735815501,1.012925003160638,0.38061600277069957,-1.1462025222692638,-1.3999655917346479
2024-09-23 01:55:03.833286,41.73,8.3268,-0.012805606793919833,0.019452293288574063,1.01231507934197,0.2843590461946093,-1.1462025222692638,-1.4568603408124299
2024-09-23 01:55:03.875136,41.03,8.326852,-0.012805606793919833,0.019452293288574063,1.01231507934197,0.2843590461946093,-1.1506142924420535,-1.491868061034009
2024-09-23 01:55:03.887022,41.03,8.326852,-0.014634963569291141,0.019513251341567978,1.0115833457456815,0.2843590461946093,-1.1506142924420535,-1.491868061034009
2024-09-23 01:55:03.929295,41.03,8.326948,-0.016098470255261652,0.02311100987727003,1.0115833457456815,0.3543172304221429,-1.0893650827679784,-1.461214801408723
2024-09-23 01:55:03.971751,41.03,8.326948,-0.016098470255261652,0.02311100987727003,1.0132298678554648,0.3018342781975865,-1.0893650827679784,-1.461214801408723
2024-09-23 01:55:03.983133,41.03,8.326999,-0.013049540777332799,0.02311100987727003,1.0132298678554648,0.3018342781975865,-1.1855647030871361,-1.413086283100024
2024-09-23 01:55:04.025873,41.03,8.327092,-0.013049540777332799,0.02067186599113161,1.0129859566567019,0.27559278874509036,-1.0762442846808582,-1.294999633924663
2024-09-23 01:55:04.068730,41.03,8.327092,-0.011281142054955407,0.022501222766502915,1.0129859566567019,0.27559278874509036,-1.0762442846808582,-1.294999633924663
2024-09-23 01:55:04.080476,41.03,8.327092,-0.011281142054955407,0.022501222766502915,1.0132908213515286,0.2362305812467821,-1.0893650827679784,-1.3474826128296553
2024-09-23 01:55:04.123931,41.03,8.327144,-0.012744546969488612,0.020793883868556746,1.0113394345469187,0.3411964856958948,-1.216217962712422,-1.3474826128296553
2024-09-23 01:55:04.166323,41.03,8.327195,-0.012744546969488612,0.020793883868556746,1.0113394345469187,0.3411964856958948,-1.216217962712422,-1.3255955839734523
2024-09-23 01:55:04.177443,41.03,8.327195,-0.015000815177668611,0.02237930666051509,1.0146933350480416,0.3193667930966243,-1.216217962712422,-1.3255955839734523
2024-09-23 01:55:04.220385,41.03,8.327246,-0.011159123418041933,0.022196330730096036,1.0146933350480416,0.3193667930966243,-1.0368247942864894,-1.3124748926080763
2024-09-23 01:55:04.232498,41.03,8.327246,-0.011159123418041933,0.022196330730096036,1.0128639524500669,0.3193667930966243,-1.0368247942864894,-1.3124748926080763
2024-09-23 01:55:04.264239,41.03,8.327246,-0.011159123418041933,0.022196330730096036,1.0128639524500669,0.3368419984191656,-1.0980740039605648,-1.3124748926080763
2024-09-23 01:55:04.275582,41.03,8.327297,-0.011951885699739756,0.019208359305161096,1.0128639524500669,0.3368419984191656,-1.0980740039605648,-1.3780785628784449
2024-09-23 01:55:04.318130,41.03,8.327348,-0.011951885699739756,0.019208359305161096,1.0146933350480416,0.3237212803733535,-1.0937195433642715,-1.404320052330941
2024-09-23 01:55:04.330268,41.03,8.327348,-0.01182986782231462,0.019208359305161096,1.0146933350480416,0.3237212803733535,-1.0937195433642715,-1.404320052330941
2024-09-23 01:55:04.362714,41.03,8.327348,-0.01182986782231462,0.022684200215898644,1.0134127283436565,0.2843590461946093,-1.0937195433642715,-1.404320052330941
2024-09-23 01:55:04.373833,41.03,8.327434,-0.01182986782231462,0.022684200215898644,1.0134127283436565,0.2843590461946093,-1.1855647030871361,-1.4568603408124299
2024-09-23 01:55:04.416127,41.03,8.327434,-0.014574005516297226,0.02140366946034718,1.0134127283436565,0.2318188110739924,-1.1549687530383468,-1.434973311956227
2024-09-23 01:55:04.459442,41.03,8.327485,-0.013354434332716355,0.02140366946034718,1.0134127283436565,0.2318188110739924,-1.1549687530383468,-1.434973311956227
2024-09-23 01:55:04.471180,41.03,8.327485,-0.013354434332716355,0.02140366946034718,1.0153641151482662,0.27123832814879717,-1.1549687530383468,-1.434973311956227
2024-09-23 01:55:04.515049,41.03,8.327536,-0.012378695361111141,0.021281651582922046,1.01231507934197,0.27123832814879717,-1.1111946953259408,-1.4524485706396402
2024-09-23 01:55:04.558450,41.03,8.327536,-0.012378695361111141,0.021281651582922046,1.01231507934197,0.3630834878716618,-1.1462025222692638,-1.4437395427253097
2024-09-23 01:55:04.569785,41.03,8.327587,-0.014391029585878175,0.02012303845233509,1.01231507934197,0.3630834878716618,-1.1462025222692638,-1.4437395427253097
2024-09-23 01:55:04.613417,41.03,8.327638,-0.013720285941093825,0.02012303845233509,1.0118883076550156,0.3456082558686845,-1.1330817241821438,-1.5224640110827983
2024-09-23 01:55:04.655583,41.03,8.327638,-0.013720285941093825,0.02048899031317319,1.0134736818397203,0.35872900059493257,-1.1330817241821438,-1.5224640110827983
2024-09-23 01:55:04.667133,41.03,8.327688,-0.013720285941093825,0.02048899031317319,1.0134736818397203,0.35872900059493257,-1.0849533125951887,-1.4655692620050162
2024-09-23 01:55:04.709688,41.03,8.327688,-0.016342405757651293,0.02274515826889256,1.0137175930384832,0.3324875378228724,-1.1506142924420535,-1.3387163820605725
2024-09-23 01:55:04.752972,41.03,8.327776,-0.009146789193274898,0.019574312684975875,1.0137175930384832,0.3324875378228724,-1.1506142924420535,-1.3387163820605725
2024-09-23 01:55:04.764835,41.03,8.327776,-0.009146789193274898,0.019574312684975875,1.0092051872541172,0.2537058132497594,-1.1024857741333545,-1.3387163820605725
2024-09-23 01:55:04.807176,41.03,8.327827,-0.011220081471035847,0.018598572194393984,1.0130469101527657,0.26247207069927825,-1.1024857741333545,-1.3255955839734523
2024-09-23 01:55:04.850583,41.03,8.327878,-0.011220081471035847,0.018598572194393984,1.0130469101527657,0.26247207069927825,-1.0674780539117754,-1.3124748926080763
2024-09-23 01:55:04.862203,41.03,8.327878,-0.015915494324842603,0.021586543619328925,1.011217527554791,0.26247207069927825,-1.0674780539117754,-1.3124748926080763
2024-09-23 01:55:04.897159,40.95,8.327878,-0.015915494324842603,0.021586543619328925,1.011217527554791,0.40685746554275976,-1.0674780539117754,-1.3124748926080763
2024-09-23 01:55:04.908841,40.95,8.327928,-0.016098470255261652,0.019086441680196593,1.011217527554791,0.40685746554275976,-1.1199610328167677,-1.3956111311383546
2024-09-23 01:55:04.951828,40.95,8.327979,-0.016098470255261652,0.019086441680196593,1.0126809947473678,0.37184974532118065,-1.1506142924420535,-1.3956111311383546
2024-09-23 01:55:04.964829,40.95,8.327979,-0.012927522899907663,0.019086441680196593,1.0126809947473678,0.37184974532118065,-1.1506142924420535,-1.3956111311383546
2024-09-23 01:55:04.997950,40.95,8.327979,-0.012927522899907663,0.021281651582922046,1.0077417200615404,0.3062460483703762,-1.0587118231426924,-1.3956111311383546
2024-09-23 01:55:05.009411,40.95,8.328067,-0.012927522899907663,0.021281651582922046,1.0077417200615404,0.3062460483703762,-1.0587118231426924,-1.413086283100024
2024-09-23 01:55:05.041376,40.95,8.328067,-0.014574005516297226,0.021281651582922046,1.0077417200615404,0.3062460483703762,-1.0587118231426924,-1.413086283100024
2024-09-23 01:55:05.053064,40.95,8.328067,-0.014574005516297226,0.019696228790963704,1.0149982969573756,0.3456082558686845,-1.1024857741333545,-1.3343619214642792
2024-09-23 01:55:05.096433,40.95,8.328119,-0.014695923141261731,0.018049744655597465,1.0171934977462411,0.3456082558686845,-1.1024857741333545,-1.3343619214642792
2024-09-23 01:55:05.108286,40.95,8.328119,-0.014695923141261731,0.018049744655597465,1.0171934977462411,0.35872900059493257,-1.0543573625463993,-1.3343619214642792
2024-09-23 01:55:05.140924,40.95,8.328119,-0.014695923141261731,0.018049744655597465,1.0171934977462411,0.35872900059493257,-1.0543573625463993,-1.404320052330941
2024-09-23 01:55:05.152659,40.95,8.32817,-0.014574005516297226,0.019208359305161096,1.015486022140394,0.3193667930966243,-1.0543573625463993,-1.404320052330941
2024-09-23 01:55:05.195670,40.95,8.328221,-0.013598266544692013,0.018659531766364576,1.015486022140394,0.3193667930966243,-1.0630662837389857,-1.4437395427253097
2024-09-23 01:55:05.207919,40.95,8.328221,-0.013598266544692013,0.018659531766364576,1.0164007134393813,0.3193667930966243,-1.0630662837389857,-1.4437395427253097
2024-09-23 01:55:05.242058,40.95,8.328221,-0.013598266544692013,0.018659531766364576,1.0164007134393813,0.4155664400962181,-1.1506142924420535,-1.4306188513599336
2024-09-23 01:55:05.253155,40.95,8.328271,-0.013354434332716355,0.018781549643789714,1.0164007134393813,0.4155664400962181,-1.1506142924420535,-1.4306188513599336
2024-09-23 01:55:05.285856,40.95,8.328271,-0.013354434332716355,0.018781549643789714,1.0101198785531047,0.4155664400962181,-1.1506142924420535,-1.4306188513599336
2024-09-23 01:55:05.297171,40.95,8.328322,-0.011098165365048018,0.018781549643789714,1.0101198785531047,0.35872900059493257,-1.1724439050000162,-1.404320052330941
2024-09-23 01:55:05.340040,40.95,8.328322,-0.011098165365048018,0.021281651582922046,1.0123761300525411,0.42433269754573705,-1.1374934943549335,-1.404320052330941
2024-09-23 01:55:05.351824,40.95,8.328409,-0.011098165365048018,0.021281651582922046,1.0123761300525411,0.42433269754573705,-1.1374934943549335,-1.4087318225037306
2024-09-23 01:55:05.385718,40.95,8.328409,-0.011159123418041933,0.019330377182586234,1.0123761300525411,0.42433269754573705,-1.1374934943549335,-1.4087318225037306
2024-09-23 01:55:05.397092,40.95,8.328409,-0.011159123418041933,0.019330377182586234,1.0153641151482662,0.3237212803733535,-1.0893650827679784,-1.3956111311383546
2024-09-23 01:55:05.439833,40.95,8.32846,-0.01536666678604608,0.02122069352992813,1.0161568022406187,0.2318188110739924,-1.0543573625463993,-1.3956111311383546
2024-09-23 01:55:05.482657,40.95,8.328511,-0.01536666678604608,0.02122069352992813,1.0161568022406187,0.2318188110739924,-1.0543573625463993,-1.3606034109167755
2024-09-23 01:55:05.494056,40.95,8.328511,-0.012439653414105056,0.02122069352992813,1.0128639524500669,0.35872900059493257,-1.0543573625463993,-1.3606034109167755
2024-09-23 01:55:05.536450,40.95,8.328562,-0.01256167205101853,0.022501222766502915,1.0128639524500669,0.35872900059493257,-1.1549687530383468,-1.461214801408723
2024-09-23 01:55:05.548194,40.95,8.328562,-0.01256167205101853,0.022501222766502915,1.0143883731387076,0.35872900059493257,-1.1549687530383468,-1.461214801408723
2024-09-23 01:55:05.580458,40.95,8.328562,-0.01256167205101853,0.022501222766502915,1.0143883731387076,0.38932495064372197,-1.0718325145080685,-1.461214801408723
2024-09-23 01:55:05.591704,40.95,8.328613,-0.011342100107949322,0.02134260963591596,1.0143883731387076,0.38932495064372197,-1.0718325145080685,-1.461214801408723
2024-09-23 01:55:05.634301,40.95,8.328663,-0.011342100107949322,0.02134260963591596,1.015546975636458,0.41121195281948897,-1.0980740039605648,-1.448094003321603
2024-09-23 01:55:05.647046,40.95,8.328663,-0.01378124399408774,0.02134260963591596,1.015546975636458,0.41121195281948897,-1.0980740039605648,-1.448094003321603
2024-09-23 01:55:05.679195,40.95,8.328663,-0.01378124399408774,0.019452293288574063,1.0153031616522024,0.41121195281948897,-1.0980740039605648,-1.448094003321603
2024-09-23 01:55:05.690595,40.95,8.32875,-0.01378124399408774,0.019452293288574063,1.0153031616522024,0.3411964856958948,-1.0674780539117754,-1.4437395427253097
2024-09-23 01:55:05.733441,40.95,8.32875,-0.01408613603049462,0.01786687049661572,1.012498037044669,0.24499683869630098,-1.0937195433642715,-1.3387163820605725
2024-09-23 01:55:05.776414,40.95,8.328802,-0.009756574785065334,0.02067186599113161,1.012498037044669,0.24499683869630098,-1.0937195433642715,-1.3387163820605725
2024-09-23 01:55:05.787511,40.95,8.328802,-0.009756574785065334,0.02067186599113161,1.012498037044669,0.3411964856958948,-1.0324703336901964,-1.3387163820605725
2024-09-23 01:55:05.830974,40.95,8.328852,-0.01365932788809991,0.01695219134944173,1.0116442992417454,0.3018342781975865,-1.0324703336901964,-1.3168293532043696
2024-09-23 01:55:05.872790,40.95,8.328852,-0.01365932788809991,0.01695219134944173,1.0116442992417454,0.3018342781975865,-1.1330817241821438,-1.3518370734259486
2024-09-23 01:55:05.884353,40.95,8.328903,-0.012012843752733671,0.018293680157987106,1.0129859566567019,0.3018342781975865,-1.1330817241821438,-1.3518370734259486
2024-09-23 01:55:05.926574,41.22,8.328954,-0.011220081471035847,0.018293680157987106,1.0129859566567019,0.28871353347133843,-1.1374934943549335,-1.404320052330941
2024-09-23 01:55:05.938804,41.22,8.328954,-0.011220081471035847,0.021464627513341095,1.0129859566567019,0.28871353347133843,-1.1374934943549335,-1.404320052330941
2024-09-23 01:55:05.972174,41.22,8.328954,-0.011220081471035847,0.021464627513341095,1.0139006479556893,0.3456082558686845,-1.0718325145080685,-1.404320052330941
2024-09-23 01:55:05.983297,41.22,8.329005,-0.014512945691866003,0.021464627513341095,1.0139006479556893,0.3456082558686845,-1.0718325145080685,-1.4568603408124299
2024-09-23 01:55:06.025409,41.22,8.329092,-0.014512945691866003,0.022684200215898644,1.0135956860463553,0.35872900059493257,-1.1637349838074296,-1.4437395427253097
2024-09-23 01:55:06.067126,41.22,8.329092,-0.01433007153288426,0.02140366946034718,1.0135956860463553,0.35872900059493257,-1.1637349838074296,-1.4437395427253097
2024-09-23 01:55:06.079202,41.22,8.329092,-0.01433007153288426,0.02140366946034718,1.0136566395424191,0.38061600277069957,-1.1156065722204744,-1.448094003321603
2024-09-23 01:55:06.121976,41.22,8.329143,-0.012866564846913748,0.020306014382754138,1.0178032271358946,0.35872900059493257,-1.1156065722204744,-1.448094003321603
2024-09-23 01:55:06.133731,41.22,8.329143,-0.012866564846913748,0.020306014382754138,1.0178032271358946,0.35872900059493257,-1.1199610328167677,-1.448094003321603
2024-09-23 01:55:06.165448,41.22,8.329194,-0.012866564846913748,0.020306014382754138,1.0178032271358946,0.35872900059493257,-1.1199610328167677,-1.3649578715130686
2024-09-23 01:55:06.176623,41.22,8.329194,-0.01433007153288426,0.021281651582922046,1.0113394345469187,0.3193667930966243,-1.1199610328167677,-1.3649578715130686
2024-09-23 01:55:06.219935,41.22,8.329244,-0.012256778495634975,0.02012303845233509,1.011217527554791,0.3193667930966243,-1.028115873093903,-1.4087318225037306
2024-09-23 01:55:06.262624,41.22,8.329244,-0.012256778495634975,0.02012303845233509,1.011217527554791,0.35872900059493257,-1.1330817241821438,-1.4087318225037306
2024-09-23 01:55:06.274294,41.22,8.329295,-0.015000815177668611,0.01853761414140007,1.011217527554791,0.35872900059493257,-1.1330817241821438,-1.3693696416858583
2024-09-23 01:55:06.317158,41.22,8.329346,-0.015000815177668611,0.01853761414140007,1.012802998954003,0.3237212803733535,-1.1506142924420535,-1.413086283100024
2024-09-23 01:55:06.328823,41.22,8.329346,-0.013842202047081654,0.01853761414140007,1.012802998954003,0.3237212803733535,-1.1506142924420535,-1.413086283100024
2024-09-23 01:55:06.361270,41.22,8.329346,-0.013842202047081654,0.02262324216290473,1.012498037044669,0.3149550229238346,-1.1506142924420535,-1.413086283100024
2024-09-23 01:55:06.372722,41.22,8.329433,-0.013842202047081654,0.02262324216290473,1.012498037044669,0.3149550229238346,-1.1462025222692638,-1.3299501512914895
2024-09-23 01:55:06.416093,41.22,8.329433,-0.01256167205101853,0.017927828549609635,1.0121322188537785,0.3018342781975865,-1.1462025222692638,-1.448094003321603
2024-09-23 01:55:06.458045,41.22,8.329484,-0.014574005516297226,0.017927828549609635,1.0121322188537785,0.3018342781975865,-1.1462025222692638,-1.448094003321603
2024-09-23 01:55:06.469941,41.22,8.329484,-0.014574005516297226,0.020732824044125523,1.0144494238492787,0.3193667930966243,-1.1768557818945498,-1.448094003321603
2024-09-23 01:55:06.505961,41.22,8.329535,-0.014574005516297226,0.020732824044125523,1.0144494238492787,0.3193667930966243,-1.1768557818945498,-1.448094003321603
2024-09-23 01:55:06.517582,41.22,8.329535,-0.011342100107949322,0.022928134199311608,1.014205512650516,0.27123832814879717,-1.1768557818945498,-1.448094003321603
2024-09-23 01:55:06.611085,41.22,8.329586,-0.012622630104012445,0.020793883868556746,1.0152421109416312,0.27123832814879717,-1.2818216329827905,-1.4787472629468887
2024-09-23 01:55:06.654650,41.22,8.329586,-0.012622630104012445,0.020793883868556746,1.0152421109416312,0.3368419984191656,-1.1855647030871361,-1.426207081187144
2024-09-23 01:55:06.666145,41.22,8.329636,-0.011524974266931064,0.02164760496273682,1.0152421109416312,0.3368419984191656,-1.1855647030871361,-1.426207081187144
2024-09-23 01:55:06.708954,41.22,8.329687,-0.015549642716465131,0.02164760496273682,1.0151811574455674,0.3018342781975865,-1.1287272635858505,-1.4174980532728136
2024-09-23 01:55:06.751564,41.22,8.329687,-0.015549642716465131,0.018659531766364576,1.0143274196426437,0.37184974532118065,-1.1287272635858505,-1.4174980532728136
2024-09-23 01:55:06.763486,41.22,8.329774,-0.015549642716465131,0.018659531766364576,1.0143274196426437,0.37184974532118065,-1.1199610328167677,-1.469981032177806
2024-09-23 01:55:06.806590,41.22,8.329774,-0.011890927646745842,0.02134260963591596,1.012925003160638,0.37620423259790986,-1.2512256829340012,-1.4655692620050162
2024-09-23 01:55:06.848627,41.22,8.329872,-0.012317737308117227,0.02134260963591596,1.012925003160638,0.37620423259790986,-1.2512256829340012,-1.4655692620050162
2024-09-23 01:55:06.860336,41.22,8.329872,-0.012317737308117227,0.018476656088406155,1.0153641151482662,0.35872900059493257,-1.1943309338562191,-1.4655692620050162
2024-09-23 01:55:06.903315,41.22,8.329923,-0.012500713238536278,0.019513251341567978,1.012925003160638,0.3499627431454137,-1.1943309338562191,-1.448094003321603
2024-09-23 01:55:06.946413,41.14,8.329974,-0.012500713238536278,0.019513251341567978,1.012925003160638,0.3499627431454137,-1.0455910250555724,-1.4787472629468887
2024-09-23 01:55:06.957680,41.14,8.329974,-0.01256167205101853,0.020610907938137694,1.0098759673543418,0.3499627431454137,-1.0455910250555724,-1.4787472629468887
2024-09-23 01:55:07.000442,41.14,8.330025,-0.0173180429578192,0.019330377182586234,1.0098759673543418,0.3674952580444515,-1.0543573625463993,-1.469981032177806
2024-09-23 01:55:07.043275,41.14,8.330025,-0.0173180429578192,0.019330377182586234,1.0143274196426437,0.3630834878716618,-1.0543573625463993,-1.469981032177806
2024-09-23 01:55:07.054137,41.14,8.330076,-0.01341539238571027,0.019330377182586234,1.0143274196426437,0.3630834878716618,-1.1462025222692638,-1.5443510399390012
2024-09-23 01:55:07.096395,41.14,8.330076,-0.01341539238571027,0.020610907938137694,1.016705578134208,0.3368419984191656,-1.0368247942864894,-1.5443510399390012
2024-09-23 01:55:07.108297,41.14,8.330164,-0.01341539238571027,0.020610907938137694,1.016705578134208,0.3368419984191656,-1.0368247942864894,-1.2993542012427002
2024-09-23 01:55:07.141303,41.14,8.330164,-0.011098165365048018,0.02012303845233509,1.0148762927507406,0.3368419984191656,-1.0368247942864894,-1.2993542012427002
2024-09-23 01:55:07.152461,41.14,8.330164,-0.011098165365048018,0.02012303845233509,1.0148762927507406,0.27123832814879717,-1.0980740039605648,-1.3956111311383546
2024-09-23 01:55:07.194898,41.14,8.330215,-0.014147094083488534,0.01786687049661572,1.0118273541589518,0.3018342781975865,-1.0805987452771515,-1.3956111311383546
2024-09-23 01:55:07.237415,41.14,8.330266,-0.014147094083488534,0.01786687049661572,1.0118273541589518,0.3018342781975865,-1.0805987452771515,-1.404320052330941
2024-09-23 01:55:07.248939,41.14,8.330266,-0.013049540777332799,0.023964729452473427,1.0133517748475924,0.2405850685235113,-1.0805987452771515,-1.404320052330941
2024-09-23 01:55:07.291379,41.14,8.330317,-0.013293374508285133,0.019818144896951533,1.0133517748475924,0.2405850685235113,-1.2118635021161288,-1.3080631224352866
2024-09-23 01:55:07.302890,41.14,8.330317,-0.013293374508285133,0.019818144896951533,1.0100589250570406,0.2405850685235113,-1.2118635021161288,-1.3080631224352866
2024-09-23 01:55:07.335343,41.14,8.330317,-0.013293374508285133,0.019818144896951533,1.0100589250570406,0.26247207069927825,-1.1024857741333545,-1.3080631224352866
2024-09-23 01:55:07.347527,41.14,8.330317,-0.013293374508285133,0.019818144896951533,1.0100589250570406,0.26247207069927825,-1.1024857741333545,-1.3868447936475277
2024-09-23 01:55:07.391310,41.14,8.330368,-0.014695923141261731,0.023781855293491683,1.0138396944596255,0.2537058132497594,-1.0105833048339934,-1.3868447936475277
2024-09-23 01:55:07.434032,41.14,8.330418,-0.013598266544692013,0.023781855293491683,1.0138396944596255,0.2537058132497594,-1.0105833048339934,-1.3474826128296553
2024-09-23 01:55:07.445394,41.14,8.330418,-0.013598266544692013,0.021708563015730736,1.011217527554791,0.3280757409696467,-1.0105833048339934,-1.3474826128296553
2024-09-23 01:55:07.488531,41.14,8.330505,-0.012622630104012445,0.01975718684395762,1.0117664006628877,0.3280757409696467,-1.2818216329827905,-1.3255955839734523
2024-09-23 01:55:07.531852,41.14,8.330505,-0.012622630104012445,0.01975718684395762,1.0117664006628877,0.28871353347133843,-1.1287272635858505,-1.3956111311383546
2024-09-23 01:55:07.543573,41.14,8.330557,-0.013537308491698099,0.02176952106872465,1.0117664006628877,0.28871353347133843,-1.1287272635858505,-1.3956111311383546
2024-09-23 01:55:07.586311,41.14,8.330607,-0.013049540777332799,0.02176952106872465,1.0132298678554648,0.37184974532118065,-1.0893650827679784,-1.43932777255252
2024-09-23 01:55:07.628734,41.14,8.330607,-0.013049540777332799,0.017927828549609635,1.0101808320491685,0.3193667930966243,-1.0893650827679784,-1.43932777255252
2024-09-23 01:55:07.640948,41.14,8.3307,-0.013049540777332799,0.017927828549609635,1.0101808320491685,0.3193667930966243,-1.1199610328167677,-1.3474826128296553
2024-09-23 01:55:07.683662,41.14,8.3307,-0.013171458402297304,0.02262324216290473,1.0107906586533293,0.29747979092085736,-1.1855647030871361,-1.3649578715130686
2024-09-23 01:55:07.726620,41.14,8.330752,-0.012378695361111141,0.02152558556633501,1.0107906586533293,0.29747979092085736,-1.1855647030871361,-1.3649578715130686
2024-09-23 01:55:07.738452,41.14,8.330752,-0.012378695361111141,0.02152558556633501,1.0121931723498423,0.4330989549952559,-1.2424594521649182,-1.3649578715130686
2024-09-23 01:55:07.782194,41.14,8.330802,-0.01268358815700636,0.020306014382754138,1.0178032271358946,0.2843590461946093,-1.2424594521649182,-1.5968339121222497
2024-09-23 01:55:07.825665,41.14,8.330853,-0.011707950956838454,0.020306014382754138,1.0178032271358946,0.2843590461946093,-1.216217962712422,-1.5749469899877906
2024-09-23 01:55:07.838802,41.14,8.330853,-0.011707950956838454,0.018964423802771455,1.0119492611510794,0.2843590461946093,-1.216217962712422,-1.5749469899877906
2024-09-23 01:55:07.871148,41.14,8.330853,-0.011707950956838454,0.018964423802771455,1.0119492611510794,0.29306802074806765,-1.207451731943339,-1.5749469899877906
2024-09-23 01:55:07.882436,41.14,8.330904,-0.014695923141261731,0.020915799974544576,1.0119492611510794,0.29306802074806765,-1.207451731943339,-1.4174980532728136
2024-09-23 01:55:07.925168,41.14,8.330904,-0.014695923141261731,0.020915799974544576,1.0126809947473678,0.37620423259790986,-1.1549687530383468,-1.4174980532728136
2024-09-23 01:55:07.936444,41.14,8.330955,-0.013476350438704184,0.020915799974544576,1.0126809947473678,0.37620423259790986,-1.1549687530383468,-1.4174980532728136
2024-09-23 01:55:07.969007,41.05,8.330955,-0.013476350438704184,0.02140366946034718,1.0150592504534395,0.37620423259790986,-1.1549687530383468,-1.4174980532728136
2024-09-23 01:55:07.981111,41.05,8.331042,-0.013476350438704184,0.02140366946034718,1.0150592504534395,0.3411964856958948,-1.0412365644592791,-1.4524485706396402
2024-09-23 01:55:08.024501,41.05,8.331042,-0.012134760618209839,0.023050050305299438,1.0137175930384832,0.31060053564710544,-1.1068402347296475,-1.43932777255252
2024-09-23 01:55:08.066269,41.05,8.331093,-0.012073802565215924,0.023050050305299438,1.0137175930384832,0.31060053564710544,-1.1068402347296475,-1.43932777255252
2024-09-23 01:55:08.077806,41.05,8.331093,-0.012073802565215924,0.020549948366167105,1.0120712653577144,0.3630834878716618,-1.1506142924420535,-1.43932777255252
2024-09-23 01:55:08.121800,41.05,8.331144,-0.012012843752733671,0.020915799974544576,1.0146933350480416,0.3630834878716618,-1.1506142924420535,-1.496222521630302
2024-09-23 01:55:08.133324,41.05,8.331144,-0.012012843752733671,0.020915799974544576,1.0146933350480416,0.3630834878716618,-1.1506142924420535,-1.496222521630302
2024-09-23 01:55:08.166221,41.05,8.331194,-0.012012843752733671,0.020915799974544576,1.0146933350480416,0.3630834878716618,-1.1418479549512268,-1.43932777255252
2024-09-23 01:55:08.177896,41.05,8.331194,-0.012439653414105056,0.019452293288574063,1.0120102146471432,0.3630834878716618,-1.1418479549512268,-1.43932777255252
2024-09-23 01:55:08.220860,41.05,8.331245,-0.01182986782231462,0.017744852619190586,1.0120102146471432,0.38061600277069957,-1.1506142924420535,-1.461214801408723
2024-09-23 01:55:08.263380,41.05,8.331245,-0.01182986782231462,0.017744852619190586,1.0140835084438808,0.2186980663477443,-1.1374934943549335,-1.461214801408723
2024-09-23 01:55:08.316486,41.05,8.331296,-0.013110498830326714,0.020793883868556746,1.0132298678554648,0.27123832814879717,-1.1374934943549335,-1.3518370734259486
2024-09-23 01:55:08.359543,41.05,8.331296,-0.013110498830326714,0.020793883868556746,1.0132298678554648,0.27123832814879717,-1.15932321363464,-1.3737241022821516
2024-09-23 01:55:08.371362,41.05,8.331383,-0.014512945691866003,0.019696228790963704,1.01426646614658,0.27123832814879717,-1.15932321363464,-1.3737241022821516
2024-09-23 01:55:08.414124,41.05,8.331434,-0.01182986782231462,0.019696228790963704,1.01426646614658,0.27123832814879717,-1.1943309338562191,-1.3999655917346479
2024-09-23 01:55:08.425688,41.05,8.331434,-0.01182986782231462,0.01695219134944173,1.01426646614658,0.27123832814879717,-1.1943309338562191,-1.3999655917346479
2024-09-23 01:55:08.458044,41.05,8.331434,-0.01182986782231462,0.01695219134944173,1.0166446246381442,0.27123832814879717,-1.1943309338562191,-1.3999655917346479
2024-09-23 01:55:08.511135,41.05,8.331485,-0.011342100107949322,0.02164760496273682,1.0166446246381442,0.3018342781975865,-1.1243154934130608,-1.43932777255252
2024-09-23 01:55:08.554176,41.05,8.331485,-0.011342100107949322,0.02164760496273682,1.012498037044669,0.3280757409696467,-1.1243154934130608,-1.43932777255252
2024-09-23 01:55:08.566158,41.05,8.331536,-0.013110498830326714,0.02164760496273682,1.012498037044669,0.3280757409696467,-1.1549687530383468,-1.4306188513599336
2024-09-23 01:55:08.608048,41.05,8.331536,-0.013110498830326714,0.020427930488741967,1.0136566395424191,0.39373674749694765,-1.1855647030871361,-1.3911993609655648
2024-09-23 01:55:08.620077,41.05,8.331627,-0.013110498830326714,0.020427930488741967,1.0136566395424191,0.39373674749694765,-1.1855647030871361,-1.3911993609655648
2024-09-23 01:55:08.652937,41.05,8.331627,-0.014147094083488534,0.02122069352992813,1.0120102146471432,0.39373674749694765,-1.1855647030871361,-1.3911993609655648
2024-09-23 01:55:08.664756,41.05,8.331627,-0.014147094083488534,0.02122069352992813,1.0120102146471432,0.37620423259790986,-1.216217962712422,-1.4437395427253097
2024-09-23 01:55:08.706986,41.05,8.331678,-0.010976248499571852,0.018659531766364576,1.0117664006628877,0.35872900059493257,-1.1330817241821438,-1.4437395427253097
2024-09-23 01:55:08.750151,41.05,8.331774,-0.010793271809664462,0.018659531766364576,1.0117664006628877,0.35872900059493257,-1.1330817241821438,-1.3911993609655648
2024-09-23 01:55:08.762607,41.05,8.331774,-0.010793271809664462,0.019940162774376668,1.0124370835486052,0.3237212803733535,-1.1330817241821438,-1.3911993609655648
2024-09-23 01:55:08.805030,41.05,8.331825,-0.010732313756670548,0.019574312684975875,1.0149372462468045,0.3237212803733535,-1.1812102424908428,-1.294999633924663
2024-09-23 01:55:08.846872,41.05,8.331825,-0.010732313756670548,0.019574312684975875,1.0149372462468045,0.3149550229238346,-1.203097164625302,-1.294999633924663
2024-09-23 01:55:08.858162,41.05,8.331876,-0.011159123418041933,0.022440264713509,1.0149372462468045,0.3149550229238346,-1.203097164625302,-1.3693696416858583
2024-09-23 01:55:08.901754,41.05,8.331926,-0.011159123418041933,0.022440264713509,1.0149372462468045,0.37620423259790986,-1.1812102424908428,-1.3737241022821516
2024-09-23 01:55:08.913262,41.05,8.331926,-0.01164699290384454,0.022440264713509,1.0149372462468045,0.37620423259790986,-1.1812102424908428,-1.3737241022821516
2024-09-23 01:55:08.947118,41.05,8.331926,-0.01164699290384454,0.02012303845233509,1.0153641151482662,0.3456082558686845,-1.1812102424908428,-1.3737241022821516
2024-09-23 01:55:08.958338,41.05,8.332017,-0.01164699290384454,0.02012303845233509,1.0153641151482662,0.3456082558686845,-1.1287272635858505,-1.4568603408124299
2024-09-23 01:55:08.991698,41.15,8.332017,-0.009207849017706122,0.02012303845233509,1.0153641151482662,0.3456082558686845,-1.1287272635858505,-1.4568603408124299
2024-09-23 01:55:09.003096,41.15,8.332017,-0.009207849017706122,0.020001120827370582,1.0105467474545664,0.28871353347133843,-1.0368247942864894,-1.4437395427253097
2024-09-23 01:55:09.045928,41.15,8.332068,-0.01182986782231462,0.01890346574977754,1.01426646614658,0.31060053564710544,-1.0368247942864894,-1.4437395427253097
2024-09-23 01:55:09.057765,41.15,8.332068,-0.01182986782231462,0.01890346574977754,1.01426646614658,0.31060053564710544,-1.0805987452771515,-1.4437395427253097
2024-09-23 01:55:09.090482,41.15,8.332119,-0.01182986782231462,0.01890346574977754,1.01426646614658,0.31060053564710544,-1.0805987452771515,-1.4787472629468887
2024-09-23 01:55:09.101777,41.15,8.332119,-0.013171458402297304,0.020062078880364497,1.0102418827597397,0.3280757409696467,-1.0805987452771515,-1.4787472629468887
2024-09-23 01:55:09.144552,41.15,8.332169,-0.011281142054955407,0.020732824044125523,1.0149982969573756,0.3280757409696467,-1.2293386540777982,-1.469981032177806
2024-09-23 01:55:09.187935,41.15,8.332169,-0.011281142054955407,0.020732824044125523,1.0149982969573756,0.31060053564710544,-1.0849533125951887,-1.469981032177806
2024-09-23 01:55:09.199401,41.15,8.33222,-0.012927522899907663,0.01914740125216718,1.0149982969573756,0.31060053564710544,-1.0849533125951887,-1.3255955839734523
2024-09-23 01:55:09.242509,41.15,8.332271,-0.01182986782231462,0.01914740125216718,1.0144494238492787,0.37620423259790986,-1.1418479549512268,-1.434973311956227
2024-09-23 01:55:09.285367,41.15,8.332271,-0.01182986782231462,0.02207441310513153,1.0134736818397203,0.37620423259790986,-1.1418479549512268,-1.434973311956227
2024-09-23 01:55:09.297445,41.15,8.332358,-0.01182986782231462,0.02207441310513153,1.0134736818397203,0.37184974532118065,-1.0237041029211134,-1.3387163820605725
2024-09-23 01:55:09.340978,41.15,8.332358,-0.010854230622146716,0.018598572194393984,1.0109126628599643,0.3018342781975865,-1.1637349838074296,-1.4568603408124299
2024-09-23 01:55:09.386350,41.15,8.332409,-0.01365932788809991,0.019513251341567978,1.0109126628599643,0.3018342781975865,-1.1637349838074296,-1.4568603408124299
2024-09-23 01:55:09.398160,41.15,8.332409,-0.01365932788809991,0.019513251341567978,1.0146933350480416,0.3674952580444515,-1.0937195433642715,-1.4568603408124299
2024-09-23 01:55:09.430334,41.15,8.332409,-0.01365932788809991,0.019513251341567978,1.0146933350480416,0.3674952580444515,-1.0937195433642715,-1.3956111311383546
2024-09-23 01:55:09.441383,41.15,8.33246,-0.013049540777332799,0.02085484192155066,1.0115833457456815,0.37620423259790986,-1.0937195433642715,-1.3956111311383546
2024-09-23 01:55:09.484606,41.15,8.332511,-0.012256778495634975,0.01963527073796979,1.0115833457456815,0.37620423259790986,-1.1855647030871361,-1.3956111311383546
2024-09-23 01:55:09.496375,41.15,8.332511,-0.012256778495634975,0.01963527073796979,1.0113394345469187,0.37620423259790986,-1.1855647030871361,-1.3956111311383546
2024-09-23 01:55:09.528416,41.15,8.332511,-0.012256778495634975,0.01963527073796979,1.0113394345469187,0.2668265312955715,-1.0587118231426924,-1.3956111311383546
2024-09-23 01:55:09.540270,41.15,8.332561,-0.010854230622146716,0.019940162774376668,1.0113394345469187,0.2668265312955715,-1.0587118231426924,-1.3824903330512346
2024-09-23 01:55:09.582543,41.15,8.332561,-0.010854230622146716,0.019940162774376668,1.0145713308414066,0.27123832814879717,-1.0937195433642715,-1.3080631224352866
2024-09-23 01:55:09.595303,41.15,8.332612,-0.012073802565215924,0.019940162774376668,1.0145713308414066,0.27123832814879717,-1.0937195433642715,-1.3080631224352866
2024-09-23 01:55:09.628081,41.15,8.332612,-0.012073802565215924,0.019696228790963704,1.0114003880429827,0.3849704900474288,-1.0937195433642715,-1.3080631224352866
2024-09-23 01:55:09.639803,41.15,8.332699,-0.012073802565215924,0.019696228790963704,1.0114003880429827,0.3849704900474288,-1.2555801435302942,-1.491868061034009
2024-09-23 01:55:09.682255,41.15,8.332699,-0.010183486217874026,0.01890346574977754,1.0121322188537785,0.3062460483703762,-1.224984193481505,-1.43932777255252
2024-09-23 01:55:09.725441,41.15,8.332751,-0.01146401621393715,0.019086441680196593,1.0121322188537785,0.3062460483703762,-1.224984193481505,-1.43932777255252
2024-09-23 01:55:09.737197,41.15,8.332751,-0.01146401621393715,0.019086441680196593,1.012742045457939,0.41997821026900783,-1.1199610328167677,-1.43932777255252
2024-09-23 01:55:09.781151,41.15,8.332801,-0.011098165365048018,0.020915799974544576,1.0124370835486052,0.3324875378228724,-1.1199610328167677,-1.3956111311383546
2024-09-23 01:55:09.875372,41.15,8.332852,-0.01396421992450679,0.020915799974544576,1.0124370835486052,0.3324875378228724,-1.0805987452771515,-1.5005769822265953
2024-09-23 01:55:09.918499,41.15,8.332852,-0.01396421992450679,0.01975718684395762,1.0124370835486052,0.3324875378228724,-1.0805987452771515,-1.5005769822265953
2024-09-23 01:55:09.929598,41.15,8.332903,-0.01396421992450679,0.01975718684395762,1.014205512650516,0.37184974532118065,-1.1374934943549335,-1.3956111311383546
2024-09-23 01:55:09.972090,41.15,8.332903,-0.010000509527966639,0.019330377182586234,1.0128639524500669,0.3674952580444515,-1.1374934943549335,-1.3956111311383546
2024-09-23 01:55:10.014511,40.77,8.332903,-0.010000509527966639,0.019330377182586234,1.0128639524500669,0.3674952580444515,-1.1024857741333545,-1.3956111311383546
2024-09-23 01:55:10.025868,40.77,8.332953,-0.012317737308117227,0.018049744655597465,1.0090222295514184,0.3674952580444515,-1.1024857741333545,-1.496222521630302
2024-09-23 01:55:10.068572,40.77,8.33304,-0.012317737308117227,0.018049744655597465,1.0090222295514184,0.2405850685235113,-1.0718325145080685,-1.4174980532728136
2024-09-23 01:55:10.079754,40.77,8.33304,-0.01341539238571027,0.019940162774376668,1.0090222295514184,0.2405850685235113,-1.0718325145080685,-1.4174980532728136
2024-09-23 01:55:10.111862,40.77,8.33304,-0.01341539238571027,0.019940162774376668,1.0149982969573756,0.2405850685235113,-1.0718325145080685,-1.4174980532728136
2024-09-23 01:55:10.123177,40.77,8.333138,-0.014025177977500705,0.019940162774376668,1.0149982969573756,0.3062460483703762,-1.1374934943549335,-1.461214801408723
2024-09-23 01:55:10.166122,40.77,8.333138,-0.014025177977500705,0.02122069352992813,1.012802998954003,0.3237212803733535,-1.0893650827679784,-1.461214801408723
2024-09-23 01:55:10.178045,40.77,8.33319,-0.014025177977500705,0.02122069352992813,1.012802998954003,0.3237212803733535,-1.0893650827679784,-1.4437395427253097
2024-09-23 01:55:10.210316,40.77,8.33319,-0.012439653414105056,0.02122069352992813,1.012802998954003,0.3237212803733535,-1.0893650827679784,-1.4437395427253097
2024-09-23 01:55:10.221546,40.77,8.33319,-0.012439653414105056,0.017927828549609635,1.014022554947817,0.3280757409696467,-1.0499454856518655,-1.4087318225037306
2024-09-23 01:55:10.263552,40.77,8.333285,-0.012927522899907663,0.023354943860682993,1.0148152420401695,0.3280757409696467,-1.0499454856518655,-1.4087318225037306
2024-09-23 01:55:10.275141,40.77,8.333285,-0.012927522899907663,0.023354943860682993,1.0148152420401695,0.3630834878716618,-1.0937195433642715,-1.4087318225037306
2024-09-23 01:55:10.308247,40.77,8.333285,-0.012927522899907663,0.023354943860682993,1.0148152420401695,0.3630834878716618,-1.0937195433642715,-1.4524485706396402
2024-09-23 01:55:10.320044,40.77,8.333336,-0.010915188675140628,0.01975718684395762,1.01231507934197,0.29747979092085736,-1.0937195433642715,-1.4524485706396402
2024-09-23 01:55:10.362918,40.77,8.333387,-0.011220081471035847,0.01811080599900536,1.01231507934197,0.29747979092085736,-1.1680894444037229,-1.4437395427253097
2024-09-23 01:55:10.374926,40.77,8.333387,-0.011220081471035847,0.01811080599900536,1.0113394345469187,0.29747979092085736,-1.1680894444037229,-1.4437395427253097
2024-09-23 01:55:10.407677,40.77,8.333387,-0.011220081471035847,0.01811080599900536,1.0113394345469187,0.40685746554275976,-1.1199610328167677,-1.3255955839734523
2024-09-23 01:55:10.419691,40.77,8.333437,-0.015427726610477303,0.02225739055452726,1.0113394345469187,0.40685746554275976,-1.1199610328167677,-1.3255955839734523
2024-09-23 01:55:10.462930,40.77,8.333488,-0.010122528164880112,0.02225739055452726,1.0151811574455674,0.3456082558686845,-1.1680894444037229,-1.509343212995678
2024-09-23 01:55:10.506142,40.77,8.333488,-0.010122528164880112,0.020732824044125523,1.0131078636488298,0.28871353347133843,-1.1680894444037229,-1.509343212995678
2024-09-23 01:55:10.517652,40.77,8.333576,-0.010122528164880112,0.020732824044125523,1.0131078636488298,0.28871353347133843,-1.1199610328167677,-1.4218526205908506
2024-09-23 01:55:10.560895,40.77,8.333576,-0.008963914274804818,0.02213537267710212,1.0125589905407328,0.3062460483703762,-1.216217962712422,-1.3518370734259486
2024-09-23 01:55:10.604110,40.77,8.333628,-0.01341539238571027,0.021830479121718566,1.0131078636488298,0.3062460483703762,-1.216217962712422,-1.3518370734259486
2024-09-23 01:55:10.615651,40.77,8.333628,-0.01341539238571027,0.021830479121718566,1.0131078636488298,0.3018342781975865,-1.0805987452771515,-1.3518370734259486
2024-09-23 01:55:10.648079,40.77,8.333628,-0.01341539238571027,0.021830479121718566,1.0131078636488298,0.3018342781975865,-1.0805987452771515,-1.3649578715130686
2024-09-23 01:55:10.659422,40.77,8.333679,-0.010122528164880112,0.01939133523558015,1.0144494238492787,0.2668265312955715,-1.0805987452771515,-1.3649578715130686
2024-09-23 01:55:10.702733,40.77,8.333729,-0.014695923141261731,0.01939133523558015,1.0144494238492787,0.2668265312955715,-1.0980740039605648,-1.3343619214642792
2024-09-23 01:55:10.714268,40.77,8.333729,-0.014695923141261731,0.020732824044125523,1.0117053499523165,0.2668265312955715,-1.0980740039605648,-1.3343619214642792
2024-09-23 01:55:10.746894,40.77,8.333729,-0.014695923141261731,0.020732824044125523,1.0117053499523165,0.3324875378228724,-1.0980740039605648,-1.3343619214642792
2024-09-23 01:55:10.759273,40.77,8.33378,-0.012927522899907663,0.020245056329760223,1.0117053499523165,0.3324875378228724,-1.1330817241821438,-1.434973311956227
2024-09-23 01:55:10.802432,40.77,8.333831,-0.015305708733052167,0.020245056329760223,1.0124370835486052,0.2843590461946093,-1.1987427040290088,-1.404320052330941
2024-09-23 01:55:10.844643,40.77,8.333831,-0.015305708733052167,0.022318348607521174,1.0122541258459061,0.2843590461946093,-1.1987427040290088,-1.404320052330941
2024-09-23 01:55:10.856359,40.77,8.333918,-0.015305708733052167,0.022318348607521174,1.0122541258459061,0.20998910513450392,-1.1374934943549335,-1.4174980532728136
2024-09-23 01:55:10.898950,40.77,8.333918,-0.01146401621393715,0.023537919791102042,1.01426646614658,0.3499627431454137,-1.1243154934130608,-1.4174980532728136
2024-09-23 01:55:10.910682,40.77,8.333918,-0.01146401621393715,0.023537919791102042,1.01426646614658,0.3499627431454137,-1.1243154934130608,-1.3956111311383546
2024-09-23 01:55:10.943467,40.77,8.333969,-0.00969561673207142,0.023537919791102042,1.01426646614658,0.3499627431454137,-1.1243154934130608,-1.3956111311383546
2024-09-23 01:55:10.954459,40.77,8.333969,-0.00969561673207142,0.020427930488741967,1.0093270942462451,0.3324875378228724,-1.0937195433642715,-1.3956111311383546
2024-09-23 01:55:10.996973,40.77,8.33402,-0.014756881194255646,0.01926931735815501,1.0098759673543418,0.3324875378228724,-1.0937195433642715,-1.404320052330941
2024-09-23 01:55:11.009052,40.77,8.33402,-0.014756881194255646,0.01926931735815501,1.0098759673543418,0.37620423259790986,-1.0937195433642715,-1.404320052330941
2024-09-23 01:55:11.041191,41.73,8.334071,-0.014756881194255646,0.01926931735815501,1.0098759673543418,0.37620423259790986,-1.1812102424908428,-1.3649578715130686
2024-09-23 01:55:11.052402,41.73,8.334071,-0.01146401621393715,0.019940162774376668,1.015668979843093,0.37620423259790986,-1.1812102424908428,-1.3649578715130686
2024-09-23 01:55:11.094834,41.73,8.334121,-0.010305402323861856,0.019940162774376668,1.015668979843093,0.40685746554275976,-0.9799873547852039,-1.3387163820605725
2024-09-23 01:55:11.137343,41.73,8.334121,-0.010305402323861856,0.019940162774376668,1.011034569852092,0.3237212803733535,-0.9799873547852039,-1.3387163820605725
2024-09-23 01:55:11.148847,41.73,8.334172,-0.016342405757651293,0.019940162774376668,1.011034569852092,0.3237212803733535,-1.0105833048339934,-1.3474826128296553
2024-09-23 01:55:11.192035,41.73,8.334172,-0.016342405757651293,0.021281651582922046,1.014144559154452,0.3062460483703762,-1.0762442846808582,-1.404320052330941
2024-09-23 01:55:11.203825,41.73,8.334259,-0.016342405757651293,0.021281651582922046,1.014144559154452,0.3062460483703762,-1.0762442846808582,-1.404320052330941
2024-09-23 01:55:11.235306,41.73,8.334259,-0.016891131525010507,0.018415698035412244,1.014144559154452,0.3062460483703762,-1.0762442846808582,-1.404320052330941
2024-09-23 01:55:11.246449,41.73,8.334259,-0.016891131525010507,0.018415698035412244,1.0153641151482662,0.37184974532118065,-1.1549687530383468,-1.4218526205908506
2024-09-23 01:55:11.289940,41.73,8.33431,-0.012134760618209839,0.019574312684975875,1.0115223922496177,0.37184974532118065,-1.1549687530383468,-1.4218526205908506
2024-09-23 01:55:11.302721,41.73,8.33431,-0.012134760618209839,0.019574312684975875,1.0115223922496177,0.3456082558686845,-1.1330817241821438,-1.4218526205908506
2024-09-23 01:55:11.334281,41.73,8.334361,-0.013537308491698099,0.019574312684975875,1.0115223922496177,0.3456082558686845,-1.1330817241821438,-1.5136977803137153
2024-09-23 01:55:11.345313,41.73,8.334361,-0.013537308491698099,0.018171764051999276,1.0130469101527657,0.28871353347133843,-1.1330817241821438,-1.5136977803137153
2024-09-23 01:55:11.388980,41.73,8.334412,-0.010915188675140628,0.019696228790963704,1.012742045457939,0.28871353347133843,-1.2293386540777982,-1.3168293532043696
2024-09-23 01:55:11.432111,41.73,8.334412,-0.010915188675140628,0.019696228790963704,1.012742045457939,0.3543172304221429,-1.0543573625463993,-1.3737241022821516
2024-09-23 01:55:11.443760,41.73,8.334463,-0.012073802565215924,0.022440264713509,1.012742045457939,0.3543172304221429,-1.0543573625463993,-1.3737241022821516
2024-09-23 01:55:11.486060,41.73,8.334513,-0.014574005516297226,0.022440264713509,1.0130469101527657,0.29306802074806765,-1.0762442846808582,-1.4087318225037306
2024-09-23 01:55:11.529217,41.73,8.334513,-0.014574005516297226,0.02012303845233509,1.0143274196426437,0.3193667930966243,-1.0762442846808582,-1.4087318225037306
2024-09-23 01:55:11.541081,41.73,8.3346,-0.014574005516297226,0.02012303845233509,1.0143274196426437,0.3193667930966243,-1.0805987452771515,-1.5136977803137153
2024-09-23 01:55:11.583558,41.73,8.3346,-0.012622630104012445,0.017805912443621806,1.015546975636458,0.3280757409696467,-1.1549687530383468,-1.404320052330941
2024-09-23 01:55:11.627119,41.73,8.334652,-0.01219582044264106,0.02164760496273682,1.015546975636458,0.3280757409696467,-1.1549687530383468,-1.404320052330941
2024-09-23 01:55:11.638592,41.73,8.334652,-0.01219582044264106,0.02164760496273682,1.0143274196426437,0.3499627431454137,-1.0893650827679784,-1.404320052330941
2024-09-23 01:55:11.682443,41.73,8.334702,-0.014025177977500705,0.020549948366167105,1.0131078636488298,0.27123832814879717,-1.0893650827679784,-1.4218526205908506
2024-09-23 01:55:11.726031,41.73,8.334753,-0.013171458402297304,0.020549948366167105,1.0131078636488298,0.27123832814879717,-1.1199610328167677,-1.404320052330941
2024-09-23 01:55:11.737836,41.73,8.334753,-0.013171458402297304,0.022318348607521174,1.0131688171448936,0.27123832814879717,-1.1199610328167677,-1.404320052330941
2024-09-23 01:55:11.771430,41.73,8.334753,-0.013171458402297304,0.022318348607521174,1.0131688171448936,0.3411964856958948,-1.0980740039605648,-1.404320052330941
2024-09-23 01:55:11.783465,41.73,8.334804,-0.011098165365048018,0.01890346574977754,1.0131688171448936,0.3411964856958948,-1.0980740039605648,-1.434973311956227
2024-09-23 01:55:11.826584,41.73,8.334855,-0.013537308491698099,0.01890346574977754,1.0150592504534395,0.3193667930966243,-1.0937195433642715,-1.448094003321603
2024-09-23 01:55:11.869369,41.73,8.334855,-0.013537308491698099,0.019696228790963704,1.0169495865474782,0.3193667930966243,-1.0937195433642715,-1.448094003321603
2024-09-23 01:55:11.881102,41.73,8.334942,-0.013537308491698099,0.019696228790963704,1.0169495865474782,0.2843590461946093,-1.1068402347296475,-1.3824903330512346
2024-09-23 01:55:11.924198,41.73,8.334942,-0.013293374508285133,0.023050050305299438,1.0138396944596255,0.3018342781975865,-1.1243154934130608,-1.3649578715130686
2024-09-23 01:55:11.966530,41.73,8.334993,-0.013049540777332799,0.023050050305299438,1.0138396944596255,0.3018342781975865,-1.1243154934130608,-1.3649578715130686
2024-09-23 01:55:11.977730,41.73,8.334993,-0.013049540777332799,0.02152558556633501,1.0118883076550156,0.3237212803733535,-1.1156065722204744,-1.3649578715130686
2024-09-23 01:55:12.020469,41.73,8.335044,-0.010732313756670548,0.02213537267710212,1.0136566395424191,0.3237212803733535,-1.1156065722204744,-1.4174980532728136
2024-09-23 01:55:12.032648,41.73,8.335044,-0.010732313756670548,0.02213537267710212,1.0136566395424191,0.4287444677185267,-1.1156065722204744,-1.4174980532728136
2024-09-23 01:55:12.065702,41.59,8.335094,-0.010732313756670548,0.02213537267710212,1.0136566395424191,0.4287444677185267,-1.15932321363464,-1.4787472629468887
2024-09-23 01:55:12.077472,41.59,8.335094,-0.010549337066763158,0.022318348607521174,1.014022554947817,0.4287444677185267,-1.15932321363464,-1.4787472629468887
2024-09-23 01:55:12.120124,41.59,8.335145,-0.012500713238536278,0.018415698035412244,1.014022554947817,0.3674952580444515,-1.0499454856518655,-1.426207081187144
2024-09-23 01:55:12.163133,41.59,8.335145,-0.012500713238536278,0.018415698035412244,1.016705578134208,0.3456082558686845,-1.1287272635858505,-1.426207081187144
2024-09-23 01:55:12.175002,41.59,8.335196,-0.014634963569291141,0.018415698035412244,1.016705578134208,0.3456082558686845,-1.1287272635858505,-1.461214801408723
2024-09-23 01:55:12.217351,41.59,8.335283,-0.014634963569291141,0.019086441680196593,1.0152421109416312,0.3237212803733535,-1.1506142924420535,-1.448094003321603
2024-09-23 01:55:12.260280,41.59,8.335283,-0.014695923141261731,0.02134260963591596,1.0157908868352208,0.3237212803733535,-1.1506142924420535,-1.448094003321603
2024-09-23 01:55:12.271294,41.59,8.335283,-0.014695923141261731,0.02134260963591596,1.0157908868352208,0.3062460483703762,-1.0630662837389857,-1.4087318225037306
2024-09-23 01:55:12.314673,41.59,8.335334,-0.012927522899907663,0.02207441310513153,1.0132908213515286,0.3237212803733535,-1.1506142924420535,-1.4087318225037306
2024-09-23 01:55:12.358359,41.59,8.335385,-0.013476350438704184,0.02207441310513153,1.0132908213515286,0.3237212803733535,-1.1506142924420535,-1.504988752399385
2024-09-23 01:55:12.369271,41.59,8.335385,-0.013476350438704184,0.019513251341567978,1.0132298678554648,0.3368419984191656,-1.1506142924420535,-1.504988752399385
2024-09-23 01:55:12.412236,41.59,8.335436,-0.010366361136344109,0.02213537267710212,1.0158518403312846,0.3368419984191656,-1.1768557818945498,-1.461214801408723
2024-09-23 01:55:12.454972,41.59,8.335436,-0.010366361136344109,0.02213537267710212,1.0158518403312846,0.3456082558686845,-1.1111946953259408,-1.5705924226697534
2024-09-23 01:55:12.466085,41.59,8.335486,-0.01268358815700636,0.02048899031317319,1.0158518403312846,0.3456082558686845,-1.1111946953259408,-1.5705924226697534
2024-09-23 01:55:12.508095,41.59,8.335537,-0.01256167205101853,0.02048899031317319,1.0158518403312846,0.3411964856958948,-1.0849533125951887,-1.469981032177806
2024-09-23 01:55:12.550546,41.59,8.335537,-0.01256167205101853,0.021464627513341095,1.0158518403312846,0.3411964856958948,-1.0849533125951887,-1.469981032177806
2024-09-23 01:55:12.562851,41.59,8.335624,-0.01256167205101853,0.021464627513341095,1.0118883076550156,0.3149550229238346,-1.1243154934130608,-1.4568603408124299
2024-09-23 01:55:12.605356,41.59,8.335624,-0.012500713238536278,0.019452293288574063,1.0135347325502915,0.31060053564710544,-1.2118635021161288,-1.4568603408124299
2024-09-23 01:55:12.617350,41.59,8.335624,-0.012500713238536278,0.019452293288574063,1.0135347325502915,0.31060053564710544,-1.2118635021161288,-1.4655692620050162
2024-09-23 01:55:12.649982,41.59,8.335675,-0.01341539238571027,0.019330377182586234,1.0135347325502915,0.31060053564710544,-1.2118635021161288,-1.4655692620050162
2024-09-23 01:55:12.661868,41.59,8.335675,-0.01341539238571027,0.019330377182586234,1.0131078636488298,0.3324875378228724,-1.1068402347296475,-1.4655692620050162
2024-09-23 01:55:12.704662,41.59,8.335726,-0.011281142054955407,0.02018409827676631,1.012742045457939,0.3237212803733535,-1.1068402347296475,-1.461214801408723
2024-09-23 01:55:12.746513,41.59,8.335726,-0.011281142054955407,0.02018409827676631,1.012742045457939,0.3237212803733535,-1.0674780539117754,-1.5355847024481744
2024-09-23 01:55:12.757962,41.59,8.335777,-0.011220081471035847,0.01963527073796979,1.012742045457939,0.3237212803733535,-1.0674780539117754,-1.5355847024481744
2024-09-23 01:55:12.800181,41.59,8.335828,-0.011220081471035847,0.01963527073796979,1.0133517748475924,0.2537058132497594,-1.0587118231426924,-1.4874562908612192
2024-09-23 01:55:12.843768,41.59,8.335828,-0.010610295879245411,0.01963527073796979,1.0133517748475924,0.2537058132497594,-1.0587118231426924,-1.4874562908612192
2024-09-23 01:55:12.855533,41.59,8.335828,-0.010610295879245411,0.019452293288574063,1.012802998954003,0.3543172304221429,-1.1637349838074296,-1.413086283100024
2024-09-23 01:55:12.949322,41.59,8.335878,-0.011098165365048018,0.020549948366167105,1.0143274196426437,0.3149550229238346,-1.0893650827679784,-1.413086283100024
2024-09-23 01:55:12.992289,41.59,8.335965,-0.012256778495634975,0.020549948366167105,1.0143274196426437,0.3149550229238346,-1.0893650827679784,-1.4218526205908506
2024-09-23 01:55:13.003442,41.59,8.335965,-0.012256778495634975,0.01914740125216718,1.0164616669354454,0.3062460483703762,-1.0893650827679784,-1.4218526205908506
2024-09-23 01:55:13.046622,41.59,8.336017,-0.010366361136344109,0.020915799974544576,1.0153031616522024,0.3062460483703762,-1.1812102424908428,-1.504988752399385
2024-09-23 01:55:13.089896,41.31,8.336017,-0.010366361136344109,0.020915799974544576,1.0153031616522024,0.31060053564710544,-1.1462025222692638,-1.3474826128296553
2024-09-23 01:55:13.101310,41.31,8.336068,-0.012439653414105056,0.02164760496273682,1.0153031616522024,0.31060053564710544,-1.1462025222692638,-1.3474826128296553
2024-09-23 01:55:13.144420,41.31,8.336118,-0.012744546969488612,0.02164760496273682,1.0120712653577144,0.38932495064372197,-1.203097164625302,-1.4174980532728136
2024-09-23 01:55:13.186399,41.31,8.336118,-0.012744546969488612,0.022684200215898644,1.015546975636458,0.3193667930966243,-1.203097164625302,-1.4174980532728136
2024-09-23 01:55:13.197663,41.31,8.336258,-0.012744546969488612,0.022684200215898644,1.015546975636458,0.3193667930966243,-1.0062288442377,-1.4087318225037306
2024-09-23 01:55:13.241263,41.31,8.336258,-0.014269113479890346,0.02048899031317319,1.0135347325502915,0.2537058132497594,-1.1374934943549335,-1.448094003321603
2024-09-23 01:55:13.283680,41.31,8.336309,-0.012012843752733671,0.019025483627202678,1.0135347325502915,0.2537058132497594,-1.1374934943549335,-1.448094003321603
2024-09-23 01:55:13.294774,41.31,8.336309,-0.012012843752733671,0.019025483627202678,1.0101808320491685,0.3280757409696467,-1.203097164625302,-1.448094003321603
2024-09-23 01:55:13.337481,41.31,8.33636,-0.01365932788809991,0.01963527073796979,1.014144559154452,0.3280757409696467,-1.203097164625302,-1.413086283100024
2024-09-23 01:55:13.349406,41.31,8.33636,-0.01365932788809991,0.01963527073796979,1.014144559154452,0.3456082558686845,-1.203097164625302,-1.413086283100024
2024-09-23 01:55:13.382003,41.31,8.336411,-0.01365932788809991,0.01963527073796979,1.014144559154452,0.3456082558686845,-1.15932321363464,-1.4524485706396402
2024-09-23 01:55:13.393900,41.31,8.336411,-0.010854230622146716,0.019879204721382753,1.0179251341280222,0.3456082558686845,-1.15932321363464,-1.4524485706396402
2024-09-23 01:55:13.437308,41.31,8.336462,-0.01164699290384454,0.021708563015730736,1.0179251341280222,0.3456082558686845,-1.1024857741333545,-1.3518370734259486
2024-09-23 01:55:13.480398,41.31,8.336462,-0.01164699290384454,0.021708563015730736,1.011217527554791,0.31060053564710544,-1.1724439050000162,-1.434973311956227
2024-09-23 01:55:13.492074,41.31,8.336513,-0.015305708733052167,0.021708563015730736,1.011217527554791,0.31060053564710544,-1.1724439050000162,-1.434973311956227
2024-09-23 01:55:13.523851,41.31,8.336513,-0.015305708733052167,0.020732824044125523,1.011217527554791,0.31060053564710544,-1.1724439050000162,-1.434973311956227
2024-09-23 01:55:13.535005,41.31,8.336599,-0.015305708733052167,0.020732824044125523,1.0146933350480416,0.26247207069927825,-1.1462025222692638,-1.469981032177806
2024-09-23 01:55:13.577805,41.31,8.336599,-0.012622630104012445,0.02048899031317319,1.0104247432479314,0.3237212803733535,-1.1462025222692638,-1.469981032177806
2024-09-23 01:55:13.589457,41.31,8.336599,-0.012622630104012445,0.02048899031317319,1.0104247432479314,0.3237212803733535,-1.1199610328167677,-1.469981032177806
2024-09-23 01:55:13.621613,41.31,8.336599,-0.012622630104012445,0.02048899031317319,1.0104247432479314,0.3237212803733535,-1.1199610328167677,-1.3693696416858583
2024-09-23 01:55:13.633262,41.31,8.336651,-0.014634963569291141,0.02189143717471248,1.0132908213515286,0.3193667930966243,-1.1199610328167677,-1.3693696416858583
2024-09-23 01:55:13.676743,41.31,8.336701,-0.011159123418041933,0.02189143717471248,1.0132908213515286,0.3193667930966243,-1.15932321363464,-1.3868447936475277
2024-09-23 01:55:13.688029,41.31,8.336701,-0.011159123418041933,0.020245056329760223,1.012925003160638,0.3193667930966243,-1.15932321363464,-1.3868447936475277
2024-09-23 01:55:13.719484,41.31,8.336701,-0.011159123418041933,0.020245056329760223,1.012925003160638,0.3018342781975865,-1.15932321363464,-1.3868447936475277
2024-09-23 01:55:13.732298,41.31,8.336752,-0.019208359305161096,0.01926931735815501,1.012925003160638,0.3018342781975865,-1.1024857741333545,-1.5005769822265953
2024-09-23 01:55:13.774653,41.31,8.336752,-0.019208359305161096,0.01926931735815501,1.014205512650516,0.29306802074806765,-1.1768557818945498,-1.43932777255252
2024-09-23 01:55:13.785689,41.31,8.336803,-0.012317737308117227,0.01926931735815501,1.014205512650516,0.29306802074806765,-1.1768557818945498,-1.43932777255252
2024-09-23 01:55:13.817483,41.31,8.336803,-0.012317737308117227,0.01811080599900536,1.014205512650516,0.29306802074806765,-1.1768557818945498,-1.43932777255252
2024-09-23 01:55:13.829262,41.31,8.336853,-0.012317737308117227,0.01811080599900536,1.012498037044669,0.3630834878716618,-1.0718325145080685,-1.3737241022821516
2024-09-23 01:55:13.872858,41.31,8.336853,-0.013476350438704184,0.018171764051999276,1.0122541258459061,0.3280757409696467,-1.1637349838074296,-1.3737241022821516
2024-09-23 01:55:13.885248,41.31,8.336853,-0.013476350438704184,0.018171764051999276,1.0122541258459061,0.3280757409696467,-1.1637349838074296,-1.434973311956227
2024-09-23 01:55:13.918134,41.31,8.336941,-0.011707950956838454,0.02012303845233509,1.0122541258459061,0.3280757409696467,-1.1637349838074296,-1.434973311956227
2024-09-23 01:55:13.929793,41.31,8.336941,-0.011707950956838454,0.02012303845233509,1.0139616014517532,0.39373674749694765,-1.028115873093903,-1.434973311956227
2024-09-23 01:55:13.963412,41.31,8.336941,-0.011707950956838454,0.02012303845233509,1.0139616014517532,0.39373674749694765,-1.028115873093903,-1.5005769822265953
2024-09-23 01:55:13.974829,41.31,8.336992,-0.01396421992450679,0.019208359305161096,1.0128639524500669,0.4287444677185267,-1.028115873093903,-1.5005769822265953
2024-09-23 01:55:14.016604,41.31,8.337043,-0.014269113479890346,0.019208359305161096,1.0128639524500669,0.4287444677185267,-1.1812102424908428,-1.4524485706396402
2024-09-23 01:55:14.028327,41.31,8.337043,-0.014269113479890346,0.02012303845233509,1.0145103773453428,0.4287444677185267,-1.1812102424908428,-1.4524485706396402
2024-09-23 01:55:14.060146,41.31,8.337043,-0.014269113479890346,0.02012303845233509,1.0145103773453428,0.3237212803733535,-1.1812102424908428,-1.4524485706396402
2024-09-23 01:55:14.072193,41.31,8.337094,-0.015000815177668611,0.020427930488741967,1.0145103773453428,0.3237212803733535,-1.1724439050000162,-1.3780785628784449
2024-09-23 01:55:14.115806,42.28,8.337094,-0.015000815177668611,0.020427930488741967,1.0128639524500669,0.3237212803733535,-1.1899764732599258,-1.491868061034009
2024-09-23 01:55:14.126729,42.28,8.337144,-0.013232416455291218,0.020427930488741967,1.0128639524500669,0.3237212803733535,-1.1899764732599258,-1.491868061034009
2024-09-23 01:55:14.160251,42.28,8.337144,-0.013232416455291218,0.02189143717471248,1.0160348952484908,0.3237212803733535,-1.1899764732599258,-1.491868061034009
2024-09-23 01:55:14.172024,42.28,8.337233,-0.013232416455291218,0.02189143717471248,1.0160348952484908,0.3324875378228724,-1.1899764732599258,-1.4218526205908506
2024-09-23 01:55:14.214980,42.28,8.337233,-0.01256167205101853,0.022440264713509,1.012802998954003,0.3456082558686845,-1.1156065722204744,-1.3343619214642792
2024-09-23 01:55:14.256985,42.28,8.337284,-0.011586034850850625,0.022440264713509,1.012802998954003,0.3456082558686845,-1.1156065722204744,-1.3343619214642792
2024-09-23 01:55:14.267912,42.28,8.337284,-0.011586034850850625,0.019513251341567978,1.0145103773453428,0.3674952580444515,-1.1156065722204744,-1.3343619214642792
2024-09-23 01:55:14.310692,42.28,8.337335,-0.012134760618209839,0.02012303845233509,1.014205512650516,0.3674952580444515,-1.1156065722204744,-1.3956111311383546
2024-09-23 01:55:14.322688,42.28,8.337335,-0.012134760618209839,0.02012303845233509,1.014205512650516,0.3324875378228724,-1.1156065722204744,-1.3956111311383546
