Ayaan's Suite
Timestamp,Sample Rate (Hz),Time,Ax,Ay,Az,Gx,Gy,Gz
2024-09-23 02:15:52.866060,0,9.575913,-0.01256167205101853,0.021159735476934217,1.011095523348156,0.3499627431454137,-1.1024857741333545,-1.434973311956227
2024-09-23 02:15:52.897803,0,9.575913,-0.01256167205101853,0.021159735476934217,1.011095523348156,0.41121195281948897,-1.1418479549512268,-1.4787472629468887
2024-09-23 02:15:52.909630,0,9.575964,-0.011951885699739756,0.018781549643789714,1.011095523348156,0.41121195281948897,-1.1418479549512268,-1.4787472629468887
2024-09-23 02:15:52.952286,0,9.576015,-0.011098165365048018,0.018781549643789714,1.0189008761375808,0.3499627431454137,-1.0805987452771515,-1.553117270708084
2024-09-23 02:15:52.995390,0,9.576015,-0.011098165365048018,0.019940162774376668,1.015668979843093,0.2843590461946093,-1.0805987452771515,-1.553117270708084
2024-09-23 02:15:53.006415,0,9.576101,-0.011098165365048018,0.019940162774376668,1.015668979843093,0.2843590461946093,-1.1199610328167677,-1.3956111311383546
2024-09-23 02:15:53.049209,0,9.576101,-0.013842202047081654,0.020915799974544576,1.0118273541589518,0.29306802074806765,-1.1855647030871361,-1.3956111311383546
2024-09-23 02:15:53.060643,0,9.576101,-0.013842202047081654,0.020915799974544576,1.0118273541589518,0.29306802074806765,-1.1855647030871361,-1.3999655917346479
2024-09-23 02:15:53.092484,0,9.576153,-0.013232416455291218,0.020915799974544576,1.0118273541589518,0.29306802074806765,-1.1855647030871361,-1.3999655917346479
2024-09-23 02:15:53.103635,0,9.576153,-0.013232416455291218,0.01853761414140007,1.0104856967439952,0.27123832814879717,-1.0849533125951887,-1.3999655917346479
2024-09-23 02:15:53.145407,0,9.576204,-0.01341539238571027,0.0173180429578192,1.01426646614658,0.27123832814879717,-1.0849533125951887,-1.3387163820605725
2024-09-23 02:15:53.157467,0,9.576204,-0.01341539238571027,0.0173180429578192,1.01426646614658,0.3018342781975865,-1.0849533125951887,-1.3387163820605725
2024-09-23 02:15:53.189352,0,9.576204,-0.01341539238571027,0.0173180429578192,1.01426646614658,0.3018342781975865,-1.1243154934130608,-1.3124748926080763
2024-09-23 02:15:53.200585,0,9.576254,-0.013232416455291218,0.02012303845233509,1.0143883731387076,0.3018342781975865,-1.1243154934130608,-1.3124748926080763
2024-09-23 02:15:53.243549,0,9.576305,-0.011586034850850625,0.02012303845233509,1.0143883731387076,0.27994727602181957,-1.0805987452771515,-1.43932777255252
2024-09-23 02:15:53.255168,0,9.576305,-0.011586034850850625,0.017805912443621806,1.0143883731387076,0.27994727602181957,-1.0805987452771515,-1.43932777255252
2024-09-23 02:15:53.287308,0,9.576305,-0.011586034850850625,0.017805912443621806,1.0149372462468045,0.3324875378228724,-1.0805987452771515,-1.43932777255252
2024-09-23 02:15:53.298505,0,9.576356,-0.016586237969626952,0.017805912443621806,1.0149372462468045,0.3324875378228724,-1.1549687530383468,-1.4437395427253097
2024-09-23 02:15:53.340715,0,9.576356,-0.016586237969626952,0.021464627513341095,1.0114003880429827,0.3280757409696467,-1.1418479549512268,-1.491868061034009
2024-09-23 02:15:53.352472,0,9.576442,-0.016586237969626952,0.021464627513341095,1.0114003880429827,0.3280757409696467,-1.1418479549512268,-1.491868061034009
2024-09-23 02:15:53.384019,0,9.576442,-0.015061773230662524,0.02225739055452726,1.0114003880429827,0.3280757409696467,-1.1418479549512268,-1.491868061034009
2024-09-23 02:15:53.396518,0,9.576442,-0.015061773230662524,0.02225739055452726,1.0133517748475924,0.3456082558686845,-1.1330817241821438,-1.3956111311383546
2024-09-23 02:15:53.439362,0,9.576494,-0.010732313756670548,0.020610907938137694,1.016705578134208,0.3456082558686845,-1.1330817241821438,-1.3956111311383546
2024-09-23 02:15:53.451805,0,9.576494,-0.010732313756670548,0.020610907938137694,1.016705578134208,0.3193667930966243,-1.1680894444037229,-1.3956111311383546
2024-09-23 02:15:53.483881,0,9.576544,-0.014756881194255646,0.020610907938137694,1.016705578134208,0.3193667930966243,-1.1680894444037229,-1.3474826128296553
2024-09-23 02:15:53.495704,0,9.576544,-0.014756881194255646,0.021708563015730736,1.0146322843374704,0.3630834878716618,-1.1680894444037229,-1.3474826128296553
2024-09-23 02:15:53.528280,0,9.576544,-0.014756881194255646,0.021708563015730736,1.0146322843374704,0.3630834878716618,-1.1506142924420535,-1.3474826128296553
2024-09-23 02:15:53.539930,0,9.576595,-0.014391029585878175,0.017622936513202757,1.0121322188537785,0.3630834878716618,-1.1506142924420535,-1.3562488435987383
2024-09-23 02:15:53.582085,0,9.576646,-0.014391029585878175,0.017622936513202757,1.0121322188537785,0.3456082558686845,-1.1418479549512268,-1.491868061034009
2024-09-23 02:15:53.593629,0,9.576646,-0.01365932788809991,0.020610907938137694,1.0121322188537785,0.3456082558686845,-1.1418479549512268,-1.491868061034009
2024-09-23 02:15:53.625735,0,9.576646,-0.01365932788809991,0.020610907938137694,1.0145103773453428,0.3456082558686845,-1.1418479549512268,-1.491868061034009
2024-09-23 02:15:53.637663,0,9.576697,-0.012744546969488612,0.020610907938137694,1.0145103773453428,0.3849704900474288,-1.1637349838074296,-1.3649578715130686
2024-09-23 02:15:53.680199,0,9.576697,-0.012744546969488612,0.019696228790963704,1.014205512650516,0.3280757409696467,-1.0805987452771515,-1.3649578715130686
2024-09-23 02:15:53.691197,0,9.576784,-0.012744546969488612,0.019696228790963704,1.014205512650516,0.3280757409696467,-1.0805987452771515,-1.496222521630302
2024-09-23 02:15:53.724578,0,9.576784,-0.01573262016586086,0.019696228790963704,1.014205512650516,0.3280757409696467,-1.0805987452771515,-1.496222521630302
2024-09-23 02:15:53.735803,0,9.576784,-0.01573262016586086,0.02213537267710212,1.0149982969573756,0.3018342781975865,-1.2336931146740913,-1.483101830264926
2024-09-23 02:15:53.778706,0,9.576835,-0.01219582044264106,0.01963527073796979,1.0149982969573756,0.3324875378228724,-1.2336931146740913,-1.483101830264926
2024-09-23 02:15:53.790369,0,9.576835,-0.01219582044264106,0.01963527073796979,1.0149982969573756,0.3324875378228724,-1.1812102424908428,-1.483101830264926
2024-09-23 02:15:53.823003,0,9.576886,-0.01219582044264106,0.01963527073796979,1.0149982969573756,0.3324875378228724,-1.1812102424908428,-1.483101830264926
2024-09-23 02:15:53.834171,0,9.576886,-0.014939857124674697,0.021098777423940302,1.0112784810508548,0.26247207069927825,-1.1812102424908428,-1.483101830264926
2024-09-23 02:15:53.877647,47.9,9.576936,-0.013171458402297304,0.021098777423940302,1.0112784810508548,0.26247207069927825,-1.0630662837389857,-1.3693696416858583
2024-09-23 02:15:53.890211,47.9,9.576936,-0.013171458402297304,0.02048899031317319,1.0116442992417454,0.26247207069927825,-1.0630662837389857,-1.3693696416858583
2024-09-23 02:15:53.922592,47.9,9.576936,-0.013171458402297304,0.02048899031317319,1.0116442992417454,0.2581175834225491,-1.1199610328167677,-1.5224640110827983
2024-09-23 02:15:53.933834,47.9,9.576987,-0.01378124399408774,0.02018409827676631,1.0116442992417454,0.2581175834225491,-1.1199610328167677,-1.5224640110827983
2024-09-23 02:15:53.977691,47.9,9.577038,-0.01182986782231462,0.02018409827676631,1.0118273541589518,0.3193667930966243,-1.1287272635858505,-1.5005769822265953
2024-09-23 02:15:54.019715,47.9,9.577038,-0.01182986782231462,0.020306014382754138,1.0117053499523165,0.26247207069927825,-1.1287272635858505,-1.5005769822265953
2024-09-23 02:15:54.033980,47.9,9.577125,-0.01182986782231462,0.020306014382754138,1.0117053499523165,0.26247207069927825,-1.1637349838074296,-1.483101830264926
2024-09-23 02:15:54.067648,47.9,9.577125,-0.011951885699739756,0.021830479121718566,1.0117053499523165,0.26247207069927825,-1.1637349838074296,-1.483101830264926
2024-09-23 02:15:54.078967,47.9,9.577125,-0.011951885699739756,0.021830479121718566,1.0131688171448936,0.35872900059493257,-1.207451731943339,-1.4568603408124299
2024-09-23 02:15:54.121473,47.9,9.577176,-0.011342100107949322,0.020001120827370582,1.0158518403312846,0.223109849860752,-1.207451731943339,-1.4568603408124299
2024-09-23 02:15:54.133733,47.9,9.577176,-0.011342100107949322,0.020001120827370582,1.0158518403312846,0.223109849860752,-1.0893650827679784,-1.4568603408124299
2024-09-23 02:15:54.165859,47.9,9.577176,-0.011342100107949322,0.020001120827370582,1.0158518403312846,0.223109849860752,-1.0893650827679784,-1.3518370734259486
2024-09-23 02:15:54.218368,47.9,9.577227,-0.012927522899907663,0.021281651582922046,1.0132908213515286,0.3456082558686845,-1.0893650827679784,-1.3518370734259486
2024-09-23 02:15:54.230855,47.9,9.577227,-0.012927522899907663,0.021281651582922046,1.0132908213515286,0.3456082558686845,-1.0455910250555724,-1.3518370734259486
2024-09-23 02:15:54.263556,47.9,9.577278,-0.015183792627064338,0.021281651582922046,1.0132908213515286,0.3456082558686845,-1.0455910250555724,-1.3518370734259486
2024-09-23 02:15:54.275171,47.9,9.577278,-0.015183792627064338,0.018781549643789714,1.0123761300525411,0.3149550229238346,-1.0455910250555724,-1.3518370734259486
2024-09-23 02:15:54.317746,47.9,9.577328,-0.01378124399408774,0.020245056329760223,1.0107297051572652,0.3149550229238346,-1.0893650827679784,-1.474335492774099
2024-09-23 02:15:54.359656,47.9,9.577328,-0.01378124399408774,0.020245056329760223,1.0107297051572652,0.3630834878716618,-1.1374934943549335,-1.474335492774099
2024-09-23 02:15:54.371830,47.9,9.577379,-0.009451681989170117,0.01926931735815501,1.0107297051572652,0.3630834878716618,-1.1374934943549335,-1.426207081187144
2024-09-23 02:15:54.415110,47.9,9.577466,-0.011281142054955407,0.01926931735815501,1.0104856967439952,0.3237212803733535,-1.1243154934130608,-1.4087318225037306
2024-09-23 02:15:54.458404,47.9,9.577466,-0.011281142054955407,0.02067186599113161,1.0143274196426437,0.3149550229238346,-1.1243154934130608,-1.4087318225037306
2024-09-23 02:15:54.470226,47.9,9.577563,-0.011281142054955407,0.02067186599113161,1.0143274196426437,0.3149550229238346,-1.1680894444037229,-1.43932777255252
2024-09-23 02:15:54.513850,47.9,9.577563,-0.011768909009832369,0.02164760496273682,1.0132908213515286,0.3062460483703762,-1.1024857741333545,-1.3956111311383546
2024-09-23 02:15:54.556553,47.9,9.577615,-0.011890927646745842,0.02097675802753849,1.0132908213515286,0.3062460483703762,-1.1024857741333545,-1.3956111311383546
2024-09-23 02:15:54.568160,47.9,9.577615,-0.011890927646745842,0.02097675802753849,1.0136566395424191,0.3062460483703762,-1.1637349838074296,-1.3956111311383546
2024-09-23 02:15:54.610497,47.9,9.577666,-0.010854230622146716,0.01811080599900536,1.0130469101527657,0.4330989549952559,-1.1637349838074296,-1.3474826128296553
2024-09-23 02:15:54.653588,47.9,9.577716,-0.010854230622146716,0.01811080599900536,1.0130469101527657,0.4330989549952559,-1.1287272635858505,-1.3518370734259486
2024-09-23 02:15:54.664829,47.9,9.577716,-0.013354434332716355,0.021159735476934217,1.0121322188537785,0.4330989549952559,-1.1287272635858505,-1.3518370734259486
2024-09-23 02:15:54.707682,47.9,9.577767,-0.012805606793919833,0.019574312684975875,1.0121322188537785,0.37184974532118065,-1.0849533125951887,-1.3649578715130686
2024-09-23 02:15:54.749742,47.9,9.577767,-0.012805606793919833,0.019574312684975875,1.0117664006628877,0.3324875378228724,-1.0849533125951887,-1.3649578715130686
2024-09-23 02:15:54.761108,47.9,9.577818,-0.01365932788809991,0.019574312684975875,1.0117664006628877,0.3324875378228724,-1.2293386540777982,-1.3606034109167755
2024-09-23 02:15:54.803976,47.9,9.577905,-0.01365932788809991,0.019086441680196593,1.0122541258459061,0.38061600277069957,-1.0937195433642715,-1.404320052330941
2024-09-23 02:15:54.845916,47.9,9.577905,-0.01378124399408774,0.018964423802771455,1.0122541258459061,0.38061600277069957,-1.0937195433642715,-1.404320052330941
2024-09-23 02:15:54.898425,44.04,9.577905,-0.01378124399408774,0.018964423802771455,1.011217527554791,0.40244569536997005,-1.0762442846808582,-1.404320052330941
2024-09-23 02:15:54.909977,44.04,9.577956,-0.013171458402297304,0.018964423802771455,1.011217527554791,0.40244569536997005,-1.0762442846808582,-1.5005769822265953
2024-09-23 02:15:54.942320,44.04,9.577956,-0.013171458402297304,0.02274515826889256,1.011217527554791,0.40244569536997005,-1.0762442846808582,-1.5005769822265953
2024-09-23 02:15:54.953549,44.04,9.578007,-0.013171458402297304,0.02274515826889256,1.0122541258459061,0.28871353347133843,-1.1024857741333545,-1.496222521630302
2024-09-23 02:15:54.995507,44.04,9.578007,-0.014391029585878175,0.02122069352992813,1.012925003160638,0.3630834878716618,-1.1024857741333545,-1.496222521630302
2024-09-23 02:15:55.006357,44.04,9.578007,-0.014391029585878175,0.02122069352992813,1.012925003160638,0.3630834878716618,-1.1111946953259408,-1.3562488435987383
2024-09-23 02:15:55.050062,44.04,9.578058,-0.011707950956838454,0.019513251341567978,1.0134736818397203,0.3499627431454137,-1.1724439050000162,-1.3562488435987383
2024-09-23 02:15:55.092906,44.04,9.578109,-0.015793578218854774,0.019513251341567978,1.0134736818397203,0.3499627431454137,-1.1724439050000162,-1.5355847024481744
2024-09-23 02:15:55.104063,44.04,9.578109,-0.015793578218854774,0.022562284109910815,1.0119492611510794,0.3368419984191656,-1.1724439050000162,-1.5355847024481744
2024-09-23 02:15:55.146470,44.04,9.578199,-0.013049540777332799,0.019940162774376668,1.01231507934197,0.3368419984191656,-1.207451731943339,-1.3474826128296553
2024-09-23 02:15:55.189386,44.04,9.578199,-0.013049540777332799,0.019940162774376668,1.01231507934197,0.38932495064372197,-1.1724439050000162,-1.3474826128296553
2024-09-23 02:15:55.242760,44.04,9.57825,-0.016891131525010507,0.017805912443621806,1.0109736163560281,0.38932495064372197,-1.1724439050000162,-1.4568603408124299
2024-09-23 02:15:55.285827,44.04,9.57825,-0.016891131525010507,0.017805912443621806,1.0109736163560281,0.38932495064372197,-1.1243154934130608,-1.5487055005352943
2024-09-23 02:15:55.298076,44.04,9.5783,-0.01481783924724956,0.02164760496273682,1.0134127283436565,0.38932495064372197,-1.1243154934130608,-1.5487055005352943
2024-09-23 02:15:55.341750,44.04,9.578392,-0.012927522899907663,0.018598572194393984,1.0134127283436565,0.3411964856958948,-1.0412365644592791,-1.3649578715130686
2024-09-23 02:15:55.385095,44.04,9.578392,-0.012927522899907663,0.018598572194393984,1.0147542885441054,0.37184974532118065,-1.1374934943549335,-1.3649578715130686
2024-09-23 02:15:55.396582,44.04,9.578444,-0.011281142054955407,0.018598572194393984,1.0147542885441054,0.37184974532118065,-1.1374934943549335,-1.426207081187144
2024-09-23 02:15:55.440350,44.04,9.578494,-0.011281142054955407,0.0187205915907958,1.01542506864433,0.3499627431454137,-1.216217962712422,-1.404320052330941
2024-09-23 02:15:55.482440,44.04,9.578494,-0.012744546969488612,0.022562284109910815,1.0143883731387076,0.3499627431454137,-1.216217962712422,-1.404320052330941
2024-09-23 02:15:55.493959,44.04,9.578494,-0.012744546969488612,0.022562284109910815,1.0143883731387076,0.3849704900474288,-1.0937195433642715,-1.4306188513599336
2024-09-23 02:15:55.536532,44.04,9.578588,-0.01164699290384454,0.021952496999143704,1.0125589905407328,0.31060053564710544,-1.2118635021161288,-1.4306188513599336
2024-09-23 02:15:55.579011,44.04,9.578639,-0.012805606793919833,0.021952496999143704,1.0125589905407328,0.31060053564710544,-1.2118635021161288,-1.426207081187144
2024-09-23 02:15:55.632179,44.04,9.578639,-0.012805606793919833,0.020610907938137694,1.0124370835486052,0.38061600277069957,-1.2643463742993772,-1.43932777255252
2024-09-23 02:15:55.644016,44.04,9.57869,-0.012805606793919833,0.020610907938137694,1.0124370835486052,0.38061600277069957,-1.2643463742993772,-1.43932777255252
2024-09-23 02:15:55.677592,44.04,9.57869,-0.01536666678604608,0.018598572194393984,1.015546975636458,0.38061600277069957,-1.2643463742993772,-1.43932777255252
2024-09-23 02:15:55.688948,44.04,9.57869,-0.01536666678604608,0.018598572194393984,1.015546975636458,0.3499627431454137,-1.1068402347296475,-1.4874562908612192
2024-09-23 02:15:55.731466,44.04,9.578741,-0.013110498830326714,0.020062078880364497,1.0109126628599643,0.2186980663477443,-1.0718325145080685,-1.4874562908612192
2024-09-23 02:15:55.773382,44.04,9.578791,-0.013110498830326714,0.020062078880364497,1.0109126628599643,0.2186980663477443,-1.0718325145080685,-1.448094003321603
2024-09-23 02:15:55.785700,44.04,9.578791,-0.011524974266931064,0.021708563015730736,1.0121931723498423,0.29747979092085736,-1.0718325145080685,-1.448094003321603
2024-09-23 02:15:55.829032,44.04,9.57888,-0.01268358815700636,0.01664729931303485,1.0151811574455674,0.29747979092085736,-1.0324703336901964,-1.4218526205908506
2024-09-23 02:15:55.872529,44.04,9.57888,-0.01268358815700636,0.01664729931303485,1.0151811574455674,0.3237212803733535,-1.1199610328167677,-1.518109550486505
2024-09-23 02:15:55.884297,44.04,9.578931,-0.010793271809664462,0.019696228790963704,1.0151811574455674,0.3237212803733535,-1.1199610328167677,-1.518109550486505
2024-09-23 02:15:55.916862,42.78,9.578931,-0.010793271809664462,0.019696228790963704,1.0139006479556893,0.3237212803733535,-1.1199610328167677,-1.518109550486505
2024-09-23 02:15:55.928774,42.78,9.578982,-0.01341539238571027,0.019696228790963704,1.0139006479556893,0.3411964856958948,-1.1024857741333545,-1.4218526205908506
2024-09-23 02:15:55.971864,42.78,9.578982,-0.01341539238571027,0.020366972435748053,1.0134127283436565,0.3237212803733535,-1.1156065722204744,-1.4218526205908506
2024-09-23 02:15:55.982701,42.78,9.579075,-0.01341539238571027,0.020366972435748053,1.0134127283436565,0.3237212803733535,-1.1156065722204744,-1.483101830264926
2024-09-23 02:15:56.015331,42.78,9.579075,-0.014208053655459124,0.020366972435748053,1.0134127283436565,0.3237212803733535,-1.1156065722204744,-1.483101830264926
2024-09-23 02:15:56.026741,42.78,9.579075,-0.014208053655459124,0.022684200215898644,1.0130469101527657,0.3368419984191656,-1.0849533125951887,-1.4655692620050162
2024-09-23 02:15:56.069004,42.78,9.579126,-0.007134556739945173,0.021098777423940302,1.0130469101527657,0.3368419984191656,-1.0849533125951887,-1.4655692620050162
2024-09-23 02:15:56.080418,42.78,9.579126,-0.007134556739945173,0.021098777423940302,1.0113394345469187,0.29306802074806765,-1.0980740039605648,-1.4655692620050162
2024-09-23 02:15:56.113894,42.78,9.579177,-0.007134556739945173,0.021098777423940302,1.0113394345469187,0.29306802074806765,-1.0980740039605648,-1.4306188513599336
2024-09-23 02:15:56.126264,42.78,9.579177,-0.011951885699739756,0.017805912443621806,1.0101198785531047,0.2668265312955715,-1.0980740039605648,-1.4306188513599336
2024-09-23 02:15:56.169186,42.78,9.579228,-0.012073802565215924,0.02048899031317319,1.0160348952484908,0.2668265312955715,-1.1374934943549335,-1.4174980532728136
2024-09-23 02:15:56.211834,42.78,9.579228,-0.012073802565215924,0.02048899031317319,1.0160348952484908,0.2362305812467821,-1.2293386540777982,-1.4174980532728136
2024-09-23 02:15:56.223065,42.78,9.579278,-0.01219582044264106,0.02048899031317319,1.0160348952484908,0.2362305812467821,-1.2293386540777982,-1.4787472629468887
2024-09-23 02:15:56.265410,42.78,9.579278,-0.01219582044264106,0.021098777423940302,1.0160348952484908,0.2362305812467821,-1.2293386540777982,-1.4787472629468887
2024-09-23 02:15:56.309283,42.78,9.579278,-0.01219582044264106,0.021098777423940302,1.01542506864433,0.28871353347133843,-1.2293386540777982,-1.4787472629468887
2024-09-23 02:15:56.320697,42.78,9.579329,-0.011342100107949322,0.021098777423940302,1.01542506864433,0.28871353347133843,-1.1243154934130608,-1.483101830264926
2024-09-23 02:15:56.363269,42.78,9.579329,-0.011342100107949322,0.019086441680196593,1.012802998954003,0.3237212803733535,-1.1462025222692638,-1.3780785628784449
2024-09-23 02:15:56.375291,42.78,9.579416,-0.011342100107949322,0.019086441680196593,1.012802998954003,0.3237212803733535,-1.1462025222692638,-1.3780785628784449
2024-09-23 02:15:56.408230,42.78,9.579416,-0.015305708733052167,0.017257084904825287,1.015668979843093,0.3237212803733535,-1.1462025222692638,-1.3780785628784449
2024-09-23 02:15:56.420121,42.78,9.579416,-0.015305708733052167,0.017257084904825287,1.015668979843093,0.38061600277069957,-1.0980740039605648,-1.3387163820605725
2024-09-23 02:15:56.462963,42.78,9.579468,-0.013354434332716355,0.021952496999143704,1.015973941752427,0.2581175834225491,-1.1418479549512268,-1.3387163820605725
2024-09-23 02:15:56.506041,42.78,9.579519,-0.013537308491698099,0.021952496999143704,1.015973941752427,0.2581175834225491,-1.1418479549512268,-1.3080631224352866
2024-09-23 02:15:56.517731,42.78,9.579519,-0.013537308491698099,0.023720795469060463,1.0149982969573756,0.3062460483703762,-1.1418479549512268,-1.3080631224352866
2024-09-23 02:15:56.560303,42.78,9.579613,-0.012317737308117227,0.019025483627202678,1.0164616669354454,0.3062460483703762,-1.1637349838074296,-1.5355847024481744
2024-09-23 02:15:56.603773,42.78,9.579613,-0.012317737308117227,0.019025483627202678,1.0164616669354454,0.3630834878716618,-1.0805987452771515,-1.4874562908612192
2024-09-23 02:15:56.615770,42.78,9.579663,-0.013720285941093825,0.02067186599113161,1.0164616669354454,0.3630834878716618,-1.0805987452771515,-1.4874562908612192
2024-09-23 02:15:56.648187,42.78,9.579663,-0.013720285941093825,0.02067186599113161,1.0134127283436565,0.3630834878716618,-1.0805987452771515,-1.4874562908612192
2024-09-23 02:15:56.659922,42.78,9.579714,-0.010549337066763158,0.02067186599113161,1.0134127283436565,0.3193667930966243,-1.1549687530383468,-1.4874562908612192
2024-09-23 02:15:56.702240,42.78,9.579714,-0.010549337066763158,0.019513251341567978,1.0164616669354454,0.37620423259790986,-1.1462025222692638,-1.4874562908612192
2024-09-23 02:15:56.713446,42.78,9.579806,-0.010549337066763158,0.019513251341567978,1.0164616669354454,0.37620423259790986,-1.1462025222692638,-1.448094003321603
2024-09-23 02:15:56.745388,42.78,9.579806,-0.011098165365048018,0.019513251341567978,1.0164616669354454,0.37620423259790986,-1.1462025222692638,-1.448094003321603
2024-09-23 02:15:56.757917,42.78,9.579806,-0.011098165365048018,0.02018409827676631,1.0135347325502915,0.4155664400962181,-1.203097164625302,-1.426207081187144
2024-09-23 02:15:56.800187,42.78,9.579858,-0.011768909009832369,0.01975718684395762,1.0114614387535539,0.37620423259790986,-1.203097164625302,-1.426207081187144
2024-09-23 02:15:56.812794,42.78,9.579858,-0.011768909009832369,0.01975718684395762,1.0114614387535539,0.37620423259790986,-1.1111946953259408,-1.426207081187144
2024-09-23 02:15:56.845181,42.78,9.579858,-0.011768909009832369,0.01975718684395762,1.0114614387535539,0.37620423259790986,-1.1111946953259408,-1.404320052330941
2024-09-23 02:15:56.857032,42.78,9.579908,-0.012439653414105056,0.019452293288574063,1.0126809947473678,0.3499627431454137,-1.1111946953259408,-1.404320052330941
2024-09-23 02:15:56.899605,42.78,9.579959,-0.013171458402297304,0.024269623007856983,1.0126809947473678,0.3499627431454137,-1.2818216329827905,-1.404320052330941
2024-09-23 02:15:56.911292,42.78,9.579959,-0.013171458402297304,0.024269623007856983,1.014205512650516,0.3499627431454137,-1.2818216329827905,-1.404320052330941
2024-09-23 02:15:56.944009,43.28,9.579959,-0.013171458402297304,0.024269623007856983,1.014205512650516,0.3456082558686845,-1.1330817241821438,-1.4174980532728136
2024-09-23 02:15:56.955226,43.28,9.58001,-0.012927522899907663,0.020245056329760223,1.014205512650516,0.3456082558686845,-1.1330817241821438,-1.4174980532728136
2024-09-23 02:15:56.997932,43.28,9.58006,-0.014025177977500705,0.020245056329760223,1.0079246777642392,0.38061600277069957,-1.1199610328167677,-1.3868447936475277
2024-09-23 02:15:57.040861,43.28,9.58006,-0.014025177977500705,0.02274515826889256,1.0136566395424191,0.38061600277069957,-1.1199610328167677,-1.3868447936475277
2024-09-23 02:15:57.051972,43.28,9.580147,-0.014025177977500705,0.02274515826889256,1.0136566395424191,0.3018342781975865,-1.0674780539117754,-1.3737241022821516
2024-09-23 02:15:57.094731,43.28,9.580147,-0.014025177977500705,0.019452293288574063,1.011034569852092,0.28871353347133843,-1.0805987452771515,-1.3737241022821516
2024-09-23 02:15:57.106538,43.28,9.580147,-0.014025177977500705,0.019452293288574063,1.011034569852092,0.28871353347133843,-1.0805987452771515,-1.4218526205908506
2024-09-23 02:15:57.139472,43.28,9.580199,-0.012622630104012445,0.02189143717471248,1.011034569852092,0.28871353347133843,-1.0805987452771515,-1.4218526205908506
2024-09-23 02:15:57.151514,43.28,9.580199,-0.012622630104012445,0.02189143717471248,1.0121931723498423,0.3368419984191656,-1.0587118231426924,-1.4218526205908506
2024-09-23 02:15:57.194038,43.28,9.580249,-0.01268358815700636,0.018415698035412244,1.0120712653577144,0.3062460483703762,-1.0587118231426924,-1.469981032177806
2024-09-23 02:15:57.236802,43.28,9.5803,-0.01268358815700636,0.018415698035412244,1.0120712653577144,0.3062460483703762,-1.1637349838074296,-1.4524485706396402
2024-09-23 02:15:57.290956,43.28,9.5803,-0.013293374508285133,0.019208359305161096,1.0174374089450038,0.38061600277069957,-1.1987427040290088,-1.448094003321603
2024-09-23 02:15:57.333159,43.28,9.580351,-0.01256167205101853,0.019208359305161096,1.0174374089450038,0.38061600277069957,-1.1987427040290088,-1.448094003321603
2024-09-23 02:15:57.344293,43.28,9.580351,-0.01256167205101853,0.019513251341567978,1.012498037044669,0.3193667930966243,-1.1243154934130608,-1.448094003321603
2024-09-23 02:15:57.387557,43.28,9.580402,-0.01408613603049462,0.0173180429578192,1.0104247432479314,0.3193667930966243,-1.1243154934130608,-1.404320052330941
2024-09-23 02:15:57.399287,43.28,9.580402,-0.01408613603049462,0.0173180429578192,1.0104247432479314,0.3149550229238346,-1.1243154934130608,-1.404320052330941
2024-09-23 02:15:57.430890,43.28,9.580402,-0.01408613603049462,0.0173180429578192,1.0104247432479314,0.3149550229238346,-1.1680894444037229,-1.496222521630302
2024-09-23 02:15:57.442389,43.28,9.580488,-0.01445198763887209,0.01963527073796979,1.0149372462468045,0.3149550229238346,-1.1680894444037229,-1.496222521630302
2024-09-23 02:15:57.485207,43.28,9.58054,-0.012256778495634975,0.016830173472016593,1.0149372462468045,0.3630834878716618,-1.1068402347296475,-1.434973311956227
2024-09-23 02:15:57.527856,43.28,9.58054,-0.012256778495634975,0.016830173472016593,1.0108517093639005,0.2405850685235113,-1.1068402347296475,-1.434973311956227
2024-09-23 02:15:57.538907,43.28,9.58059,-0.014208053655459124,0.016830173472016593,1.0108517093639005,0.2405850685235113,-1.1156065722204744,-1.3649578715130686
2024-09-23 02:15:57.581607,43.28,9.58059,-0.014208053655459124,0.021708563015730736,1.0128639524500669,0.2405850685235113,-1.1156065722204744,-1.3649578715130686
2024-09-23 02:15:57.623608,43.28,9.58059,-0.014208053655459124,0.021708563015730736,1.0128639524500669,0.39809120809324083,-1.1156065722204744,-1.3649578715130686
2024-09-23 02:15:57.635336,43.28,9.580683,-0.013354434332716355,0.022440264713509,1.0128639524500669,0.39809120809324083,-1.1111946953259408,-1.3606034109167755
2024-09-23 02:15:57.677881,43.28,9.580683,-0.013354434332716355,0.022440264713509,1.0100589250570406,0.3411964856958948,-1.0762442846808582,-1.3999655917346479
2024-09-23 02:15:57.689754,43.28,9.580735,-0.013354434332716355,0.022440264713509,1.0100589250570406,0.3411964856958948,-1.0762442846808582,-1.3999655917346479
2024-09-23 02:15:57.722310,43.28,9.580735,-0.013354434332716355,0.019086441680196593,1.0100589250570406,0.3411964856958948,-1.0762442846808582,-1.3999655917346479
2024-09-23 02:15:57.733582,43.28,9.580786,-0.013354434332716355,0.019086441680196593,1.0104856967439952,0.3324875378228724,-1.1462025222692638,-1.5618261919006706
2024-09-23 02:15:57.776784,43.28,9.580786,-0.01695219134944173,0.0187205915907958,1.0093270942462451,0.27994727602181957,-1.1418479549512268,-1.5618261919006706
2024-09-23 02:15:57.788525,43.28,9.580786,-0.01695219134944173,0.0187205915907958,1.0093270942462451,0.27994727602181957,-1.1418479549512268,-1.3649578715130686
2024-09-23 02:15:57.821066,43.28,9.580836,-0.013720285941093825,0.0187205915907958,1.0093270942462451,0.27994727602181957,-1.1418479549512268,-1.3649578715130686
2024-09-23 02:15:57.832800,43.28,9.580836,-0.013720285941093825,0.020610907938137694,1.015608026347029,0.38932495064372197,-1.1987427040290088,-1.3649578715130686
2024-09-23 02:15:57.874493,43.28,9.580928,-0.011524974266931064,0.019940162774376668,1.0133517748475924,0.38932495064372197,-1.1987427040290088,-1.4218526205908506
2024-09-23 02:15:57.886595,43.28,9.580928,-0.011524974266931064,0.019940162774376668,1.0133517748475924,0.3280757409696467,-1.1987427040290088,-1.4218526205908506
2024-09-23 02:15:57.920086,43.28,9.580979,-0.011524974266931064,0.019940162774376668,1.0133517748475924,0.3280757409696467,-0.9624548932470381,-1.469981032177806
2024-09-23 02:15:57.931783,43.28,9.580979,-0.015122834574070423,0.02402578927690465,1.011095523348156,0.3280757409696467,-0.9624548932470381,-1.469981032177806
2024-09-23 02:15:57.974046,43.17,9.58103,-0.012317737308117227,0.02085484192155066,1.011095523348156,0.3062460483703762,-1.1506142924420535,-1.413086283100024
2024-09-23 02:15:58.017393,43.17,9.58103,-0.012317737308117227,0.02085484192155066,1.0119492611510794,0.3411964856958948,-1.0805987452771515,-1.413086283100024
2024-09-23 02:15:58.029087,43.17,9.581081,-0.013842202047081654,0.02085484192155066,1.0119492611510794,0.3411964856958948,-1.0805987452771515,-1.4087318225037306
2024-09-23 02:15:58.072579,43.17,9.581171,-0.013842202047081654,0.021586543619328925,1.013778546534547,0.38932495064372197,-1.0587118231426924,-1.426207081187144
2024-09-23 02:15:58.115630,43.17,9.581171,-0.015976452377836518,0.020732824044125523,1.0138396944596255,0.38932495064372197,-1.0587118231426924,-1.426207081187144
2024-09-23 02:15:58.126892,43.17,9.581171,-0.015976452377836518,0.020732824044125523,1.0138396944596255,0.3630834878716618,-1.0937195433642715,-1.4174980532728136
2024-09-23 02:15:58.160028,43.17,9.581223,-0.015976452377836518,0.020732824044125523,1.0138396944596255,0.3630834878716618,-1.0937195433642715,-1.4174980532728136
2024-09-23 02:15:58.171223,43.17,9.581223,-0.00987859342197881,0.021708563015730736,1.0165227176460165,0.27559278874509036,-1.1024857741333545,-1.4174980532728136
2024-09-23 02:15:58.213146,43.17,9.581273,-0.01445198763887209,0.020732824044125523,1.0165227176460165,0.27559278874509036,-1.1024857741333545,-1.3956111311383546
2024-09-23 02:15:58.224915,43.17,9.581273,-0.01445198763887209,0.020732824044125523,1.0134127283436565,0.19686837374847382,-1.1024857741333545,-1.3956111311383546
2024-09-23 02:15:58.267468,43.17,9.581324,-0.013537308491698099,0.02122069352992813,1.0118883076550156,0.19686837374847382,-1.224984193481505,-1.4218526205908506
2024-09-23 02:15:58.310108,43.17,9.581324,-0.013537308491698099,0.02122069352992813,1.0118883076550156,0.3149550229238346,-1.15932321363464,-1.434973311956227
2024-09-23 02:15:58.321614,43.17,9.581375,-0.013049540777332799,0.018049744655597465,1.0118883076550156,0.3149550229238346,-1.15932321363464,-1.434973311956227
2024-09-23 02:15:58.364150,43.17,9.581425,-0.009451681989170117,0.018049744655597465,1.0118273541589518,0.38061600277069957,-1.1549687530383468,-1.3911993609655648
2024-09-23 02:15:58.406798,43.17,9.581425,-0.009451681989170117,0.02164760496273682,1.0129859566567019,0.2055773349617142,-1.1549687530383468,-1.3911993609655648
2024-09-23 02:15:58.418105,43.17,9.581512,-0.009451681989170117,0.02164760496273682,1.0129859566567019,0.2055773349617142,-1.1549687530383468,-1.3911993609655648
2024-09-23 02:15:58.461049,43.17,9.581512,-0.013171458402297304,0.018415698035412244,1.0139616014517532,0.27994727602181957,-1.1374934943549335,-1.5005769822265953
2024-09-23 02:15:58.503840,43.17,9.581564,-0.012378695361111141,0.018415698035412244,1.0139616014517532,0.27994727602181957,-1.1374934943549335,-1.5005769822265953
2024-09-23 02:15:58.515225,43.17,9.581564,-0.012378695361111141,0.022318348607521174,1.0168275823408433,0.3062460483703762,-1.2687009416174144,-1.5005769822265953
2024-09-23 02:15:58.558737,43.17,9.581615,-0.012744546969488612,0.017257084904825287,1.0125589905407328,0.3324875378228724,-1.2687009416174144,-1.4787472629468887
2024-09-23 02:15:58.601859,43.17,9.581665,-0.012744546969488612,0.017257084904825287,1.0125589905407328,0.3324875378228724,-1.1506142924420535,-1.3562488435987383
2024-09-23 02:15:58.613020,43.17,9.581665,-0.013110498830326714,0.020306014382754138,1.0097540603622142,0.3324875378228724,-1.1506142924420535,-1.3562488435987383
2024-09-23 02:15:58.655370,43.17,9.581716,-0.013842202047081654,0.02262324216290473,1.0097540603622142,0.27559278874509036,-1.1462025222692638,-1.413086283100024
2024-09-23 02:15:58.697970,43.17,9.581716,-0.013842202047081654,0.02262324216290473,1.0146933350480416,0.29747979092085736,-1.1462025222692638,-1.413086283100024
2024-09-23 02:15:58.709671,43.17,9.581767,-0.013110498830326714,0.02262324216290473,1.0146933350480416,0.29747979092085736,-1.0718325145080685,-1.4087318225037306
2024-09-23 02:15:58.751401,43.17,9.581767,-0.013110498830326714,0.021098777423940302,1.0114003880429827,0.28871353347133843,-1.238104991568625,-1.5136977803137153
2024-09-23 02:15:58.763132,43.17,9.581854,-0.013110498830326714,0.021098777423940302,1.0114003880429827,0.28871353347133843,-1.238104991568625,-1.5136977803137153
2024-09-23 02:15:58.795424,43.17,9.581854,-0.01182986782231462,0.022440264713509,1.0114003880429827,0.28871353347133843,-1.238104991568625,-1.5136977803137153
2024-09-23 02:15:58.806990,43.17,9.581854,-0.01182986782231462,0.022440264713509,1.0108517093639005,0.39809120809324083,-1.1111946953259408,-1.3562488435987383
2024-09-23 02:15:58.848802,43.17,9.581905,-0.011586034850850625,0.021037716080532405,1.01542506864433,0.29747979092085736,-1.1111946953259408,-1.3562488435987383
2024-09-23 02:15:58.860984,43.17,9.581905,-0.011586034850850625,0.021037716080532405,1.01542506864433,0.29747979092085736,-1.1637349838074296,-1.3562488435987383
2024-09-23 02:15:58.892701,43.17,9.581956,-0.011586034850850625,0.021037716080532405,1.01542506864433,0.29747979092085736,-1.1637349838074296,-1.3212411233771593
2024-09-23 02:15:58.904139,43.17,9.581956,-0.015305708733052167,0.02018409827676631,1.0132298678554648,0.2362305812467821,-1.1637349838074296,-1.3212411233771593
2024-09-23 02:15:58.946326,43.17,9.582007,-0.015793578218854774,0.02018409827676631,1.0132298678554648,0.2362305812467821,-1.1549687530383468,-1.3430708426568656
2024-09-23 02:15:58.958024,43.17,9.582007,-0.015793578218854774,0.02018409827676631,1.0135347325502915,0.2362305812467821,-1.1549687530383468,-1.3430708426568656
2024-09-23 02:15:58.989807,43.03,9.582007,-0.015793578218854774,0.02018409827676631,1.0135347325502915,0.3062460483703762,-1.1549687530383468,-1.3430708426568656
2024-09-23 02:15:59.001340,43.03,9.582057,-0.014025177977500705,0.019208359305161096,1.0135347325502915,0.3062460483703762,-1.1374934943549335,-1.3562488435987383
2024-09-23 02:15:59.044761,43.03,9.582108,-0.014025177977500705,0.019208359305161096,1.0148152420401695,0.3674952580444515,-1.1637349838074296,-1.4218526205908506
2024-09-23 02:15:59.056785,43.03,9.582108,-0.012927522899907663,0.019208359305161096,1.0148152420401695,0.3674952580444515,-1.1637349838074296,-1.4218526205908506
2024-09-23 02:15:59.089432,43.03,9.582108,-0.012927522899907663,0.02152558556633501,1.0148762927507406,0.3411964856958948,-1.1637349838074296,-1.4218526205908506
2024-09-23 02:15:59.101282,43.03,9.582195,-0.012927522899907663,0.02152558556633501,1.0148762927507406,0.3411964856958948,-1.2293386540777982,-1.3562488435987383
2024-09-23 02:15:59.144216,43.03,9.582195,-0.01585453627184869,0.01963527073796979,1.012498037044669,0.3543172304221429,-1.0980740039605648,-1.3080631224352866
2024-09-23 02:15:59.187919,43.03,9.582247,-0.01445198763887209,0.020245056329760223,1.012498037044669,0.3543172304221429,-1.0980740039605648,-1.3080631224352866
2024-09-23 02:15:59.199191,43.03,9.582247,-0.01445198763887209,0.020245056329760223,1.0117664006628877,0.37184974532118065,-1.1024857741333545,-1.3080631224352866
2024-09-23 02:15:59.241667,43.03,9.582298,-0.01146401621393715,0.02494046842407864,1.0138396944596255,0.3630834878716618,-1.1024857741333545,-1.4087318225037306
2024-09-23 02:15:59.284049,43.03,9.582348,-0.01146401621393715,0.02494046842407864,1.0138396944596255,0.3630834878716618,-1.2118635021161288,-1.4174980532728136
2024-09-23 02:15:59.296181,43.03,9.582348,-0.012256778495634975,0.02494046842407864,1.0138396944596255,0.3630834878716618,-1.2118635021161288,-1.4174980532728136
2024-09-23 02:15:59.338834,43.03,9.582399,-0.012256778495634975,0.020732824044125523,1.014022554947817,0.3193667930966243,-1.1768557818945498,-1.4437395427253097
2024-09-23 02:15:59.381011,43.03,9.582399,-0.012134760618209839,0.02018409827676631,1.014022554947817,0.3193667930966243,-1.1768557818945498,-1.4437395427253097
2024-09-23 02:15:59.392095,43.03,9.582399,-0.012134760618209839,0.02018409827676631,1.014144559154452,0.3411964856958948,-1.1899764732599258,-1.4306188513599336
2024-09-23 02:15:59.435873,43.03,9.58245,-0.012500713238536278,0.020245056329760223,1.0149982969573756,0.3237212803733535,-1.1899764732599258,-1.4306188513599336
2024-09-23 02:15:59.447330,43.03,9.58245,-0.012500713238536278,0.020245056329760223,1.0149982969573756,0.3237212803733535,-1.0718325145080685,-1.4306188513599336
2024-09-23 02:15:59.479110,43.03,9.582536,-0.01219582044264106,0.020245056329760223,1.0149982969573756,0.3237212803733535,-1.0718325145080685,-1.3518370734259486
2024-09-23 02:15:59.490108,43.03,9.582536,-0.01219582044264106,0.02048899031317319,1.012620041251304,0.35872900059493257,-1.0718325145080685,-1.3518370734259486
2024-09-23 02:15:59.532925,43.03,9.582587,-0.012256778495634975,0.01811080599900536,1.0140835084438808,0.35872900059493257,-0.9799873547852039,-1.448094003321603
2024-09-23 02:15:59.577218,43.03,9.582587,-0.012256778495634975,0.01811080599900536,1.0140835084438808,0.26247207069927825,-1.1111946953259408,-1.5005769822265953
2024-09-23 02:15:59.630562,43.03,9.582638,-0.012256778495634975,0.018964423802771455,1.0111565740587272,0.28871353347133843,-1.0980740039605648,-1.5005769822265953
2024-09-23 02:15:59.673380,43.03,9.582689,-0.012256778495634975,0.018964423802771455,1.0111565740587272,0.28871353347133843,-1.0980740039605648,-1.4787472629468887
2024-09-23 02:15:59.685204,43.03,9.582689,-0.012256778495634975,0.02262324216290473,1.012498037044669,0.2362305812467821,-1.0980740039605648,-1.4787472629468887
2024-09-23 02:15:59.728732,43.03,9.58278,-0.015610600769459046,0.02085484192155066,1.0134127283436565,0.2362305812467821,-1.1068402347296475,-1.434973311956227
2024-09-23 02:15:59.770850,43.03,9.58278,-0.015610600769459046,0.02085484192155066,1.0134127283436565,0.26247207069927825,-1.15932321363464,-1.434973311956227
2024-09-23 02:15:59.782608,43.03,9.582831,-0.01341539238571027,0.019086441680196593,1.0134127283436565,0.26247207069927825,-1.15932321363464,-1.3956111311383546
2024-09-23 02:15:59.826339,43.03,9.582882,-0.012622630104012445,0.019086441680196593,1.009815013858278,0.3499627431454137,-1.1156065722204744,-1.5005769822265953
2024-09-23 02:15:59.868028,43.03,9.582882,-0.012622630104012445,0.023233027754695164,1.0160958487445546,0.3499627431454137,-1.1156065722204744,-1.5005769822265953
2024-09-23 02:15:59.879556,43.03,9.582975,-0.012622630104012445,0.023233027754695164,1.0160958487445546,0.29747979092085736,-1.1812102424908428,-1.434973311956227
2024-09-23 02:15:59.921443,43.03,9.582975,-0.011707950956838454,0.018476656088406155,1.0164007134393813,0.3630834878716618,-1.1330817241821438,-1.434973311956227
2024-09-23 02:15:59.933611,43.03,9.582975,-0.011707950956838454,0.018476656088406155,1.0164007134393813,0.3630834878716618,-1.1330817241821438,-1.491868061034009
2024-09-23 02:15:59.965611,43.03,9.583026,-0.015549642716465131,0.018476656088406155,1.0164007134393813,0.3630834878716618,-1.1330817241821438,-1.491868061034009
2024-09-23 02:15:59.976935,43.03,9.583026,-0.015549642716465131,0.019696228790963704,1.0115833457456815,0.3193667930966243,-1.0193495356030762,-1.491868061034009
2024-09-23 02:16:00.018716,42.71,9.583077,-0.012866564846913748,0.020793883868556746,1.0123761300525411,0.3193667930966243,-1.0193495356030762,-1.4218526205908506
2024-09-23 02:16:00.030599,42.71,9.583077,-0.012866564846913748,0.020793883868556746,1.0123761300525411,0.3674952580444515,-1.0193495356030762,-1.4218526205908506
2024-09-23 02:16:00.062951,42.71,9.583077,-0.012866564846913748,0.020793883868556746,1.0123761300525411,0.3674952580444515,-1.0630662837389857,-1.4437395427253097
2024-09-23 02:16:00.074633,42.71,9.583128,-0.012378695361111141,0.018171764051999276,1.0144494238492787,0.3674952580444515,-1.0630662837389857,-1.4437395427253097
2024-09-23 02:16:00.117018,42.71,9.583179,-0.014512945691866003,0.018171764051999276,1.0144494238492787,0.3193667930966243,-1.1330817241821438,-1.3474826128296553
2024-09-23 02:16:00.129211,42.71,9.583179,-0.014512945691866003,0.01939133523558015,1.0144494238492787,0.3193667930966243,-1.1330817241821438,-1.3474826128296553
2024-09-23 02:16:00.161037,42.71,9.583179,-0.014512945691866003,0.01939133523558015,1.0123761300525411,0.2405850685235113,-1.1330817241821438,-1.3474826128296553
2024-09-23 02:16:00.172931,42.71,9.583229,-0.01219582044264106,0.01939133523558015,1.0123761300525411,0.2405850685235113,-1.1943309338562191,-1.4437395427253097
2024-09-23 02:16:00.215361,42.71,9.583316,-0.01219582044264106,0.01622038788022616,1.0092051872541172,0.27559278874509036,-1.0937195433642715,-1.426207081187144
2024-09-23 02:16:00.257834,42.71,9.583316,-0.011524974266931064,0.019452293288574063,1.0092051872541172,0.27559278874509036,-1.0937195433642715,-1.426207081187144
2024-09-23 02:16:00.269272,42.71,9.583316,-0.011524974266931064,0.019452293288574063,1.0112784810508548,0.29747979092085736,-1.1330817241821438,-1.3255955839734523
2024-09-23 02:16:00.311989,42.71,9.583368,-0.01219582044264106,0.019879204721382753,1.012802998954003,0.40685746554275976,-1.1330817241821438,-1.3255955839734523
2024-09-23 02:16:00.355040,42.71,9.583368,-0.01219582044264106,0.019879204721382753,1.012802998954003,0.40685746554275976,-1.0062288442377,-1.3255955839734523
2024-09-23 02:16:00.366149,42.71,9.583418,-0.012866564846913748,0.019086441680196593,1.0145713308414066,0.40685746554275976,-1.0062288442377,-1.3956111311383546
2024-09-23 02:16:00.408044,42.71,9.583469,-0.012866564846913748,0.019086441680196593,1.0145713308414066,0.29306802074806765,-1.014995075006783,-1.3693696416858583
2024-09-23 02:16:00.420423,42.71,9.583469,-0.011098165365048018,0.021159735476934217,1.0145713308414066,0.29306802074806765,-1.014995075006783,-1.3693696416858583
2024-09-23 02:16:00.452803,42.71,9.583469,-0.011098165365048018,0.021159735476934217,1.0114614387535539,0.29306802074806765,-1.014995075006783,-1.3693696416858583
2024-09-23 02:16:00.463985,42.71,9.58352,-0.011707950956838454,0.021159735476934217,1.0114614387535539,0.35872900059493257,-1.1243154934130608,-1.404320052330941
2024-09-23 02:16:00.506074,42.71,9.58352,-0.011707950956838454,0.02048899031317319,1.0139006479556893,0.3324875378228724,-1.1724439050000162,-1.404320052330941
2024-09-23 02:16:00.517645,42.71,9.583571,-0.011707950956838454,0.02048899031317319,1.0139006479556893,0.3324875378228724,-1.1724439050000162,-1.483101830264926
2024-09-23 02:16:00.550761,42.71,9.583571,-0.010488379013769245,0.02134260963591596,1.0139006479556893,0.3324875378228724,-1.1724439050000162,-1.483101830264926
2024-09-23 02:16:00.561915,42.71,9.583571,-0.010488379013769245,0.02134260963591596,1.01426646614658,0.26247207069927825,-1.0849533125951887,-1.3037086618389935
2024-09-23 02:16:00.605142,42.71,9.583658,-0.014695923141261731,0.02097675802753849,1.0115223922496177,0.3018342781975865,-1.0849533125951887,-1.3037086618389935
2024-09-23 02:16:00.617107,42.71,9.583658,-0.014695923141261731,0.02097675802753849,1.0115223922496177,0.3018342781975865,-1.0630662837389857,-1.3037086618389935
2024-09-23 02:16:00.650062,42.71,9.583709,-0.012805606793919833,0.02097675802753849,1.0115223922496177,0.3018342781975865,-1.0630662837389857,-1.3343619214642792
2024-09-23 02:16:00.661711,42.71,9.583709,-0.012805606793919833,0.018842507696783625,1.010668654446694,0.28871353347133843,-1.0630662837389857,-1.3343619214642792
2024-09-23 02:16:00.704621,42.71,9.58376,-0.013293374508285133,0.01926931735815501,1.01426646614658,0.28871353347133843,-1.2336931146740913,-1.448094003321603
2024-09-23 02:16:00.747049,42.71,9.58376,-0.013293374508285133,0.01926931735815501,1.01426646614658,0.3149550229238346,-1.1855647030871361,-1.3562488435987383
2024-09-23 02:16:00.758050,42.71,9.583811,-0.013720285941093825,0.02085484192155066,1.01426646614658,0.3149550229238346,-1.1855647030871361,-1.3562488435987383
2024-09-23 02:16:00.800425,42.71,9.583861,-0.01268358815700636,0.02085484192155066,1.0129859566567019,0.3368419984191656,-1.1243154934130608,-1.43932777255252
2024-09-23 02:16:00.842738,42.71,9.583861,-0.01268358815700636,0.023233027754695164,1.009815013858278,0.3368419984191656,-1.1243154934130608,-1.43932777255252
2024-09-23 02:16:00.854101,42.71,9.58395,-0.01268358815700636,0.023233027754695164,1.009815013858278,0.27994727602181957,-1.0455910250555724,-1.461214801408723
2024-09-23 02:16:00.895878,42.71,9.58395,-0.01182986782231462,0.020306014382754138,1.0118883076550156,0.3018342781975865,-1.0980740039605648,-1.461214801408723
2024-09-23 02:16:00.907878,42.71,9.58395,-0.01182986782231462,0.020306014382754138,1.0118883076550156,0.3018342781975865,-1.0980740039605648,-1.4568603408124299
2024-09-23 02:16:00.940201,42.71,9.584001,-0.01182986782231462,0.020306014382754138,1.0118883076550156,0.3018342781975865,-1.0980740039605648,-1.4568603408124299
2024-09-23 02:16:00.952164,42.71,9.584001,-0.013903160100075569,0.022318348607521174,1.0103028362558035,0.3018342781975865,-1.0849533125951887,-1.4568603408124299
2024-09-23 02:16:00.994793,42.71,9.584052,-0.011524974266931064,0.019879204721382753,1.0103028362558035,0.3018342781975865,-1.0849533125951887,-1.3299501512914895
2024-09-23 02:16:01.007348,42.71,9.584052,-0.011524974266931064,0.019879204721382753,1.0117664006628877,0.37620423259790986,-1.0849533125951887,-1.3299501512914895
2024-09-23 02:16:01.039775,43.13,9.584052,-0.011524974266931064,0.019879204721382753,1.0117664006628877,0.37620423259790986,-1.0368247942864894,-1.434973311956227
2024-09-23 02:16:01.050791,43.13,9.584103,-0.013110498830326714,0.018781549643789714,1.0159129882563631,0.37620423259790986,-1.0368247942864894,-1.434973311956227
2024-09-23 02:16:01.093677,43.13,9.584154,-0.015305708733052167,0.020793883868556746,1.0159129882563631,0.29747979092085736,-1.0849533125951887,-1.461214801408723
2024-09-23 02:16:01.135591,43.13,9.584154,-0.015305708733052167,0.020793883868556746,1.014144559154452,0.28871353347133843,-1.0849533125951887,-1.461214801408723
2024-09-23 02:16:01.147045,43.13,9.584204,-0.010488379013769245,0.020793883868556746,1.014144559154452,0.28871353347133843,-1.0893650827679784,-1.496222521630302
2024-09-23 02:16:01.190376,43.13,9.584204,-0.010488379013769245,0.021464627513341095,1.0130469101527657,0.27123832814879717,-1.0980740039605648,-1.3562488435987383
2024-09-23 02:16:01.202244,43.13,9.584292,-0.010488379013769245,0.021464627513341095,1.0130469101527657,0.27123832814879717,-1.0980740039605648,-1.3562488435987383
2024-09-23 02:16:01.234330,43.13,9.584292,-0.013903160100075569,0.018293680157987106,1.0130469101527657,0.27123832814879717,-1.0980740039605648,-1.3562488435987383
2024-09-23 02:16:01.245640,43.13,9.584292,-0.013903160100075569,0.018293680157987106,1.0152421109416312,0.3543172304221429,-1.1024857741333545,-1.3737241022821516
2024-09-23 02:16:01.289140,43.13,9.584343,-0.011890927646745842,0.021708563015730736,1.0125589905407328,0.40685746554275976,-1.207451731943339,-1.3737241022821516
2024-09-23 02:16:01.332028,43.13,9.584394,-0.012012843752733671,0.021708563015730736,1.0125589905407328,0.40685746554275976,-1.207451731943339,-1.3868447936475277
2024-09-23 02:16:01.343885,43.13,9.584394,-0.012012843752733671,0.021830479121718566,1.0106077981651376,0.3237212803733535,-1.207451731943339,-1.3868447936475277
2024-09-23 02:16:01.386571,43.13,9.584444,-0.015122834574070423,0.01823272210499319,1.014022554947817,0.3237212803733535,-1.1987427040290088,-1.3956111311383546
2024-09-23 02:16:01.430050,43.13,9.584444,-0.015122834574070423,0.01823272210499319,1.014022554947817,0.3149550229238346,-1.1156065722204744,-1.4087318225037306
2024-09-23 02:16:01.441682,43.13,9.584495,-0.01536666678604608,0.020732824044125523,1.014022554947817,0.3149550229238346,-1.1156065722204744,-1.4087318225037306
2024-09-23 02:16:01.484276,43.13,9.584546,-0.01182986782231462,0.020732824044125523,1.014144559154452,0.3237212803733535,-1.0805987452771515,-1.4306188513599336
2024-09-23 02:16:01.527779,43.13,9.584546,-0.01182986782231462,0.020366972435748053,1.0158518403312846,0.3149550229238346,-1.0805987452771515,-1.4306188513599336
2024-09-23 02:16:01.539357,43.13,9.584633,-0.01182986782231462,0.020366972435748053,1.0158518403312846,0.3149550229238346,-1.0937195433642715,-1.404320052330941
2024-09-23 02:16:01.581817,43.13,9.584633,-0.014391029585878175,0.022318348607521174,1.0117053499523165,0.3018342781975865,-1.1506142924420535,-1.3868447936475277
2024-09-23 02:16:01.625163,43.13,9.584685,-0.01433007153288426,0.021952496999143704,1.0117053499523165,0.3018342781975865,-1.1506142924420535,-1.3868447936475277
2024-09-23 02:16:01.637125,43.13,9.584685,-0.01433007153288426,0.021952496999143704,1.014205512650516,0.29747979092085736,-1.1156065722204744,-1.3868447936475277
2024-09-23 02:16:01.669743,43.13,9.584685,-0.01433007153288426,0.021952496999143704,1.014205512650516,0.29747979092085736,-1.1156065722204744,-1.426207081187144
2024-09-23 02:16:01.680935,43.13,9.584735,-0.013903160100075569,0.020793883868556746,1.0134736818397203,0.27559278874509036,-1.1156065722204744,-1.426207081187144
2024-09-23 02:16:01.723942,43.13,9.584786,-0.01445198763887209,0.020793883868556746,1.0134736818397203,0.27559278874509036,-1.0805987452771515,-1.483101830264926
2024-09-23 02:16:01.735458,43.13,9.584786,-0.01445198763887209,0.020366972435748053,1.011034569852092,0.27559278874509036,-1.0805987452771515,-1.483101830264926
2024-09-23 02:16:01.767147,43.13,9.584786,-0.01445198763887209,0.020366972435748053,1.011034569852092,0.3280757409696467,-1.0805987452771515,-1.483101830264926
2024-09-23 02:16:01.778712,43.13,9.584837,-0.011281142054955407,0.023964729452473427,1.011034569852092,0.3280757409696467,-1.1374934943549335,-1.491868061034009
2024-09-23 02:16:01.822403,43.13,9.584837,-0.011281142054955407,0.023964729452473427,1.0143883731387076,0.3193667930966243,-1.1506142924420535,-1.4787472629468887
2024-09-23 02:16:01.834048,43.13,9.584887,-0.01408613603049462,0.023964729452473427,1.0143883731387076,0.3193667930966243,-1.1506142924420535,-1.4787472629468887
2024-09-23 02:16:01.866823,43.13,9.584887,-0.01408613603049462,0.019818144896951533,1.0143883731387076,0.3193667930966243,-1.1506142924420535,-1.4787472629468887
2024-09-23 02:16:01.878653,43.13,9.584974,-0.01408613603049462,0.019818144896951533,1.0149982969573756,0.3456082558686845,-1.1418479549512268,-1.4174980532728136
2024-09-23 02:16:01.922830,43.13,9.584974,-0.013842202047081654,0.019818144896951533,1.010668654446694,0.2668265312955715,-1.1199610328167677,-1.434973311956227
2024-09-23 02:16:01.965282,43.13,9.585025,-0.012866564846913748,0.016769215419022678,1.010668654446694,0.2668265312955715,-1.1199610328167677,-1.434973311956227
2024-09-23 02:16:01.976454,43.13,9.585025,-0.012866564846913748,0.016769215419022678,1.015668979843093,0.29306802074806765,-1.1111946953259408,-1.434973311956227
2024-09-23 02:16:02.019336,43.13,9.585076,-0.015244750680058252,0.020062078880364497,1.0130469101527657,0.2537058132497594,-1.1111946953259408,-1.4437395427253097
2024-09-23 02:16:02.062043,43.01,9.585076,-0.015244750680058252,0.020062078880364497,1.0130469101527657,0.2537058132497594,-1.1024857741333545,-1.426207081187144
2024-09-23 02:16:02.073071,43.01,9.585127,-0.012988480952901577,0.020001120827370582,1.0105467474545664,0.2537058132497594,-1.1024857741333545,-1.426207081187144
2024-09-23 02:16:02.115942,43.01,9.585177,-0.013537308491698099,0.020001120827370582,1.0105467474545664,0.39373674749694765,-1.0980740039605648,-1.483101830264926
2024-09-23 02:16:02.128087,43.01,9.585177,-0.013537308491698099,0.017805912443621806,1.0105467474545664,0.39373674749694765,-1.0980740039605648,-1.483101830264926
2024-09-23 02:16:02.160583,43.01,9.585177,-0.013537308491698099,0.017805912443621806,1.0150592504534395,0.3456082558686845,-1.1418479549512268,-1.483101830264926
2024-09-23 02:16:02.172435,43.01,9.585228,-0.01164699290384454,0.017805912443621806,1.0150592504534395,0.3456082558686845,-1.1418479549512268,-1.509343212995678
2024-09-23 02:16:02.215447,43.01,9.585315,-0.01164699290384454,0.02018409827676631,1.0168275823408433,0.3324875378228724,-1.1287272635858505,-1.5224640110827983
2024-09-23 02:16:02.258520,43.01,9.585315,-0.011890927646745842,0.02097675802753849,1.0145713308414066,0.3324875378228724,-1.1287272635858505,-1.5224640110827983
2024-09-23 02:16:02.270143,43.01,9.585315,-0.011890927646745842,0.02097675802753849,1.0145713308414066,0.3456082558686845,-1.1068402347296475,-1.3780785628784449
2024-09-23 02:16:02.313574,43.01,9.585367,-0.013537308491698099,0.021464627513341095,1.0151811574455674,0.3237212803733535,-1.1330817241821438,-1.3780785628784449
2024-09-23 02:16:02.357155,43.01,9.585417,-0.013598266544692013,0.021464627513341095,1.0151811574455674,0.3237212803733535,-1.1330817241821438,-1.3999655917346479
2024-09-23 02:16:02.369026,43.01,9.585417,-0.013598266544692013,0.022196330730096036,1.0115223922496177,0.3237212803733535,-1.1330817241821438,-1.3999655917346479
2024-09-23 02:16:02.401102,43.01,9.585417,-0.013598266544692013,0.022196330730096036,1.0115223922496177,0.3237212803733535,-1.1418479549512268,-1.3999655917346479
2024-09-23 02:16:02.412680,43.01,9.585468,-0.01408613603049462,0.01939133523558015,1.0114003880429827,0.3237212803733535,-1.1418479549512268,-1.3956111311383546
2024-09-23 02:16:02.454935,43.01,9.585519,-0.01408613603049462,0.01939133523558015,1.0114003880429827,0.39373674749694765,-1.1549687530383468,-1.43932777255252
2024-09-23 02:16:02.466712,43.01,9.585519,-0.01433007153288426,0.01811080599900536,1.0114003880429827,0.39373674749694765,-1.1549687530383468,-1.43932777255252
2024-09-23 02:16:02.498323,43.01,9.585519,-0.01433007153288426,0.01811080599900536,1.012925003160638,0.39373674749694765,-1.1549687530383468,-1.43932777255252
2024-09-23 02:16:02.511071,43.01,9.585569,-0.011281142054955407,0.01811080599900536,1.012925003160638,0.3324875378228724,-1.0718325145080685,-1.404320052330941
2024-09-23 02:16:02.553862,43.01,9.585569,-0.011281142054955407,0.01975718684395762,1.0135347325502915,0.3062460483703762,-1.207451731943339,-1.404320052330941
2024-09-23 02:16:02.566605,43.01,9.585656,-0.011281142054955407,0.01975718684395762,1.0135347325502915,0.3062460483703762,-1.207451731943339,-1.426207081187144
2024-09-23 02:16:02.598218,43.01,9.585656,-0.013171458402297304,0.018964423802771455,1.0135347325502915,0.3062460483703762,-1.207451731943339,-1.426207081187144
2024-09-23 02:16:02.609334,43.01,9.585656,-0.013171458402297304,0.018964423802771455,1.0124370835486052,0.37184974532118065,-1.0980740039605648,-1.2687009416174144
2024-09-23 02:16:02.652612,43.01,9.585708,-0.01219582044264106,0.01853761414140007,1.0160958487445546,0.3456082558686845,-1.0980740039605648,-1.2687009416174144
2024-09-23 02:16:02.664364,43.01,9.585708,-0.01219582044264106,0.01853761414140007,1.0160958487445546,0.3456082558686845,-1.0499454856518655,-1.2687009416174144
2024-09-23 02:16:02.695838,43.01,9.585759,-0.01219582044264106,0.01853761414140007,1.0160958487445546,0.3456082558686845,-1.0499454856518655,-1.3518370734259486
2024-09-23 02:16:02.707514,43.01,9.585759,-0.013537308491698099,0.02085484192155066,1.0105467474545664,0.3062460483703762,-1.0499454856518655,-1.3518370734259486
2024-09-23 02:16:02.749268,43.01,9.585809,-0.015549642716465131,0.02134260963591596,1.0105467474545664,0.3062460483703762,-1.1374934943549335,-1.426207081187144
2024-09-23 02:16:02.761351,43.01,9.585809,-0.015549642716465131,0.02134260963591596,1.0139006479556893,0.3062460483703762,-1.1374934943549335,-1.426207081187144
2024-09-23 02:16:02.793097,43.01,9.585809,-0.015549642716465131,0.02134260963591596,1.0139006479556893,0.29306802074806765,-1.2293386540777982,-1.426207081187144
2024-09-23 02:16:02.804355,43.01,9.58586,-0.01042742096077533,0.01926931735815501,1.0139006479556893,0.29306802074806765,-1.2293386540777982,-1.3212411233771593
2024-09-23 02:16:02.846222,43.01,9.58586,-0.01042742096077533,0.01926931735815501,1.0121322188537785,0.40685746554275976,-1.1374934943549335,-1.448094003321603
2024-09-23 02:16:02.857809,43.01,9.585911,-0.013232416455291218,0.01926931735815501,1.0121322188537785,0.40685746554275976,-1.1374934943549335,-1.448094003321603
2024-09-23 02:16:02.891066,43.01,9.585911,-0.013232416455291218,0.021952496999143704,1.0082904959551298,0.40685746554275976,-1.1374934943549335,-1.448094003321603
2024-09-23 02:16:02.902413,43.01,9.585997,-0.013232416455291218,0.021952496999143704,1.0082904959551298,0.2405850685235113,-1.0937195433642715,-1.483101830264926
2024-09-23 02:16:02.945402,43.01,9.585997,-0.010976248499571852,0.020001120827370582,1.0137175930384832,0.27559278874509036,-1.0762442846808582,-1.404320052330941
2024-09-23 02:16:02.988891,43.01,9.586049,-0.010793271809664462,0.020001120827370582,1.0137175930384832,0.27559278874509036,-1.0762442846808582,-1.404320052330941
2024-09-23 02:16:03.000917,43.01,9.586049,-0.010793271809664462,0.019025483627202678,1.0140835084438808,0.27994727602181957,-1.15932321363464,-1.404320052330941
2024-09-23 02:16:03.043462,43.01,9.5861,-0.010793271809664462,0.019025483627202678,1.0140835084438808,0.27994727602181957,-1.15932321363464,-1.4524485706396402
2024-09-23 02:16:03.085879,43.2,9.5861,-0.013232416455291218,0.020366972435748053,1.0140835084438808,0.27994727602181957,-1.15932321363464,-1.4524485706396402
2024-09-23 02:16:03.097005,43.2,9.5861,-0.013232416455291218,0.020366972435748053,1.014144559154452,0.31060053564710544,-1.0630662837389857,-1.4874562908612192
2024-09-23 02:16:03.139697,43.2,9.586151,-0.014512945691866003,0.020062078880364497,1.012925003160638,0.3237212803733535,-1.0630662837389857,-1.4874562908612192
2024-09-23 02:16:03.151762,43.2,9.586151,-0.014512945691866003,0.020062078880364497,1.012925003160638,0.3237212803733535,-1.0587118231426924,-1.4874562908612192
2024-09-23 02:16:03.183374,43.2,9.586201,-0.014512945691866003,0.020062078880364497,1.012925003160638,0.3237212803733535,-1.0587118231426924,-1.4524485706396402
2024-09-23 02:16:03.194701,43.2,9.586201,-0.01042742096077533,0.018476656088406155,1.0107906586533293,0.3368419984191656,-1.0587118231426924,-1.4524485706396402
2024-09-23 02:16:03.237627,43.2,9.586252,-0.011586034850850625,0.01798878660260355,1.0107906586533293,0.3368419984191656,-1.0937195433642715,-1.3474826128296553
2024-09-23 02:16:03.249895,43.2,9.586252,-0.011586034850850625,0.01798878660260355,1.0123761300525411,0.3368419984191656,-1.0937195433642715,-1.3474826128296553
2024-09-23 02:16:03.282183,43.2,9.586252,-0.011586034850850625,0.01798878660260355,1.0123761300525411,0.3324875378228724,-1.1899764732599258,-1.404320052330941
2024-09-23 02:16:03.293834,43.2,9.586339,-0.012622630104012445,0.017561976941232165,1.0123761300525411,0.3324875378228724,-1.1899764732599258,-1.404320052330941
2024-09-23 02:16:03.335715,43.2,9.58639,-0.013232416455291218,0.017561976941232165,1.0103637897518674,0.3368419984191656,-1.1374934943549335,-1.4306188513599336
2024-09-23 02:16:03.378133,43.2,9.58639,-0.013232416455291218,0.020610907938137694,1.0150592504534395,0.3368419984191656,-1.1374934943549335,-1.4306188513599336
2024-09-23 02:16:03.389898,43.2,9.586485,-0.013232416455291218,0.020610907938137694,1.0150592504534395,0.3193667930966243,-1.0630662837389857,-1.461214801408723
2024-09-23 02:16:03.432101,43.2,9.586485,-0.01408613603049462,0.02122069352992813,1.0133517748475924,0.2843590461946093,-1.1549687530383468,-1.461214801408723
2024-09-23 02:16:03.444248,43.2,9.586485,-0.01408613603049462,0.02122069352992813,1.0133517748475924,0.2843590461946093,-1.1549687530383468,-1.5005769822265953
2024-09-23 02:16:03.476085,43.2,9.586537,-0.014695923141261731,0.02122069352992813,1.0133517748475924,0.2843590461946093,-1.1549687530383468,-1.5005769822265953
2024-09-23 02:16:03.487425,43.2,9.586537,-0.014695923141261731,0.020001120827370582,1.0148152420401695,0.29306802074806765,-1.1287272635858505,-1.5005769822265953
2024-09-23 02:16:03.530196,43.2,9.586588,-0.014147094083488534,0.02122069352992813,1.01426646614658,0.37184974532118065,-1.1287272635858505,-1.509343212995678
2024-09-23 02:16:03.573753,43.2,9.586588,-0.014147094083488534,0.02122069352992813,1.01426646614658,0.37184974532118065,-1.1637349838074296,-1.474335492774099
2024-09-23 02:16:03.584733,43.2,9.586638,-0.015671560341429636,0.01939133523558015,1.0134127283436565,0.37184974532118065,-1.1637349838074296,-1.474335492774099
2024-09-23 02:16:03.627779,43.2,9.586689,-0.01433007153288426,0.01939133523558015,1.0134127283436565,0.3849704900474288,-1.0805987452771515,-1.413086283100024
2024-09-23 02:16:03.639719,43.2,9.586689,-0.01433007153288426,0.02189143717471248,1.0134127283436565,0.3849704900474288,-1.0805987452771515,-1.413086283100024
2024-09-23 02:16:03.725020,43.2,9.586689,-0.01433007153288426,0.02189143717471248,1.0182911467479274,0.31060053564710544,-1.0455910250555724,-1.404320052330941
2024-09-23 02:16:03.737397,43.2,9.58674,-0.011586034850850625,0.02189143717471248,1.0182911467479274,0.31060053564710544,-1.0455910250555724,-1.404320052330941
2024-09-23 02:16:03.770389,43.2,9.58674,-0.011586034850850625,0.02048899031317319,1.0124370835486052,0.3280757409696467,-1.0455910250555724,-1.404320052330941
2024-09-23 02:16:03.781931,43.2,9.586826,-0.011586034850850625,0.02048899031317319,1.0124370835486052,0.3280757409696467,-1.1330817241821438,-1.4218526205908506
2024-09-23 02:16:03.824337,43.2,9.586826,-0.011098165365048018,0.020306014382754138,1.0147542885441054,0.3499627431454137,-1.1024857741333545,-1.448094003321603
2024-09-23 02:16:03.868459,43.2,9.586878,-0.01445198763887209,0.022501222766502915,1.0147542885441054,0.3499627431454137,-1.1024857741333545,-1.448094003321603
2024-09-23 02:16:03.880249,43.2,9.586878,-0.01445198763887209,0.022501222766502915,1.0105467474545664,0.3062460483703762,-1.0630662837389857,-1.448094003321603
2024-09-23 02:16:03.912072,43.2,9.586878,-0.01445198763887209,0.022501222766502915,1.0105467474545664,0.3062460483703762,-1.0630662837389857,-1.434973311956227
2024-09-23 02:16:03.923773,43.2,9.586929,-0.017013149402435646,0.019330377182586234,1.0147542885441054,0.3630834878716618,-1.0630662837389857,-1.434973311956227
2024-09-23 02:16:03.965763,43.2,9.587023,-0.017013149402435646,0.019330377182586234,1.0147542885441054,0.3630834878716618,-1.1111946953259408,-1.404320052330941
2024-09-23 02:16:03.977697,43.2,9.587023,-0.010976248499571852,0.02201345505213762,1.0149982969573756,0.3630834878716618,-1.1111946953259408,-1.404320052330941
2024-09-23 02:16:04.010106,43.2,9.587023,-0.010976248499571852,0.02201345505213762,1.0149982969573756,0.40244569536997005,-1.1111946953259408,-1.404320052330941
2024-09-23 02:16:04.021325,43.2,9.587074,-0.013232416455291218,0.02140366946034718,1.0149982969573756,0.40244569536997005,-1.0674780539117754,-1.4787472629468887
2024-09-23 02:16:04.064246,43.2,9.587074,-0.013232416455291218,0.02140366946034718,1.012925003160638,0.3411964856958948,-1.1243154934130608,-1.5487055005352943
2024-09-23 02:16:04.076136,43.2,9.587125,-0.012744546969488612,0.02140366946034718,1.012925003160638,0.3411964856958948,-1.1243154934130608,-1.5487055005352943
2024-09-23 02:16:04.108724,42.81,9.587125,-0.012744546969488612,0.020306014382754138,1.012925003160638,0.3411964856958948,-1.1243154934130608,-1.5487055005352943
2024-09-23 02:16:04.120289,42.81,9.587217,-0.012744546969488612,0.020306014382754138,1.0158518403312846,0.39809120809324083,-1.1637349838074296,-1.531230241851881
2024-09-23 02:16:04.163363,42.81,9.587217,-0.01256167205101853,0.01853761414140007,1.01426646614658,0.3149550229238346,-1.0849533125951887,-1.531230241851881
2024-09-23 02:16:04.175311,42.81,9.587217,-0.01256167205101853,0.01853761414140007,1.01426646614658,0.3149550229238346,-1.0849533125951887,-1.3780785628784449
2024-09-23 02:16:04.208006,42.81,9.587268,-0.014269113479890346,0.021037716080532405,1.01426646614658,0.3149550229238346,-1.0849533125951887,-1.3780785628784449
2024-09-23 02:16:04.219198,42.81,9.587268,-0.014269113479890346,0.021037716080532405,1.0109126628599643,0.3674952580444515,-1.1287272635858505,-1.3780785628784449
2024-09-23 02:16:04.261902,42.81,9.587319,-0.013293374508285133,0.018781549643789714,1.0157908868352208,0.37184974532118065,-1.1287272635858505,-1.4524485706396402
2024-09-23 02:16:04.304678,42.81,9.587319,-0.013293374508285133,0.018781549643789714,1.0157908868352208,0.37184974532118065,-1.1724439050000162,-1.3999655917346479
2024-09-23 02:16:04.315857,42.81,9.587369,-0.013476350438704184,0.019025483627202678,1.0118883076550156,0.37184974532118065,-1.1724439050000162,-1.3999655917346479
2024-09-23 02:16:04.358227,42.81,9.58742,-0.013354434332716355,0.019025483627202678,1.0118883076550156,0.28871353347133843,-1.2774671723864972,-1.518109550486505
2024-09-23 02:16:04.370425,42.81,9.58742,-0.013354434332716355,0.018415698035412244,1.0118883076550156,0.28871353347133843,-1.2774671723864972,-1.518109550486505
2024-09-23 02:16:04.402530,42.81,9.58742,-0.013354434332716355,0.018415698035412244,1.012802998954003,0.2668265312955715,-1.2774671723864972,-1.518109550486505
2024-09-23 02:16:04.413851,42.81,9.587471,-0.013903160100075569,0.018415698035412244,1.012802998954003,0.2668265312955715,-1.207451731943339,-1.4087318225037306
2024-09-23 02:16:04.456005,42.81,9.587471,-0.013903160100075569,0.01890346574977754,1.0151202039495033,0.3324875378228724,-1.0718325145080685,-1.3562488435987383
2024-09-23 02:16:04.499605,42.81,9.587558,-0.011707950956838454,0.01890346574977754,1.0151202039495033,0.3324875378228724,-1.0718325145080685,-1.3562488435987383
2024-09-23 02:16:04.511355,42.81,9.587558,-0.011707950956838454,0.019086441680196593,1.015668979843093,0.31060053564710544,-1.1199610328167677,-1.3562488435987383
2024-09-23 02:16:04.554594,42.81,9.587609,-0.013232416455291218,0.019879204721382753,1.0107297051572652,0.31060053564710544,-1.1199610328167677,-1.4437395427253097
2024-09-23 02:16:04.566117,42.81,9.587609,-0.013232416455291218,0.019879204721382753,1.0107297051572652,0.3062460483703762,-1.1199610328167677,-1.4437395427253097
2024-09-23 02:16:04.598990,42.81,9.58766,-0.013232416455291218,0.019879204721382753,1.0107297051572652,0.3062460483703762,-1.1287272635858505,-1.3299501512914895
2024-09-23 02:16:04.610123,42.81,9.58766,-0.014939857124674697,0.019025483627202678,1.0134127283436565,0.3062460483703762,-1.1287272635858505,-1.3299501512914895
2024-09-23 02:16:04.652709,42.81,9.587711,-0.01341539238571027,0.019452293288574063,1.0134127283436565,0.37620423259790986,-1.1024857741333545,-1.3868447936475277
2024-09-23 02:16:04.695344,42.81,9.587711,-0.01341539238571027,0.019452293288574063,1.0135956860463553,0.3280757409696467,-0.9624548932470381,-1.3868447936475277
2024-09-23 02:16:04.706594,42.81,9.587761,-0.012256778495634975,0.019452293288574063,1.0135956860463553,0.3280757409696467,-0.9624548932470381,-1.3824903330512346
2024-09-23 02:16:04.748962,42.81,9.58785,-0.012256778495634975,0.018659531766364576,1.011095523348156,0.27559278874509036,-1.1199610328167677,-1.4655692620050162
2024-09-23 02:16:04.791900,42.81,9.58785,-0.013476350438704184,0.02012303845233509,1.011095523348156,0.27559278874509036,-1.1199610328167677,-1.4655692620050162
2024-09-23 02:16:04.803285,42.81,9.58785,-0.013476350438704184,0.02012303845233509,1.0174983624410678,0.38932495064372197,-1.1374934943549335,-1.3999655917346479
2024-09-23 02:16:04.845213,42.81,9.587902,-0.01146401621393715,0.02122069352992813,1.0130469101527657,0.3411964856958948,-1.1374934943549335,-1.3999655917346479
2024-09-23 02:16:04.856907,42.81,9.587902,-0.01146401621393715,0.02122069352992813,1.0130469101527657,0.3411964856958948,-1.1899764732599258,-1.3999655917346479
2024-09-23 02:16:04.889971,42.81,9.587952,-0.01146401621393715,0.02122069352992813,1.0130469101527657,0.3411964856958948,-1.1899764732599258,-1.4437395427253097
2024-09-23 02:16:04.901415,42.81,9.587952,-0.015244750680058252,0.0173180429578192,1.0096319589410718,0.3062460483703762,-1.1899764732599258,-1.4437395427253097
2024-09-23 02:16:04.943831,42.81,9.588003,-0.01268358815700636,0.018781549643789714,1.0096319589410718,0.3062460483703762,-1.1943309338562191,-1.531230241851881
2024-09-23 02:16:04.955845,42.81,9.588003,-0.01268358815700636,0.018781549643789714,1.0120102146471432,0.3062460483703762,-1.1943309338562191,-1.531230241851881
2024-09-23 02:16:04.988748,42.81,9.588003,-0.01268358815700636,0.018781549643789714,1.0120102146471432,0.28871353347133843,-1.1549687530383468,-1.531230241851881
2024-09-23 02:16:05.001184,42.81,9.588054,-0.012500713238536278,0.02140366946034718,1.0120102146471432,0.28871353347133843,-1.1549687530383468,-1.3956111311383546
2024-09-23 02:16:05.033897,42.81,9.588054,-0.012500713238536278,0.02140366946034718,1.015486022140394,0.28871353347133843,-1.1549687530383468,-1.3956111311383546
2024-09-23 02:16:05.045286,42.81,9.588105,-0.01182986782231462,0.02140366946034718,1.015486022140394,0.3149550229238346,-1.0980740039605648,-1.491868061034009
2024-09-23 02:16:05.087945,42.81,9.588105,-0.01182986782231462,0.018476656088406155,1.01426646614658,0.2668265312955715,-1.1549687530383468,-1.491868061034009
2024-09-23 02:16:05.099860,42.81,9.588191,-0.01182986782231462,0.018476656088406155,1.01426646614658,0.2668265312955715,-1.1549687530383468,-1.3737241022821516
2024-09-23 02:16:05.133052,43.38,9.588191,-0.012805606793919833,0.016708257366028764,1.01426646614658,0.2668265312955715,-1.1549687530383468,-1.3737241022821516
2024-09-23 02:16:05.144664,43.38,9.588191,-0.012805606793919833,0.016708257366028764,1.0126809947473678,0.3237212803733535,-1.1549687530383468,-1.4306188513599336
2024-09-23 02:16:05.187953,43.38,9.588243,-0.016708257366028764,0.018293680157987106,1.0150592504534395,0.38061600277069957,-1.1549687530383468,-1.4306188513599336
2024-09-23 02:16:05.199630,43.38,9.588243,-0.016708257366028764,0.018293680157987106,1.0150592504534395,0.38061600277069957,-1.1024857741333545,-1.4306188513599336
2024-09-23 02:16:05.231326,43.38,9.588294,-0.016708257366028764,0.018293680157987106,1.0150592504534395,0.38061600277069957,-1.1024857741333545,-1.404320052330941
2024-09-23 02:16:05.243302,43.38,9.588294,-0.015915494324842603,0.018842507696783625,1.0123761300525411,0.29306802074806765,-1.1024857741333545,-1.404320052330941
2024-09-23 02:16:05.286380,43.38,9.588344,-0.012317737308117227,0.02207441310513153,1.011217527554791,0.29306802074806765,-1.2336931146740913,-1.474335492774099
2024-09-23 02:16:05.329923,43.38,9.588344,-0.012317737308117227,0.02207441310513153,1.011217527554791,0.2362305812467821,-1.1374934943549335,-1.43932777255252
2024-09-23 02:16:05.341383,43.38,9.588395,-0.010610295879245411,0.017074107455429557,1.011217527554791,0.2362305812467821,-1.1374934943549335,-1.43932777255252
2024-09-23 02:16:05.385099,43.38,9.588446,-0.01536666678604608,0.017074107455429557,1.0148762927507406,0.3193667930966243,-1.15932321363464,-1.4787472629468887
2024-09-23 02:16:05.428505,43.38,9.588446,-0.01536666678604608,0.020366972435748053,1.0140835084438808,0.3499627431454137,-1.15932321363464,-1.4787472629468887
2024-09-23 02:16:05.440303,43.38,9.588533,-0.01536666678604608,0.020366972435748053,1.0140835084438808,0.3499627431454137,-1.0937195433642715,-1.426207081187144
2024-09-23 02:16:05.472202,43.38,9.588533,-0.013842202047081654,0.020366972435748053,1.0140835084438808,0.3499627431454137,-1.0937195433642715,-1.426207081187144
2024-09-23 02:16:05.484307,43.38,9.588533,-0.013842202047081654,0.02274515826889256,1.0146322843374704,0.3411964856958948,-1.1156065722204744,-1.3824903330512346
2024-09-23 02:16:05.527590,43.38,9.588584,-0.012927522899907663,0.019513251341567978,1.0112784810508548,0.3411964856958948,-1.1156065722204744,-1.3824903330512346
2024-09-23 02:16:05.538961,43.38,9.588584,-0.012927522899907663,0.019513251341567978,1.0112784810508548,0.3062460483703762,-1.2731127117902041,-1.3824903330512346
2024-09-23 02:16:05.571120,43.38,9.588584,-0.012927522899907663,0.019513251341567978,1.0112784810508548,0.3062460483703762,-1.2731127117902041,-1.4174980532728136
2024-09-23 02:16:05.583325,43.38,9.588635,-0.010915188675140628,0.020793883868556746,1.0119492611510794,0.29747979092085736,-1.2731127117902041,-1.4174980532728136
2024-09-23 02:16:05.627050,43.38,9.588686,-0.011586034850850625,0.020245056329760223,1.014144559154452,0.29747979092085736,-1.2118635021161288,-1.4655692620050162
2024-09-23 02:16:05.669130,43.38,9.588686,-0.011586034850850625,0.020245056329760223,1.014144559154452,0.3062460483703762,-1.2118635021161288,-1.4655692620050162
2024-09-23 02:16:05.721743,43.38,9.588686,-0.011586034850850625,0.020245056329760223,1.014144559154452,0.3062460483703762,-1.1462025222692638,-1.3824903330512346
2024-09-23 02:16:05.764720,43.38,9.588736,-0.011586034850850625,0.020245056329760223,1.014144559154452,0.3062460483703762,-1.1462025222692638,-1.3824903330512346
2024-09-23 02:16:05.776333,43.38,9.588736,-0.012622630104012445,0.020245056329760223,1.0151202039495033,0.3324875378228724,-1.1418479549512268,-1.3824903330512346
2024-09-23 02:16:05.819463,43.38,9.588787,-0.01573262016586086,0.019879204721382753,1.0151202039495033,0.3324875378228724,-1.1418479549512268,-1.3474826128296553
2024-09-23 02:16:05.830982,43.38,9.588787,-0.01573262016586086,0.019879204721382753,1.0135956860463553,0.3237212803733535,-1.1418479549512268,-1.3474826128296553
2024-09-23 02:16:05.863449,43.38,9.588787,-0.01573262016586086,0.019879204721382753,1.0135956860463553,0.3237212803733535,-1.0805987452771515,-1.3474826128296553
2024-09-23 02:16:05.875255,43.38,9.588874,-0.010549337066763158,0.020366972435748053,1.0144494238492787,0.3237212803733535,-1.0805987452771515,-1.3956111311383546
2024-09-23 02:16:05.917972,43.38,9.588925,-0.013293374508285133,0.020366972435748053,1.0144494238492787,0.3149550229238346,-1.216217962712422,-1.474335492774099
2024-09-23 02:16:05.929750,43.38,9.588925,-0.013293374508285133,0.019879204721382753,1.0144494238492787,0.3149550229238346,-1.216217962712422,-1.474335492774099
2024-09-23 02:16:05.962312,43.38,9.588925,-0.013293374508285133,0.019879204721382753,1.0151202039495033,0.3280757409696467,-1.216217962712422,-1.474335492774099
2024-09-23 02:16:05.974582,43.38,9.589021,-0.016708257366028764,0.019879204721382753,1.0151202039495033,0.3280757409696467,-1.1068402347296475,-1.491868061034009
2024-09-23 02:16:06.017845,43.38,9.589118,-0.016708257366028764,0.019879204721382753,1.0144494238492787,0.40244569536997005,-1.1768557818945498,-1.4655692620050162
2024-09-23 02:16:06.059870,43.38,9.589118,-0.011768909009832369,0.018964423802771455,1.0144494238492787,0.40244569536997005,-1.1768557818945498,-1.4655692620050162
2024-09-23 02:16:06.070908,43.38,9.589118,-0.011768909009832369,0.018964423802771455,1.01231507934197,0.39373674749694765,-1.1330817241821438,-1.426207081187144
2024-09-23 02:16:06.113814,43.38,9.589169,-0.012805606793919833,0.020793883868556746,1.0143883731387076,0.39373674749694765,-1.1330817241821438,-1.426207081187144
2024-09-23 02:16:06.125864,43.38,9.589169,-0.012805606793919833,0.020793883868556746,1.0143883731387076,0.39373674749694765,-1.1812102424908428,-1.426207081187144
2024-09-23 02:16:06.158150,43.65,9.58922,-0.012134760618209839,0.020793883868556746,1.0143883731387076,0.39373674749694765,-1.1812102424908428,-1.4174980532728136
2024-09-23 02:16:06.169159,43.65,9.58922,-0.012134760618209839,0.02085484192155066,1.0139006479556893,0.20998910513450392,-1.1812102424908428,-1.4174980532728136
2024-09-23 02:16:06.211850,43.65,9.589271,-0.016525279916633037,0.019086441680196593,1.0133517748475924,0.20998910513450392,-1.1330817241821438,-1.426207081187144
2024-09-23 02:16:06.254924,43.65,9.589271,-0.016525279916633037,0.019086441680196593,1.0133517748475924,0.27559278874509036,-1.0412365644592791,-1.426207081187144
2024-09-23 02:16:06.266151,43.65,9.589321,-0.012988480952901577,0.019208359305161096,1.0133517748475924,0.27559278874509036,-1.0412365644592791,-1.413086283100024
2024-09-23 02:16:06.308355,43.65,9.589372,-0.012988480952901577,0.019208359305161096,1.012925003160638,0.24499683869630098,-1.014995075006783,-1.4655692620050162
2024-09-23 02:16:06.320464,43.65,9.589372,-0.010793271809664462,0.019208359305161096,1.012925003160638,0.24499683869630098,-1.014995075006783,-1.4655692620050162
2024-09-23 02:16:06.352834,43.65,9.589372,-0.010793271809664462,0.019513251341567978,1.0107297051572652,0.24499683869630098,-1.014995075006783,-1.4655692620050162
2024-09-23 02:16:06.364274,43.65,9.589459,-0.010793271809664462,0.019513251341567978,1.0107297051572652,0.3411964856958948,-1.1243154934130608,-1.3474826128296553
2024-09-23 02:16:06.406848,43.65,9.589459,-0.012988480952901577,0.019818144896951533,1.012925003160638,0.3193667930966243,-1.1680894444037229,-1.413086283100024
2024-09-23 02:16:06.449752,43.65,9.589511,-0.014695923141261731,0.019818144896951533,1.012925003160638,0.3193667930966243,-1.1680894444037229,-1.413086283100024
2024-09-23 02:16:06.461752,43.65,9.589511,-0.014695923141261731,0.019818144896951533,1.0168886330514144,0.3237212803733535,-1.1111946953259408,-1.413086283100024
2024-09-23 02:16:06.504132,43.65,9.589561,-0.013537308491698099,0.017439959063807027,1.0137175930384832,0.3324875378228724,-1.1111946953259408,-1.448094003321603
2024-09-23 02:16:06.546761,43.65,9.589561,-0.013537308491698099,0.017439959063807027,1.0137175930384832,0.3324875378228724,-1.0805987452771515,-1.3037086618389935
2024-09-23 02:16:06.558338,43.65,9.589612,-0.009817635368984895,0.01890346574977754,1.0101198785531047,0.3324875378228724,-1.0805987452771515,-1.3037086618389935
2024-09-23 02:16:06.601855,43.65,9.589663,-0.012134760618209839,0.017622936513202757,1.0101198785531047,0.3499627431454137,-1.1199610328167677,-1.483101830264926
2024-09-23 02:16:06.644105,43.65,9.589663,-0.012134760618209839,0.017622936513202757,1.0143274196426437,0.3368419984191656,-1.1199610328167677,-1.483101830264926
2024-09-23 02:16:06.655662,43.65,9.589713,-0.01268358815700636,0.017622936513202757,1.0143274196426437,0.3368419984191656,-1.0805987452771515,-1.5224640110827983
2024-09-23 02:16:06.697310,43.65,9.589713,-0.01268358815700636,0.02213537267710212,1.0129859566567019,0.3237212803733535,-1.0762442846808582,-1.5224640110827983
2024-09-23 02:16:06.709125,43.65,9.5898,-0.01268358815700636,0.02213537267710212,1.0129859566567019,0.3237212803733535,-1.0762442846808582,-1.4306188513599336
2024-09-23 02:16:06.743293,43.65,9.5898,-0.01396421992450679,0.019818144896951533,1.0129859566567019,0.3237212803733535,-1.0762442846808582,-1.4306188513599336
2024-09-23 02:16:06.754815,43.65,9.5898,-0.01396421992450679,0.019818144896951533,1.0123761300525411,0.3324875378228724,-1.1855647030871361,-1.3255955839734523
2024-09-23 02:16:06.797958,43.65,9.589852,-0.01433007153288426,0.018415698035412244,1.015668979843093,0.3062460483703762,-1.2468139127612115,-1.3255955839734523
2024-09-23 02:16:06.841740,43.65,9.589902,-0.011951885699739756,0.018415698035412244,1.015668979843093,0.3062460483703762,-1.2468139127612115,-1.4524485706396402
2024-09-23 02:16:06.853153,43.65,9.589902,-0.011951885699739756,0.021464627513341095,1.0115223922496177,0.3543172304221429,-1.2468139127612115,-1.4524485706396402
2024-09-23 02:16:06.895570,43.65,9.589953,-0.010732313756670548,0.02097675802753849,1.0151202039495033,0.3543172304221429,-1.2205724233087152,-1.434973311956227
2024-09-23 02:16:06.937660,43.65,9.589953,-0.010732313756670548,0.02097675802753849,1.0151202039495033,0.3411964856958948,-1.0718325145080685,-1.434973311956227
2024-09-23 02:16:06.948862,43.65,9.590004,-0.013476350438704184,0.02097675802753849,1.0151202039495033,0.3411964856958948,-1.0718325145080685,-1.3737241022821516
2024-09-23 02:16:06.991342,43.65,9.590055,-0.013476350438704184,0.02097675802753849,1.014022554947817,0.3018342781975865,-1.0893650827679784,-1.4087318225037306
2024-09-23 02:16:07.003259,43.65,9.590055,-0.01378124399408774,0.02097675802753849,1.014022554947817,0.3018342781975865,-1.0893650827679784,-1.4087318225037306
2024-09-23 02:16:07.034668,43.65,9.590055,-0.01378124399408774,0.019696228790963704,1.0133517748475924,0.3018342781975865,-1.0893650827679784,-1.4087318225037306
2024-09-23 02:16:07.046195,43.65,9.590141,-0.01378124399408774,0.019696228790963704,1.0133517748475924,0.4287444677185267,-1.224984193481505,-1.5574717313043773
2024-09-23 02:16:07.089071,43.65,9.590141,-0.013720285941093825,0.020366972435748053,1.011095523348156,0.3499627431454137,-1.0849533125951887,-1.3737241022821516
2024-09-23 02:16:07.131793,43.65,9.590193,-0.01256167205101853,0.020366972435748053,1.011095523348156,0.3499627431454137,-1.0849533125951887,-1.3737241022821516
2024-09-23 02:16:07.143426,43.65,9.590193,-0.01256167205101853,0.018781549643789714,1.0145713308414066,0.29306802074806765,-1.1243154934130608,-1.3737241022821516
2024-09-23 02:16:07.185894,43.35,9.590244,-0.012256778495634975,0.020306014382754138,1.0151202039495033,0.29306802074806765,-1.1243154934130608,-1.3518370734259486
2024-09-23 02:16:07.198224,43.35,9.590244,-0.012256778495634975,0.020306014382754138,1.0151202039495033,0.20998910513450392,-1.1243154934130608,-1.3518370734259486
2024-09-23 02:16:07.231313,43.35,9.590295,-0.012256778495634975,0.020306014382754138,1.0151202039495033,0.20998910513450392,-1.1199610328167677,-1.426207081187144
2024-09-23 02:16:07.242972,43.35,9.590295,-0.012988480952901577,0.020915799974544576,1.0143274196426437,0.20998910513450392,-1.1199610328167677,-1.426207081187144
2024-09-23 02:16:07.286090,43.35,9.590295,-0.012988480952901577,0.020915799974544576,1.0143274196426437,0.3193667930966243,-1.1943309338562191,-1.4437395427253097
2024-09-23 02:16:07.328738,43.35,9.590346,-0.012439653414105056,0.020062078880364497,1.0143274196426437,0.3193667930966243,-1.1943309338562191,-1.4437395427253097
2024-09-23 02:16:07.340524,43.35,9.590346,-0.012439653414105056,0.020062078880364497,1.0157908868352208,0.27559278874509036,-1.1024857741333545,-1.4437395427253097
2024-09-23 02:16:07.383043,43.35,9.590397,-0.01396421992450679,0.020549948366167105,1.0116442992417454,0.3674952580444515,-1.1024857741333545,-1.518109550486505
2024-09-23 02:16:07.426261,43.35,9.590397,-0.01396421992450679,0.020549948366167105,1.0116442992417454,0.3674952580444515,-1.1418479549512268,-1.4174980532728136
2024-09-23 02:16:07.438013,43.35,9.590483,-0.01256167205101853,0.02012303845233509,1.0134127283436565,0.3674952580444515,-1.1418479549512268,-1.4174980532728136
2024-09-23 02:16:07.481315,43.35,9.590534,-0.013598266544692013,0.017927828549609635,1.0134127283436565,0.3280757409696467,-1.1462025222692638,-1.3999655917346479
2024-09-23 02:16:07.523475,43.35,9.590534,-0.013598266544692013,0.017927828549609635,1.0135347325502915,0.3193667930966243,-1.2336931146740913,-1.3999655917346479
2024-09-23 02:16:07.534485,43.35,9.590585,-0.013171458402297304,0.017927828549609635,1.0135347325502915,0.3193667930966243,-1.2336931146740913,-1.4306188513599336
2024-09-23 02:16:07.576915,43.35,9.590678,-0.013171458402297304,0.02097675802753849,1.0103028362558035,0.3149550229238346,-1.1024857741333545,-1.4087318225037306
2024-09-23 02:16:07.619525,43.35,9.590678,-0.012378695361111141,0.019574312684975875,1.0103028362558035,0.3149550229238346,-1.1024857741333545,-1.4087318225037306
2024-09-23 02:16:07.631156,43.35,9.590678,-0.012378695361111141,0.019574312684975875,1.0134127283436565,0.29306802074806765,-1.0937195433642715,-1.4655692620050162
2024-09-23 02:16:07.672997,43.35,9.590729,-0.01445198763887209,0.019940162774376668,1.0104247432479314,0.20998910513450392,-1.0937195433642715,-1.4655692620050162
2024-09-23 02:16:07.685092,43.35,9.590729,-0.01445198763887209,0.019940162774376668,1.0104247432479314,0.20998910513450392,-1.1768557818945498,-1.4655692620050162
2024-09-23 02:16:07.717376,43.35,9.59078,-0.01445198763887209,0.019940162774376668,1.0104247432479314,0.20998910513450392,-1.1768557818945498,-1.461214801408723
2024-09-23 02:16:07.728526,43.35,9.59078,-0.01378124399408774,0.02067186599113161,1.0151811574455674,0.3018342781975865,-1.1768557818945498,-1.461214801408723
2024-09-23 02:16:07.771060,43.35,9.590831,-0.015976452377836518,0.020610907938137694,1.0151811574455674,0.3018342781975865,-1.1724439050000162,-1.3737241022821516
2024-09-23 02:16:07.784038,43.35,9.590831,-0.015976452377836518,0.020610907938137694,1.0099369208504057,0.3018342781975865,-1.1724439050000162,-1.3737241022821516
2024-09-23 02:16:07.815788,43.35,9.590831,-0.015976452377836518,0.020610907938137694,1.0099369208504057,0.2843590461946093,-1.1330817241821438,-1.3911993609655648
2024-09-23 02:16:07.828049,43.35,9.590881,-0.011098165365048018,0.019940162774376668,1.0099369208504057,0.2843590461946093,-1.1330817241821438,-1.3911993609655648
2024-09-23 02:16:07.870508,43.35,9.590932,-0.012988480952901577,0.019940162774376668,1.0143274196426437,0.2274643237972632,-1.1418479549512268,-1.3737241022821516
2024-09-23 02:16:07.912399,43.35,9.590932,-0.012988480952901577,0.023233027754695164,1.0117053499523165,0.2274643237972632,-1.1418479549512268,-1.3737241022821516
2024-09-23 02:16:07.923513,43.35,9.591019,-0.012988480952901577,0.023233027754695164,1.0117053499523165,0.3674952580444515,-1.0937195433642715,-1.4306188513599336
2024-09-23 02:16:07.966373,43.35,9.591019,-0.010183486217874026,0.020793883868556746,1.0132298678554648,0.16621511412318796,-1.0937195433642715,-1.4306188513599336
2024-09-23 02:16:08.009691,43.35,9.591019,-0.010183486217874026,0.020793883868556746,1.0132298678554648,0.16621511412318796,-1.207451731943339,-1.3911993609655648
2024-09-23 02:16:08.020756,43.35,9.591071,-0.010732313756670548,0.021708563015730736,1.0122541258459061,0.16621511412318796,-1.207451731943339,-1.3911993609655648
2024-09-23 02:16:08.062640,43.35,9.591121,-0.015915494324842603,0.021708563015730736,1.0122541258459061,0.3193667930966243,-1.1330817241821438,-1.3562488435987383
2024-09-23 02:16:08.074507,43.35,9.591121,-0.015915494324842603,0.021281651582922046,1.0122541258459061,0.3193667930966243,-1.1330817241821438,-1.3562488435987383
2024-09-23 02:16:08.107345,43.35,9.591121,-0.015915494324842603,0.021281651582922046,1.012802998954003,0.3280757409696467,-1.1330817241821438,-1.3562488435987383
2024-09-23 02:16:08.119268,43.35,9.591172,-0.01341539238571027,0.021281651582922046,1.012802998954003,0.3280757409696467,-1.15932321363464,-1.4218526205908506
2024-09-23 02:16:08.161121,43.35,9.591172,-0.01341539238571027,0.02018409827676631,1.0149372462468045,0.2143435924112331,-1.0630662837389857,-1.3693696416858583
2024-09-23 02:16:08.173002,43.35,9.591223,-0.01341539238571027,0.02018409827676631,1.0149372462468045,0.2143435924112331,-1.0630662837389857,-1.3693696416858583
2024-09-23 02:16:08.206484,43.49,9.591223,-0.01585453627184869,0.02225739055452726,1.0107297051572652,0.2143435924112331,-1.0630662837389857,-1.3693696416858583
2024-09-23 02:16:08.218092,43.49,9.591223,-0.01585453627184869,0.02225739055452726,1.0107297051572652,0.2668265312955715,-1.1287272635858505,-1.3911993609655648
2024-09-23 02:16:08.260375,43.49,9.591312,-0.01268358815700636,0.02140366946034718,1.014022554947817,0.26247207069927825,-1.1199610328167677,-1.3911993609655648
2024-09-23 02:16:08.302447,43.49,9.591364,-0.01268358815700636,0.02140366946034718,1.014022554947817,0.26247207069927825,-1.1199610328167677,-1.3999655917346479
2024-09-23 02:16:08.314598,43.49,9.591364,-0.013537308491698099,0.020306014382754138,1.0138396944596255,0.3499627431454137,-1.1199610328167677,-1.3999655917346479
2024-09-23 02:16:08.357932,43.49,9.591414,-0.008780937584897428,0.02012303845233509,1.0108517093639005,0.3499627431454137,-1.1330817241821438,-1.3737241022821516
2024-09-23 02:16:08.400513,43.49,9.591414,-0.008780937584897428,0.02012303845233509,1.0108517093639005,0.27123832814879717,-1.1156065722204744,-1.413086283100024
2024-09-23 02:16:08.411765,43.49,9.591465,-0.016891131525010507,0.020732824044125523,1.0108517093639005,0.27123832814879717,-1.1156065722204744,-1.413086283100024
2024-09-23 02:16:08.455126,43.49,9.591516,-0.015122834574070423,0.020732824044125523,1.013778546534547,0.24499683869630098,-1.1243154934130608,-1.448094003321603
2024-09-23 02:16:08.498126,43.49,9.591516,-0.015122834574070423,0.017744852619190586,1.0093270942462451,0.27559278874509036,-1.1243154934130608,-1.448094003321603
2024-09-23 02:16:08.510354,43.49,9.591604,-0.015122834574070423,0.017744852619190586,1.0093270942462451,0.27559278874509036,-1.1462025222692638,-1.2643463742993772
2024-09-23 02:16:08.552648,43.49,9.591604,-0.013476350438704184,0.021586543619328925,1.0103028362558035,0.35872900059493257,-1.1724439050000162,-1.474335492774099
2024-09-23 02:16:08.597423,43.49,9.591656,-0.013171458402297304,0.02085484192155066,1.0114003880429827,0.35872900059493257,-1.1724439050000162,-1.474335492774099
2024-09-23 02:16:08.608461,43.49,9.591656,-0.013171458402297304,0.02085484192155066,1.0114003880429827,0.35872900059493257,-1.0980740039605648,-1.474335492774099
2024-09-23 02:16:08.651430,43.49,9.591706,-0.013171458402297304,0.02048899031317319,1.0121931723498423,0.38932495064372197,-1.0980740039605648,-1.3911993609655648
2024-09-23 02:16:08.694878,43.49,9.591757,-0.013171458402297304,0.02048899031317319,1.0121931723498423,0.38932495064372197,-1.1899764732599258,-1.3956111311383546
2024-09-23 02:16:08.706519,43.49,9.591757,-0.009390723936176203,0.02122069352992813,1.0153031616522024,0.38932495064372197,-1.1899764732599258,-1.3956111311383546
2024-09-23 02:16:08.740148,43.49,9.591757,-0.009390723936176203,0.02122069352992813,1.0153031616522024,0.27559278874509036,-1.1899764732599258,-1.3956111311383546
2024-09-23 02:16:08.751289,43.49,9.591808,-0.01219582044264106,0.017074107455429557,1.0153031616522024,0.27559278874509036,-1.1680894444037229,-1.474335492774099
2024-09-23 02:16:08.793147,43.49,9.591808,-0.01219582044264106,0.017074107455429557,1.0148152420401695,0.3193667930966243,-1.1768557818945498,-1.448094003321603
2024-09-23 02:16:08.804812,43.49,9.591859,-0.01256167205101853,0.017074107455429557,1.0148152420401695,0.3193667930966243,-1.1768557818945498,-1.448094003321603
2024-09-23 02:16:08.838536,43.49,9.591859,-0.01256167205101853,0.018781549643789714,1.0121322188537785,0.3193667930966243,-1.1768557818945498,-1.448094003321603
2024-09-23 02:16:08.849882,43.49,9.591946,-0.01256167205101853,0.018781549643789714,1.0121322188537785,0.2581175834225491,-1.1724439050000162,-1.3868447936475277
2024-09-23 02:16:08.892832,43.49,9.591946,-0.014574005516297226,0.018049744655597465,1.0122541258459061,0.37620423259790986,-1.1111946953259408,-1.3868447936475277
2024-09-23 02:16:08.904618,43.49,9.591946,-0.014574005516297226,0.018049744655597465,1.0122541258459061,0.37620423259790986,-1.1111946953259408,-1.4218526205908506
2024-09-23 02:16:08.938316,43.49,9.591997,-0.014574005516297226,0.022867176146317694,1.0122541258459061,0.37620423259790986,-1.1111946953259408,-1.4218526205908506
2024-09-23 02:16:08.950265,43.49,9.591997,-0.014574005516297226,0.022867176146317694,1.0130469101527657,0.3368419984191656,-1.0937195433642715,-1.4218526205908506
2024-09-23 02:16:08.982612,43.49,9.591997,-0.014574005516297226,0.022867176146317694,1.0130469101527657,0.3368419984191656,-1.0937195433642715,-1.3518370734259486
2024-09-23 02:16:08.994191,43.49,9.592048,-0.01042742096077533,0.019574312684975875,1.0138396944596255,0.3849704900474288,-1.0937195433642715,-1.3518370734259486
2024-09-23 02:16:09.035969,43.49,9.592099,-0.01146401621393715,0.019574312684975875,1.0138396944596255,0.3849704900474288,-1.1549687530383468,-1.448094003321603
2024-09-23 02:16:09.047668,43.49,9.592099,-0.01146401621393715,0.01926931735815501,1.0165227176460165,0.3849704900474288,-1.1549687530383468,-1.448094003321603
2024-09-23 02:16:09.079808,43.49,9.592099,-0.01146401621393715,0.01926931735815501,1.0165227176460165,0.3149550229238346,-1.1549687530383468,-1.448094003321603
2024-09-23 02:16:09.091508,43.49,9.592149,-0.014208053655459124,0.02048899031317319,1.0165227176460165,0.3149550229238346,-1.1418479549512268,-1.3824903330512346
2024-09-23 02:16:09.133737,43.49,9.592149,-0.014208053655459124,0.02048899031317319,1.0135347325502915,0.3149550229238346,-1.1418479549512268,-1.3824903330512346
2024-09-23 02:16:09.186313,43.49,9.5922,-0.01164699290384454,0.02048899031317319,1.0135347325502915,0.28871353347133843,-1.1330817241821438,-1.3606034109167755
2024-09-23 02:16:09.198146,43.49,9.5922,-0.01164699290384454,0.020245056329760223,1.0135347325502915,0.28871353347133843,-1.1330817241821438,-1.3606034109167755
2024-09-23 02:16:09.230270,43.56,9.5922,-0.01164699290384454,0.020245056329760223,1.0100589250570406,0.27994727602181957,-1.1680894444037229,-1.3606034109167755
2024-09-23 02:16:09.241801,43.56,9.592287,-0.013049540777332799,0.020245056329760223,1.0100589250570406,0.27994727602181957,-1.1680894444037229,-1.5487055005352943
2024-09-23 02:16:09.284268,43.56,9.592339,-0.013049540777332799,0.019330377182586234,1.0134736818397203,0.3456082558686845,-1.0762442846808582,-1.3474826128296553
2024-09-23 02:16:09.326225,43.56,9.592339,-0.011098165365048018,0.017744852619190586,1.0134736818397203,0.3456082558686845,-1.0762442846808582,-1.3474826128296553
2024-09-23 02:16:09.338120,43.56,9.592339,-0.011098165365048018,0.017744852619190586,1.0135956860463553,0.31060053564710544,-1.1549687530383468,-1.3124748926080763
2024-09-23 02:16:09.380904,43.56,9.592389,-0.01365932788809991,0.020793883868556746,1.0167666288447792,0.3499627431454137,-1.1549687530383468,-1.3124748926080763
2024-09-23 02:16:09.392744,43.56,9.592389,-0.01365932788809991,0.020793883868556746,1.0167666288447792,0.3499627431454137,-1.1987427040290088,-1.3124748926080763
2024-09-23 02:16:09.424319,43.56,9.592483,-0.01365932788809991,0.020793883868556746,1.0167666288447792,0.3499627431454137,-1.1987427040290088,-1.3868447936475277
2024-09-23 02:16:09.435404,43.56,9.592483,-0.01268358815700636,0.01786687049661572,1.0143883731387076,0.3456082558686845,-1.1987427040290088,-1.3868447936475277
2024-09-23 02:16:09.479317,43.56,9.592534,-0.015244750680058252,0.020793883868556746,1.0165836711420804,0.3456082558686845,-1.0937195433642715,-1.4174980532728136
2024-09-23 02:16:09.522557,43.56,9.592534,-0.015244750680058252,0.020793883868556746,1.0165836711420804,0.3237212803733535,-1.0630662837389857,-1.3911993609655648
2024-09-23 02:16:09.534223,43.56,9.592584,-0.013110498830326714,0.018293680157987106,1.0165836711420804,0.3237212803733535,-1.0630662837389857,-1.3911993609655648
2024-09-23 02:16:09.577946,43.56,9.592635,-0.010976248499571852,0.018293680157987106,1.0152421109416312,0.40244569536997005,-1.1680894444037229,-1.434973311956227
2024-09-23 02:16:09.621845,43.56,9.592635,-0.010976248499571852,0.02018409827676631,1.0105467474545664,0.24499683869630098,-1.1156065722204744,-1.434973311956227
2024-09-23 02:16:09.633383,43.56,9.592725,-0.010976248499571852,0.02018409827676631,1.0105467474545664,0.24499683869630098,-1.1156065722204744,-1.4437395427253097
2024-09-23 02:16:09.667898,43.56,9.592725,-0.013049540777332799,0.021098777423940302,1.011034569852092,0.24499683869630098,-1.1156065722204744,-1.4437395427253097
2024-09-23 02:16:09.679177,43.56,9.592725,-0.013049540777332799,0.021098777423940302,1.011034569852092,0.29747979092085736,-1.1418479549512268,-1.496222521630302
2024-09-23 02:16:09.722023,43.56,9.592777,-0.012927522899907663,0.017805912443621806,1.0148152420401695,0.3062460483703762,-1.1899764732599258,-1.496222521630302
2024-09-23 02:16:09.764988,43.56,9.592828,-0.012927522899907663,0.017805912443621806,1.0148152420401695,0.3062460483703762,-1.1899764732599258,-1.5005769822265953
2024-09-23 02:16:09.776685,43.56,9.592828,-0.011342100107949322,0.019940162774376668,1.0131688171448936,0.37184974532118065,-1.1899764732599258,-1.5005769822265953
2024-09-23 02:16:09.819519,43.56,9.592878,-0.012256778495634975,0.01786687049661572,1.0133517748475924,0.37184974532118065,-1.1680894444037229,-1.3911993609655648
2024-09-23 02:16:09.862232,43.56,9.592878,-0.012256778495634975,0.01786687049661572,1.0133517748475924,0.37184974532118065,-1.1855647030871361,-1.3911993609655648
2024-09-23 02:16:09.873477,43.56,9.592929,-0.01268358815700636,0.018476656088406155,1.0133517748475924,0.37184974532118065,-1.1855647030871361,-1.3693696416858583
2024-09-23 02:16:09.915469,43.56,9.592929,-0.01268358815700636,0.018476656088406155,1.0105467474545664,0.3193667930966243,-1.15932321363464,-1.3999655917346479
2024-09-23 02:16:09.927278,43.56,9.59298,-0.011342100107949322,0.018476656088406155,1.0105467474545664,0.3193667930966243,-1.15932321363464,-1.3999655917346479
2024-09-23 02:16:09.959429,43.56,9.59298,-0.011342100107949322,0.022440264713509,1.0107906586533293,0.3193667930966243,-1.15932321363464,-1.3999655917346479
2024-09-23 02:16:09.971069,43.56,9.593067,-0.011342100107949322,0.022440264713509,1.0107906586533293,0.3324875378228724,-1.1068402347296475,-1.4306188513599336
2024-09-23 02:16:10.013048,43.56,9.593067,-0.009268807070700035,0.01963527073796979,1.015546975636458,0.2843590461946093,-1.203097164625302,-1.4306188513599336
2024-09-23 02:16:10.024923,43.56,9.593067,-0.009268807070700035,0.01963527073796979,1.015546975636458,0.2843590461946093,-1.203097164625302,-1.3780785628784449
2024-09-23 02:16:10.057781,43.56,9.593118,-0.014147094083488534,0.01963527073796979,1.015546975636458,0.2843590461946093,-1.203097164625302,-1.3780785628784449
2024-09-23 02:16:10.069145,43.56,9.593118,-0.014147094083488534,0.02097675802753849,1.0125589905407328,0.28871353347133843,-1.2336931146740913,-1.3780785628784449
2024-09-23 02:16:10.112797,43.56,9.593169,-0.011707950956838454,0.01585453627184869,1.0135956860463553,0.3280757409696467,-1.2336931146740913,-1.4787472629468887
2024-09-23 02:16:10.155000,43.56,9.593169,-0.011707950956838454,0.01585453627184869,1.0135956860463553,0.3280757409696467,-1.1943309338562191,-1.434973311956227
2024-09-23 02:16:10.166041,43.56,9.59322,-0.015061773230662524,0.02134260963591596,1.0129859566567019,0.3280757409696467,-1.1943309338562191,-1.434973311956227
2024-09-23 02:16:10.210625,43.56,9.59327,-0.01182986782231462,0.01914740125216718,1.0129859566567019,0.3543172304221429,-1.0762442846808582,-1.5224640110827983
2024-09-23 02:16:10.252478,43.68,9.59327,-0.01182986782231462,0.01914740125216718,1.0111565740587272,0.3674952580444515,-1.0762442846808582,-1.5224640110827983
2024-09-23 02:16:10.263811,43.68,9.593321,-0.012317737308117227,0.01914740125216718,1.0111565740587272,0.3674952580444515,-1.1724439050000162,-1.518109550486505
2024-09-23 02:16:10.306353,43.68,9.593321,-0.012317737308117227,0.0187205915907958,1.0101808320491685,0.24499683869630098,-1.15932321363464,-1.413086283100024
2024-09-23 02:16:10.318544,43.68,9.593408,-0.012317737308117227,0.0187205915907958,1.0101808320491685,0.24499683869630098,-1.15932321363464,-1.413086283100024
2024-09-23 02:16:10.350596,43.68,9.593408,-0.013110498830326714,0.019696228790963704,1.0104856967439952,0.24499683869630098,-1.15932321363464,-1.413086283100024
2024-09-23 02:16:10.361601,43.68,9.593408,-0.013110498830326714,0.019696228790963704,1.0104856967439952,0.2143435924112331,-1.1068402347296475,-1.3956111311383546
2024-09-23 02:16:10.404436,43.68,9.593459,-0.014208053655459124,0.01890346574977754,1.0121931723498423,0.29306802074806765,-1.1330817241821438,-1.3956111311383546
2024-09-23 02:16:10.447229,43.68,9.59351,-0.014208053655459124,0.01890346574977754,1.0121931723498423,0.29306802074806765,-1.1330817241821438,-1.3824903330512346
2024-09-23 02:16:10.458898,43.68,9.59351,-0.014025177977500705,0.02018409827676631,1.0146933350480416,0.3280757409696467,-1.1330817241821438,-1.3824903330512346
2024-09-23 02:16:10.502139,43.68,9.593561,-0.013232416455291218,0.020549948366167105,1.0146933350480416,0.3280757409696467,-1.0980740039605648,-1.3824903330512346
2024-09-23 02:16:10.513707,43.68,9.593561,-0.013232416455291218,0.020549948366167105,1.012742045457939,0.3280757409696467,-1.0980740039605648,-1.3824903330512346
2024-09-23 02:16:10.545727,43.68,9.593561,-0.013232416455291218,0.020549948366167105,1.012742045457939,0.24935132597303017,-1.1156065722204744,-1.509343212995678
2024-09-23 02:16:10.557099,43.68,9.593612,-0.012378695361111141,0.018842507696783625,1.012742045457939,0.24935132597303017,-1.1156065722204744,-1.509343212995678
2024-09-23 02:16:10.599639,43.68,9.593662,-0.013537308491698099,0.018842507696783625,1.0149372462468045,0.2843590461946093,-1.1287272635858505,-1.3999655917346479
2024-09-23 02:16:10.642154,43.68,9.593662,-0.013537308491698099,0.01939133523558015,1.0133517748475924,0.2843590461946093,-1.1287272635858505,-1.3999655917346479
2024-09-23 02:16:10.653527,43.68,9.593749,-0.013537308491698099,0.01939133523558015,1.0133517748475924,0.37620423259790986,-1.1812102424908428,-1.5136977803137153
2024-09-23 02:16:10.695209,43.68,9.593749,-0.01182986782231462,0.023903771399479513,1.0116442992417454,0.3280757409696467,-1.0937195433642715,-1.5136977803137153
2024-09-23 02:16:10.707152,43.68,9.593749,-0.01182986782231462,0.023903771399479513,1.0116442992417454,0.3280757409696467,-1.0937195433642715,-1.4437395427253097
2024-09-23 02:16:10.739924,43.68,9.593801,-0.010366361136344109,0.023903771399479513,1.0116442992417454,0.3280757409696467,-1.0937195433642715,-1.4437395427253097
2024-09-23 02:16:10.751130,43.68,9.593801,-0.010366361136344109,0.020732824044125523,1.0132908213515286,0.37184974532118065,-1.0980740039605648,-1.4437395427253097
2024-09-23 02:16:10.794293,43.68,9.593851,-0.011281142054955407,0.021464627513341095,1.0160958487445546,0.37184974532118065,-1.0980740039605648,-1.483101830264926
2024-09-23 02:16:10.805983,43.68,9.593851,-0.011281142054955407,0.021464627513341095,1.0160958487445546,0.3237212803733535,-1.0980740039605648,-1.483101830264926
2024-09-23 02:16:10.838195,43.68,9.593851,-0.011281142054955407,0.021464627513341095,1.0160958487445546,0.3237212803733535,-1.0412365644592791,-1.4306188513599336
2024-09-23 02:16:10.849810,43.68,9.593902,-0.010854230622146716,0.01853761414140007,1.014205512650516,0.3237212803733535,-1.0412365644592791,-1.4306188513599336
2024-09-23 02:16:10.892532,43.68,9.593953,-0.013293374508285133,0.02152558556633501,1.014205512650516,0.3456082558686845,-1.0980740039605648,-1.4218526205908506
2024-09-23 02:16:10.934452,43.68,9.593953,-0.013293374508285133,0.02152558556633501,1.0122541258459061,0.3499627431454137,-1.0980740039605648,-1.4218526205908506
2024-09-23 02:16:10.946532,43.68,9.594004,-0.01365932788809991,0.02152558556633501,1.0122541258459061,0.3499627431454137,-1.1680894444037229,-1.4655692620050162
2024-09-23 02:16:10.990226,43.68,9.594091,-0.01365932788809991,0.02122069352992813,1.0129859566567019,0.2668265312955715,-1.1637349838074296,-1.4568603408124299
2024-09-23 02:16:11.032888,43.68,9.594091,-0.012317737308117227,0.0187205915907958,1.0100589250570406,0.2668265312955715,-1.1637349838074296,-1.4568603408124299
2024-09-23 02:16:11.044388,43.68,9.594091,-0.012317737308117227,0.0187205915907958,1.0100589250570406,0.37184974532118065,-1.1768557818945498,-1.5136977803137153
2024-09-23 02:16:11.088010,43.68,9.594142,-0.012439653414105056,0.02012303845233509,1.0145103773453428,0.3237212803733535,-1.15932321363464,-1.5136977803137153
2024-09-23 02:16:11.129945,43.68,9.594193,-0.012439653414105056,0.02012303845233509,1.0145103773453428,0.3237212803733535,-1.15932321363464,-1.4787472629468887
2024-09-23 02:16:11.140987,43.68,9.594193,-0.010610295879245411,0.016891131525010507,1.0145103773453428,0.28871353347133843,-1.15932321363464,-1.4787472629468887
2024-09-23 02:16:11.184019,43.68,9.594244,-0.013171458402297304,0.02012303845233509,1.0126809947473678,0.28871353347133843,-1.224984193481505,-1.5355847024481744
2024-09-23 02:16:11.227540,43.68,9.594244,-0.013171458402297304,0.02012303845233509,1.0126809947473678,0.3411964856958948,-1.15932321363464,-1.5355847024481744
2024-09-23 02:16:11.239293,43.68,9.594294,-0.010061467580960552,0.02018409827676631,1.0126809947473678,0.3411964856958948,-1.15932321363464,-1.5574717313043773
2024-09-23 02:16:11.282811,43.35,9.594345,-0.012317737308117227,0.02018409827676631,1.0149372462468045,0.24499683869630098,-1.1987427040290088,-1.448094003321603
2024-09-23 02:16:11.324848,43.35,9.594345,-0.012317737308117227,0.018476656088406155,1.0135956860463553,0.24499683869630098,-1.1987427040290088,-1.448094003321603
2024-09-23 02:16:11.336385,43.35,9.594432,-0.012317737308117227,0.018476656088406155,1.0135956860463553,0.3456082558686845,-1.1506142924420535,-1.509343212995678
2024-09-23 02:16:11.380816,43.35,9.594432,-0.013598266544692013,0.020062078880364497,1.0119492611510794,0.3018342781975865,-1.1418479549512268,-1.4655692620050162
2024-09-23 02:16:11.424678,43.35,9.594483,-0.012866564846913748,0.019940162774376668,1.0119492611510794,0.3018342781975865,-1.1418479549512268,-1.4655692620050162
2024-09-23 02:16:11.436338,43.35,9.594483,-0.012866564846913748,0.019940162774376668,1.0152421109416312,0.28871353347133843,-1.1156065722204744,-1.4655692620050162
2024-09-23 02:16:11.468721,43.35,9.594483,-0.012866564846913748,0.019940162774376668,1.0152421109416312,0.28871353347133843,-1.1156065722204744,-1.4437395427253097
2024-09-23 02:16:11.480526,43.35,9.594534,-0.011951885699739756,0.017927828549609635,1.0132298678554648,0.3324875378228724,-1.1156065722204744,-1.4437395427253097
2024-09-23 02:16:11.522795,43.35,9.594585,-0.01481783924724956,0.017927828549609635,1.0132298678554648,0.3324875378228724,-1.1462025222692638,-1.461214801408723
2024-09-23 02:16:11.533786,43.35,9.594585,-0.01481783924724956,0.022440264713509,1.0121322188537785,0.3324875378228724,-1.1462025222692638,-1.461214801408723
2024-09-23 02:16:11.576824,43.35,9.594636,-0.014756881194255646,0.021708563015730736,1.0121322188537785,0.3237212803733535,-1.224984193481505,-1.3868447936475277
2024-09-23 02:16:11.619251,43.35,9.594636,-0.014756881194255646,0.021708563015730736,1.0097540603622142,0.3237212803733535,-1.1855647030871361,-1.3868447936475277
2024-09-23 02:16:11.630969,43.35,9.594686,-0.012073802565215924,0.021708563015730736,1.0097540603622142,0.3237212803733535,-1.1855647030871361,-1.4787472629468887
2024-09-23 02:16:11.673688,43.35,9.594773,-0.012073802565215924,0.020793883868556746,1.015486022140394,0.3411964856958948,-1.1943309338562191,-1.3999655917346479
2024-09-23 02:16:11.715867,43.35,9.594773,-0.011037206552565765,0.02067186599113161,1.0103637897518674,0.3411964856958948,-1.1943309338562191,-1.3999655917346479
2024-09-23 02:16:11.727102,43.35,9.594773,-0.011037206552565765,0.02067186599113161,1.0103637897518674,0.3543172304221429,-1.1899764732599258,-1.474335492774099
2024-09-23 02:16:11.770986,43.35,9.594825,-0.011220081471035847,0.019940162774376668,1.01231507934197,0.3062460483703762,-1.0543573625463993,-1.474335492774099
2024-09-23 02:16:11.813305,43.35,9.594875,-0.011524974266931064,0.019940162774376668,1.01231507934197,0.3062460483703762,-1.0543573625463993,-1.3693696416858583
2024-09-23 02:16:11.824520,43.35,9.594875,-0.011524974266931064,0.021098777423940302,1.0136566395424191,0.3630834878716618,-1.0543573625463993,-1.3693696416858583
2024-09-23 02:16:11.868146,43.35,9.594926,-0.014208053655459124,0.01811080599900536,1.0153641151482662,0.3630834878716618,-1.0805987452771515,-1.3911993609655648
2024-09-23 02:16:11.910296,43.35,9.594926,-0.014208053655459124,0.01811080599900536,1.0153641151482662,0.39373674749694765,-1.1418479549512268,-1.3911993609655648
2024-09-23 02:16:11.921472,43.35,9.594977,-0.012012843752733671,0.018598572194393984,1.0153641151482662,0.39373674749694765,-1.1418479549512268,-1.3299501512914895
2024-09-23 02:16:11.964341,43.35,9.595027,-0.012866564846913748,0.018598572194393984,1.0135956860463553,0.31060053564710544,-1.203097164625302,-1.3430708426568656
2024-09-23 02:16:12.007598,43.35,9.595027,-0.012866564846913748,0.01963527073796979,1.0143883731387076,0.31060053564710544,-1.203097164625302,-1.3430708426568656
2024-09-23 02:16:12.018611,43.35,9.595114,-0.012866564846913748,0.01963527073796979,1.0143883731387076,0.37184974532118065,-1.0849533125951887,-1.4655692620050162
2024-09-23 02:16:12.060368,43.35,9.595114,-0.012866564846913748,0.019208359305161096,1.012925003160638,0.3630834878716618,-1.1549687530383468,-1.4655692620050162
2024-09-23 02:16:12.072080,43.35,9.595114,-0.012866564846913748,0.019208359305161096,1.012925003160638,0.3630834878716618,-1.1549687530383468,-1.4218526205908506
2024-09-23 02:16:12.105080,43.35,9.595166,-0.011403058160943235,0.019208359305161096,1.012925003160638,0.3630834878716618,-1.1549687530383468,-1.4218526205908506
2024-09-23 02:16:12.116197,43.35,9.595166,-0.011403058160943235,0.022562284109910815,1.0137175930384832,0.3499627431454137,-1.1768557818945498,-1.4218526205908506
2024-09-23 02:16:12.159243,43.35,9.595217,-0.01219582044264106,0.021464627513341095,1.0130469101527657,0.37620423259790986,-1.1768557818945498,-1.3780785628784449
2024-09-23 02:16:12.201626,43.35,9.595217,-0.01219582044264106,0.021464627513341095,1.0130469101527657,0.37620423259790986,-1.1024857741333545,-1.3780785628784449
2024-09-23 02:16:12.213583,43.35,9.595267,-0.010549337066763158,0.019025483627202678,1.01231507934197,0.37620423259790986,-1.1024857741333545,-1.3562488435987383
2024-09-23 02:16:12.256626,43.35,9.595318,-0.011342100107949322,0.019025483627202678,1.01231507934197,0.3630834878716618,-1.1243154934130608,-1.474335492774099
2024-09-23 02:16:12.269167,43.35,9.595318,-0.011342100107949322,0.021037716080532405,1.01231507934197,0.3630834878716618,-1.1243154934130608,-1.474335492774099
2024-09-23 02:16:12.302822,43.26,9.595318,-0.011342100107949322,0.021037716080532405,1.0132908213515286,0.3193667930966243,-1.2118635021161288,-1.474335492774099
2024-09-23 02:16:12.314819,43.26,9.595369,-0.012012843752733671,0.021037716080532405,1.0132908213515286,0.3193667930966243,-1.2118635021161288,-1.491868061034009
2024-09-23 02:16:12.347904,43.26,9.595369,-0.012012843752733671,0.01939133523558015,1.0132908213515286,0.3193667930966243,-1.2118635021161288,-1.491868061034009
2024-09-23 02:16:12.359668,43.26,9.595455,-0.012012843752733671,0.01939133523558015,1.0140835084438808,0.31060053564710544,-1.1068402347296475,-1.426207081187144
2024-09-23 02:16:12.402920,43.26,9.595455,-0.012073802565215924,0.017744852619190586,1.0144494238492787,0.3543172304221429,-1.1506142924420535,-1.3737241022821516
2024-09-23 02:16:12.445606,43.26,9.595507,-0.010976248499571852,0.017744852619190586,1.0144494238492787,0.3543172304221429,-1.1506142924420535,-1.3737241022821516
2024-09-23 02:16:12.457212,43.26,9.595507,-0.010976248499571852,0.019940162774376668,1.0137175930384832,0.3674952580444515,-1.1987427040290088,-1.3737241022821516
2024-09-23 02:16:12.499434,43.26,9.595558,-0.01182986782231462,0.020610907938137694,1.0104856967439952,0.3674952580444515,-1.1987427040290088,-1.4655692620050162
2024-09-23 02:16:12.541430,43.26,9.595558,-0.01182986782231462,0.020610907938137694,1.0104856967439952,0.3543172304221429,-1.1987427040290088,-1.4655692620050162
2024-09-23 02:16:12.553000,43.26,9.595608,-0.014025177977500705,0.020306014382754138,1.0104856967439952,0.3543172304221429,-1.1768557818945498,-1.4174980532728136
2024-09-23 02:16:12.596922,43.26,9.595659,-0.014025177977500705,0.020306014382754138,1.0148762927507406,0.37620423259790986,-1.1243154934130608,-1.4655692620050162
2024-09-23 02:16:12.608820,43.26,9.595659,-0.016769215419022678,0.020306014382754138,1.0148762927507406,0.37620423259790986,-1.1243154934130608,-1.4655692620050162
2024-09-23 02:16:12.640555,43.26,9.595659,-0.016769215419022678,0.02225739055452726,1.0146322843374704,0.37620423259790986,-1.1243154934130608,-1.4655692620050162
2024-09-23 02:16:12.652355,43.26,9.59571,-0.016769215419022678,0.02225739055452726,1.0146322843374704,0.3630834878716618,-1.1374934943549335,-1.4524485706396402
2024-09-23 02:16:12.694262,43.26,9.59571,-0.012744546969488612,0.02225739055452726,1.0132298678554648,0.35872900059493257,-1.1724439050000162,-1.4524485706396402
2024-09-23 02:16:12.706015,43.26,9.59571,-0.012744546969488612,0.02225739055452726,1.0132298678554648,0.35872900059493257,-1.1724439050000162,-1.4306188513599336
2024-09-23 02:16:12.738227,43.26,9.595797,-0.013354434332716355,0.02225739055452726,1.0132298678554648,0.35872900059493257,-1.1724439050000162,-1.4306188513599336
2024-09-23 02:16:12.750053,43.26,9.595797,-0.013354434332716355,0.020245056329760223,1.0132908213515286,0.3280757409696467,-1.0805987452771515,-1.4306188513599336
2024-09-23 02:16:12.792463,43.26,9.595848,-0.012866564846913748,0.022989092252305523,1.01542506864433,0.3280757409696467,-1.0805987452771515,-1.474335492774099
2024-09-23 02:16:12.804477,43.26,9.595848,-0.012866564846913748,0.022989092252305523,1.01542506864433,0.29747979092085736,-1.0805987452771515,-1.474335492774099
2024-09-23 02:16:12.837576,43.26,9.595899,-0.012866564846913748,0.022989092252305523,1.01542506864433,0.29747979092085736,-1.1506142924420535,-1.4655692620050162
2024-09-23 02:16:12.848592,43.26,9.595899,-0.011707950956838454,0.021952496999143704,1.0146933350480416,0.29747979092085736,-1.1506142924420535,-1.4655692620050162
2024-09-23 02:16:12.890805,43.26,9.59595,-0.0076832825073043865,0.02280611632188647,1.0146933350480416,0.41997821026900783,-1.0237041029211134,-1.3606034109167755
2024-09-23 02:16:12.932846,43.26,9.59595,-0.0076832825073043865,0.02280611632188647,1.012742045457939,0.4155664400962181,-1.0237041029211134,-1.3606034109167755
2024-09-23 02:16:12.944755,43.26,9.596,-0.010488379013769245,0.02280611632188647,1.012742045457939,0.4155664400962181,-1.1768557818945498,-1.3911993609655648
2024-09-23 02:16:12.987905,43.26,9.596089,-0.010488379013769245,0.019879204721382753,1.0109126628599643,0.3062460483703762,-1.1680894444037229,-1.5443510399390012
2024-09-23 02:16:13.031058,43.26,9.596089,-0.010915188675140628,0.019879204721382753,1.0109126628599643,0.3062460483703762,-1.1680894444037229,-1.5443510399390012
2024-09-23 02:16:13.042759,43.26,9.596089,-0.010915188675140628,0.022318348607521174,1.0123761300525411,0.31060053564710544,-1.1068402347296475,-1.404320052330941
2024-09-23 02:16:13.086813,43.26,9.596141,-0.012744546969488612,0.02280611632188647,1.0118273541589518,0.38932495064372197,-1.1068402347296475,-1.404320052330941
2024-09-23 02:16:13.130781,43.26,9.596192,-0.01268358815700636,0.02280611632188647,1.0118273541589518,0.38932495064372197,-1.1068402347296475,-1.474335492774099
2024-09-23 02:16:13.142573,43.26,9.596192,-0.01268358815700636,0.023598879363072634,1.0157908868352208,0.3062460483703762,-1.1068402347296475,-1.474335492774099
2024-09-23 02:16:13.185412,43.26,9.596242,-0.01365932788809991,0.01853761414140007,1.0121322188537785,0.3062460483703762,-1.0893650827679784,-1.4174980532728136
2024-09-23 02:16:13.228808,43.26,9.596242,-0.01365932788809991,0.01853761414140007,1.0121322188537785,0.3062460483703762,-1.1812102424908428,-1.4087318225037306
2024-09-23 02:16:13.240610,43.26,9.596293,-0.011586034850850625,0.019208359305161096,1.0121322188537785,0.3062460483703762,-1.1812102424908428,-1.4087318225037306
2024-09-23 02:16:13.274118,43.26,9.596293,-0.011586034850850625,0.019208359305161096,1.0119492611510794,0.3062460483703762,-1.1812102424908428,-1.4087318225037306
2024-09-23 02:16:13.285660,43.26,9.596344,-0.014512945691866003,0.019208359305161096,1.0119492611510794,0.3324875378228724,-1.1637349838074296,-1.3868447936475277
2024-09-23 02:16:13.328040,43.06,9.596344,-0.014512945691866003,0.022989092252305523,1.0128639524500669,0.35872900059493257,-1.15932321363464,-1.461214801408723
2024-09-23 02:16:13.339976,43.06,9.59643,-0.014512945691866003,0.022989092252305523,1.0128639524500669,0.35872900059493257,-1.15932321363464,-1.461214801408723
2024-09-23 02:16:13.372149,43.06,9.59643,-0.013842202047081654,0.020001120827370582,1.0128639524500669,0.35872900059493257,-1.15932321363464,-1.461214801408723
2024-09-23 02:16:13.383456,43.06,9.59643,-0.013842202047081654,0.020001120827370582,1.0144494238492787,0.35872900059493257,-1.1549687530383468,-1.3868447936475277
2024-09-23 02:16:13.426477,43.06,9.596482,-0.012256778495634975,0.020306014382754138,1.0143883731387076,0.39373674749694765,-1.1549687530383468,-1.3868447936475277
2024-09-23 02:16:13.438952,43.06,9.596482,-0.012256778495634975,0.020306014382754138,1.0143883731387076,0.39373674749694765,-1.1243154934130608,-1.3868447936475277
2024-09-23 02:16:13.471625,43.06,9.596533,-0.012317737308117227,0.020306014382754138,1.0143883731387076,0.39373674749694765,-1.1243154934130608,-1.3343619214642792
2024-09-23 02:16:13.483268,43.06,9.596533,-0.012317737308117227,0.017379001010813116,1.011095523348156,0.3368419984191656,-1.1243154934130608,-1.3343619214642792
2024-09-23 02:16:13.527141,43.06,9.596584,-0.012866564846913748,0.020062078880364497,1.0149372462468045,0.3368419984191656,-1.0937195433642715,-1.43932777255252
2024-09-23 02:16:13.569792,43.06,9.596634,-0.012866564846913748,0.020062078880364497,1.0149372462468045,0.29747979092085736,-1.1768557818945498,-1.3956111311383546
2024-09-23 02:16:13.581401,43.06,9.596634,-0.011403058160943235,0.02122069352992813,1.0149372462468045,0.29747979092085736,-1.1768557818945498,-1.3956111311383546
2024-09-23 02:16:13.666305,43.06,9.596634,-0.011403058160943235,0.02122069352992813,1.0117664006628877,0.3543172304221429,-1.1943309338562191,-1.3956111311383546
2024-09-23 02:16:13.677885,43.06,9.596685,-0.015427726610477303,0.02122069352992813,1.0117664006628877,0.3543172304221429,-1.1943309338562191,-1.3562488435987383
2024-09-23 02:16:13.721351,43.06,9.596772,-0.015427726610477303,0.02048899031317319,1.0114614387535539,0.3630834878716618,-1.0324703336901964,-1.3649578715130686
2024-09-23 02:16:13.764025,43.06,9.596772,-0.013171458402297304,0.022440264713509,1.01426646614658,0.3630834878716618,-1.0324703336901964,-1.3649578715130686
2024-09-23 02:16:13.817794,43.06,9.596823,-0.012439653414105056,0.01914740125216718,1.01426646614658,0.28871353347133843,-1.1899764732599258,-1.3124748926080763
2024-09-23 02:16:13.860696,43.06,9.596823,-0.012439653414105056,0.01914740125216718,1.0129859566567019,0.3149550229238346,-1.1899764732599258,-1.3124748926080763
2024-09-23 02:16:13.872423,43.06,9.596874,-0.012744546969488612,0.01914740125216718,1.0129859566567019,0.3149550229238346,-1.1943309338562191,-1.2905878637518733
2024-09-23 02:16:13.915668,43.06,9.596968,-0.012744546969488612,0.020427930488741967,1.0136566395424191,0.37620423259790986,-1.0324703336901964,-1.448094003321603
