Ayaan's Suite
Timestamp,Sample Rate (Hz),Time,Ax,Ay,Az,Gx,Gy,Gz
2024-09-23 17:43:19.128298,0,39.645606,-0.0028354659767690416,-0.023778180888911878,0.0973015264147526,44.11764879391193,-92.24360919585227,76.200527287817
2024-09-23 17:43:19.140038,0,39.645606,-0.0028354659767690416,-0.023778180888911878,0.09764974270391902,44.11764879391193,-92.24360919585227,76.200527287817
2024-09-23 17:43:19.172268,0,39.645606,-0.0028354659767690416,-0.023778180888911878,0.09764974270391902,44.11764879391193,-92.24360919585227,76.200527287817
2024-09-23 17:43:19.225223,0,39.645657,-0.0027359787006383035,-0.023778180888911878,0.09764974270391902,44.11764879391193,-100.26678939585686,72.1922225099802
2024-09-23 17:43:19.237325,0,39.645657,-0.0027359787006383035,-0.02308174982955575,0.09630662707135339,44.11764879391193,-100.26678939585686,72.1922225099802
2024-09-23 17:43:19.270120,0,39.645657,-0.0027359787006383035,-0.02308174982955575,0.09630662707135339,44.11764879391193,-100.26678939585686,72.1922225099802
2024-09-23 17:43:19.281777,0,39.645745,-0.0034324103296106863,-0.023181236725942318,0.09630662707135339,44.11764879391193,-96.25519929585457,72.1922225099802
2024-09-23 17:43:19.324839,0,39.645796,-0.0034324103296106863,-0.023181236725942318,0.09675432418099966,36.09446859390736,-96.25519929585457,76.200527287817
2024-09-23 17:43:19.336706,0,39.645796,-0.0033329230534799477,-0.023181236725942318,0.09675432418099966,36.09446859390736,-96.25519929585457,76.200527287817
2024-09-23 17:43:19.368852,0,39.645796,-0.0033329230534799477,-0.023429960042815445,0.09759999317981902,36.09446859390736,-96.25519929585457,76.200527287817
2024-09-23 17:43:19.380647,0,39.64589,-0.0033329230534799477,-0.023429960042815445,0.09759999317981902,32.08287849390507,-96.25519929585457,76.200527287817
2024-09-23 17:43:19.422936,0,39.64589,-0.0028354659767690416,-0.023877669304275123,0.0973512698629459,40.106058693909645,-88.23529758782387,80.21211738781929
2024-09-23 17:43:19.466317,0,39.645989,-0.0031339382481259063,-0.023877669304275123,0.0973512698629459,40.106058693909645,-88.23529758782387,80.21211738781929
2024-09-23 17:43:19.477461,0,39.645989,-0.0031339382481259063,-0.02313149783467906,0.09690356060148622,32.08287849390507,-88.23529758782387,80.21211738781929
2024-09-23 17:43:19.520778,0,39.64604,-0.0030841997366068195,-0.02303200030545576,0.09690356060148622,32.08287849390507,-88.23529758782387,80.21211738781929
2024-09-23 17:43:19.532826,0,39.64604,-0.0030841997366068195,-0.02303200030545576,0.09690356060148622,36.09446859390736,-88.23529758782387,80.21211738781929
2024-09-23 17:43:19.564986,0,39.646091,-0.0030841997366068195,-0.02303200030545576,0.09690356060148622,36.09446859390736,-88.23529758782387,72.1922225099802
2024-09-23 17:43:19.576438,0,39.646091,-0.0028852147413806935,-0.023280723622328886,0.09720203344245934,36.09446859390736,-88.23529758782387,72.1922225099802
2024-09-23 17:43:19.619856,0,39.646141,-0.003382661564999035,-0.023579196463302005,0.09720203344245934,40.106058693909645,-92.24360919585227,76.200527287817
2024-09-23 17:43:19.662266,0,39.646141,-0.003382661564999035,-0.023579196463302005,0.09715228999426605,44.11764879391193,-92.24360919585227,76.200527287817
2024-09-23 17:43:19.673759,0,39.646192,-0.0030841997366068195,-0.023579196463302005,0.09715228999426605,44.11764879391193,-100.26678939585686,76.200527287817
2024-09-23 17:43:19.716633,0,39.64628,-0.0030841997366068195,-0.023330473146428877,0.09705279702197278,36.09446859390736,-100.26678939585686,76.200527287817
2024-09-23 17:43:19.812049,0,39.64628,-0.0028354659767690416,-0.023280723622328886,0.09725178296655933,32.08287849390507,-96.25519929585457,76.200527287817
2024-09-23 17:43:19.824206,0,39.64628,-0.0028354659767690416,-0.023280723622328886,0.09725178296655933,32.08287849390507,-96.25519929585457,80.21211738781929
2024-09-23 17:43:19.858109,0,39.646332,-0.0031339382481259063,-0.024026904205785005,0.09725178296655933,32.08287849390507,-96.25519929585457,80.21211738781929
2024-09-23 17:43:19.869403,0,39.646332,-0.0031339382481259063,-0.024026904205785005,0.0973015264147526,40.106058693909645,-96.25519929585457,80.21211738781929
2024-09-23 17:43:19.912438,0,39.646382,-0.002785727465249955,-0.02313149783467906,0.09750050628343246,36.09446859390736,-96.25519929585457,80.21211738781929
2024-09-23 17:43:19.954528,0,39.646433,-0.002785727465249955,-0.02313149783467906,0.09750050628343246,36.09446859390736,-96.25519929585457,80.21211738781929
2024-09-23 17:43:19.966627,0,39.646433,-0.002636491424507565,-0.023230986250042305,0.09764974270391902,36.09446859390736,-96.25519929585457,80.21211738781929
2024-09-23 17:43:20.009211,0,39.646484,-0.002785727465249955,-0.023230986250042305,0.09764974270391902,40.106058693909645,-96.25519929585457,80.21211738781929
2024-09-23 17:43:20.051794,0,39.646484,-0.002785727465249955,-0.023230986250042305,0.09759999317981902,40.106058693909645,-92.24360919585227,80.21211738781929
2024-09-23 17:43:20.063661,0,39.646576,-0.0030344509719951677,-0.023230986250042305,0.09759999317981902,40.106058693909645,-92.24360919585227,80.21211738781929
2024-09-23 17:43:20.106811,41.08,39.64667,-0.0030344509719951677,-0.022982261414192504,0.09710254654607277,44.11764879391193,-88.23529758782387,80.21211738781929
2024-09-23 17:43:20.150185,41.08,39.64667,-0.002636491424507565,-0.02338022115155219,0.0970030596496862,44.11764879391193,-88.23529758782387,80.21211738781929
2024-09-23 17:43:20.161741,41.08,39.64667,-0.002636491424507565,-0.02338022115155219,0.0970030596496862,36.09446859390736,-108.28669110388756,72.1922225099802
2024-09-23 17:43:20.204406,41.08,39.646722,-0.0025369937054121774,-0.023330473146428877,0.09680407370509965,48.12595698684454,-100.26678939585686,72.1922225099802
2024-09-23 17:43:20.247564,41.08,39.646773,-0.0028852147413806935,-0.023330473146428877,0.09680407370509965,48.12595698684454,-100.26678939585686,72.1922225099802
2024-09-23 17:43:20.259099,41.08,39.646773,-0.0028852147413806935,-0.023181236725942318,0.09759999317981902,40.106058693909645,-100.26678939585686,72.1922225099802
2024-09-23 17:43:20.302107,41.08,39.646823,-0.0036811340262279837,-0.023280723622328886,0.0973512698629459,40.106058693909645,-100.26678939585686,84.22370748782159
2024-09-23 17:43:20.345394,41.08,39.646823,-0.0036811340262279837,-0.023280723622328886,0.0973512698629459,36.09446859390736,-100.26678939585686,84.22370748782159
2024-09-23 17:43:20.357721,41.08,39.646874,-0.0028852147413806935,-0.022982261414192504,0.0973512698629459,36.09446859390736,-100.26678939585686,84.22370748782159
2024-09-23 17:43:20.389864,41.08,39.646874,-0.0028852147413806935,-0.022982261414192504,0.0970030596496862,36.09446859390736,-100.26678939585686,84.22370748782159
2024-09-23 17:43:20.401932,41.08,39.646874,-0.0028852147413806935,-0.022982261414192504,0.0970030596496862,40.106058693909645,-100.26678939585686,84.22370748782159
2024-09-23 17:43:20.444239,41.08,39.646924,-0.002636491424507565,-0.022982261414192504,0.0970030596496862,40.106058693909645,-96.25519929585457,76.200527287817
2024-09-23 17:43:20.456001,41.08,39.646924,-0.002636491424507565,-0.0225345536717095,0.09685382322919964,40.106058693909645,-96.25519929585457,76.200527287817
2024-09-23 17:43:20.488862,41.08,39.646924,-0.002636491424507565,-0.0225345536717095,0.09685382322919964,40.106058693909645,-96.25519929585457,76.200527287817
2024-09-23 17:43:20.500187,41.08,39.647012,-0.0031836870127375577,-0.02313149783467906,0.09685382322919964,40.106058693909645,-96.25519929585457,76.200527287817
2024-09-23 17:43:20.542706,41.08,39.647063,-0.0031836870127375577,-0.02313149783467906,0.0970030596496862,44.11764879391193,-96.25519929585457,76.200527287817
2024-09-23 17:43:20.554362,41.08,39.647063,-0.0034324103296106863,-0.02313149783467906,0.0970030596496862,44.11764879391193,-96.25519929585457,76.200527287817
2024-09-23 17:43:20.586762,41.08,39.647063,-0.0034324103296106863,-0.023280723622328886,0.09710254654607277,44.11764879391193,-96.25519929585457,76.200527287817
2024-09-23 17:43:20.599322,41.08,39.647114,-0.0034324103296106863,-0.023280723622328886,0.09710254654607277,36.09446859390736,-96.25519929585457,80.21211738781929
2024-09-23 17:43:20.641889,41.08,39.647114,-0.0031339382481259063,-0.022982261414192504,0.09725178296655933,36.09446859390736,-92.24360919585227,80.21211738781929
2024-09-23 17:43:20.653664,41.08,39.647114,-0.0031339382481259063,-0.022982261414192504,0.09725178296655933,36.09446859390736,-92.24360919585227,76.200527287817
2024-09-23 17:43:20.686932,41.08,39.647207,-0.0030344509719951677,-0.02338022115155219,0.09725178296655933,36.09446859390736,-92.24360919585227,76.200527287817
2024-09-23 17:43:20.698469,41.08,39.647207,-0.0030344509719951677,-0.02338022115155219,0.09655535038822652,36.09446859390736,-104.27510100388527,76.200527287817
2024-09-23 17:43:20.731334,41.08,39.647207,-0.0030344509719951677,-0.02338022115155219,0.09655535038822652,36.09446859390736,-104.27510100388527,76.200527287817
2024-09-23 17:43:20.742804,41.08,39.647258,-0.002636491424507565,-0.023330473146428877,0.09705279702197278,40.106058693909645,-104.27510100388527,76.200527287817
2024-09-23 17:43:20.784932,41.08,39.647309,-0.0029847020175114316,-0.023330473146428877,0.09705279702197278,40.106058693909645,-92.24360919585227,80.21211738781929
2024-09-23 17:43:20.796428,41.08,39.647309,-0.0029847020175114316,-0.02362894446842532,0.09750050628343246,40.106058693909645,-92.24360919585227,80.21211738781929
2024-09-23 17:43:20.839236,41.08,39.64736,-0.003631395514708897,-0.023230986250042305,0.09750050628343246,48.12595698684454,-92.24360919585227,80.21211738781929
2024-09-23 17:43:20.883296,41.08,39.64736,-0.003631395514708897,-0.023230986250042305,0.09680407370509965,48.12595698684454,-96.25519929585457,76.200527287817
2024-09-23 17:43:20.894357,41.08,39.64741,-0.003233425524256645,-0.023230986250042305,0.09680407370509965,48.12595698684454,-96.25519929585457,76.200527287817
2024-09-23 17:43:20.926383,41.08,39.64741,-0.003233425524256645,-0.023429960042815445,0.09680407370509965,48.12595698684454,-96.25519929585457,76.200527287817
2024-09-23 17:43:20.937697,41.08,39.647499,-0.003233425524256645,-0.023429960042815445,0.09695331012558621,40.106058693909645,-100.26678939585686,76.200527287817
2024-09-23 17:43:20.979953,41.08,39.647499,-0.0035318979854855937,-0.022833026512682618,0.09690356060148622,36.09446859390736,-100.26678939585686,76.200527287817
2024-09-23 17:43:20.992124,41.08,39.647499,-0.0035318979854855937,-0.022833026512682618,0.09690356060148622,36.09446859390736,-96.25519929585457,80.21211738781929
2024-09-23 17:43:21.025680,41.08,39.647551,-0.003382661564999035,-0.022833026512682618,0.09690356060148622,36.09446859390736,-96.25519929585457,80.21211738781929
2024-09-23 17:43:21.037635,41.08,39.647551,-0.003382661564999035,-0.022982261414192504,0.09759999317981902,36.09446859390736,-96.25519929585457,80.21211738781929
2024-09-23 17:43:21.120864,41.74,39.647551,-0.003382661564999035,-0.022982261414192504,0.09759999317981902,40.106058693909645,-96.25519929585457,80.21211738781929
2024-09-23 17:43:21.132331,41.74,39.647601,-0.002785727465249955,-0.022733528983459317,0.09759999317981902,40.106058693909645,-104.27510100388527,80.21211738781929
2024-09-23 17:43:21.175611,41.74,39.647601,-0.002785727465249955,-0.022733528983459317,0.09695331012558621,44.11764879391193,-92.24360919585227,80.21211738781929
2024-09-23 17:43:21.187287,41.74,39.647652,-0.002387757474797703,-0.022733528983459317,0.09695331012558621,44.11764879391193,-92.24360919585227,80.21211738781929
2024-09-23 17:43:21.220123,41.74,39.647652,-0.002387757474797703,-0.02352945757203875,0.09695331012558621,44.11764879391193,-92.24360919585227,80.21211738781929
2024-09-23 17:43:21.231248,41.74,39.647703,-0.002387757474797703,-0.02352945757203875,0.09745075675933246,44.11764879391193,-96.25519929585457,80.21211738781929
2024-09-23 17:43:21.273843,41.74,39.647703,-0.0026862297461545674,-0.02352945757203875,0.09695331012558621,44.11764879391193,-92.24360919585227,80.21211738781929
2024-09-23 17:43:21.285817,41.74,39.647703,-0.0026862297461545674,-0.02352945757203875,0.09695331012558621,44.11764879391193,-92.24360919585227,72.1922225099802
2024-09-23 17:43:21.318029,41.74,39.647753,-0.0029349636958644295,-0.02352945757203875,0.09695331012558621,44.11764879391193,-92.24360919585227,72.1922225099802
2024-09-23 17:43:21.329567,41.74,39.647753,-0.0029349636958644295,-0.023330473146428877,0.09695331012558621,36.09446859390736,-96.25519929585457,72.1922225099802
2024-09-23 17:43:21.371611,41.74,39.64789,-0.0030344509719951677,-0.023230986250042305,0.09715228999426605,36.09446859390736,-96.25519929585457,84.22370748782159
2024-09-23 17:43:21.383434,41.74,39.64789,-0.0030344509719951677,-0.023230986250042305,0.09715228999426605,40.106058693909645,-96.25519929585457,84.22370748782159
2024-09-23 17:43:21.415677,41.74,39.64789,-0.0030344509719951677,-0.023230986250042305,0.09715228999426605,40.106058693909645,-92.24360919585227,80.21211738781929
2024-09-23 17:43:21.427575,41.74,39.647941,-0.0033329230534799477,-0.023330473146428877,0.09695331012558621,40.106058693909645,-92.24360919585227,80.21211738781929
2024-09-23 17:43:21.470091,41.74,39.647992,-0.0030841997366068195,-0.023330473146428877,0.09695331012558621,48.12595698684454,-92.24360919585227,76.200527287817
2024-09-23 17:43:21.481869,41.74,39.647992,-0.0030841997366068195,-0.02313149783467906,0.09695331012558621,48.12595698684454,-92.24360919585227,76.200527287817
2024-09-23 17:43:21.516962,41.74,39.647992,-0.0030841997366068195,-0.02313149783467906,0.09725178296655933,36.09446859390736,-96.25519929585457,76.200527287817
2024-09-23 17:43:21.528742,41.74,39.648043,-0.0025369937054121774,-0.02313149783467906,0.09725178296655933,36.09446859390736,-96.25519929585457,68.18063240997792
2024-09-23 17:43:21.561294,41.74,39.648043,-0.0025369937054121774,-0.023181236725942318,0.09725178296655933,36.09446859390736,-96.25519929585457,68.18063240997792
2024-09-23 17:43:21.572434,41.74,39.648133,-0.0025369937054121774,-0.023181236725942318,0.09690356060148622,40.106058693909645,-92.24360919585227,76.200527287817
2024-09-23 17:43:21.614157,41.74,39.648133,-0.0025369937054121774,-0.02308174982955575,0.09720203344245934,32.08287849390507,-92.24360919585227,76.200527287817
2024-09-23 17:43:21.626355,41.74,39.648133,-0.0025369937054121774,-0.02308174982955575,0.09720203344245934,32.08287849390507,-100.26678939585686,76.200527287817
2024-09-23 17:43:21.658679,41.74,39.648184,-0.0025369937054121774,-0.02308174982955575,0.09720203344245934,32.08287849390507,-100.26678939585686,76.200527287817
2024-09-23 17:43:21.669899,41.74,39.648184,-0.002586742470023829,-0.023479709566915436,0.09710254654607277,40.106058693909645,-92.24360919585227,76.200527287817
2024-09-23 17:43:21.712191,41.74,39.648184,-0.002586742470023829,-0.023479709566915436,0.09710254654607277,40.106058693909645,-92.24360919585227,72.1922225099802
2024-09-23 17:43:21.765574,41.74,39.648235,-0.0027359787006383035,-0.02278327698858263,0.09715228999426605,40.106058693909645,-92.24360919585227,72.1922225099802
2024-09-23 17:43:21.809107,41.74,39.648286,-0.003382661564999035,-0.02278327698858263,0.09715228999426605,40.106058693909645,-100.26678939585686,72.1922225099802
2024-09-23 17:43:21.821150,41.74,39.648286,-0.003382661564999035,-0.02303200030545576,0.09665483728461309,40.106058693909645,-100.26678939585686,72.1922225099802
2024-09-23 17:43:21.854991,41.74,39.648286,-0.003382661564999035,-0.02303200030545576,0.09665483728461309,40.106058693909645,-92.24360919585227,72.1922225099802
2024-09-23 17:43:21.866618,41.74,39.648336,-0.0027359787006383035,-0.023181236725942318,0.09665483728461309,40.106058693909645,-92.24360919585227,80.21211738781929
2024-09-23 17:43:21.910429,41.74,39.648387,-0.0030344509719951677,-0.023181236725942318,0.09710254654607277,44.11764879391193,-100.26678939585686,72.1922225099802
2024-09-23 17:43:21.953420,41.74,39.648387,-0.0030344509719951677,-0.02367869399252531,0.09750050628343246,40.106058693909645,-100.26678939585686,72.1922225099802
2024-09-23 17:43:21.965381,41.74,39.648474,-0.0030344509719951677,-0.02367869399252531,0.09750050628343246,40.106058693909645,-96.25519929585457,80.21211738781929
2024-09-23 17:43:22.007832,41.74,39.648474,-0.003233425524256645,-0.023181236725942318,0.0973015264147526,48.12595698684454,-100.26678939585686,80.21211738781929
2024-09-23 17:43:22.052469,41.74,39.648572,-0.0033329230534799477,-0.023579196463302005,0.0973015264147526,48.12595698684454,-100.26678939585686,80.21211738781929
2024-09-23 17:43:22.063757,41.74,39.648572,-0.0033329230534799477,-0.023579196463302005,0.09685382322919964,36.09446859390736,-96.25519929585457,80.21211738781929
2024-09-23 17:43:22.105835,41.74,39.648623,-0.0029349636958644295,-0.023330473146428877,0.09745075675933246,32.08287849390507,-96.25519929585457,84.22370748782159
2024-09-23 17:43:22.149758,42.41,39.648674,-0.0029349636958644295,-0.023330473146428877,0.09745075675933246,32.08287849390507,-96.25519929585457,76.200527287817
2024-09-23 17:43:22.161532,42.41,39.648674,-0.0030841997366068195,-0.023479709566915436,0.09680407370509965,32.08287849390507,-96.25519929585457,76.200527287817
2024-09-23 17:43:22.193267,42.41,39.648674,-0.0030841997366068195,-0.023479709566915436,0.09680407370509965,40.106058693909645,-96.25519929585457,76.200527287817
2024-09-23 17:43:22.204554,42.41,39.648725,-0.0026862297461545674,-0.023181236725942318,0.09680407370509965,40.106058693909645,-92.24360919585227,76.200527287817
2024-09-23 17:43:22.246263,42.41,39.648725,-0.0026862297461545674,-0.023181236725942318,0.09635636444363997,40.106058693909645,-96.25519929585457,76.200527287817
2024-09-23 17:43:22.257970,42.41,39.648776,-0.0027359787006383035,-0.023181236725942318,0.09635636444363997,40.106058693909645,-96.25519929585457,76.200527287817
2024-09-23 17:43:22.341780,42.41,39.648776,-0.0027359787006383035,-0.023230986250042305,0.09710254654607277,40.106058693909645,-96.25519929585457,76.200527287817
2024-09-23 17:43:22.353375,42.41,39.648864,-0.0027359787006383035,-0.023230986250042305,0.09710254654607277,40.106058693909645,-96.25519929585457,76.200527287817
2024-09-23 17:43:22.395890,42.41,39.648864,-0.0029847020175114316,-0.022982261414192504,0.09655535038822652,44.11764879391193,-96.25519929585457,76.200527287817
2024-09-23 17:43:22.408606,42.41,39.648864,-0.0029847020175114316,-0.022982261414192504,0.09655535038822652,44.11764879391193,-96.25519929585457,76.200527287817
2024-09-23 17:43:22.441273,42.41,39.648916,-0.0026862297461545674,-0.02397715620066169,0.09655535038822652,44.11764879391193,-96.25519929585457,76.200527287817
2024-09-23 17:43:22.452766,42.41,39.648916,-0.0026862297461545674,-0.02397715620066169,0.09725178296655933,40.106058693909645,-96.25519929585457,76.200527287817
2024-09-23 17:43:22.496347,42.41,39.648966,-0.003233425524256645,-0.023230986250042305,0.09655535038822652,36.09446859390736,-96.25519929585457,80.21211738781929
2024-09-23 17:43:22.539533,42.41,39.649017,-0.002785727465249955,-0.023230986250042305,0.09655535038822652,36.09446859390736,-92.24360919585227,84.22370748782159
2024-09-23 17:43:22.551248,42.41,39.649017,-0.002785727465249955,-0.023280723622328886,0.09764974270391902,36.09446859390736,-92.24360919585227,84.22370748782159
2024-09-23 17:43:22.593910,42.41,39.64911,-0.002636491424507565,-0.023330473146428877,0.09764974270391902,48.12595698684454,-84.22370748782159,80.21211738781929
2024-09-23 17:43:22.636836,42.41,39.64911,-0.002636491424507565,-0.023330473146428877,0.09705279702197278,32.08287849390507,-88.23529758782387,80.21211738781929
2024-09-23 17:43:22.648850,42.41,39.649161,-0.0033329230534799477,-0.023330473146428877,0.09705279702197278,32.08287849390507,-88.23529758782387,80.21211738781929
2024-09-23 17:43:22.681076,42.41,39.649161,-0.0033329230534799477,-0.02268379009219606,0.09705279702197278,32.08287849390507,-88.23529758782387,80.21211738781929
2024-09-23 17:43:22.692618,42.41,39.649254,-0.0033329230534799477,-0.02268379009219606,0.09670458680871308,40.106058693909645,-96.25519929585457,76.200527287817
2024-09-23 17:43:22.734650,42.41,39.649254,-0.0030841997366068195,-0.023579196463302005,0.09720203344245934,40.106058693909645,-96.25519929585457,76.200527287817
2024-09-23 17:43:22.746443,42.41,39.649254,-0.0030841997366068195,-0.023579196463302005,0.09720203344245934,44.11764879391193,-88.23529758782387,84.22370748782159
2024-09-23 17:43:22.778928,42.41,39.649306,-0.0030841997366068195,-0.023579196463302005,0.09720203344245934,44.11764879391193,-88.23529758782387,84.22370748782159
2024-09-23 17:43:22.790167,42.41,39.649306,-0.0029349636958644295,-0.022982261414192504,0.09759999317981902,44.11764879391193,-96.25519929585457,84.22370748782159
2024-09-23 17:43:22.833044,42.41,39.649356,-0.0028354659767690416,-0.022982261414192504,0.09759999317981902,44.11764879391193,-96.25519929585457,80.21211738781929
2024-09-23 17:43:22.844841,42.41,39.649356,-0.0028354659767690416,-0.022982261414192504,0.09745075675933246,44.11764879391193,-96.25519929585457,80.21211738781929
2024-09-23 17:43:22.876447,42.41,39.649356,-0.0028354659767690416,-0.022982261414192504,0.09745075675933246,44.11764879391193,-92.24360919585227,80.21211738781929
2024-09-23 17:43:22.887715,42.41,39.649407,-0.003482159473966507,-0.023778180888911878,0.09715228999426605,44.11764879391193,-92.24360919585227,76.200527287817
2024-09-23 17:43:22.930291,42.41,39.649407,-0.003482159473966507,-0.023778180888911878,0.09715228999426605,40.106058693909645,-100.26678939585686,76.200527287817
2024-09-23 17:43:22.983503,42.41,39.649458,-0.0028852147413806935,-0.02362894446842532,0.09695331012558621,36.09446859390736,-100.26678939585686,68.18063240997792
2024-09-23 17:43:23.078229,42.41,39.649509,-0.0030344509719951677,-0.023280723622328886,0.09695331012558621,36.09446859390736,-100.26678939585686,72.1922225099802
2024-09-23 17:43:23.090291,42.41,39.649509,-0.0030344509719951677,-0.023280723622328886,0.09720203344245934,36.09446859390736,-100.26678939585686,72.1922225099802
2024-09-23 17:43:23.122457,42.41,39.649509,-0.0030344509719951677,-0.023280723622328886,0.09720203344245934,44.11764879391193,-96.25519929585457,72.1922225099802
2024-09-23 17:43:23.133559,42.41,39.649595,-0.0029349636958644295,-0.023728432883788564,0.09720203344245934,44.11764879391193,-96.25519929585457,80.21211738781929
2024-09-23 17:43:23.175849,42.28,39.649647,-0.0029349636958644295,-0.023728432883788564,0.0973015264147526,36.09446859390736,-92.24360919585227,76.200527287817
2024-09-23 17:43:23.187842,42.28,39.649647,-0.0027359787006383035,-0.023728432883788564,0.0973015264147526,36.09446859390736,-92.24360919585227,76.200527287817
2024-09-23 17:43:23.219713,42.28,39.649647,-0.0027359787006383035,-0.02362894446842532,0.09715228999426605,36.09446859390736,-92.24360919585227,76.200527287817
2024-09-23 17:43:23.231145,42.28,39.649698,-0.0027359787006383035,-0.02362894446842532,0.09715228999426605,44.11764879391193,-92.24360919585227,76.200527287817
2024-09-23 17:43:23.274194,42.28,39.649698,-0.003233425524256645,-0.023230986250042305,0.09685382322919964,44.11764879391193,-96.25519929585457,76.200527287817
2024-09-23 17:43:23.316778,42.28,39.64984,-0.002785727465249955,-0.023230986250042305,0.09685382322919964,44.11764879391193,-96.25519929585457,76.200527287817
2024-09-23 17:43:23.328422,42.28,39.64984,-0.002785727465249955,-0.02303200030545576,0.09705279702197278,32.08287849390507,-104.27510100388527,76.200527287817
2024-09-23 17:43:23.371806,42.28,39.649891,-0.0030841997366068195,-0.022982261414192504,0.09695331012558621,40.106058693909645,-104.27510100388527,72.1922225099802
2024-09-23 17:43:23.414734,42.28,39.649891,-0.0030841997366068195,-0.022982261414192504,0.09695331012558621,40.106058693909645,-100.26678939585686,76.200527287817
2024-09-23 17:43:23.425748,42.28,39.649942,-0.0025369937054121774,-0.023778180888911878,0.09715228999426605,40.106058693909645,-100.26678939585686,76.200527287817
2024-09-23 17:43:23.467907,42.28,39.649992,-0.0028354659767690416,-0.023778180888911878,0.09715228999426605,40.106058693909645,-92.24360919585227,76.200527287817
2024-09-23 17:43:23.479946,42.28,39.649992,-0.0028354659767690416,-0.023330473146428877,0.09715228999426605,40.106058693909645,-92.24360919585227,76.200527287817
2024-09-23 17:43:23.512570,42.28,39.649992,-0.0028354659767690416,-0.023330473146428877,0.09705279702197278,48.12595698684454,-92.24360919585227,76.200527287817
2024-09-23 17:43:23.523491,42.28,39.650043,-0.0032831742888682963,-0.023330473146428877,0.09705279702197278,48.12595698684454,-108.28669110388756,64.16903547978401
2024-09-23 17:43:23.565739,42.28,39.650043,-0.0032831742888682963,-0.023728432883788564,0.0970030596496862,44.11764879391193,-96.25519929585457,64.16903547978401
2024-09-23 17:43:23.659968,42.28,39.650132,-0.0032831742888682963,-0.023728432883788564,0.0970030596496862,44.11764879391193,-96.25519929585457,76.200527287817
2024-09-23 17:43:23.672236,42.28,39.650132,-0.002636491424507565,-0.023280723622328886,0.09690356060148622,44.11764879391193,-96.25519929585457,76.200527287817
2024-09-23 17:43:23.715338,42.28,39.650183,-0.0026862297461545674,-0.023181236725942318,0.09695331012558621,44.11764879391193,-100.26678939585686,76.200527287817
2024-09-23 17:43:23.758651,42.28,39.650183,-0.0026862297461545674,-0.023181236725942318,0.09695331012558621,48.12595698684454,-96.25519929585457,76.200527287817
2024-09-23 17:43:23.769864,42.28,39.650234,-0.0029847020175114316,-0.02313149783467906,0.09695331012558621,48.12595698684454,-96.25519929585457,76.200527287817
2024-09-23 17:43:23.803571,42.28,39.650234,-0.0029847020175114316,-0.02313149783467906,0.09715228999426605,48.12595698684454,-96.25519929585457,76.200527287817
2024-09-23 17:43:23.814590,42.28,39.650284,-0.002636491424507565,-0.02313149783467906,0.09715228999426605,40.106058693909645,-100.26678939585686,76.200527287817
2024-09-23 17:43:23.857584,42.28,39.650284,-0.002636491424507565,-0.0228827638849692,0.09755024973162574,48.12595698684454,-100.26678939585686,72.1922225099802
2024-09-23 17:43:23.869739,42.28,39.650335,-0.002636491424507565,-0.0228827638849692,0.09755024973162574,48.12595698684454,-100.26678939585686,72.1922225099802
2024-09-23 17:43:23.901675,42.28,39.650335,-0.003233425524256645,-0.0228827638849692,0.09755024973162574,48.12595698684454,-100.26678939585686,72.1922225099802
2024-09-23 17:43:23.913066,42.28,39.650335,-0.003233425524256645,-0.023579196463302005,0.0973512698629459,40.106058693909645,-96.25519929585457,72.1922225099802
2024-09-23 17:43:23.956105,42.28,39.650473,-0.0030841997366068195,-0.023429960042815445,0.09715228999426605,40.106058693909645,-96.25519929585457,72.1922225099802
2024-09-23 17:43:23.967820,42.28,39.650473,-0.0030841997366068195,-0.023429960042815445,0.09715228999426605,40.106058693909645,-96.25519929585457,72.1922225099802
2024-09-23 17:43:23.999945,42.28,39.650525,-0.0030841997366068195,-0.023429960042815445,0.09715228999426605,40.106058693909645,-96.25519929585457,72.1922225099802
2024-09-23 17:43:24.011916,42.28,39.650525,-0.0031339382481259063,-0.023479709566915436,0.09745075675933246,40.106058693909645,-96.25519929585457,72.1922225099802
2024-09-23 17:43:24.055379,42.28,39.650576,-0.0031339382481259063,-0.02367869399252531,0.0976994861521123,40.106058693909645,-96.25519929585457,76.200527287817
2024-09-23 17:43:24.098688,42.28,39.650576,-0.0031339382481259063,-0.02367869399252531,0.0976994861521123,40.106058693909645,-100.26678939585686,72.1922225099802
2024-09-23 17:43:24.110505,42.28,39.650626,-0.0033329230534799477,-0.023579196463302005,0.0976994861521123,40.106058693909645,-100.26678939585686,72.1922225099802
2024-09-23 17:43:24.153024,42.28,39.650677,-0.0030344509719951677,-0.023579196463302005,0.09764974270391902,40.106058693909645,-104.27510100388527,76.200527287817
2024-09-23 17:43:24.195877,42.06,39.650677,-0.0030344509719951677,-0.023877669304275123,0.09759999317981902,44.11764879391193,-104.27510100388527,76.200527287817
2024-09-23 17:43:24.207737,42.06,39.650765,-0.0030344509719951677,-0.023877669304275123,0.09759999317981902,44.11764879391193,-96.25519929585457,72.1922225099802
2024-09-23 17:43:24.250567,42.06,39.650765,-0.0026862297461545674,-0.02352945757203875,0.09759999317981902,44.11764879391193,-96.25519929585457,72.1922225099802
2024-09-23 17:43:24.293141,42.06,39.650765,-0.0026862297461545674,-0.02352945757203875,0.09675432418099966,48.12595698684454,-92.24360919585227,72.1922225099802
2024-09-23 17:43:24.304667,42.06,39.650817,-0.0027359787006383035,-0.02352945757203875,0.09675432418099966,48.12595698684454,-92.24360919585227,72.1922225099802
2024-09-23 17:43:24.347986,42.06,39.650867,-0.0027359787006383035,-0.02303200030545576,0.09720203344245934,44.11764879391193,-96.25519929585457,72.1922225099802
2024-09-23 17:43:24.390029,42.06,39.650867,-0.0029847020175114316,-0.02338022115155219,0.09720203344245934,44.11764879391193,-96.25519929585457,72.1922225099802
2024-09-23 17:43:24.400875,42.06,39.650867,-0.0029847020175114316,-0.02338022115155219,0.09680407370509965,36.09446859390736,-96.25519929585457,76.200527287817
2024-09-23 17:43:24.444002,42.06,39.650918,-0.0028852147413806935,-0.02338022115155219,0.09750050628343246,44.11764879391193,-104.27510100388527,76.200527287817
2024-09-23 17:43:24.486712,42.06,39.650969,-0.0028852147413806935,-0.02338022115155219,0.09750050628343246,44.11764879391193,-104.27510100388527,80.21211738781929
2024-09-23 17:43:24.498236,42.06,39.650969,-0.0028354659767690416,-0.023181236725942318,0.09705279702197278,44.11764879391193,-104.27510100388527,80.21211738781929
2024-09-23 17:43:24.540647,42.06,39.651059,-0.0032831742888682963,-0.02338022115155219,0.09705279702197278,44.11764879391193,-96.25519929585457,84.22370748782159
2024-09-23 17:43:24.552927,42.06,39.651059,-0.0032831742888682963,-0.02338022115155219,0.09725178296655933,44.11764879391193,-96.25519929585457,84.22370748782159
2024-09-23 17:43:24.585635,42.06,39.651059,-0.0032831742888682963,-0.02338022115155219,0.09725178296655933,44.11764879391193,-100.26678939585686,84.22370748782159
2024-09-23 17:43:24.596740,42.06,39.65111,-0.0030841997366068195,-0.0228827638849692,0.09725178296655933,44.11764879391193,-100.26678939585686,76.200527287817
2024-09-23 17:43:24.639295,42.06,39.651161,-0.0030841997366068195,-0.0228827638849692,0.09695331012558621,44.11764879391193,-92.24360919585227,76.200527287817
2024-09-23 17:43:24.681825,42.06,39.651161,-0.0030841997366068195,-0.02303200030545576,0.09715228999426605,44.11764879391193,-92.24360919585227,76.200527287817
2024-09-23 17:43:24.693747,42.06,39.651253,-0.0030841997366068195,-0.02303200030545576,0.09715228999426605,48.12595698684454,-92.24360919585227,76.200527287817
2024-09-23 17:43:24.736817,42.06,39.651253,-0.0028852147413806935,-0.023579196463302005,0.09690356060148622,56.14914060194492,-92.24360919585227,76.200527287817
2024-09-23 17:43:24.779054,42.06,39.651304,-0.0029847020175114316,-0.023579196463302005,0.09690356060148622,56.14914060194492,-92.24360919585227,76.200527287817
2024-09-23 17:43:24.790828,42.06,39.651304,-0.0029847020175114316,-0.023330473146428877,0.0970030596496862,40.106058693909645,-96.25519929585457,76.200527287817
2024-09-23 17:43:24.834431,42.06,39.651355,-0.0032831742888682963,-0.023479709566915436,0.09680407370509965,36.09446859390736,-96.25519929585457,84.22370748782159
2024-09-23 17:43:24.876608,42.06,39.651355,-0.0032831742888682963,-0.023479709566915436,0.09680407370509965,36.09446859390736,-96.25519929585457,80.21211738781929
2024-09-23 17:43:24.888318,42.06,39.651406,-0.0029847020175114316,-0.023280723622328886,0.09725178296655933,36.09446859390736,-96.25519929585457,80.21211738781929
2024-09-23 17:43:24.930992,42.06,39.651456,-0.0035816467500972456,-0.023280723622328886,0.09725178296655933,44.11764879391193,-104.27510100388527,76.200527287817
2024-09-23 17:43:24.943066,42.06,39.651456,-0.0035816467500972456,-0.023479709566915436,0.09725178296655933,44.11764879391193,-104.27510100388527,76.200527287817
2024-09-23 17:43:24.976399,42.06,39.651456,-0.0035816467500972456,-0.023479709566915436,0.09720203344245934,44.11764879391193,-96.25519929585457,76.200527287817
2024-09-23 17:43:24.987883,42.06,39.651507,-0.0031836870127375577,-0.023479709566915436,0.09720203344245934,44.11764879391193,-96.25519929585457,84.22370748782159
2024-09-23 17:43:25.031107,42.06,39.651594,-0.0031836870127375577,-0.022584292562972758,0.09695331012558621,44.11764879391193,-92.24360919585227,72.1922225099802
2024-09-23 17:43:25.074235,42.06,39.651594,-0.003482159473966507,-0.023479709566915436,0.09725178296655933,44.11764879391193,-92.24360919585227,72.1922225099802
2024-09-23 17:43:25.085779,42.06,39.651594,-0.003482159473966507,-0.023479709566915436,0.09725178296655933,44.11764879391193,-96.25519929585457,80.21211738781929
2024-09-23 17:43:25.119491,42.06,39.651646,-0.003482159473966507,-0.023479709566915436,0.09725178296655933,44.11764879391193,-96.25519929585457,80.21211738781929
2024-09-23 17:43:25.131681,42.06,39.651646,-0.0028852147413806935,-0.02338022115155219,0.0973015264147526,44.11764879391193,-80.21211738781929,80.21211738781929
2024-09-23 17:43:25.173859,42.06,39.651696,-0.0030841997366068195,-0.023230986250042305,0.0970030596496862,44.11764879391193,-80.21211738781929,88.23529758782387
2024-09-23 17:43:25.185599,42.06,39.651696,-0.0030841997366068195,-0.023230986250042305,0.0970030596496862,40.106058693909645,-80.21211738781929,88.23529758782387
2024-09-23 17:43:25.218115,42.06,39.651696,-0.0030841997366068195,-0.023230986250042305,0.0970030596496862,40.106058693909645,-92.24360919585227,76.200527287817
2024-09-23 17:43:25.229347,42.06,39.651747,-0.0023380189632786156,-0.022982261414192504,0.09680407370509965,40.106058693909645,-92.24360919585227,76.200527287817
2024-09-23 17:43:25.271450,42.06,39.651798,-0.002636491424507565,-0.022982261414192504,0.09680407370509965,48.12595698684454,-96.25519929585457,72.1922225099802
2024-09-23 17:43:25.282958,42.06,39.651798,-0.002636491424507565,-0.023181236725942318,0.09680407370509965,48.12595698684454,-96.25519929585457,72.1922225099802
2024-09-23 17:43:25.315362,42.06,39.651798,-0.002636491424507565,-0.023181236725942318,0.09685382322919964,36.09446859390736,-96.25519929585457,72.1922225099802
2024-09-23 17:43:25.327405,42.06,39.651848,-0.0032831742888682963,-0.023181236725942318,0.09685382322919964,36.09446859390736,-92.24360919585227,84.22370748782159
2024-09-23 17:43:25.370663,42.06,39.651848,-0.0032831742888682963,-0.02352945757203875,0.09670458680871308,40.106058693909645,-96.25519929585457,84.22370748782159
2024-09-23 17:43:25.382159,42.06,39.651936,-0.0032831742888682963,-0.02352945757203875,0.09670458680871308,40.106058693909645,-96.25519929585457,84.22370748782159
2024-09-23 17:43:25.415081,42.06,39.651936,-0.0024872551938930902,-0.023280723622328886,0.09745075675933246,40.106058693909645,-96.25519929585457,84.22370748782159
2024-09-23 17:43:25.426789,42.06,39.651936,-0.0024872551938930902,-0.023280723622328886,0.09745075675933246,44.11764879391193,-92.24360919585227,80.21211738781929
2024-09-23 17:43:25.460760,42.06,39.651987,-0.0024872551938930902,-0.023280723622328886,0.09745075675933246,44.11764879391193,-92.24360919585227,80.21211738781929
2024-09-23 17:43:25.472154,42.06,39.651987,-0.0031836870127375577,-0.023280723622328886,0.09745075675933246,44.11764879391193,-92.24360919585227,80.21211738781929
2024-09-23 17:43:25.514282,42.06,39.651987,-0.0031836870127375577,-0.023429960042815445,0.09675432418099966,40.106058693909645,-92.24360919585227,80.21211738781929
2024-09-23 17:43:25.525910,42.06,39.652038,-0.0031836870127375577,-0.023429960042815445,0.09675432418099966,40.106058693909645,-88.23529758782387,76.200527287817
2024-09-23 17:43:25.558967,42.06,39.652038,-0.0031339382481259063,-0.023429960042815445,0.09675432418099966,40.106058693909645,-88.23529758782387,76.200527287817
2024-09-23 17:43:25.573969,42.06,39.652038,-0.0031339382481259063,-0.023479709566915436,0.09720203344245934,40.106058693909645,-96.25519929585457,76.200527287817
2024-09-23 17:43:25.606191,42.06,39.652088,-0.0031339382481259063,-0.023479709566915436,0.09720203344245934,40.106058693909645,-96.25519929585457,76.200527287817
2024-09-23 17:43:25.617807,42.06,39.652088,-0.0031339382481259063,-0.02303200030545576,0.09715228999426605,40.106058693909645,-96.25519929585457,76.200527287817
2024-09-23 17:43:25.660382,42.06,39.652139,-0.002636491424507565,-0.02313149783467906,0.09715228999426605,40.106058693909645,-96.25519929585457,76.200527287817
2024-09-23 17:43:25.673456,42.06,39.652139,-0.002636491424507565,-0.02313149783467906,0.09610764112676684,36.09446859390736,-96.25519929585457,76.200527287817
2024-09-23 17:43:25.705892,42.06,39.652139,-0.002636491424507565,-0.02313149783467906,0.09610764112676684,36.09446859390736,-96.25519929585457,72.1922225099802
2024-09-23 17:43:25.716708,42.06,39.65219,-0.0029349636958644295,-0.02303200030545576,0.09774922960030558,36.09446859390736,-96.25519929585457,72.1922225099802
2024-09-23 17:43:25.759683,42.06,39.652279,-0.003482159473966507,-0.02303200030545576,0.09774922960030558,44.11764879391193,-92.24360919585227,80.21211738781929
2024-09-23 17:43:25.771622,42.06,39.652279,-0.003482159473966507,-0.02313149783467906,0.09774922960030558,44.11764879391193,-92.24360919585227,80.21211738781929
2024-09-23 17:43:25.804973,42.06,39.652279,-0.003482159473966507,-0.02313149783467906,0.0973015264147526,36.09446859390736,-100.26678939585686,80.21211738781929
2024-09-23 17:43:25.816499,42.06,39.652329,-0.0026862297461545674,-0.02313149783467906,0.0973015264147526,36.09446859390736,-100.26678939585686,76.200527287817
2024-09-23 17:43:25.859073,42.06,39.652423,-0.0026862297461545674,-0.02263404056809607,0.0973015264147526,40.106058693909645,-96.25519929585457,76.200527287817
2024-09-23 17:43:25.902443,42.06,39.652423,-0.002785727465249955,-0.02352945757203875,0.09690356060148622,40.106058693909645,-96.25519929585457,76.200527287817
2024-09-23 17:43:25.914031,42.06,39.652423,-0.002785727465249955,-0.02352945757203875,0.09690356060148622,40.106058693909645,-96.25519929585457,76.200527287817
2024-09-23 17:43:25.956403,42.06,39.652474,-0.0027359787006383035,-0.02338022115155219,0.09745075675933246,40.106058693909645,-100.26678939585686,76.200527287817
2024-09-23 17:43:25.998654,42.06,39.652525,-0.0027359787006383035,-0.02338022115155219,0.09745075675933246,40.106058693909645,-100.26678939585686,76.200527287817
2024-09-23 17:43:26.010604,42.06,39.652525,-0.0028354659767690416,-0.023181236725942318,0.09745075675933246,36.09446859390736,-100.26678939585686,76.200527287817
2024-09-23 17:43:26.053876,42.06,39.652576,-0.0029847020175114316,-0.023479709566915436,0.09695331012558621,36.09446859390736,-96.25519929585457,76.200527287817
2024-09-23 17:43:26.096052,42.06,39.652576,-0.0029847020175114316,-0.023479709566915436,0.09695331012558621,36.09446859390736,-96.25519929585457,76.200527287817
2024-09-23 17:43:26.106997,42.06,39.652626,-0.0031836870127375577,-0.02293251340906919,0.09695331012558621,36.09446859390736,-96.25519929585457,68.18063240997792
2024-09-23 17:43:26.148816,42.06,39.652626,-0.0031836870127375577,-0.02293251340906919,0.09720203344245934,44.11764879391193,-92.24360919585227,76.200527287817
2024-09-23 17:43:26.160346,42.06,39.652677,-0.0031339382481259063,-0.02293251340906919,0.09720203344245934,44.11764879391193,-92.24360919585227,76.200527287817
2024-09-23 17:43:26.194156,42.06,39.652677,-0.0031339382481259063,-0.023330473146428877,0.09750050628343246,44.11764879391193,-92.24360919585227,76.200527287817
2024-09-23 17:43:26.205838,42.06,39.652764,-0.0031339382481259063,-0.023330473146428877,0.09750050628343246,48.12595698684454,-100.26678939585686,72.1922225099802
2024-09-23 17:43:26.248528,42.57,39.652764,-0.0028852147413806935,-0.023181236725942318,0.09725178296655933,40.106058693909645,-100.26678939585686,68.18063240997792
2024-09-23 17:43:26.291007,42.57,39.652816,-0.0032831742888682963,-0.023181236725942318,0.09725178296655933,40.106058693909645,-100.26678939585686,68.18063240997792
2024-09-23 17:43:26.302390,42.57,39.652816,-0.0032831742888682963,-0.023280723622328886,0.09715228999426605,40.106058693909645,-100.26678939585686,68.18063240997792
2024-09-23 17:43:26.345161,42.57,39.652866,-0.003233425524256645,-0.023181236725942318,0.09665483728461309,48.12595698684454,-100.26678939585686,76.200527287817
2024-09-23 17:43:26.388110,42.57,39.652866,-0.003233425524256645,-0.023181236725942318,0.09665483728461309,48.12595698684454,-96.25519929585457,80.21211738781929
2024-09-23 17:43:26.399393,42.57,39.652917,-0.0028852147413806935,-0.023181236725942318,0.0973015264147526,48.12595698684454,-96.25519929585457,80.21211738781929
2024-09-23 17:43:26.442078,42.57,39.652967,-0.0028852147413806935,-0.023181236725942318,0.0973015264147526,40.106058693909645,-92.24360919585227,84.22370748782159
2024-09-23 17:43:26.454783,42.57,39.652967,-0.002785727465249955,-0.02338022115155219,0.0973015264147526,40.106058693909645,-92.24360919585227,84.22370748782159
2024-09-23 17:43:26.487411,42.57,39.652967,-0.002785727465249955,-0.02338022115155219,0.09665483728461309,44.11764879391193,-100.26678939585686,84.22370748782159
2024-09-23 17:43:26.498816,42.57,39.653018,-0.0032831742888682963,-0.02338022115155219,0.09665483728461309,44.11764879391193,-100.26678939585686,76.200527287817
2024-09-23 17:43:26.541020,42.57,39.653105,-0.0032831742888682963,-0.02303200030545576,0.0973015264147526,40.106058693909645,-100.26678939585686,76.200527287817
2024-09-23 17:43:26.584243,42.57,39.653105,-0.0031339382481259063,-0.02362894446842532,0.09715228999426605,40.106058693909645,-100.26678939585686,76.200527287817
2024-09-23 17:43:26.595318,42.57,39.653105,-0.0031339382481259063,-0.02362894446842532,0.09715228999426605,40.106058693909645,-92.24360919585227,76.200527287817
2024-09-23 17:43:26.638098,42.57,39.653157,-0.003233425524256645,-0.023230986250042305,0.0973015264147526,48.12595698684454,-88.23529758782387,76.200527287817
2024-09-23 17:43:26.680359,42.57,39.653157,-0.003233425524256645,-0.023230986250042305,0.0973015264147526,48.12595698684454,-88.23529758782387,76.200527287817
2024-09-23 17:43:26.692375,42.57,39.653208,-0.0031339382481259063,-0.02313149783467906,0.09675432418099966,36.09446859390736,-88.23529758782387,76.200527287817
2024-09-23 17:43:26.735428,42.57,39.653208,-0.0031339382481259063,-0.02313149783467906,0.09675432418099966,36.09446859390736,-100.26678939585686,76.200527287817
2024-09-23 17:43:26.778654,42.57,39.653259,-0.0029847020175114316,-0.02313149783467906,0.09675432418099966,36.09446859390736,-100.26678939585686,76.200527287817
2024-09-23 17:43:26.789972,42.57,39.653259,-0.0029847020175114316,-0.02352945757203875,0.09710254654607277,36.09446859390736,-100.26678939585686,76.200527287817
2024-09-23 17:43:26.833991,42.57,39.653309,-0.0030841997366068195,-0.023429960042815445,0.0973512698629459,44.11764879391193,-100.26678939585686,80.21211738781929
2024-09-23 17:43:26.876668,42.57,39.65336,-0.0030841997366068195,-0.023429960042815445,0.0973512698629459,44.11764879391193,-100.26678939585686,60.15744537978172
2024-09-23 17:43:26.888086,42.57,39.65336,-0.0027359787006383035,-0.02338022115155219,0.0973015264147526,44.11764879391193,-100.26678939585686,60.15744537978172
2024-09-23 17:43:26.930519,42.57,39.653447,-0.002785727465249955,-0.02313149783467906,0.0973015264147526,36.09446859390736,-92.24360919585227,80.21211738781929
2024-09-23 17:43:26.974878,42.57,39.653447,-0.002785727465249955,-0.02313149783467906,0.09759999317981902,44.11764879391193,-96.25519929585457,80.21211738781929
2024-09-23 17:43:26.986576,42.57,39.653497,-0.0035318979854855937,-0.02313149783467906,0.09759999317981902,44.11764879391193,-96.25519929585457,80.21211738781929
2024-09-23 17:43:27.028945,42.57,39.653593,-0.0035318979854855937,-0.023429960042815445,0.09720203344245934,36.09446859390736,-96.25519929585457,80.21211738781929
2024-09-23 17:43:27.123008,42.57,39.653593,-0.0029847020175114316,-0.02268379009219606,0.09655535038822652,44.11764879391193,-96.25519929585457,80.21211738781929
2024-09-23 17:43:27.134999,42.57,39.653593,-0.0029847020175114316,-0.02268379009219606,0.09655535038822652,44.11764879391193,-96.25519929585457,80.21211738781929
2024-09-23 17:43:27.167115,42.57,39.653644,-0.0029847020175114316,-0.02268379009219606,0.09655535038822652,44.11764879391193,-96.25519929585457,80.21211738781929
2024-09-23 17:43:27.178632,42.57,39.653644,-0.0020395466919217514,-0.02338022115155219,0.09834616920634512,40.106058693909645,-100.26678939585686,80.21211738781929
2024-09-23 17:43:27.220568,42.57,39.653695,-0.0031836870127375577,-0.023330473146428877,0.09834616920634512,40.106058693909645,-100.26678939585686,80.21211738781929
2024-09-23 17:43:27.232301,42.57,39.653695,-0.0031836870127375577,-0.023330473146428877,0.09685382322919964,44.11764879391193,-100.26678939585686,80.21211738781929
2024-09-23 17:43:27.265958,42.16,39.653695,-0.0031836870127375577,-0.023330473146428877,0.09685382322919964,44.11764879391193,-92.24360919585227,76.200527287817
2024-09-23 17:43:27.277825,42.16,39.653746,-0.0027359787006383035,-0.02263404056809607,0.09685382322919964,44.11764879391193,-92.24360919585227,76.200527287817
2024-09-23 17:43:27.320105,42.16,39.653746,-0.0027359787006383035,-0.02263404056809607,0.09655535038822652,44.11764879391193,-92.24360919585227,76.200527287817
2024-09-23 17:43:27.362539,42.16,39.653746,-0.0027359787006383035,-0.02263404056809607,0.09655535038822652,40.106058693909645,-96.25519929585457,76.200527287817
2024-09-23 17:43:27.374568,42.16,39.653796,-0.0030841997366068195,-0.023181236725942318,0.09655535038822652,40.106058693909645,-96.25519929585457,72.1922225099802
2024-09-23 17:43:27.417775,42.16,39.653888,-0.0030841997366068195,-0.023181236725942318,0.09685382322919964,40.106058693909645,-96.25519929585457,76.200527287817
2024-09-23 17:43:27.429642,42.16,39.653888,-0.0030841997366068195,-0.023181236725942318,0.09685382322919964,40.106058693909645,-96.25519929585457,76.200527287817
2024-09-23 17:43:27.462595,42.16,39.653888,-0.0030841997366068195,-0.023429960042815445,0.09759999317981902,32.08287849390507,-96.25519929585457,76.200527287817
2024-09-23 17:43:27.473735,42.16,39.653983,-0.0030841997366068195,-0.023429960042815445,0.09759999317981902,32.08287849390507,-96.25519929585457,80.21211738781929
2024-09-23 17:43:27.516611,42.16,39.653983,-0.0034324103296106863,-0.023280723622328886,0.09705279702197278,32.08287849390507,-96.25519929585457,76.200527287817
2024-09-23 17:43:27.559163,42.16,39.654034,-0.002785727465249955,-0.023181236725942318,0.09705279702197278,32.08287849390507,-96.25519929585457,76.200527287817
2024-09-23 17:43:27.570186,42.16,39.654034,-0.002785727465249955,-0.023181236725942318,0.09720203344245934,44.11764879391193,-100.26678939585686,76.200527287817
2024-09-23 17:43:27.612147,42.16,39.65413,-0.003233425524256645,-0.022982261414192504,0.09695331012558621,44.11764879391193,-100.26678939585686,76.200527287817
2024-09-23 17:43:27.624224,42.16,39.65413,-0.003233425524256645,-0.022982261414192504,0.09695331012558621,40.106058693909645,-100.26678939585686,76.200527287817
2024-09-23 17:43:27.656678,42.16,39.654181,-0.003233425524256645,-0.022982261414192504,0.09695331012558621,40.106058693909645,-104.27510100388527,80.21211738781929
2024-09-23 17:43:27.668034,42.16,39.654181,-0.002785727465249955,-0.023280723622328886,0.0973015264147526,40.106058693909645,-104.27510100388527,80.21211738781929
2024-09-23 17:43:27.710659,42.16,39.654232,-0.0031836870127375577,-0.023429960042815445,0.0973015264147526,40.106058693909645,-100.26678939585686,76.200527287817
2024-09-23 17:43:27.752765,42.16,39.654232,-0.0031836870127375577,-0.023429960042815445,0.09720203344245934,40.106058693909645,-100.26678939585686,76.200527287817
2024-09-23 17:43:27.764462,42.16,39.654283,-0.002586742470023829,-0.023429960042815445,0.09720203344245934,40.106058693909645,-104.27510100388527,76.200527287817
2024-09-23 17:43:27.807416,42.16,39.654283,-0.002586742470023829,-0.023280723622328886,0.0976994861521123,40.106058693909645,-96.25519929585457,80.21211738781929
2024-09-23 17:43:27.819985,42.16,39.654373,-0.002586742470023829,-0.023280723622328886,0.0976994861521123,40.106058693909645,-96.25519929585457,80.21211738781929
2024-09-23 17:43:27.852298,42.16,39.654373,-0.0027359787006383035,-0.023330473146428877,0.0973015264147526,40.106058693909645,-96.25519929585457,80.21211738781929
2024-09-23 17:43:27.863789,42.16,39.654373,-0.0027359787006383035,-0.023330473146428877,0.0973015264147526,40.106058693909645,-100.26678939585686,76.200527287817
2024-09-23 17:43:27.907558,42.16,39.654424,-0.0031339382481259063,-0.023479709566915436,0.09725178296655933,40.106058693909645,-92.24360919585227,76.200527287817
2024-09-23 17:43:28.000633,42.16,39.654475,-0.003482159473966507,-0.02303200030545576,0.09725178296655933,40.106058693909645,-92.24360919585227,76.200527287817
2024-09-23 17:43:28.012439,42.16,39.654475,-0.003482159473966507,-0.02303200030545576,0.09690356060148622,40.106058693909645,-92.24360919585227,76.200527287817
2024-09-23 17:43:28.046043,42.16,39.654475,-0.003482159473966507,-0.02303200030545576,0.09690356060148622,40.106058693909645,-92.24360919585227,72.1922225099802
2024-09-23 17:43:28.057096,42.16,39.654526,-0.002636491424507565,-0.02308174982955575,0.09789846602079214,40.106058693909645,-92.24360919585227,72.1922225099802
2024-09-23 17:43:28.099068,42.16,39.654576,-0.0026862297461545674,-0.02308174982955575,0.09789846602079214,36.09446859390736,-96.25519929585457,72.1922225099802
2024-09-23 17:43:28.110960,42.16,39.654576,-0.0026862297461545674,-0.022833026512682618,0.09789846602079214,36.09446859390736,-96.25519929585457,72.1922225099802
2024-09-23 17:43:28.143467,42.16,39.654576,-0.0026862297461545674,-0.022833026512682618,0.09715228999426605,44.11764879391193,-96.25519929585457,72.1922225099802
2024-09-23 17:43:28.154838,42.16,39.654627,-0.0029847020175114316,-0.022833026512682618,0.09715228999426605,44.11764879391193,-96.25519929585457,76.200527287817
2024-09-23 17:43:28.197650,42.16,39.654627,-0.0029847020175114316,-0.02352945757203875,0.09774922960030558,40.106058693909645,-96.25519929585457,80.21211738781929
2024-09-23 17:43:28.209316,42.16,39.654714,-0.0029847020175114316,-0.02352945757203875,0.09774922960030558,40.106058693909645,-96.25519929585457,80.21211738781929
2024-09-23 17:43:28.241273,42.16,39.654714,-0.0025369937054121774,-0.023778180888911878,0.09645586349183995,40.106058693909645,-96.25519929585457,80.21211738781929
2024-09-23 17:43:28.252800,42.16,39.654714,-0.0025369937054121774,-0.023778180888911878,0.09645586349183995,40.106058693909645,-96.25519929585457,76.200527287817
2024-09-23 17:43:28.296407,42.22,39.654812,-0.0030841997366068195,-0.023330473146428877,0.0970030596496862,36.09446859390736,-96.25519929585457,76.200527287817
2024-09-23 17:43:28.338490,42.22,39.654863,-0.0030841997366068195,-0.023330473146428877,0.0970030596496862,36.09446859390736,-96.25519929585457,80.21211738781929
2024-09-23 17:43:28.350219,42.22,39.654863,-0.0027359787006383035,-0.023579196463302005,0.09740101331113918,40.106058693909645,-96.25519929585457,80.21211738781929
2024-09-23 17:43:28.394430,42.22,39.654914,-0.003631395514708897,-0.02338022115155219,0.09690356060148622,40.106058693909645,-92.24360919585227,80.21211738781929
2024-09-23 17:43:28.437362,42.22,39.654914,-0.003631395514708897,-0.02338022115155219,0.09690356060148622,48.12595698684454,-104.27510100388527,76.200527287817
2024-09-23 17:43:28.448712,42.22,39.654965,-0.0028354659767690416,-0.023230986250042305,0.09690356060148622,48.12595698684454,-104.27510100388527,76.200527287817
2024-09-23 17:43:28.491710,42.22,39.655015,-0.0026862297461545674,-0.023230986250042305,0.09695331012558621,44.11764879391193,-88.23529758782387,76.200527287817
2024-09-23 17:43:28.535999,42.22,39.655015,-0.0026862297461545674,-0.023181236725942318,0.09755024973162574,40.106058693909645,-88.23529758782387,76.200527287817
2024-09-23 17:43:28.546991,42.22,39.655104,-0.0026862297461545674,-0.023181236725942318,0.09755024973162574,40.106058693909645,-100.26678939585686,76.200527287817
2024-09-23 17:43:28.590282,42.22,39.655104,-0.002636491424507565,-0.02308174982955575,0.09764974270391902,44.11764879391193,-92.24360919585227,76.200527287817
2024-09-23 17:43:28.631870,42.22,39.655156,-0.0031339382481259063,-0.023330473146428877,0.09764974270391902,44.11764879391193,-92.24360919585227,76.200527287817
2024-09-23 17:43:28.643980,42.22,39.655156,-0.0031339382481259063,-0.023330473146428877,0.09725178296655933,40.106058693909645,-104.27510100388527,76.200527287817
2024-09-23 17:43:28.686173,42.22,39.655206,-0.0026862297461545674,-0.02367869399252531,0.09750050628343246,40.106058693909645,-104.27510100388527,76.200527287817
2024-09-23 17:43:28.729165,42.22,39.655206,-0.0026862297461545674,-0.02367869399252531,0.09750050628343246,40.106058693909645,-100.26678939585686,76.200527287817
2024-09-23 17:43:28.740998,42.22,39.655257,-0.002437506429281439,-0.023579196463302005,0.0973015264147526,40.106058693909645,-100.26678939585686,76.200527287817
2024-09-23 17:43:28.784619,42.22,39.655307,-0.0029847020175114316,-0.023479709566915436,0.0973015264147526,36.09446859390736,-92.24360919585227,80.21211738781929
2024-09-23 17:43:28.878841,42.22,39.655358,-0.0029847020175114316,-0.023479709566915436,0.0976994861521123,40.106058693909645,-92.24360919585227,80.21211738781929
2024-09-23 17:43:28.890774,42.22,39.655358,-0.0024872551938930902,-0.023479709566915436,0.0976994861521123,40.106058693909645,-92.24360919585227,80.21211738781929
2024-09-23 17:43:28.923358,42.22,39.655358,-0.0024872551938930902,-0.022833026512682618,0.09710254654607277,40.106058693909645,-92.24360919585227,80.21211738781929
2024-09-23 17:43:28.935181,42.22,39.655445,-0.0024872551938930902,-0.022833026512682618,0.09710254654607277,44.11764879391193,-96.25519929585457,72.1922225099802
2024-09-23 17:43:28.977960,42.22,39.655445,-0.002586742470023829,-0.023429960042815445,0.09710254654607277,44.11764879391193,-96.25519929585457,72.1922225099802
2024-09-23 17:43:29.021008,42.22,39.655445,-0.002586742470023829,-0.023429960042815445,0.09705279702197278,36.09446859390736,-96.25519929585457,72.1922225099802
2024-09-23 17:43:29.032756,42.22,39.655497,-0.0029349636958644295,-0.023429960042815445,0.09705279702197278,36.09446859390736,-100.26678939585686,72.1922225099802
2024-09-23 17:43:29.076258,42.22,39.655547,-0.0029349636958644295,-0.023181236725942318,0.09715228999426605,44.11764879391193,-96.25519929585457,80.21211738781929
2024-09-23 17:43:29.119443,42.22,39.655547,-0.0032831742888682963,-0.02293251340906919,0.09695331012558621,44.11764879391193,-96.25519929585457,80.21211738781929
2024-09-23 17:43:29.131134,42.22,39.655547,-0.0032831742888682963,-0.02293251340906919,0.09695331012558621,44.11764879391193,-100.26678939585686,80.21211738781929
2024-09-23 17:43:29.164849,42.22,39.655642,-0.0032831742888682963,-0.02293251340906919,0.09695331012558621,44.11764879391193,-100.26678939585686,80.21211738781929
2024-09-23 17:43:29.177023,42.22,39.655642,-0.0030841997366068195,-0.023230986250042305,0.09690356060148622,44.11764879391193,-100.26678939585686,80.21211738781929
2024-09-23 17:43:29.219313,42.22,39.655693,-0.0027359787006383035,-0.023330473146428877,0.09690356060148622,44.11764879391193,-100.26678939585686,76.200527287817
2024-09-23 17:43:29.230450,42.22,39.655693,-0.0027359787006383035,-0.023330473146428877,0.09759999317981902,32.08287849390507,-100.26678939585686,76.200527287817
2024-09-23 17:43:29.262424,42.22,39.655693,-0.0027359787006383035,-0.023330473146428877,0.09759999317981902,32.08287849390507,-100.26678939585686,76.200527287817
2024-09-23 17:43:29.273946,42.22,39.655788,-0.0025369937054121774,-0.023429960042815445,0.09690356060148622,32.08287849390507,-100.26678939585686,72.1922225099802
2024-09-23 17:43:29.316025,41.92,39.655788,-0.0025369937054121774,-0.023429960042815445,0.09690356060148622,36.09446859390736,-92.24360919585227,76.200527287817
2024-09-23 17:43:29.327525,41.92,39.655839,-0.002636491424507565,-0.023429960042815445,0.09690356060148622,36.09446859390736,-92.24360919585227,76.200527287817
2024-09-23 17:43:29.370120,41.92,39.65589,-0.0025369937054121774,-0.023429960042815445,0.09720203344245934,36.09446859390736,-92.24360919585227,80.21211738781929
2024-09-23 17:43:29.413610,41.92,39.65589,-0.0025369937054121774,-0.022982261414192504,0.09720203344245934,36.09446859390736,-100.26678939585686,80.21211738781929
2024-09-23 17:43:29.424961,41.92,39.655982,-0.0025369937054121774,-0.022982261414192504,0.09720203344245934,36.09446859390736,-100.26678939585686,84.22370748782159
2024-09-23 17:43:29.456925,41.92,39.655982,-0.0030344509719951677,-0.022982261414192504,0.09720203344245934,36.09446859390736,-100.26678939585686,84.22370748782159
2024-09-23 17:43:29.468304,41.92,39.655982,-0.0030344509719951677,-0.023330473146428877,0.0970030596496862,32.08287849390507,-100.26678939585686,80.21211738781929
2024-09-23 17:43:29.512217,41.92,39.656033,-0.0031339382481259063,-0.02362894446842532,0.09720203344245934,32.08287849390507,-100.26678939585686,80.21211738781929
2024-09-23 17:43:29.525279,41.92,39.656033,-0.0031339382481259063,-0.02362894446842532,0.09720203344245934,44.11764879391193,-92.24360919585227,80.21211738781929
2024-09-23 17:43:29.557264,41.92,39.656084,-0.0031339382481259063,-0.02362894446842532,0.09720203344245934,44.11764879391193,-92.24360919585227,76.200527287817
2024-09-23 17:43:29.568348,41.92,39.656084,-0.0028354659767690416,-0.023579196463302005,0.09675432418099966,40.106058693909645,-92.24360919585227,76.200527287817
2024-09-23 17:43:29.611510,41.92,39.656134,-0.0030344509719951677,-0.02338022115155219,0.09715228999426605,40.106058693909645,-96.25519929585457,76.200527287817
2024-09-23 17:43:29.654279,41.92,39.656134,-0.0030344509719951677,-0.02338022115155219,0.09715228999426605,48.12595698684454,-100.26678939585686,76.200527287817
2024-09-23 17:43:29.665776,41.92,39.656185,-0.0030841997366068195,-0.02338022115155219,0.09715228999426605,48.12595698684454,-100.26678939585686,80.21211738781929
2024-09-23 17:43:29.708347,41.92,39.656236,-0.0030841997366068195,-0.02338022115155219,0.09720203344245934,36.09446859390736,-100.26678939585686,76.200527287817
2024-09-23 17:43:29.720225,41.92,39.656236,-0.003233425524256645,-0.02338022115155219,0.09720203344245934,36.09446859390736,-100.26678939585686,76.200527287817
2024-09-23 17:43:29.752188,41.92,39.656236,-0.003233425524256645,-0.023429960042815445,0.09685382322919964,36.09446859390736,-100.26678939585686,76.200527287817
2024-09-23 17:43:29.764126,41.92,39.656323,-0.003233425524256645,-0.023429960042815445,0.09685382322919964,36.09446859390736,-100.26678939585686,76.200527287817
2024-09-23 17:43:29.807456,41.92,39.656323,-0.0030344509719951677,-0.02338022115155219,0.09705279702197278,44.11764879391193,-96.25519929585457,72.1922225099802
2024-09-23 17:43:29.850025,41.92,39.656374,-0.0033329230534799477,-0.02338022115155219,0.09705279702197278,44.11764879391193,-96.25519929585457,72.1922225099802
2024-09-23 17:43:29.861589,41.92,39.656374,-0.0033329230534799477,-0.023429960042815445,0.09685382322919964,40.106058693909645,-92.24360919585227,72.1922225099802
2024-09-23 17:43:29.903689,41.92,39.656425,-0.0033329230534799477,-0.023429960042815445,0.09685382322919964,40.106058693909645,-92.24360919585227,76.200527287817
2024-09-23 17:43:29.947413,41.92,39.656425,-0.0026862297461545674,-0.023579196463302005,0.09685382322919964,40.106058693909645,-92.24360919585227,76.200527287817
2024-09-23 17:43:29.958624,41.92,39.656425,-0.0026862297461545674,-0.023579196463302005,0.09710254654607277,44.11764879391193,-88.23529758782387,84.22370748782159
2024-09-23 17:43:30.001137,41.92,39.656476,-0.0029847020175114316,-0.02308174982955575,0.09705279702197278,40.106058693909645,-88.23529758782387,84.22370748782159
2024-09-23 17:43:30.013066,41.92,39.656476,-0.0029847020175114316,-0.02308174982955575,0.09705279702197278,40.106058693909645,-92.24360919585227,84.22370748782159
2024-09-23 17:43:30.045719,41.92,39.656526,-0.0029847020175114316,-0.02308174982955575,0.09705279702197278,40.106058693909645,-92.24360919585227,76.200527287817
2024-09-23 17:43:30.056760,41.92,39.656526,-0.0029847020175114316,-0.023479709566915436,0.0970030596496862,44.11764879391193,-92.24360919585227,76.200527287817
2024-09-23 17:43:30.099183,41.92,39.656577,-0.0031339382481259063,-0.0228827638849692,0.09740101331113918,44.11764879391193,-96.25519929585457,80.21211738781929
2024-09-23 17:43:30.142078,41.92,39.656577,-0.0031339382481259063,-0.0228827638849692,0.09740101331113918,44.11764879391193,-96.25519929585457,80.21211738781929
2024-09-23 17:43:30.154086,41.92,39.656664,-0.0030841997366068195,-0.023728432883788564,0.09740101331113918,44.11764879391193,-96.25519929585457,76.200527287817
2024-09-23 17:43:30.190165,41.92,39.656664,-0.0030841997366068195,-0.023728432883788564,0.09695331012558621,44.11764879391193,-96.25519929585457,76.200527287817
2024-09-23 17:43:30.201464,41.92,39.656716,-0.0023380189632786156,-0.023728432883788564,0.09695331012558621,40.106058693909645,-96.25519929585457,76.200527287817
2024-09-23 17:43:30.243895,41.92,39.656716,-0.0023380189632786156,-0.023579196463302005,0.0973512698629459,48.12595698684454,-96.25519929585457,76.200527287817
2024-09-23 17:43:30.255446,41.92,39.65681,-0.0023380189632786156,-0.023579196463302005,0.0973512698629459,48.12595698684454,-96.25519929585457,80.21211738781929
2024-09-23 17:43:30.287959,41.92,39.65681,-0.003382661564999035,-0.023579196463302005,0.0973512698629459,48.12595698684454,-96.25519929585457,80.21211738781929
2024-09-23 17:43:30.299576,41.92,39.65681,-0.003382661564999035,-0.02397715620066169,0.09720203344245934,40.106058693909645,-100.26678939585686,76.200527287817
2024-09-23 17:43:30.341713,42.2,39.656862,-0.0028852147413806935,-0.02338022115155219,0.09650560086412653,32.08287849390507,-100.26678939585686,76.200527287817
2024-09-23 17:43:30.353317,42.2,39.656862,-0.0028852147413806935,-0.02338022115155219,0.09650560086412653,32.08287849390507,-104.27510100388527,76.200527287817
2024-09-23 17:43:30.386241,42.2,39.656913,-0.0028852147413806935,-0.02338022115155219,0.09650560086412653,32.08287849390507,-104.27510100388527,76.200527287817
2024-09-23 17:43:30.397316,42.2,39.656913,-0.0037308827908396356,-0.023429960042815445,0.09720203344245934,44.11764879391193,-104.27510100388527,76.200527287817
2024-09-23 17:43:30.439733,42.2,39.656963,-0.0032831742888682963,-0.02352945757203875,0.09720203344245934,44.11764879391193,-96.25519929585457,72.1922225099802
2024-09-23 17:43:30.451465,42.2,39.656963,-0.0032831742888682963,-0.02352945757203875,0.0973015264147526,44.11764879391193,-96.25519929585457,72.1922225099802
2024-09-23 17:43:30.483603,42.2,39.656963,-0.0032831742888682963,-0.02352945757203875,0.0973015264147526,44.11764879391193,-100.26678939585686,72.1922225099802
2024-09-23 17:43:30.495747,42.2,39.657014,-0.0026862297461545674,-0.02338022115155219,0.0973015264147526,44.11764879391193,-100.26678939585686,76.200527287817
2024-09-23 17:43:30.538616,42.2,39.657065,-0.0027359787006383035,-0.02338022115155219,0.09745075675933246,40.106058693909645,-96.25519929585457,80.21211738781929
2024-09-23 17:43:30.580467,42.2,39.657065,-0.0027359787006383035,-0.023181236725942318,0.09715228999426605,40.106058693909645,-96.25519929585457,80.21211738781929
2024-09-23 17:43:30.592018,42.2,39.657152,-0.0027359787006383035,-0.023181236725942318,0.09715228999426605,44.11764879391193,-100.26678939585686,80.21211738781929
2024-09-23 17:43:30.634497,42.2,39.657152,-0.0028354659767690416,-0.023280723622328886,0.09710254654607277,40.106058693909645,-100.26678939585686,80.21211738781929
2024-09-23 17:43:30.646185,42.2,39.657152,-0.0028354659767690416,-0.023280723622328886,0.09710254654607277,40.106058693909645,-100.26678939585686,80.21211738781929
2024-09-23 17:43:30.678104,42.2,39.657203,-0.0027359787006383035,-0.023280723622328886,0.09710254654607277,40.106058693909645,-100.26678939585686,80.21211738781929
2024-09-23 17:43:30.689448,42.2,39.657203,-0.0027359787006383035,-0.022982261414192504,0.0973512698629459,32.08287849390507,-96.25519929585457,80.21211738781929
2024-09-23 17:43:30.731558,42.2,39.657254,-0.0029847020175114316,-0.022982261414192504,0.0973512698629459,32.08287849390507,-96.25519929585457,76.200527287817
2024-09-23 17:43:30.743718,42.2,39.657254,-0.0029847020175114316,-0.022982261414192504,0.0973512698629459,44.11764879391193,-96.25519929585457,76.200527287817
2024-09-23 17:43:30.776240,42.2,39.657254,-0.0029847020175114316,-0.022982261414192504,0.0973512698629459,44.11764879391193,-92.24360919585227,80.21211738781929
2024-09-23 17:43:30.787408,42.2,39.657305,-0.0028354659767690416,-0.023429960042815445,0.09690356060148622,44.11764879391193,-92.24360919585227,80.21211738781929
2024-09-23 17:43:30.829716,42.2,39.657355,-0.0028852147413806935,-0.023429960042815445,0.09690356060148622,44.11764879391193,-92.24360919585227,76.200527287817
2024-09-23 17:43:30.841806,42.2,39.657355,-0.0028852147413806935,-0.023181236725942318,0.09690356060148622,44.11764879391193,-92.24360919585227,76.200527287817
2024-09-23 17:43:30.874533,42.2,39.657355,-0.0028852147413806935,-0.023181236725942318,0.09750050628343246,44.11764879391193,-96.25519929585457,76.200527287817
2024-09-23 17:43:30.885773,42.2,39.657406,-0.0028354659767690416,-0.023181236725942318,0.09750050628343246,44.11764879391193,-96.25519929585457,72.1922225099802
2024-09-23 17:43:30.927780,42.2,39.657493,-0.0028354659767690416,-0.023877669304275123,0.09670458680871308,44.11764879391193,-92.24360919585227,80.21211738781929
2024-09-23 17:43:30.970096,42.2,39.657493,-0.0030344509719951677,-0.023877669304275123,0.09670458680871308,44.11764879391193,-92.24360919585227,80.21211738781929
2024-09-23 17:43:30.981849,42.2,39.657493,-0.0030344509719951677,-0.023181236725942318,0.09715228999426605,44.11764879391193,-100.26678939585686,68.18063240997792
2024-09-23 17:43:31.025109,42.2,39.657544,-0.0026862297461545674,-0.023877669304275123,0.09675432418099966,44.11764879391193,-100.26678939585686,68.18063240997792
2024-09-23 17:43:31.036996,42.2,39.657544,-0.0026862297461545674,-0.023877669304275123,0.09675432418099966,44.11764879391193,-96.25519929585457,68.18063240997792
2024-09-23 17:43:31.069452,42.2,39.657595,-0.0030344509719951677,-0.023877669304275123,0.09675432418099966,44.11764879391193,-96.25519929585457,76.200527287817
2024-09-23 17:43:31.080542,42.2,39.657595,-0.0030344509719951677,-0.023728432883788564,0.09695331012558621,44.11764879391193,-96.25519929585457,76.200527287817
2024-09-23 17:43:31.123611,42.2,39.657646,-0.0029847020175114316,-0.023728432883788564,0.09695331012558621,44.11764879391193,-96.25519929585457,76.200527287817
2024-09-23 17:43:31.166301,42.2,39.657646,-0.0029847020175114316,-0.02352945757203875,0.09725178296655933,44.11764879391193,-96.25519929585457,76.200527287817
2024-09-23 17:43:31.177962,42.2,39.657696,-0.0029847020175114316,-0.02352945757203875,0.09725178296655933,40.106058693909645,-92.24360919585227,76.200527287817
2024-09-23 17:43:31.221420,42.2,39.657696,-0.0031836870127375577,-0.02352945757203875,0.09720203344245934,36.09446859390736,-104.27510100388527,76.200527287817
2024-09-23 17:43:31.266588,42.2,39.657747,-0.0031339382481259063,-0.023579196463302005,0.09720203344245934,36.09446859390736,-104.27510100388527,76.200527287817
2024-09-23 17:43:31.278647,42.2,39.657747,-0.0031339382481259063,-0.023579196463302005,0.09720203344245934,36.09446859390736,-96.25519929585457,76.200527287817
2024-09-23 17:43:31.312282,42.2,39.657834,-0.0031339382481259063,-0.023579196463302005,0.09720203344245934,36.09446859390736,-96.25519929585457,76.200527287817
2024-09-23 17:43:31.323357,42.2,39.657834,-0.002636491424507565,-0.02367869399252531,0.09755024973162574,36.09446859390736,-96.25519929585457,76.200527287817
2024-09-23 17:43:31.365935,42.55,39.657886,-0.0034324103296106863,-0.0228827638849692,0.09755024973162574,36.09446859390736,-100.26678939585686,80.21211738781929
2024-09-23 17:43:31.377936,42.55,39.657886,-0.0034324103296106863,-0.0228827638849692,0.0973015264147526,36.09446859390736,-100.26678939585686,80.21211738781929
2024-09-23 17:43:31.409766,42.55,39.657886,-0.0034324103296106863,-0.0228827638849692,0.0973015264147526,40.106058693909645,-88.23529758782387,80.21211738781929
2024-09-23 17:43:31.421750,42.55,39.657936,-0.0027359787006383035,-0.02303200030545576,0.0973015264147526,40.106058693909645,-88.23529758782387,76.200527287817
2024-09-23 17:43:31.463944,42.55,39.657987,-0.0027359787006383035,-0.02303200030545576,0.0970030596496862,40.106058693909645,-96.25519929585457,76.200527287817
2024-09-23 17:43:31.476160,42.55,39.657987,-0.003233425524256645,-0.02303200030545576,0.0970030596496862,40.106058693909645,-96.25519929585457,76.200527287817
2024-09-23 17:43:31.508576,42.55,39.657987,-0.003233425524256645,-0.023330473146428877,0.09720203344245934,44.11764879391193,-96.25519929585457,76.200527287817
2024-09-23 17:43:31.520286,42.55,39.658078,-0.003233425524256645,-0.023330473146428877,0.09720203344245934,44.11764879391193,-100.26678939585686,76.200527287817
2024-09-23 17:43:31.563234,42.55,39.658078,-0.0028354659767690416,-0.023479709566915436,0.09705279702197278,48.12595698684454,-92.24360919585227,88.23529758782387
2024-09-23 17:43:31.605443,42.55,39.65813,-0.0029847020175114316,-0.02412639262114825,0.09705279702197278,48.12595698684454,-92.24360919585227,88.23529758782387
2024-09-23 17:43:31.617641,42.55,39.65813,-0.0029847020175114316,-0.02412639262114825,0.09690356060148622,48.12595698684454,-92.24360919585227,88.23529758782387
2024-09-23 17:43:31.660346,42.55,39.65818,-0.0030841997366068195,-0.022982261414192504,0.0976994861521123,44.11764879391193,-92.24360919585227,80.21211738781929
2024-09-23 17:43:31.702229,42.55,39.65818,-0.0030841997366068195,-0.022982261414192504,0.0976994861521123,44.11764879391193,-100.26678939585686,72.1922225099802
2024-09-23 17:43:31.713334,42.55,39.658231,-0.002785727465249955,-0.023181236725942318,0.0970030596496862,44.11764879391193,-100.26678939585686,72.1922225099802
2024-09-23 17:43:31.756553,42.55,39.658282,-0.002785727465249955,-0.023181236725942318,0.0970030596496862,36.09446859390736,-92.24360919585227,80.21211738781929
2024-09-23 17:43:31.798748,42.55,39.658282,-0.002636491424507565,-0.023181236725942318,0.0970030596496862,36.09446859390736,-92.24360919585227,80.21211738781929
2024-09-23 17:43:31.810729,42.55,39.658282,-0.002636491424507565,-0.02313149783467906,0.09745075675933246,36.09446859390736,-92.24360919585227,84.22370748782159
2024-09-23 17:43:31.853606,42.55,39.658332,-0.002437506429281439,-0.02303200030545576,0.09750050628343246,40.106058693909645,-92.24360919585227,84.22370748782159
2024-09-23 17:43:31.865848,42.55,39.658332,-0.002437506429281439,-0.02303200030545576,0.09750050628343246,40.106058693909645,-92.24360919585227,84.22370748782159
2024-09-23 17:43:31.898996,42.55,39.658419,-0.0020892956464054874,-0.02303200030545576,0.09750050628343246,40.106058693909645,-92.24360919585227,76.200527287817
2024-09-23 17:43:31.910493,42.55,39.658419,-0.0020892956464054874,-0.022833026512682618,0.09705279702197278,40.106058693909645,-92.24360919585227,76.200527287817
2024-09-23 17:43:31.953129,42.55,39.658471,-0.0029349636958644295,-0.023230986250042305,0.09710254654607277,40.106058693909645,-96.25519929585457,76.200527287817
2024-09-23 17:43:31.995504,42.55,39.658471,-0.0029349636958644295,-0.023230986250042305,0.09710254654607277,44.11764879391193,-92.24360919585227,72.1922225099802
2024-09-23 17:43:32.006997,42.55,39.658521,-0.0033329230534799477,-0.02367869399252531,0.09710254654607277,44.11764879391193,-92.24360919585227,72.1922225099802
2024-09-23 17:43:32.049091,42.55,39.658572,-0.002288270198666964,-0.02367869399252531,0.09685382322919964,40.106058693909645,-88.23529758782387,76.200527287817
2024-09-23 17:43:32.091729,42.55,39.658572,-0.002288270198666964,-0.023181236725942318,0.09705279702197278,40.106058693909645,-88.23529758782387,76.200527287817
2024-09-23 17:43:32.103151,42.55,39.658663,-0.002288270198666964,-0.023181236725942318,0.09705279702197278,44.11764879391193,-100.26678939585686,80.21211738781929
2024-09-23 17:43:32.146599,42.55,39.658663,-0.0030841997366068195,-0.023429960042815445,0.0973015264147526,28.07457030097246,-96.25519929585457,84.22370748782159
2024-09-23 17:43:32.189754,42.55,39.658714,-0.0029847020175114316,-0.023429960042815445,0.0973015264147526,28.07457030097246,-96.25519929585457,84.22370748782159
2024-09-23 17:43:32.201588,42.55,39.658714,-0.0029847020175114316,-0.02362894446842532,0.09675432418099966,40.106058693909645,-96.25519929585457,84.22370748782159
2024-09-23 17:43:32.243487,42.55,39.658765,-0.0031339382481259063,-0.023181236725942318,0.09695331012558621,40.106058693909645,-96.25519929585457,84.22370748782159
2024-09-23 17:43:32.255356,42.55,39.658765,-0.0031339382481259063,-0.023181236725942318,0.09695331012558621,48.12595698684454,-96.25519929585457,84.22370748782159
2024-09-23 17:43:32.287027,42.55,39.658765,-0.0031339382481259063,-0.023181236725942318,0.09695331012558621,48.12595698684454,-100.26678939585686,84.22370748782159
2024-09-23 17:43:32.298507,42.55,39.658816,-0.0027359787006383035,-0.02352945757203875,0.09715228999426605,48.12595698684454,-100.26678939585686,84.22370748782159
2024-09-23 17:43:32.341274,42.55,39.658866,-0.0031836870127375577,-0.023230986250042305,0.09715228999426605,40.106058693909645,-104.27510100388527,72.1922225099802
2024-09-23 17:43:32.384058,42.3,39.658866,-0.0031836870127375577,-0.023230986250042305,0.09645586349183995,40.106058693909645,-104.27510100388527,72.1922225099802
2024-09-23 17:43:32.395431,42.3,39.658917,-0.002437506429281439,-0.023230986250042305,0.09645586349183995,36.09446859390736,-96.25519929585457,72.1922225099802
2024-09-23 17:43:32.438343,42.3,39.658917,-0.002437506429281439,-0.02352945757203875,0.09645586349183995,36.09446859390736,-96.25519929585457,72.1922225099802
2024-09-23 17:43:32.481001,42.3,39.658917,-0.002437506429281439,-0.02352945757203875,0.09705279702197278,36.09446859390736,-96.25519929585457,72.1922225099802
2024-09-23 17:43:32.492903,42.3,39.659004,-0.0031339382481259063,-0.02352945757203875,0.09705279702197278,36.09446859390736,-92.24360919585227,80.21211738781929
2024-09-23 17:43:32.536083,42.3,39.659004,-0.0031339382481259063,-0.023778180888911878,0.0973512698629459,44.11764879391193,-104.27510100388527,64.16903547978401
2024-09-23 17:43:32.548239,42.3,39.659056,-0.0031339382481259063,-0.023778180888911878,0.0973512698629459,44.11764879391193,-104.27510100388527,64.16903547978401
2024-09-23 17:43:32.580949,42.3,39.659056,-0.0025369937054121774,-0.023330473146428877,0.09715228999426605,44.11764879391193,-104.27510100388527,64.16903547978401
2024-09-23 17:43:32.592115,42.3,39.659056,-0.0025369937054121774,-0.023330473146428877,0.09715228999426605,28.07457030097246,-100.26678939585686,72.1922225099802
2024-09-23 17:43:32.634481,42.3,39.659106,-0.0028852147413806935,-0.02313149783467906,0.09740101331113918,40.106058693909645,-96.25519929585457,72.1922225099802
2024-09-23 17:43:32.678160,42.3,39.659157,-0.0031339382481259063,-0.02313149783467906,0.09740101331113918,40.106058693909645,-96.25519929585457,76.200527287817
2024-09-23 17:43:32.690194,42.3,39.659157,-0.0031339382481259063,-0.02313149783467906,0.09715228999426605,48.12595698684454,-96.25519929585457,76.200527287817
2024-09-23 17:43:32.732971,42.3,39.65925,-0.0030344509719951677,-0.02338022115155219,0.09680407370509965,48.12595698684454,-96.25519929585457,76.200527287817
2024-09-23 17:43:32.775653,42.3,39.65925,-0.0030344509719951677,-0.02338022115155219,0.09680407370509965,32.08287849390507,-88.23529758782387,84.22370748782159
2024-09-23 17:43:32.787524,42.3,39.6593,-0.0031339382481259063,-0.023280723622328886,0.09680407370509965,32.08287849390507,-88.23529758782387,84.22370748782159
2024-09-23 17:43:32.832080,42.3,39.659351,-0.0030841997366068195,-0.023280723622328886,0.09725178296655933,48.12595698684454,-92.24360919585227,80.21211738781929
2024-09-23 17:43:32.874032,42.3,39.659351,-0.0030841997366068195,-0.02263404056809607,0.09675432418099966,48.12595698684454,-92.24360919585227,80.21211738781929
2024-09-23 17:43:32.885720,42.3,39.659443,-0.0030841997366068195,-0.02263404056809607,0.09675432418099966,48.12595698684454,-96.25519929585457,80.21211738781929
2024-09-23 17:43:32.918679,42.3,39.659443,-0.0028852147413806935,-0.02263404056809607,0.09675432418099966,48.12595698684454,-96.25519929585457,80.21211738781929
2024-09-23 17:43:32.931160,42.3,39.659443,-0.0028852147413806935,-0.0228827638849692,0.09720203344245934,36.09446859390736,-96.25519929585457,76.200527287817
2024-09-23 17:43:32.973402,42.3,39.659494,-0.003233425524256645,-0.023330473146428877,0.09764974270391902,36.09446859390736,-96.25519929585457,76.200527287817
2024-09-23 17:43:32.985218,42.3,39.659494,-0.003233425524256645,-0.023330473146428877,0.09764974270391902,36.09446859390736,-96.25519929585457,76.200527287817
2024-09-23 17:43:33.017109,42.3,39.659494,-0.003233425524256645,-0.023330473146428877,0.09764974270391902,36.09446859390736,-96.25519929585457,76.200527287817
2024-09-23 17:43:33.029144,42.3,39.659545,-0.003780631555451287,-0.023181236725942318,0.09725178296655933,36.09446859390736,-96.25519929585457,76.200527287817
2024-09-23 17:43:33.071957,42.3,39.659596,-0.003780631555451287,-0.023181236725942318,0.09725178296655933,36.09446859390736,-92.24360919585227,76.200527287817
2024-09-23 17:43:33.166590,42.3,39.659596,-0.002785727465249955,-0.023280723622328886,0.09690356060148622,36.09446859390736,-92.24360919585227,76.200527287817
2024-09-23 17:43:33.178165,42.3,39.659596,-0.002785727465249955,-0.023280723622328886,0.09690356060148622,36.09446859390736,-88.23529758782387,76.200527287817
2024-09-23 17:43:33.221465,42.3,39.659646,-0.0029349636958644295,-0.022982261414192504,0.09705279702197278,44.11764879391193,-92.24360919585227,76.200527287817
2024-09-23 17:43:33.264864,42.3,39.659697,-0.0029349636958644295,-0.022982261414192504,0.09705279702197278,44.11764879391193,-92.24360919585227,76.200527287817
2024-09-23 17:43:33.276297,42.3,39.659697,-0.0029349636958644295,-0.02362894446842532,0.09725178296655933,44.11764879391193,-92.24360919585227,76.200527287817
2024-09-23 17:43:33.308431,42.3,39.659697,-0.0029349636958644295,-0.02362894446842532,0.09725178296655933,44.11764879391193,-96.25519929585457,76.200527287817
2024-09-23 17:43:33.319407,42.3,39.659784,-0.003233425524256645,-0.02367869399252531,0.09715228999426605,44.11764879391193,-96.25519929585457,76.200527287817
2024-09-23 17:43:33.362470,42.3,39.659835,-0.003233425524256645,-0.02367869399252531,0.09715228999426605,48.12595698684454,-92.24360919585227,80.21211738781929
2024-09-23 17:43:33.373984,42.3,39.659835,-0.0029349636958644295,-0.023230986250042305,0.09715228999426605,48.12595698684454,-92.24360919585227,80.21211738781929
2024-09-23 17:43:33.406713,42.22,39.659835,-0.0029349636958644295,-0.023230986250042305,0.09690356060148622,48.12595698684454,-92.24360919585227,80.21211738781929
2024-09-23 17:43:33.418808,42.22,39.659933,-0.0035318979854855937,-0.023230986250042305,0.09690356060148622,36.09446859390736,-92.24360919585227,80.21211738781929
2024-09-23 17:43:33.462112,42.22,39.659933,-0.0035318979854855937,-0.023330473146428877,0.09759999317981902,44.11764879391193,-96.25519929585457,76.200527287817
2024-09-23 17:43:33.474826,42.22,39.660028,-0.0035318979854855937,-0.023330473146428877,0.09759999317981902,44.11764879391193,-96.25519929585457,76.200527287817
2024-09-23 17:43:33.506548,42.22,39.660028,-0.0031339382481259063,-0.023429960042815445,0.09720203344245934,44.11764879391193,-96.25519929585457,76.200527287817
2024-09-23 17:43:33.517779,42.22,39.660028,-0.0031339382481259063,-0.023429960042815445,0.09720203344245934,44.11764879391193,-92.24360919585227,76.200527287817
2024-09-23 17:43:33.560524,42.22,39.660079,-0.0028354659767690416,-0.022733528983459317,0.09690356060148622,36.09446859390736,-96.25519929585457,76.200527287817
2024-09-23 17:43:33.603504,42.22,39.66013,-0.0028354659767690416,-0.022733528983459317,0.09690356060148622,36.09446859390736,-96.25519929585457,80.21211738781929
2024-09-23 17:43:33.615345,42.22,39.66013,-0.003233425524256645,-0.023778180888911878,0.09690356060148622,44.11764879391193,-96.25519929585457,80.21211738781929
2024-09-23 17:43:33.658706,42.22,39.660181,-0.003780631555451287,-0.02313149783467906,0.09690356060148622,44.11764879391193,-96.25519929585457,76.200527287817
2024-09-23 17:43:33.671222,42.22,39.660181,-0.003780631555451287,-0.02313149783467906,0.09685382322919964,44.11764879391193,-96.25519929585457,76.200527287817
2024-09-23 17:43:33.703743,42.22,39.660231,-0.003780631555451287,-0.02313149783467906,0.09685382322919964,32.08287849390507,-92.24360919585227,76.200527287817
2024-09-23 17:43:33.715399,42.22,39.660231,-0.0026862297461545674,-0.02313149783467906,0.09685382322919964,32.08287849390507,-92.24360919585227,76.200527287817
2024-09-23 17:43:33.747185,42.22,39.660231,-0.0026862297461545674,-0.023230986250042305,0.09685382322919964,32.08287849390507,-92.24360919585227,76.200527287817
2024-09-23 17:43:33.759986,42.22,39.660282,-0.0026862297461545674,-0.023230986250042305,0.09705279702197278,40.106058693909645,-96.25519929585457,80.21211738781929
2024-09-23 17:43:33.802742,42.22,39.660282,-0.0030841997366068195,-0.023479709566915436,0.0970030596496862,32.08287849390507,-96.25519929585457,80.21211738781929
2024-09-23 17:43:33.814442,42.22,39.660282,-0.0030841997366068195,-0.023479709566915436,0.0970030596496862,32.08287849390507,-96.25519929585457,72.1922225099802
2024-09-23 17:43:33.846644,42.22,39.660369,-0.0030841997366068195,-0.023479709566915436,0.0970030596496862,32.08287849390507,-96.25519929585457,72.1922225099802
2024-09-23 17:43:33.858055,42.22,39.660369,-0.0030841997366068195,-0.023479709566915436,0.09705279702197278,40.106058693909645,-96.25519929585457,72.1922225099802
2024-09-23 17:43:33.899914,42.22,39.660421,-0.0027359787006383035,-0.02313149783467906,0.09690356060148622,40.106058693909645,-96.25519929585457,76.200527287817
2024-09-23 17:43:33.912129,42.22,39.660421,-0.0027359787006383035,-0.02313149783467906,0.09690356060148622,40.106058693909645,-96.25519929585457,76.200527287817
2024-09-23 17:43:33.944547,42.22,39.660421,-0.0027359787006383035,-0.02313149783467906,0.09690356060148622,40.106058693909645,-100.26678939585686,80.21211738781929
2024-09-23 17:43:33.955861,42.22,39.660471,-0.0031339382481259063,-0.023728432883788564,0.0973015264147526,40.106058693909645,-100.26678939585686,80.21211738781929
2024-09-23 17:43:33.998574,42.22,39.660522,-0.0028354659767690416,-0.023728432883788564,0.0973015264147526,36.09446859390736,-104.27510100388527,76.200527287817
2024-09-23 17:43:34.010340,42.22,39.660522,-0.0028354659767690416,-0.02293251340906919,0.0973015264147526,36.09446859390736,-104.27510100388527,76.200527287817
2024-09-23 17:43:34.043809,42.22,39.660522,-0.0028354659767690416,-0.02293251340906919,0.0970030596496862,48.12595698684454,-96.25519929585457,76.200527287817
2024-09-23 17:43:34.055278,42.22,39.660573,-0.0027359787006383035,-0.02293251340906919,0.0970030596496862,48.12595698684454,-96.25519929585457,80.21211738781929
2024-09-23 17:43:34.098373,42.22,39.660662,-0.0027359787006383035,-0.02303200030545576,0.09745075675933246,40.106058693909645,-96.25519929585457,76.200527287817
2024-09-23 17:43:34.141444,42.22,39.660662,-0.003233425524256645,-0.023280723622328886,0.0970030596496862,40.106058693909645,-96.25519929585457,76.200527287817
2024-09-23 17:43:34.153734,42.22,39.660662,-0.003233425524256645,-0.023280723622328886,0.0970030596496862,48.12595698684454,-96.25519929585457,68.18063240997792
2024-09-23 17:43:34.186479,42.22,39.660713,-0.003233425524256645,-0.023280723622328886,0.0970030596496862,48.12595698684454,-96.25519929585457,68.18063240997792
2024-09-23 17:43:34.197641,42.22,39.660713,-0.0025369937054121774,-0.023181236725942318,0.09745075675933246,44.11764879391193,-100.26678939585686,68.18063240997792
2024-09-23 17:43:34.239553,42.22,39.660764,-0.0026862297461545674,-0.02338022115155219,0.09745075675933246,44.11764879391193,-100.26678939585686,76.200527287817
2024-09-23 17:43:34.250911,42.22,39.660764,-0.0026862297461545674,-0.02338022115155219,0.0973015264147526,40.106058693909645,-100.26678939585686,76.200527287817
2024-09-23 17:43:34.293819,42.22,39.660815,-0.0030841997366068195,-0.02293251340906919,0.09675432418099966,40.106058693909645,-100.26678939585686,76.200527287817
2024-09-23 17:43:34.336428,42.22,39.660815,-0.0030841997366068195,-0.02293251340906919,0.09675432418099966,40.106058693909645,-96.25519929585457,72.1922225099802
2024-09-23 17:43:34.347596,42.22,39.660865,-0.0031339382481259063,-0.022833026512682618,0.09675432418099966,40.106058693909645,-96.25519929585457,72.1922225099802
2024-09-23 17:43:34.390288,42.22,39.660916,-0.0031339382481259063,-0.022833026512682618,0.0973015264147526,40.106058693909645,-96.25519929585457,76.200527287817
2024-09-23 17:43:34.402550,42.22,39.660916,-0.0034324103296106863,-0.022833026512682618,0.0973015264147526,40.106058693909645,-96.25519929585457,76.200527287817
2024-09-23 17:43:34.434706,42.77,39.660916,-0.0034324103296106863,-0.02313149783467906,0.0973512698629459,44.11764879391193,-96.25519929585457,76.200527287817
2024-09-23 17:43:34.446675,42.77,39.661003,-0.0034324103296106863,-0.02313149783467906,0.0973512698629459,44.11764879391193,-88.23529758782387,72.1922225099802
2024-09-23 17:43:34.478806,42.77,39.661003,-0.002636491424507565,-0.02313149783467906,0.0973512698629459,44.11764879391193,-88.23529758782387,72.1922225099802
2024-09-23 17:43:34.489923,42.77,39.661003,-0.002636491424507565,-0.02303200030545576,0.09740101331113918,44.11764879391193,-92.24360919585227,76.200527287817
2024-09-23 17:43:34.533151,42.77,39.661054,-0.0029349636958644295,-0.023230986250042305,0.09755024973162574,44.11764879391193,-92.24360919585227,76.200527287817
2024-09-23 17:43:34.545439,42.77,39.661054,-0.0029349636958644295,-0.023230986250042305,0.09755024973162574,36.09446859390736,-92.24360919585227,76.200527287817
2024-09-23 17:43:34.579246,42.77,39.661105,-0.0029349636958644295,-0.023230986250042305,0.09755024973162574,36.09446859390736,-92.24360919585227,72.1922225099802
2024-09-23 17:43:34.590453,42.77,39.661105,-0.0030344509719951677,-0.023479709566915436,0.09710254654607277,32.08287849390507,-92.24360919585227,72.1922225099802
2024-09-23 17:43:34.632647,42.77,39.661156,-0.003233425524256645,-0.02338022115155219,0.09710254654607277,32.08287849390507,-92.24360919585227,76.200527287817
2024-09-23 17:43:34.644472,42.77,39.661156,-0.003233425524256645,-0.02338022115155219,0.09695331012558621,32.08287849390507,-92.24360919585227,76.200527287817
2024-09-23 17:43:34.676805,42.77,39.661156,-0.003233425524256645,-0.02338022115155219,0.09695331012558621,40.106058693909645,-96.25519929585457,76.200527287817
2024-09-23 17:43:34.687972,42.77,39.661206,-0.0027359787006383035,-0.023181236725942318,0.09695331012558621,40.106058693909645,-96.25519929585457,76.200527287817
2024-09-23 17:43:34.730392,42.77,39.661257,-0.0030344509719951677,-0.023181236725942318,0.09685382322919964,40.106058693909645,-96.25519929585457,76.200527287817
2024-09-23 17:43:34.772743,42.77,39.661257,-0.0030344509719951677,-0.023280723622328886,0.09695331012558621,40.106058693909645,-96.25519929585457,76.200527287817
2024-09-23 17:43:34.784332,42.77,39.661344,-0.0030344509719951677,-0.023280723622328886,0.09695331012558621,36.09446859390736,-100.26678939585686,80.21211738781929
2024-09-23 17:43:34.826745,42.77,39.661344,-0.0029349636958644295,-0.023181236725942318,0.09750050628343246,36.09446859390736,-92.24360919585227,80.21211738781929
2024-09-23 17:43:34.838744,42.77,39.661344,-0.0029349636958644295,-0.023181236725942318,0.09750050628343246,36.09446859390736,-92.24360919585227,76.200527287817
2024-09-23 17:43:34.870805,42.77,39.661396,-0.0025369937054121774,-0.023181236725942318,0.09750050628343246,36.09446859390736,-92.24360919585227,76.200527287817
2024-09-23 17:43:34.881819,42.77,39.661396,-0.0025369937054121774,-0.023230986250042305,0.09665483728461309,36.09446859390736,-104.27510100388527,76.200527287817
2024-09-23 17:43:34.924696,42.77,39.661446,-0.0030344509719951677,-0.02367869399252531,0.09715228999426605,36.09446859390736,-104.27510100388527,68.18063240997792
2024-09-23 17:43:34.936548,42.77,39.661446,-0.0030344509719951677,-0.02367869399252531,0.09715228999426605,40.106058693909645,-104.27510100388527,68.18063240997792
2024-09-23 17:43:34.969463,42.77,39.661497,-0.0030344509719951677,-0.02367869399252531,0.09715228999426605,40.106058693909645,-92.24360919585227,76.200527287817
2024-09-23 17:43:34.980655,42.77,39.661497,-0.002586742470023829,-0.02313149783467906,0.09680407370509965,40.106058693909645,-92.24360919585227,76.200527287817
2024-09-23 17:43:35.022653,42.77,39.661548,-0.0033329230534799477,-0.02293251340906919,0.09680407370509965,48.12595698684454,-88.23529758782387,76.200527287817
2024-09-23 17:43:35.065946,42.77,39.661548,-0.0033329230534799477,-0.02293251340906919,0.0976994861521123,48.12595698684454,-88.23529758782387,76.200527287817
2024-09-23 17:43:35.076991,42.77,39.661598,-0.0033329230534799477,-0.02293251340906919,0.0976994861521123,36.09446859390736,-96.25519929585457,80.21211738781929
2024-09-23 17:43:35.119174,42.77,39.661598,-0.0033329230534799477,-0.023230986250042305,0.09755024973162574,52.137550501942634,-100.26678939585686,80.21211738781929
2024-09-23 17:43:35.130711,42.77,39.661685,-0.0033329230534799477,-0.023230986250042305,0.09755024973162574,52.137550501942634,-100.26678939585686,72.1922225099802
2024-09-23 17:43:35.163888,42.77,39.661685,-0.0028354659767690416,-0.023429960042815445,0.09755024973162574,52.137550501942634,-100.26678939585686,72.1922225099802
2024-09-23 17:43:35.175694,42.77,39.661685,-0.0028354659767690416,-0.023429960042815445,0.09710254654607277,40.106058693909645,-92.24360919585227,72.1922225099802
2024-09-23 17:43:35.218180,42.77,39.661737,-0.003382661564999035,-0.023429960042815445,0.09695331012558621,40.106058693909645,-92.24360919585227,72.1922225099802
2024-09-23 17:43:35.260419,42.77,39.661788,-0.003382661564999035,-0.023429960042815445,0.09695331012558621,40.106058693909645,-92.24360919585227,72.1922225099802
2024-09-23 17:43:35.271950,42.77,39.661788,-0.003482159473966507,-0.023230986250042305,0.0973015264147526,40.106058693909645,-92.24360919585227,72.1922225099802
2024-09-23 17:43:35.314718,42.77,39.661838,-0.0027359787006383035,-0.023429960042815445,0.0973015264147526,40.106058693909645,-96.25519929585457,80.21211738781929
2024-09-23 17:43:35.326445,42.77,39.661838,-0.0027359787006383035,-0.023429960042815445,0.09715228999426605,40.106058693909645,-96.25519929585457,80.21211738781929
2024-09-23 17:43:35.358494,42.77,39.661838,-0.0027359787006383035,-0.023429960042815445,0.09715228999426605,40.106058693909645,-96.25519929585457,80.21211738781929
2024-09-23 17:43:35.369640,42.77,39.661889,-0.0029847020175114316,-0.023429960042815445,0.09715228999426605,40.106058693909645,-96.25519929585457,80.21211738781929
2024-09-23 17:43:35.412150,42.77,39.66194,-0.0029847020175114316,-0.023429960042815445,0.0970030596496862,44.11764879391193,-96.25519929585457,76.200527287817
2024-09-23 17:43:35.424193,42.77,39.66194,-0.0031836870127375577,-0.023429960042815445,0.0970030596496862,44.11764879391193,-96.25519929585457,76.200527287817
2024-09-23 17:43:35.456415,43.16,39.66194,-0.0031836870127375577,-0.023230986250042305,0.0970030596496862,40.106058693909645,-96.25519929585457,76.200527287817
2024-09-23 17:43:35.467545,43.16,39.662027,-0.0031836870127375577,-0.023230986250042305,0.0970030596496862,40.106058693909645,-100.26678939585686,80.21211738781929
2024-09-23 17:43:35.510458,43.16,39.662027,-0.0033329230534799477,-0.02338022115155219,0.09710254654607277,32.08287849390507,-96.25519929585457,80.21211738781929
2024-09-23 17:43:35.553464,43.16,39.662078,-0.0030841997366068195,-0.02338022115155219,0.09710254654607277,32.08287849390507,-96.25519929585457,80.21211738781929
2024-09-23 17:43:35.565438,43.16,39.662078,-0.0030841997366068195,-0.023579196463302005,0.09779897304849887,36.09446859390736,-92.24360919585227,80.21211738781929
2024-09-23 17:43:35.607798,43.16,39.662129,-0.003233425524256645,-0.023479709566915436,0.09695331012558621,36.09446859390736,-92.24360919585227,80.21211738781929
2024-09-23 17:43:35.619529,43.16,39.662129,-0.003233425524256645,-0.023479709566915436,0.09695331012558621,40.106058693909645,-92.24360919585227,80.21211738781929
2024-09-23 17:43:35.652422,43.16,39.66218,-0.003233425524256645,-0.023479709566915436,0.09695331012558621,40.106058693909645,-96.25519929585457,80.21211738781929
2024-09-23 17:43:35.663804,43.16,39.66218,-0.0028852147413806935,-0.023181236725942318,0.0970030596496862,40.106058693909645,-96.25519929585457,80.21211738781929
2024-09-23 17:43:35.706403,43.16,39.66223,-0.0030344509719951677,-0.023429960042815445,0.0970030596496862,44.11764879391193,-100.26678939585686,76.200527287817
2024-09-23 17:43:35.748352,43.16,39.66223,-0.0030344509719951677,-0.023429960042815445,0.09725178296655933,36.09446859390736,-100.26678939585686,76.200527287817
2024-09-23 17:43:35.760699,43.16,39.662281,-0.0029847020175114316,-0.023429960042815445,0.09725178296655933,36.09446859390736,-100.26678939585686,76.200527287817
2024-09-23 17:43:35.803903,43.16,39.662368,-0.0029847020175114316,-0.02338022115155219,0.09764974270391902,56.14914060194492,-88.23529758782387,72.1922225099802
2024-09-23 17:43:35.897215,43.16,39.662368,-0.0034324103296106863,-0.02352945757203875,0.0970030596496862,48.12595698684454,-88.23529758782387,72.1922225099802
2024-09-23 17:43:35.908817,43.16,39.662368,-0.0034324103296106863,-0.02352945757203875,0.0970030596496862,48.12595698684454,-100.26678939585686,68.18063240997792
2024-09-23 17:43:35.940787,43.16,39.66242,-0.0034324103296106863,-0.02352945757203875,0.0970030596496862,48.12595698684454,-100.26678939585686,68.18063240997792
2024-09-23 17:43:35.952554,43.16,39.66242,-0.0031339382481259063,-0.02362894446842532,0.09705279702197278,40.106058693909645,-92.24360919585227,68.18063240997792
2024-09-23 17:43:35.995136,43.16,39.662471,-0.0028852147413806935,-0.02362894446842532,0.09705279702197278,40.106058693909645,-92.24360919585227,76.200527287817
2024-09-23 17:43:36.006753,43.16,39.662471,-0.0028852147413806935,-0.02352945757203875,0.09675432418099966,44.11764879391193,-92.24360919585227,76.200527287817
2024-09-23 17:43:36.038942,43.16,39.662471,-0.0028852147413806935,-0.02352945757203875,0.09675432418099966,44.11764879391193,-92.24360919585227,76.200527287817
2024-09-23 17:43:36.051624,43.16,39.662521,-0.0035816467500972456,-0.023181236725942318,0.09750050628343246,44.11764879391193,-92.24360919585227,72.1922225099802
2024-09-23 17:43:36.093269,43.16,39.662572,-0.0029847020175114316,-0.023181236725942318,0.09750050628343246,36.09446859390736,-96.25519929585457,80.21211738781929
2024-09-23 17:43:36.135644,43.16,39.662572,-0.0029847020175114316,-0.022982261414192504,0.09750050628343246,36.09446859390736,-96.25519929585457,80.21211738781929
2024-09-23 17:43:36.190261,43.16,39.662572,-0.0029847020175114316,-0.022982261414192504,0.09680407370509965,40.106058693909645,-92.24360919585227,80.21211738781929
2024-09-23 17:43:36.201390,43.16,39.662663,-0.003382661564999035,-0.022982261414192504,0.09680407370509965,40.106058693909645,-92.24360919585227,76.200527287817
2024-09-23 17:43:36.233703,43.16,39.662663,-0.003382661564999035,-0.02303200030545576,0.09680407370509965,40.106058693909645,-92.24360919585227,76.200527287817
2024-09-23 17:43:36.244919,43.16,39.662758,-0.003382661564999035,-0.02303200030545576,0.09690356060148622,40.106058693909645,-92.24360919585227,76.200527287817
2024-09-23 17:43:36.288451,43.16,39.662758,-0.0032831742888682963,-0.023330473146428877,0.09670458680871308,36.09446859390736,-92.24360919585227,76.200527287817
2024-09-23 17:43:36.301358,43.16,39.662758,-0.0032831742888682963,-0.023330473146428877,0.09670458680871308,36.09446859390736,-92.24360919585227,76.200527287817
2024-09-23 17:43:36.334136,43.16,39.662809,-0.0023380189632786156,-0.023330473146428877,0.09670458680871308,36.09446859390736,-92.24360919585227,76.200527287817
2024-09-23 17:43:36.345969,43.16,39.662809,-0.0023380189632786156,-0.023429960042815445,0.09740101331113918,36.09446859390736,-92.24360919585227,76.200527287817
2024-09-23 17:43:36.388978,43.16,39.66286,-0.0034324103296106863,-0.02362894446842532,0.09675432418099966,40.106058693909645,-92.24360919585227,72.1922225099802
2024-09-23 17:43:36.432155,43.16,39.662955,-0.0034324103296106863,-0.02362894446842532,0.09675432418099966,40.106058693909645,-100.26678939585686,76.200527287817
2024-09-23 17:43:36.443850,43.16,39.662955,-0.0030841997366068195,-0.023429960042815445,0.09740101331113918,40.106058693909645,-100.26678939585686,76.200527287817
2024-09-23 17:43:36.487331,42.68,39.663005,-0.003382661564999035,-0.02367869399252531,0.09740101331113918,36.09446859390736,-96.25519929585457,76.200527287817
2024-09-23 17:43:36.530940,42.68,39.663005,-0.003382661564999035,-0.02367869399252531,0.09690356060148622,40.106058693909645,-92.24360919585227,76.200527287817
2024-09-23 17:43:36.542854,42.68,39.663056,-0.0031836870127375577,-0.02367869399252531,0.09690356060148622,40.106058693909645,-92.24360919585227,76.200527287817
2024-09-23 17:43:36.574772,42.68,39.663056,-0.0031836870127375577,-0.023728432883788564,0.09690356060148622,40.106058693909645,-92.24360919585227,76.200527287817
2024-09-23 17:43:36.587177,42.68,39.663148,-0.0031836870127375577,-0.023728432883788564,0.09685382322919964,40.106058693909645,-96.25519929585457,72.1922225099802
2024-09-23 17:43:36.628855,42.68,39.663148,-0.003233425524256645,-0.02338022115155219,0.09685382322919964,40.106058693909645,-96.25519929585457,72.1922225099802
2024-09-23 17:43:36.682241,42.68,39.663199,-0.003780631555451287,-0.02338022115155219,0.09670458680871308,36.09446859390736,-96.25519929585457,76.200527287817
2024-09-23 17:43:36.724960,42.68,39.663199,-0.003780631555451287,-0.023579196463302005,0.0973015264147526,36.09446859390736,-96.25519929585457,76.200527287817
2024-09-23 17:43:36.777109,42.68,39.66325,-0.0030344509719951677,-0.023579196463302005,0.0973015264147526,44.11764879391193,-96.25519929585457,76.200527287817
2024-09-23 17:43:36.789386,42.68,39.66325,-0.0030344509719951677,-0.023181236725942318,0.0973015264147526,44.11764879391193,-96.25519929585457,76.200527287817
2024-09-23 17:43:36.822352,42.68,39.66325,-0.0030344509719951677,-0.023181236725942318,0.09705279702197278,40.106058693909645,-96.25519929585457,76.200527287817
2024-09-23 17:43:36.833850,42.68,39.663301,-0.0030841997366068195,-0.023181236725942318,0.09705279702197278,40.106058693909645,-96.25519929585457,76.200527287817
2024-09-23 17:43:36.876134,42.68,39.663351,-0.0030841997366068195,-0.02352945757203875,0.0973015264147526,44.11764879391193,-92.24360919585227,80.21211738781929
2024-09-23 17:43:36.918201,42.68,39.663351,-0.002785727465249955,-0.022982261414192504,0.0973015264147526,44.11764879391193,-92.24360919585227,80.21211738781929
2024-09-23 17:43:36.929956,42.68,39.663351,-0.002785727465249955,-0.022982261414192504,0.09675432418099966,44.11764879391193,-96.25519929585457,76.200527287817
2024-09-23 17:43:36.972972,42.68,39.663442,-0.0031339382481259063,-0.023330473146428877,0.09705279702197278,40.106058693909645,-96.25519929585457,76.200527287817
2024-09-23 17:43:37.015345,42.68,39.663539,-0.0031339382481259063,-0.023330473146428877,0.09705279702197278,40.106058693909645,-96.25519929585457,76.200527287817
2024-09-23 17:43:37.026763,42.68,39.663539,-0.0028852147413806935,-0.023479709566915436,0.09715228999426605,44.11764879391193,-96.25519929585457,76.200527287817
2024-09-23 17:43:37.070460,42.68,39.66359,-0.0027359787006383035,-0.023429960042815445,0.09705279702197278,44.11764879391193,-100.26678939585686,76.200527287817
2024-09-23 17:43:37.113403,42.68,39.66359,-0.0027359787006383035,-0.023429960042815445,0.09705279702197278,32.08287849390507,-92.24360919585227,76.200527287817
2024-09-23 17:43:37.124469,42.68,39.663641,-0.0030841997366068195,-0.02308174982955575,0.09705279702197278,32.08287849390507,-92.24360919585227,80.21211738781929
2024-09-23 17:43:37.167120,42.68,39.663692,-0.0030841997366068195,-0.02308174982955575,0.0973015264147526,28.07457030097246,-96.25519929585457,84.22370748782159
2024-09-23 17:43:37.179181,42.68,39.663692,-0.0029847020175114316,-0.02308174982955575,0.0973015264147526,28.07457030097246,-96.25519929585457,84.22370748782159
2024-09-23 17:43:37.212408,42.68,39.663692,-0.0029847020175114316,-0.02303200030545576,0.0970030596496862,48.12595698684454,-96.25519929585457,84.22370748782159
2024-09-23 17:43:37.224028,42.68,39.663782,-0.0029847020175114316,-0.02303200030545576,0.0970030596496862,48.12595698684454,-96.25519929585457,76.200527287817
2024-09-23 17:43:37.266678,42.68,39.663782,-0.0030344509719951677,-0.02313149783467906,0.09725178296655933,44.11764879391193,-96.25519929585457,80.21211738781929
2024-09-23 17:43:37.309737,42.68,39.663833,-0.0030841997366068195,-0.02303200030545576,0.09725178296655933,44.11764879391193,-96.25519929585457,80.21211738781929
2024-09-23 17:43:37.321406,42.68,39.663833,-0.0030841997366068195,-0.02303200030545576,0.09680407370509965,36.09446859390736,-96.25519929585457,80.21211738781929
2024-09-23 17:43:37.363962,42.68,39.663884,-0.0030344509719951677,-0.02313149783467906,0.09715228999426605,40.106058693909645,-96.25519929585457,76.200527287817
2024-09-23 17:43:37.407305,42.68,39.663935,-0.0030344509719951677,-0.02313149783467906,0.09715228999426605,40.106058693909645,-92.24360919585227,80.21211738781929
2024-09-23 17:43:37.418689,42.68,39.663935,-0.0028354659767690416,-0.023728432883788564,0.09670458680871308,40.106058693909645,-92.24360919585227,80.21211738781929
2024-09-23 17:43:37.462020,42.68,39.663985,-0.0029847020175114316,-0.0228827638849692,0.09670458680871308,36.09446859390736,-92.24360919585227,76.200527287817
2024-09-23 17:43:37.505725,42.67,39.663985,-0.0029847020175114316,-0.0228827638849692,0.09690356060148622,40.106058693909645,-88.23529758782387,76.200527287817
2024-09-23 17:43:37.517175,42.67,39.664036,-0.0031836870127375577,-0.0228827638849692,0.09690356060148622,40.106058693909645,-88.23529758782387,84.22370748782159
2024-09-23 17:43:37.550676,42.67,39.664036,-0.0031836870127375577,-0.02303200030545576,0.09690356060148622,40.106058693909645,-88.23529758782387,84.22370748782159
2024-09-23 17:43:37.561815,42.67,39.664123,-0.0031836870127375577,-0.02303200030545576,0.0970030596496862,40.106058693909645,-100.26678939585686,72.1922225099802
2024-09-23 17:43:37.604795,42.67,39.664123,-0.0030841997366068195,-0.02278327698858263,0.0970030596496862,48.12595698684454,-100.26678939585686,72.1922225099802
2024-09-23 17:43:37.616597,42.67,39.664123,-0.0030841997366068195,-0.02278327698858263,0.0970030596496862,48.12595698684454,-100.26678939585686,72.1922225099802
2024-09-23 17:43:37.648510,42.67,39.664174,-0.0030841997366068195,-0.02278327698858263,0.0970030596496862,48.12595698684454,-100.26678939585686,72.1922225099802
2024-09-23 17:43:37.659649,42.67,39.664174,-0.0030841997366068195,-0.023181236725942318,0.09690356060148622,44.11764879391193,-92.24360919585227,72.1922225099802
2024-09-23 17:43:37.703027,42.67,39.664225,-0.0031836870127375577,-0.02338022115155219,0.09759999317981902,44.11764879391193,-92.24360919585227,76.200527287817
2024-09-23 17:43:37.714788,42.67,39.664225,-0.0031836870127375577,-0.02338022115155219,0.09759999317981902,40.106058693909645,-92.24360919585227,76.200527287817
2024-09-23 17:43:37.747196,42.67,39.664225,-0.0031836870127375577,-0.02338022115155219,0.09759999317981902,40.106058693909645,-88.23529758782387,76.200527287817
2024-09-23 17:43:37.758258,42.67,39.664276,-0.003233425524256645,-0.02303200030545576,0.09665483728461309,40.106058693909645,-88.23529758782387,76.200527287817
2024-09-23 17:43:37.852633,42.67,39.664326,-0.0029349636958644295,-0.023280723622328886,0.09665483728461309,36.09446859390736,-92.24360919585227,80.21211738781929
2024-09-23 17:43:37.894993,42.67,39.664326,-0.0029349636958644295,-0.023280723622328886,0.09695331012558621,44.11764879391193,-100.26678939585686,80.21211738781929
2024-09-23 17:43:37.906463,42.67,39.664377,-0.0028354659767690416,-0.023280723622328886,0.09695331012558621,44.11764879391193,-100.26678939585686,72.1922225099802
2024-09-23 17:43:37.949056,42.67,39.664464,-0.0028354659767690416,-0.024026904205785005,0.09764974270391902,48.12595698684454,-96.25519929585457,76.200527287817
2024-09-23 17:43:37.992368,42.67,39.664464,-0.0025369937054121774,-0.023181236725942318,0.09680407370509965,48.12595698684454,-96.25519929585457,76.200527287817
2024-09-23 17:43:38.003927,42.67,39.664464,-0.0025369937054121774,-0.023181236725942318,0.09680407370509965,44.11764879391193,-100.26678939585686,76.200527287817
2024-09-23 17:43:38.046704,42.67,39.664516,-0.0035816467500972456,-0.023579196463302005,0.09720203344245934,40.106058693909645,-92.24360919585227,76.200527287817
2024-09-23 17:43:38.089668,42.67,39.664612,-0.002785727465249955,-0.023579196463302005,0.09720203344245934,40.106058693909645,-92.24360919585227,72.1922225099802
2024-09-23 17:43:38.101365,42.67,39.664612,-0.002785727465249955,-0.02338022115155219,0.09650560086412653,44.11764879391193,-92.24360919585227,72.1922225099802
2024-09-23 17:43:38.145203,42.67,39.664663,-0.002785727465249955,-0.02352945757203875,0.09750050628343246,44.11764879391193,-92.24360919585227,76.200527287817
2024-09-23 17:43:38.187548,42.67,39.664663,-0.002785727465249955,-0.02352945757203875,0.09750050628343246,40.106058693909645,-92.24360919585227,76.200527287817
2024-09-23 17:43:38.198836,42.67,39.664713,-0.0030344509719951677,-0.023280723622328886,0.09750050628343246,40.106058693909645,-92.24360919585227,76.200527287817
2024-09-23 17:43:38.241456,42.67,39.664764,-0.0031339382481259063,-0.023280723622328886,0.09665483728461309,36.09446859390736,-96.25519929585457,80.21211738781929
2024-09-23 17:43:38.284702,42.67,39.664764,-0.0031339382481259063,-0.02313149783467906,0.0970030596496862,40.106058693909645,-96.25519929585457,80.21211738781929
2024-09-23 17:43:38.296290,42.67,39.664854,-0.0031339382481259063,-0.02313149783467906,0.0970030596496862,40.106058693909645,-92.24360919585227,76.200527287817
2024-09-23 17:43:38.339058,42.67,39.664854,-0.0031339382481259063,-0.02303200030545576,0.09710254654607277,40.106058693909645,-96.25519929585457,80.21211738781929
2024-09-23 17:43:38.381090,42.67,39.664906,-0.0028852147413806935,-0.02303200030545576,0.09710254654607277,40.106058693909645,-96.25519929585457,80.21211738781929
2024-09-23 17:43:38.392802,42.67,39.664906,-0.0028852147413806935,-0.02338022115155219,0.09720203344245934,36.09446859390736,-96.25519929585457,80.21211738781929
2024-09-23 17:43:38.435215,42.67,39.664956,-0.0029349636958644295,-0.023429960042815445,0.0970030596496862,36.09446859390736,-96.25519929585457,80.21211738781929
2024-09-23 17:43:38.446959,42.67,39.664956,-0.0029349636958644295,-0.023429960042815445,0.0970030596496862,28.07457030097246,-96.25519929585457,80.21211738781929
2024-09-23 17:43:38.479281,42.67,39.665007,-0.0029349636958644295,-0.023429960042815445,0.0970030596496862,28.07457030097246,-100.26678939585686,84.22370748782159
2024-09-23 17:43:38.490400,42.67,39.665007,-0.0028354659767690416,-0.023181236725942318,0.09759999317981902,28.07457030097246,-100.26678939585686,84.22370748782159
2024-09-23 17:43:38.532905,42.49,39.665058,-0.0029847020175114316,-0.02308174982955575,0.09759999317981902,36.09446859390736,-100.26678939585686,76.200527287817
2024-09-23 17:43:38.575495,42.49,39.665058,-0.0029847020175114316,-0.02308174982955575,0.09675432418099966,36.09446859390736,-100.26678939585686,76.200527287817
2024-09-23 17:43:38.586804,42.49,39.665108,-0.0030344509719951677,-0.02308174982955575,0.09675432418099966,40.106058693909645,-88.23529758782387,76.200527287817
2024-09-23 17:43:38.628833,42.49,39.665108,-0.0030344509719951677,-0.02338022115155219,0.09710254654607277,32.08287849390507,-96.25519929585457,80.21211738781929
2024-09-23 17:43:38.641004,42.49,39.665195,-0.0030344509719951677,-0.02338022115155219,0.09710254654607277,32.08287849390507,-96.25519929585457,80.21211738781929
2024-09-23 17:43:38.673353,42.49,39.665195,-0.002636491424507565,-0.02308174982955575,0.09710254654607277,32.08287849390507,-96.25519929585457,80.21211738781929
2024-09-23 17:43:38.685403,42.49,39.665195,-0.002636491424507565,-0.02308174982955575,0.09759999317981902,36.09446859390736,-100.26678939585686,76.200527287817
2024-09-23 17:43:38.728736,42.49,39.665247,-0.0030841997366068195,-0.02352945757203875,0.09690356060148622,40.106058693909645,-104.27510100388527,76.200527287817
2024-09-23 17:43:38.772143,42.49,39.665298,-0.0027359787006383035,-0.02352945757203875,0.09690356060148622,40.106058693909645,-104.27510100388527,72.1922225099802
2024-09-23 17:43:38.784273,42.49,39.665298,-0.0027359787006383035,-0.022982261414192504,0.09705279702197278,40.106058693909645,-104.27510100388527,72.1922225099802
2024-09-23 17:43:38.826743,42.49,39.665349,-0.0029349636958644295,-0.02313149783467906,0.0970030596496862,40.106058693909645,-104.27510100388527,76.200527287817
2024-09-23 17:43:38.870016,42.49,39.665349,-0.0029349636958644295,-0.02313149783467906,0.0970030596496862,40.106058693909645,-96.25519929585457,80.21211738781929
2024-09-23 17:43:38.881466,42.49,39.665399,-0.0030841997366068195,-0.02308174982955575,0.0970030596496862,40.106058693909645,-96.25519929585457,80.21211738781929
2024-09-23 17:43:38.925139,42.49,39.66545,-0.0029349636958644295,-0.02308174982955575,0.0973512698629459,44.11764879391193,-92.24360919585227,76.200527287817
2024-09-23 17:43:38.967114,42.49,39.66545,-0.0029349636958644295,-0.02362894446842532,0.09650560086412653,44.11764879391193,-92.24360919585227,76.200527287817
2024-09-23 17:43:38.978677,42.49,39.665537,-0.0029349636958644295,-0.02362894446842532,0.09650560086412653,44.11764879391193,-104.27510100388527,72.1922225099802
2024-09-23 17:43:39.021738,42.49,39.665537,-0.003482159473966507,-0.02352945757203875,0.09685382322919964,44.11764879391193,-96.25519929585457,72.1922225099802
2024-09-23 17:43:39.064923,42.49,39.665588,-0.0028354659767690416,-0.023330473146428877,0.09685382322919964,44.11764879391193,-96.25519929585457,72.1922225099802
2024-09-23 17:43:39.076591,42.49,39.665588,-0.0028354659767690416,-0.023330473146428877,0.09675432418099966,36.09446859390736,-96.25519929585457,72.1922225099802
2024-09-23 17:43:39.119249,42.49,39.665639,-0.0031836870127375577,-0.023579196463302005,0.0970030596496862,40.106058693909645,-96.25519929585457,80.21211738781929
2024-09-23 17:43:39.161826,42.49,39.66569,-0.0031836870127375577,-0.023579196463302005,0.0970030596496862,40.106058693909645,-96.25519929585457,68.18063240997792
2024-09-23 17:43:39.173593,42.49,39.66569,-0.0030344509719951677,-0.02293251340906919,0.09705279702197278,40.106058693909645,-96.25519929585457,68.18063240997792
2024-09-23 17:43:39.216566,42.49,39.66574,-0.003233425524256645,-0.022982261414192504,0.09705279702197278,36.09446859390736,-96.25519929585457,72.1922225099802
2024-09-23 17:43:39.259081,42.49,39.66574,-0.003233425524256645,-0.022982261414192504,0.09715228999426605,40.106058693909645,-100.26678939585686,72.1922225099802
2024-09-23 17:43:39.270117,42.49,39.665791,-0.003382661564999035,-0.022982261414192504,0.09715228999426605,40.106058693909645,-100.26678939585686,76.200527287817
2024-09-23 17:43:39.312964,42.49,39.665878,-0.003382661564999035,-0.023181236725942318,0.09774922960030558,40.106058693909645,-100.26678939585686,68.18063240997792
2024-09-23 17:43:39.355958,42.49,39.665878,-0.0025369937054121774,-0.02303200030545576,0.09774922960030558,40.106058693909645,-100.26678939585686,68.18063240997792
2024-09-23 17:43:39.366934,42.49,39.665878,-0.0025369937054121774,-0.02303200030545576,0.09715228999426605,36.09446859390736,-96.25519929585457,76.200527287817
2024-09-23 17:43:39.410059,42.49,39.665929,-0.0029349636958644295,-0.023230986250042305,0.09695331012558621,36.09446859390736,-96.25519929585457,76.200527287817
2024-09-23 17:43:39.422147,42.49,39.665929,-0.0029349636958644295,-0.023230986250042305,0.09695331012558621,36.09446859390736,-100.26678939585686,76.200527287817
2024-09-23 17:43:39.455488,42.49,39.66598,-0.0028852147413806935,-0.023230986250042305,0.09695331012558621,36.09446859390736,-100.26678939585686,76.200527287817
2024-09-23 17:43:39.466529,42.49,39.66598,-0.0028852147413806935,-0.02352945757203875,0.09670458680871308,36.09446859390736,-100.26678939585686,76.200527287817
2024-09-23 17:43:39.510119,42.49,39.666031,-0.003382661564999035,-0.02303200030545576,0.09725178296655933,36.09446859390736,-96.25519929585457,80.21211738781929
2024-09-23 17:43:39.552813,42.49,39.666031,-0.003382661564999035,-0.02303200030545576,0.09725178296655933,44.11764879391193,-96.25519929585457,80.21211738781929
2024-09-23 17:43:39.564591,42.49,39.666081,-0.002139034157924574,-0.02352945757203875,0.09725178296655933,44.11764879391193,-96.25519929585457,72.1922225099802
2024-09-23 17:43:39.597023,42.49,39.666081,-0.002139034157924574,-0.02352945757203875,0.09680407370509965,44.11764879391193,-96.25519929585457,72.1922225099802
2024-09-23 17:43:39.609639,42.49,39.666132,-0.0031339382481259063,-0.02352945757203875,0.09680407370509965,44.11764879391193,-100.26678939585686,76.200527287817
2024-09-23 17:43:39.653317,42.49,39.666132,-0.0031339382481259063,-0.02362894446842532,0.09715228999426605,44.11764879391193,-96.25519929585457,80.21211738781929
2024-09-23 17:43:39.665969,42.49,39.666219,-0.0031339382481259063,-0.02362894446842532,0.09715228999426605,44.11764879391193,-96.25519929585457,80.21211738781929
2024-09-23 17:43:39.698572,42.49,39.666219,-0.0026862297461545674,-0.023280723622328886,0.09740101331113918,44.11764879391193,-96.25519929585457,80.21211738781929
2024-09-23 17:43:39.709942,42.49,39.666219,-0.0026862297461545674,-0.023280723622328886,0.09740101331113918,36.09446859390736,-96.25519929585457,80.21211738781929
2024-09-23 17:43:39.753138,42.49,39.666271,-0.0028852147413806935,-0.023280723622328886,0.09789846602079214,36.09446859390736,-96.25519929585457,80.21211738781929
2024-09-23 17:43:39.795430,42.49,39.666321,-0.0029847020175114316,-0.023280723622328886,0.09789846602079214,36.09446859390736,-96.25519929585457,84.22370748782159
2024-09-23 17:43:39.807412,42.49,39.666321,-0.0029847020175114316,-0.023579196463302005,0.09720203344245934,44.11764879391193,-96.25519929585457,84.22370748782159
2024-09-23 17:43:39.850371,42.49,39.666372,-0.0032831742888682963,-0.023181236725942318,0.09750050628343246,44.11764879391193,-92.24360919585227,72.1922225099802
2024-09-23 17:43:39.893417,42.49,39.666372,-0.0032831742888682963,-0.023181236725942318,0.09750050628343246,52.137550501942634,-108.28669110388756,72.1922225099802
2024-09-23 17:43:39.905101,42.49,39.666423,-0.0027359787006383035,-0.02303200030545576,0.09750050628343246,52.137550501942634,-108.28669110388756,68.18063240997792
2024-09-23 17:43:39.948125,42.49,39.666473,-0.003482159473966507,-0.02303200030545576,0.09685382322919964,44.11764879391193,-108.28669110388756,72.1922225099802
2024-09-23 17:43:39.990811,42.49,39.666473,-0.003482159473966507,-0.023181236725942318,0.09720203344245934,40.106058693909645,-108.28669110388756,72.1922225099802
2024-09-23 17:43:40.002520,42.49,39.66656,-0.003482159473966507,-0.023181236725942318,0.09720203344245934,40.106058693909645,-100.26678939585686,76.200527287817
2024-09-23 17:43:40.045322,42.49,39.66656,-0.0029847020175114316,-0.023479709566915436,0.09720203344245934,40.106058693909645,-100.26678939585686,80.21211738781929
2024-09-23 17:43:40.088632,42.49,39.666612,-0.0024872551938930902,-0.0228827638849692,0.09720203344245934,40.106058693909645,-100.26678939585686,80.21211738781929
2024-09-23 17:43:40.100149,42.49,39.666612,-0.0024872551938930902,-0.0228827638849692,0.09675432418099966,36.09446859390736,-100.26678939585686,80.21211738781929
2024-09-23 17:43:40.143678,42.49,39.666663,-0.0025369937054121774,-0.023181236725942318,0.09710254654607277,36.09446859390736,-100.26678939585686,80.21211738781929
2024-09-23 17:43:40.185741,42.49,39.666713,-0.0025369937054121774,-0.023181236725942318,0.09710254654607277,36.09446859390736,-100.26678939585686,76.200527287817
2024-09-23 17:43:40.197907,42.49,39.666713,-0.003382661564999035,-0.023181236725942318,0.09715228999426605,36.09446859390736,-100.26678939585686,76.200527287817
2024-09-23 17:43:40.241257,42.49,39.666764,-0.0028852147413806935,-0.02313149783467906,0.09715228999426605,40.106058693909645,-100.26678939585686,72.1922225099802
2024-09-23 17:43:40.283689,42.49,39.666764,-0.0028852147413806935,-0.02313149783467906,0.09690356060148622,44.11764879391193,-96.25519929585457,72.1922225099802
2024-09-23 17:43:40.295176,42.49,39.666815,-0.0033329230534799477,-0.02313149783467906,0.09690356060148622,44.11764879391193,-96.25519929585457,80.21211738781929
2024-09-23 17:43:40.338711,42.49,39.666902,-0.0033329230534799477,-0.023330473146428877,0.09755024973162574,44.11764879391193,-100.26678939585686,76.200527287817
2024-09-23 17:43:40.380573,42.49,39.666902,-0.0028852147413806935,-0.02338022115155219,0.0970030596496862,44.11764879391193,-100.26678939585686,76.200527287817
2024-09-23 17:43:40.391903,42.49,39.666902,-0.0028852147413806935,-0.02338022115155219,0.0970030596496862,36.09446859390736,-100.26678939585686,76.200527287817
2024-09-23 17:43:40.434054,42.49,39.666953,-0.0034324103296106863,-0.023579196463302005,0.09789846602079214,44.11764879391193,-100.26678939585686,76.200527287817
2024-09-23 17:43:40.446038,42.49,39.666953,-0.0034324103296106863,-0.023579196463302005,0.09789846602079214,44.11764879391193,-96.25519929585457,76.200527287817
2024-09-23 17:43:40.477996,42.49,39.667004,-0.0029847020175114316,-0.023579196463302005,0.09789846602079214,44.11764879391193,-96.25519929585457,72.1922225099802
2024-09-23 17:43:40.488991,42.49,39.667004,-0.0029847020175114316,-0.023429960042815445,0.09685382322919964,36.09446859390736,-96.25519929585457,72.1922225099802
2024-09-23 17:43:40.531117,42.49,39.667004,-0.0029847020175114316,-0.023429960042815445,0.09685382322919964,36.09446859390736,-92.24360919585227,72.1922225099802
2024-09-23 17:43:40.573813,42.22,39.667004,-0.0029847020175114316,-0.023429960042815445,0.09685382322919964,36.09446859390736,-92.24360919585227,72.1922225099802
2024-09-23 17:43:40.585271,42.22,39.667055,-0.0030841997366068195,-0.02303200030545576,0.09705279702197278,44.11764879391193,-92.24360919585227,72.1922225099802
