Ayaan's Suite
Timestamp,Sample Rate (Hz),Time,Ax,Ay,Az,Gx,Gy,Gz
2024-09-22 23:18:29.456965,0,0.040994,-0.12756840047729368,0.05494220055085317,0.9665807088216145,0.7962397257629782,-1.6274871717475354,1.413086283100024
2024-09-22 23:18:29.469799,0,0.041044,-0.12811722497813685,0.05494220055085317,0.9665807088216145,0.7962397257629782,-1.6274871717475354,1.491868061034009
2024-09-22 23:18:29.501818,0,0.041044,-0.12811722497813685,0.053356674468480844,0.9665807088216145,0.7962397257629782,-1.6274871717475354,1.491868061034009
2024-09-22 23:18:29.513763,0,0.041131,-0.12811722497813685,0.053356674468480844,0.9665807088216145,0.8749641407595947,-1.5268184716790913,1.4437395427253097
2024-09-22 23:18:29.558351,0,0.041131,-0.12842211397659037,0.05360060997087049,0.9659100259358973,0.87931865471676,-1.6406079698346556,1.4437395427253097
2024-09-22 23:18:29.570050,0,0.041131,-0.12842211397659037,0.05360060997087049,0.9659100259358973,0.87931865471676,-1.6406079698346556,1.4787472629468887
2024-09-22 23:18:29.601349,0,0.041183,-0.1297026477700952,0.05360060997087049,0.9659100259358973,0.87931865471676,-1.6406079698346556,1.4787472629468887
2024-09-22 23:18:29.613131,0,0.041183,-0.1297026477700952,0.05323476140044637,0.9655441105304994,0.8312474459845572,-1.6143664803821594,1.4787472629468887
2024-09-22 23:18:29.656281,0,0.041234,-0.12756840047729368,0.052259122681301784,0.9668247172348846,0.8968511162549258,-1.6143664803821594,1.294999633924663
2024-09-22 23:18:29.699269,0,0.041234,-0.12756840047729368,0.052259122681301784,0.9668247172348846,0.8968511162549258,-1.56623796207346,1.3956111311383546
2024-09-22 23:18:29.710885,0,0.041284,-0.12994658327248482,0.052076146750882735,0.9668247172348846,0.8968511162549258,-1.56623796207346,1.3956111311383546
2024-09-22 23:18:29.754491,0,0.041335,-0.12573904218294568,0.052076146750882735,0.9668247172348846,0.8005942397201434,-1.6274871717475354,1.4218526205908506
2024-09-22 23:18:29.765996,0,0.041335,-0.12573904218294568,0.04975892048970882,0.9668247172348846,0.8005942397201434,-1.6274871717475354,1.4218526205908506
2024-09-22 23:18:29.797745,0,0.041335,-0.12573904218294568,0.04975892048970882,0.9658490724398333,0.8443681907108054,-1.3911993609655648,1.4218526205908506
2024-09-22 23:18:29.809332,0,0.041386,-0.13287360272033255,0.04975892048970882,0.9658490724398333,0.8443681907108054,-1.3911993609655648,1.5749469899877906
2024-09-22 23:18:29.852496,0,0.041473,-0.13287360272033255,0.05555199069957364,0.9651172416290376,1.0018170740649104,-1.6756156900562347,1.3387163820605725
2024-09-22 23:18:29.895302,0,0.041473,-0.13220274970922752,0.0509175321013191,0.9651172416290376,1.0018170740649104,-1.6756156900562347,1.3387163820605725
2024-09-22 23:18:29.906785,0,0.041473,-0.13220274970922752,0.0509175321013191,0.965726971018691,0.9056174537457525,-1.5793587601605803,1.3780785628784449
2024-09-22 23:18:29.950201,0,0.041524,-0.12775127311729872,0.05451528911804448,0.9696297446279107,0.8443681907108054,-1.5487055005352943,1.3780785628784449
2024-09-22 23:18:29.992197,0,0.041575,-0.12775127311729872,0.05451528911804448,0.9696297446279107,0.8443681907108054,-1.5487055005352943,1.4174980532728136
2024-09-22 23:18:30.003889,0,0.041575,-0.13067829256514646,0.05213710632285333,0.9667636665243134,0.7655864661376923,-1.5487055005352943,1.4174980532728136
2024-09-22 23:18:30.046324,0,0.041625,-0.1279342551236245,0.052015187178912146,0.9646903727275759,0.7655864661376923,-1.6099547102093696,1.3868447936475277
2024-09-22 23:18:30.088574,0,0.041625,-0.1279342551236245,0.052015187178912146,0.9646903727275759,0.7568202353686094,-1.5793587601605803,1.3868447936475277
2024-09-22 23:18:30.099865,0,0.041676,-0.13409317086596007,0.05286890675411555,0.9646903727275759,0.7568202353686094,-1.5793587601605803,1.413086283100024
2024-09-22 23:18:30.143234,0,0.041676,-0.13409317086596007,0.05286890675411555,0.9693858334291479,0.9799873547852039,-1.5837132207568734,1.426207081187144
2024-09-22 23:18:30.156642,0,0.041727,-0.128239144122078,0.05286890675411555,0.9693858334291479,0.9799873547852039,-1.5837132207568734,1.426207081187144
2024-09-22 23:18:30.189804,0,0.041727,-0.128239144122078,0.05140540310609839,0.967922366236571,0.7918279555901885,-1.518109550486505,1.426207081187144
2024-09-22 23:18:30.202503,0,0.041814,-0.128239144122078,0.05140540310609839,0.967922366236571,0.7918279555901885,-1.518109550486505,1.43932777255252
2024-09-22 23:18:30.234510,0,0.041814,-0.12982456691403635,0.052076146750882735,0.9695077404212756,0.7918279555901885,-1.518109550486505,1.43932777255252
2024-09-22 23:18:30.246198,0,0.041814,-0.12982456691403635,0.052076146750882735,0.9695077404212756,0.7218697713626548,-1.5355847024481744,1.4874562908612192
2024-09-22 23:18:30.287955,0,0.041865,-0.12982456691403635,0.052076146750882735,0.9695077404212756,0.7218697713626548,-1.5355847024481744,1.4874562908612192
2024-09-22 23:18:30.329402,0,0.041865,-0.12933680527557775,0.052076146750882735,0.9695077404212756,0.7218697713626548,-1.5355847024481744,1.4874562908612192
2024-09-22 23:18:30.381884,0,0.041865,-0.12933680527557775,0.05323476140044637,0.9667636665243134,0.7874734949938953,-1.496222521630302,1.4874562908612192
2024-09-22 23:18:30.394416,0,0.041916,-0.12933680527557775,0.05323476140044637,0.9667636665243134,0.7874734949938953,-1.496222521630302,1.518109550486505
2024-09-22 23:18:30.436659,42.08,0.041916,-0.13031243791881564,0.05256401775566202,0.967495400120602,0.936213403794542,-1.4218526205908506,1.518109550486505
2024-09-22 23:18:30.479097,42.08,0.041967,-0.13031243791881564,0.05256401775566202,0.967495400120602,0.936213403794542,-1.4218526205908506,1.4218526205908506
2024-09-22 23:18:30.531330,42.08,0.041967,-0.12714148296857827,0.05061264006491222,0.9642025503300502,1.0543573625463993,-1.4437395427253097,1.448094003321603
2024-09-22 23:18:30.574758,42.08,0.042018,-0.12769031962123487,0.05061264006491222,0.9642025503300502,1.0543573625463993,-1.4437395427253097,1.448094003321603
2024-09-22 23:18:30.586672,42.08,0.042018,-0.12769031962123487,0.052929866326086136,0.9663978483334229,0.8661979099905118,-1.553117270708084,1.448094003321603
2024-09-22 23:18:30.628788,42.08,0.042068,-0.1274463841188452,0.05536900869324788,0.9670686284336475,0.8837304248895496,-1.553117270708084,1.426207081187144
2024-09-22 23:18:30.681616,42.08,0.042206,-0.1292147767653159,0.05305178547002732,0.967617404327237,0.8837304248895496,-1.5968339121222497,1.3868447936475277
2024-09-22 23:18:30.723820,42.08,0.042257,-0.1292147767653159,0.05305178547002732,0.967617404327237,0.8399564205380157,-1.5487055005352943,1.3606034109167755
2024-09-22 23:18:30.736442,42.08,0.042257,-0.12988562977642093,0.054210400119590954,0.967617404327237,0.8399564205380157,-1.5487055005352943,1.3606034109167755
2024-09-22 23:18:30.778675,42.08,0.042353,-0.13165392520838434,0.054210400119590954,0.9681052267247626,0.8356019599417225,-1.6449624304309487,1.3343619214642792
2024-09-22 23:18:30.820110,42.08,0.042353,-0.13165392520838434,0.056344750702806444,0.9649953346369098,0.9230926057074219,-1.6449624304309487,1.3343619214642792
2024-09-22 23:18:30.831933,42.08,0.042448,-0.13165392520838434,0.056344750702806444,0.9649953346369098,0.9230926057074219,-1.531230241851881,1.3562488435987383
2024-09-22 23:18:30.873576,42.08,0.042448,-0.1300075367685487,0.05518613605324281,0.9692638292225129,0.7743527502676472,-1.5749469899877906,1.413086283100024
2024-09-22 23:18:30.916156,42.08,0.042499,-0.12890988776686238,0.05518613605324281,0.9692638292225129,0.7743527502676472,-1.5749469899877906,1.413086283100024
2024-09-22 23:18:30.927641,42.08,0.042499,-0.12890988776686238,0.05360060997087049,0.9665807088216145,0.8312474459845572,-1.5705924226697534,1.413086283100024
2024-09-22 23:18:30.969875,42.08,0.04255,-0.13025147227093836,0.051161467603708745,0.9630439478323,0.7262242853198201,-1.5705924226697534,1.3562488435987383
2024-09-22 23:18:31.022781,42.08,0.0426,-0.12769031962123487,0.053112842256505186,0.9653611528278004,0.7262242853198201,-1.518109550486505,1.413086283100024
2024-09-22 23:18:31.063984,42.08,0.0426,-0.12769031962123487,0.053112842256505186,0.9653611528278004,0.7874734949938953,-1.491868061034009,1.3824903330512346
2024-09-22 23:18:31.075863,42.08,0.042651,-0.13043435706275683,0.05506411969479435,0.9653611528278004,0.7874734949938953,-1.491868061034009,1.3824903330512346
2024-09-22 23:18:31.119958,42.08,0.042702,-0.1287879686229212,0.05506411969479435,0.9684100914195893,0.8005942397201434,-1.496222521630302,1.3824903330512346
2024-09-22 23:18:31.163964,42.08,0.042702,-0.1287879686229212,0.04988093684815728,0.9665807088216145,0.6824502809682861,-1.6318416323438287,1.3824903330512346
2024-09-22 23:18:31.175054,42.08,0.042789,-0.1287879686229212,0.04988093684815728,0.9665807088216145,0.6824502809682861,-1.6318416323438287,1.4655692620050162
2024-09-22 23:18:31.217822,42.08,0.042789,-0.13037339141487952,0.052015187178912146,0.9642635038261141,0.8049487003164366,-1.671203919883445,1.426207081187144
2024-09-22 23:18:31.259621,42.08,0.04284,-0.13122711706598963,0.050063812526115706,0.9642635038261141,0.8049487003164366,-1.671203919883445,1.426207081187144
2024-09-22 23:18:31.270804,42.08,0.04284,-0.13122711706598963,0.050063812526115706,0.9654831570344354,0.8530771652642637,-1.5924794515259564,1.426207081187144
2024-09-22 23:18:31.312337,42.08,0.042891,-0.12860499876840883,0.05323476140044637,0.9654221063238643,0.8399564205380157,-1.5924794515259564,1.3868447936475277
2024-09-22 23:18:31.354940,42.08,0.042891,-0.12860499876840883,0.05323476140044637,0.9654221063238643,0.8399564205380157,-1.5880676813531667,1.3518370734259486
2024-09-22 23:18:31.365722,42.08,0.042942,-0.1301294559124899,0.05164933860848803,0.9665807088216145,0.8399564205380157,-1.5880676813531667,1.3518370734259486
2024-09-22 23:18:31.407761,42.08,0.042993,-0.1301294559124899,0.05164933860848803,0.9665807088216145,0.6868620511410758,-1.491868061034009,1.4568603408124299
2024-09-22 23:18:31.419116,42.08,0.042993,-0.1301294559124899,0.05323476140044637,0.9665807088216145,0.6868620511410758,-1.491868061034009,1.4568603408124299
2024-09-22 23:18:31.450894,40.26,0.042993,-0.1301294559124899,0.05323476140044637,0.9628001338480444,0.6868620511410758,-1.491868061034009,1.4568603408124299
2024-09-22 23:18:31.462228,40.26,0.043043,-0.128239144122078,0.05323476140044637,0.9628001338480444,0.8661979099905118,-1.4787472629468887,1.5268184716790913
2024-09-22 23:18:31.503911,40.26,0.043043,-0.128239144122078,0.0518322112484931,0.9652392458356727,0.8443681907108054,-1.504988752399385,1.5268184716790913
2024-09-22 23:18:31.514733,40.26,0.04313,-0.128239144122078,0.0518322112484931,0.9652392458356727,0.8443681907108054,-1.504988752399385,1.4087318225037306
2024-09-22 23:18:31.556902,40.26,0.04313,-0.12933680527557775,0.05427145690606882,0.9649953346369098,0.8268356758117675,-1.4874562908612192,1.518109550486505
2024-09-22 23:18:31.599078,40.26,0.043182,-0.1317759415668328,0.05427145690606882,0.9649953346369098,0.8268356758117675,-1.4874562908612192,1.518109550486505
2024-09-22 23:18:31.610913,40.26,0.043182,-0.1317759415668328,0.05646666377084092,0.9715810342180133,0.8749641407595947,-1.491868061034009,1.518109550486505
2024-09-22 23:18:31.653205,40.26,0.043232,-0.130068502416426,0.05079561599533128,0.9689589645276862,0.7962397257629782,-1.491868061034009,1.413086283100024
2024-09-22 23:18:31.694970,40.26,0.043232,-0.130068502416426,0.05079561599533128,0.9689589645276862,0.7962397257629782,-1.491868061034009,1.413086283100024
2024-09-22 23:18:31.706734,40.26,0.043283,-0.1301294559124899,0.050368704562522584,0.9708493006217248,0.7962397257629782,-1.491868061034009,1.3999655917346479
2024-09-22 23:18:31.748654,40.26,0.043334,-0.1296416942740313,0.050368704562522584,0.9708493006217248,0.78311898103673,-1.4874562908612192,1.3649578715130686
2024-09-22 23:18:31.800870,40.26,0.043384,-0.1296416942740313,0.05518613605324281,0.9672515861363464,0.7743527502676472,-1.483101830264926,1.426207081187144
2024-09-22 23:18:31.842676,40.26,0.043384,-0.12665372133011968,0.05396656183170859,0.9672515861363464,0.7743527502676472,-1.483101830264926,1.426207081187144
2024-09-22 23:18:31.853829,40.26,0.043384,-0.12665372133011968,0.05396656183170859,0.9651782923396087,0.7305787459161133,-1.5136977803137153,1.504988752399385
2024-09-22 23:18:31.895473,40.26,0.043471,-0.130495407773328,0.05195422760694156,0.9705444359268981,0.8706096801633015,-1.5136977803137153,1.504988752399385
2024-09-22 23:18:31.907231,40.26,0.043471,-0.130495407773328,0.05195422760694156,0.9705444359268981,0.8706096801633015,-1.6143664803821594,1.504988752399385
2024-09-22 23:18:31.938559,40.26,0.043471,-0.130495407773328,0.05195422760694156,0.9705444359268981,0.8706096801633015,-1.6143664803821594,1.504988752399385
2024-09-22 23:18:31.949330,40.26,0.043523,-0.1292757424131932,0.05158827574610345,0.9663367976228517,0.8093604704892263,-1.6143664803821594,1.504988752399385
2024-09-22 23:18:31.991013,40.26,0.043574,-0.1292757424131932,0.05158827574610345,0.9663367976228517,0.8093604704892263,-1.6012456822950394,1.4787472629468887
2024-09-22 23:18:32.002406,40.26,0.043574,-0.12866595226447272,0.05414944054762036,0.9654221063238643,0.8093604704892263,-1.6012456822950394,1.4787472629468887
2024-09-22 23:18:32.043788,40.26,0.043624,-0.12866595226447272,0.05256401775566202,0.9654221063238643,0.7436994906423613,-1.4874562908612192,1.3693696416858583
2024-09-22 23:18:32.086287,40.26,0.043624,-0.12866595226447272,0.05256401775566202,0.9672515861363464,0.748111260815151,-1.4874562908612192,1.3693696416858583
2024-09-22 23:18:32.097048,40.26,0.043675,-0.13214179621316363,0.05256401775566202,0.9672515861363464,0.748111260815151,-1.5005769822265953,1.4087318225037306
2024-09-22 23:18:32.142398,40.26,0.043675,-0.13214179621316363,0.05347869690283601,0.9715810342180133,0.29747979092085736,-1.509343212995678,1.4655692620050162
2024-09-22 23:18:32.153774,40.26,0.043764,-0.13214179621316363,0.05347869690283601,0.9715810342180133,0.29747979092085736,-1.509343212995678,1.4655692620050162
2024-09-22 23:18:32.186684,40.26,0.043764,-0.1295807407779674,0.05274689039566709,0.9682272309313977,0.7262242853198201,-1.509343212995678,1.4655692620050162
2024-09-22 23:18:32.199226,40.26,0.043764,-0.1295807407779674,0.05274689039566709,0.9682272309313977,0.7262242853198201,-1.5224640110827983,1.469981032177806
2024-09-22 23:18:32.241673,40.26,0.043815,-0.13043435706275683,0.05463731155239964,0.9707882499111536,0.7174580011898651,-1.6230754015747457,1.469981032177806
2024-09-22 23:18:32.282915,40.26,0.043866,-0.12683659397012476,0.05463731155239964,0.9707882499111536,0.7174580011898651,-1.6230754015747457,1.3824903330512346
2024-09-22 23:18:32.296106,40.26,0.043866,-0.12683659397012476,0.055247095625213405,0.9641415968339864,0.8049487003164366,-1.6230754015747457,1.3824903330512346
2024-09-22 23:18:32.338289,40.26,0.043917,-0.1309831815636,0.05347869690283601,0.965726971018691,0.8049487003164366,-1.6406079698346556,1.3999655917346479
2024-09-22 23:18:32.382109,40.26,0.043967,-0.1309831815636,0.05347869690283601,0.965726971018691,0.9799873547852039,-1.461214801408723,1.531230241851881
2024-09-22 23:18:32.393402,40.26,0.043967,-0.12866595226447272,0.052076146750882735,0.965726971018691,0.9799873547852039,-1.461214801408723,1.531230241851881
2024-09-22 23:18:32.435532,40.26,0.043967,-0.12866595226447272,0.052076146750882735,0.967922366236571,0.8749641407595947,-1.461214801408723,1.531230241851881
2024-09-22 23:18:32.477189,40.48,0.044018,-0.12866595226447272,0.052076146750882735,0.967922366236571,0.8749641407595947,-1.6056002496130763,1.4655692620050162
2024-09-22 23:18:32.488682,40.48,0.044018,-0.13275158636188408,0.052259122681301784,0.9666416623176785,0.8749641407595947,-1.6056002496130763,1.4655692620050162
2024-09-22 23:18:32.530875,40.48,0.044105,-0.1295807407779674,0.05317380182847578,0.9666416623176785,0.8706096801633015,-1.5268184716790913,1.3387163820605725
2024-09-22 23:18:32.573463,40.48,0.044105,-0.1295807407779674,0.05317380182847578,0.9655441105304994,0.8706096801633015,-1.5268184716790913,1.3387163820605725
2024-09-22 23:18:32.584630,40.48,0.044157,-0.12866595226447272,0.05317380182847578,0.9655441105304994,0.7962397257629782,-1.6274871717475354,1.483101830264926
2024-09-22 23:18:32.626063,40.48,0.044157,-0.12866595226447272,0.05049072395892439,0.9662758441267878,0.8487227046679705,-1.5574717313043773,1.461214801408723
2024-09-22 23:18:32.637426,40.48,0.044207,-0.12866595226447272,0.05049072395892439,0.9662758441267878,0.8487227046679705,-1.5574717313043773,1.461214801408723
2024-09-22 23:18:32.679943,40.48,0.044207,-0.12677564047406087,0.05414944054762036,0.9651782923396087,0.9099719143420458,-1.483101830264926,1.3299501512914895
2024-09-22 23:18:32.722349,40.48,0.044301,-0.13275158636188408,0.05414944054762036,0.9659100259358973,0.9099719143420458,-1.483101830264926,1.3299501512914895
2024-09-22 23:18:32.733182,40.48,0.044301,-0.13275158636188408,0.05414944054762036,0.9659100259358973,0.8837304248895496,-1.43932777255252,1.3299501512914895
2024-09-22 23:18:32.774900,40.48,0.044352,-0.12939775877164164,0.05213710632285333,0.967617404327237,0.7393449766851962,-1.43932777255252,1.434973311956227
2024-09-22 23:18:32.818336,40.48,0.044403,-0.12939775877164164,0.05213710632285333,0.967617404327237,0.7393449766851962,-1.5005769822265953,1.3911993609655648
2024-09-22 23:18:32.829566,40.48,0.044403,-0.1339711545075116,0.05433241647803941,0.9631659520389351,0.7393449766851962,-1.5005769822265953,1.3911993609655648
2024-09-22 23:18:32.870945,40.48,0.044453,-0.13043435706275683,0.05433241647803941,0.9631659520389351,0.7218697713626548,-1.43932777255252,1.3956111311383546
2024-09-22 23:18:32.923675,40.48,0.044504,-0.1292757424131932,0.05433241647803941,0.9683491379235255,0.8399564205380157,-1.636196199661866,1.2993542012427002
2024-09-22 23:18:32.966307,40.48,0.044504,-0.1292757424131932,0.05256401775566202,0.9670076749375836,0.769998236310482,-1.5574717313043773,1.2993542012427002
2024-09-22 23:18:32.978872,40.48,0.044593,-0.1292757424131932,0.05256401775566202,0.9670076749375836,0.769998236310482,-1.5574717313043773,1.504988752399385
2024-09-22 23:18:33.021141,40.48,0.044593,-0.1308612624196588,0.05238104182524297,0.9664588018294867,0.78311898103673,-1.5487055005352943,1.3387163820605725
2024-09-22 23:18:33.063267,40.48,0.044644,-0.12769031962123487,0.05158827574610345,0.9664588018294867,0.78311898103673,-1.5487055005352943,1.3387163820605725
2024-09-22 23:18:33.075886,40.48,0.044644,-0.12769031962123487,0.05158827574610345,0.9667027130282496,0.8487227046679705,-1.5618261919006706,1.3387163820605725
2024-09-22 23:18:33.118404,40.48,0.044695,-0.12866595226447272,0.05256401775566202,0.965726971018691,0.7612320055413991,-1.5618261919006706,1.3693696416858583
2024-09-22 23:18:33.159879,40.48,0.044746,-0.12866595226447272,0.05256401775566202,0.965726971018691,0.7612320055413991,-1.518109550486505,1.483101830264926
2024-09-22 23:18:33.170938,40.48,0.044746,-0.1326906207140068,0.05396656183170859,0.9663978483334229,0.7612320055413991,-1.518109550486505,1.483101830264926
2024-09-22 23:18:33.213472,40.48,0.044796,-0.12799520861968838,0.05286890675411555,0.9663978483334229,0.9099719143420458,-1.5136977803137153,1.3430708426568656
2024-09-22 23:18:33.254848,40.48,0.044796,-0.12799520861968838,0.05286890675411555,0.9693858334291479,0.9099719143420458,-1.5136977803137153,1.3430708426568656
2024-09-22 23:18:33.266596,40.48,0.044847,-0.12726351147884013,0.05286890675411555,0.9693858334291479,0.8749641407595947,-1.553117270708084,1.491868061034009
2024-09-22 23:18:33.359373,40.48,0.044934,-0.12726351147884013,0.05402752140367918,0.9685320956262243,0.6343218160204589,-1.5618261919006706,1.448094003321603
2024-09-22 23:18:33.402615,40.48,0.044934,-0.1300075367685487,0.05140540310609839,0.9685320956262243,0.6343218160204589,-1.5618261919006706,1.448094003321603
2024-09-22 23:18:33.413928,40.48,0.044934,-0.1300075367685487,0.05140540310609839,0.9685320956262243,0.6999827958673239,-1.4437395427253097,1.43932777255252
2024-09-22 23:18:33.455664,40.48,0.044985,-0.1273854184709679,0.05195422760694156,0.9651172416290376,0.6999827958673239,-1.553117270708084,1.43932777255252
2024-09-22 23:18:33.508057,39.34,0.045036,-0.1279342551236245,0.0518322112484931,0.9616415313502942,0.8706096801633015,-1.553117270708084,1.426207081187144
2024-09-22 23:18:33.549956,39.34,0.045087,-0.1279342551236245,0.0518322112484931,0.9616415313502942,0.8706096801633015,-1.5793587601605803,1.3868447936475277
2024-09-22 23:18:33.561776,39.34,0.045087,-0.1288489342707985,0.05451528911804448,0.9679833197326349,0.8706096801633015,-1.5793587601605803,1.3868447936475277
2024-09-22 23:18:33.603960,39.34,0.04518,-0.12939775877164164,0.051161467603708745,0.9679833197326349,0.8443681907108054,-1.6143664803821594,1.539996472620964
2024-09-22 23:18:33.646883,39.34,0.04518,-0.12939775877164164,0.051161467603708745,0.9675564508311731,0.8224812152154743,-1.6143664803821594,1.539996472620964
2024-09-22 23:18:33.658753,39.34,0.045231,-0.132324766067676,0.051161467603708745,0.9675564508311731,0.8224812152154743,-1.474335492774099,1.434973311956227
2024-09-22 23:18:33.700447,39.34,0.045324,-0.132324766067676,0.05213710632285333,0.9666416623176785,0.8837304248895496,-1.6056002496130763,1.3693696416858583
2024-09-22 23:18:33.742997,39.34,0.045324,-0.1292757424131932,0.05213710632285333,0.9666416623176785,0.8837304248895496,-1.6056002496130763,1.3693696416858583
2024-09-22 23:18:33.753951,39.34,0.045324,-0.1292757424131932,0.05500316012282376,0.9670076749375836,0.8530771652642637,-1.5618261919006706,1.413086283100024
2024-09-22 23:18:33.797453,39.34,0.045375,-0.1308612624196588,0.05213710632285333,0.9689589645276862,0.7218697713626548,-1.5618261919006706,1.413086283100024
2024-09-22 23:18:33.808560,39.34,0.045375,-0.1308612624196588,0.05213710632285333,0.9689589645276862,0.7218697713626548,-1.448094003321603,1.413086283100024
2024-09-22 23:18:33.839640,39.34,0.045375,-0.1308612624196588,0.05213710632285333,0.9689589645276862,0.7218697713626548,-1.448094003321603,1.6274871717475354
2024-09-22 23:18:33.851023,39.34,0.045426,-0.1308612624196588,0.05213710632285333,0.9689589645276862,0.7218697713626548,-1.448094003321603,1.6274871717475354
2024-09-22 23:18:33.892709,39.34,0.045426,-0.130068502416426,0.052441995321306854,0.968714956114416,0.9230926057074219,-1.448094003321603,1.6274871717475354
2024-09-22 23:18:33.905565,39.34,0.045426,-0.130068502416426,0.052441995321306854,0.968714956114416,0.9230926057074219,-1.5837132207568734,1.469981032177806
2024-09-22 23:18:33.937119,39.34,0.045477,-0.130068502416426,0.052441995321306854,0.968714956114416,0.9230926057074219,-1.5837132207568734,1.469981032177806
2024-09-22 23:18:33.948565,39.34,0.045477,-0.1326906207140068,0.05067359963688282,0.9604828316380367,0.7524657214114443,-1.491868061034009,1.469981032177806
2024-09-22 23:18:33.990349,39.34,0.045527,-0.12671467482618357,0.05494220055085317,0.9604828316380367,0.7524657214114443,-1.491868061034009,1.3824903330512346
2024-09-22 23:18:34.003083,39.34,0.045527,-0.12671467482618357,0.05494220055085317,0.9648123769342108,1.028115873093903,-1.491868061034009,1.3824903330512346
2024-09-22 23:18:34.034778,39.34,0.045527,-0.12671467482618357,0.05494220055085317,0.9648123769342108,1.028115873093903,-1.5749469899877906,1.3824903330512346
2024-09-22 23:18:34.046347,39.34,0.045578,-0.1296416942740313,0.05518613605324281,0.9677393113193647,1.028115873093903,-1.5749469899877906,1.3911993609655648
2024-09-22 23:18:34.088444,39.34,0.045665,-0.12592191482295076,0.05518613605324281,0.9677393113193647,0.5599518616201355,-1.4655692620050162,1.4218526205908506
2024-09-22 23:18:34.099931,39.34,0.045665,-0.12592191482295076,0.053112842256505186,0.9677393113193647,0.5599518616201355,-1.4655692620050162,1.4218526205908506
2024-09-22 23:18:34.142269,39.34,0.045717,-0.12860499876840883,0.053112842256505186,0.9643245545366853,0.6737413064148277,-1.6187209409784526,1.3824903330512346
2024-09-22 23:18:34.184983,39.34,0.045717,-0.12860499876840883,0.05482018419240471,0.969324879933084,0.6387335861932486,-1.6406079698346556,1.3824903330512346
2024-09-22 23:18:34.197694,39.34,0.045812,-0.12860499876840883,0.05482018419240471,0.969324879933084,0.6387335861932486,-1.6406079698346556,1.4437395427253097
2024-09-22 23:18:34.280338,39.34,0.045812,-0.13153200606444315,0.05256401775566202,0.969324879933084,0.6387335861932486,-1.6406079698346556,1.4437395427253097
2024-09-22 23:18:34.333546,39.34,0.045812,-0.13153200606444315,0.05256401775566202,0.9668856707309486,0.6387335861932486,-1.6406079698346556,1.4437395427253097
2024-09-22 23:18:34.386125,39.34,0.045863,-0.12799520861968838,0.05280795325805166,0.9668856707309486,0.8180694450426846,-1.504988752399385,1.474335492774099
2024-09-22 23:18:34.428490,39.34,0.045863,-0.12799520861968838,0.05280795325805166,0.9705444359268981,1.0674780539117754,-1.5618261919006706,1.474335492774099
2024-09-22 23:18:34.480437,39.34,0.045914,-0.13025147227093836,0.05482018419240471,0.9660929836385962,0.769998236310482,-1.5618261919006706,1.3343619214642792
2024-09-22 23:18:34.522211,39.16,0.045914,-0.13025147227093836,0.05482018419240471,0.9660929836385962,0.769998236310482,-1.6274871717475354,1.3343619214642792
2024-09-22 23:18:34.533336,39.16,0.045964,-0.1283610632660192,0.05360060997087049,0.9624341212281393,0.769998236310482,-1.6274871717475354,1.434973311956227
2024-09-22 23:18:34.576688,39.16,0.046015,-0.1283610632660192,0.05360060997087049,0.9624341212281393,0.8005942397201434,-1.5837132207568734,1.413086283100024
2024-09-22 23:18:34.588159,39.16,0.046015,-0.13031243791881564,0.05128338674764993,0.9624341212281393,0.8005942397201434,-1.5837132207568734,1.413086283100024
2024-09-22 23:18:34.619548,39.16,0.046015,-0.13031243791881564,0.05128338674764993,0.9685930491222883,0.8005942397201434,-1.5837132207568734,1.413086283100024
2024-09-22 23:18:34.630991,39.16,0.046202,-0.13031243791881564,0.05128338674764993,0.9685930491222883,0.7874734949938953,-1.6012456822950394,1.4306188513599336
2024-09-22 23:18:34.673751,39.16,0.046202,-0.13031243791881564,0.05549103112760304,0.9626170789308383,0.7612320055413991,-1.43932777255252,1.474335492774099
2024-09-22 23:18:34.685127,39.16,0.046253,-0.13031243791881564,0.05549103112760304,0.9626170789308383,0.7612320055413991,-1.43932777255252,1.474335492774099
2024-09-22 23:18:34.726858,39.16,0.046253,-0.13189786071077397,0.052259122681301784,0.9639586391312874,0.8880848854858429,-1.5749469899877906,1.4087318225037306
2024-09-22 23:18:34.769293,39.16,0.046349,-0.1300075367685487,0.05488124097888258,0.9639586391312874,0.8880848854858429,-1.5749469899877906,1.4087318225037306
2024-09-22 23:18:34.780805,39.16,0.046349,-0.1300075367685487,0.05488124097888258,0.9698126051161023,0.8356019599417225,-1.649316891027242,1.4087318225037306
2024-09-22 23:18:34.822400,39.16,0.0464,-0.1274463841188452,0.05353965039889989,0.9662758441267878,0.7612320055413991,-1.649316891027242,1.413086283100024
2024-09-22 23:18:34.865926,39.16,0.046451,-0.1274463841188452,0.05353965039889989,0.9662758441267878,0.7612320055413991,-1.4568603408124299,1.426207081187144
2024-09-22 23:18:34.877199,39.16,0.046451,-0.128239144122078,0.051344443534127794,0.9668247172348846,0.7612320055413991,-1.4568603408124299,1.426207081187144
2024-09-22 23:18:34.919418,39.16,0.046501,-0.130068502416426,0.052198163109331196,0.9668247172348846,0.9668666634198279,-1.531230241851881,1.434973311956227
2024-09-22 23:18:34.961079,39.16,0.046501,-0.130068502416426,0.052198163109331196,0.9692028757264489,0.9668666634198279,-1.531230241851881,1.434973311956227
2024-09-22 23:18:34.971919,39.16,0.046552,-0.13080030892359493,0.052198163109331196,0.9692028757264489,0.7043372564636171,-1.6274871717475354,1.3824903330512346
2024-09-22 23:18:35.014452,39.16,0.046552,-0.13080030892359493,0.05146636267806898,0.9665197553255507,0.9537458653327078,-1.539996472620964,1.3824903330512346
2024-09-22 23:18:35.026281,39.16,0.04664,-0.13080030892359493,0.05146636267806898,0.9665197553255507,0.9537458653327078,-1.539996472620964,1.3780785628784449
2024-09-22 23:18:35.109259,39.16,0.04664,-0.1261048968292765,0.05390550504523072,0.9665197553255507,0.9537458653327078,-1.539996472620964,1.3780785628784449
2024-09-22 23:18:35.121003,39.16,0.04664,-0.1261048968292765,0.05390550504523072,0.9663978483334229,0.8180694450426846,-1.6099547102093696,1.4787472629468887
2024-09-22 23:18:35.163696,39.16,0.046692,-0.12817817847420074,0.05561294419563752,0.9649953346369098,0.8487227046679705,-1.5880676813531667,1.4787472629468887
2024-09-22 23:18:35.206229,39.16,0.046692,-0.12817817847420074,0.05561294419563752,0.9649953346369098,0.8487227046679705,-1.5880676813531667,1.531230241851881
2024-09-22 23:18:35.218086,39.16,0.046742,-0.1283610632660192,0.05482018419240471,0.9662758441267878,0.6955710256945342,-1.5880676813531667,1.531230241851881
2024-09-22 23:18:35.259903,39.16,0.046793,-0.1313490240581174,0.05482018419240471,0.9662758441267878,0.6955710256945342,-1.3649578715130686,1.5487055005352943
2024-09-22 23:18:35.272085,39.16,0.046793,-0.1313490240581174,0.05323476140044637,0.9667636665243134,0.6955710256945342,-1.3649578715130686,1.5487055005352943
2024-09-22 23:18:35.304357,39.16,0.046793,-0.1313490240581174,0.05323476140044637,0.9667636665243134,0.8399564205380157,-1.3649578715130686,1.5487055005352943
2024-09-22 23:18:35.315681,39.16,0.046844,-0.12671467482618357,0.05305178547002732,0.9667636665243134,0.8399564205380157,-1.4218526205908506,1.3824903330512346
2024-09-22 23:18:35.410064,39.16,0.046935,-0.1278123359796833,0.05305178547002732,0.9701175670254364,0.8706096801633015,-1.504988752399385,1.4174980532728136
2024-09-22 23:18:35.453904,39.16,0.046935,-0.1278123359796833,0.05305178547002732,0.9665197553255507,0.9230926057074219,-1.504988752399385,1.4174980532728136
2024-09-22 23:18:35.465950,39.16,0.04703,-0.1278123359796833,0.05305178547002732,0.9665197553255507,0.9230926057074219,-1.491868061034009,1.4218526205908506
2024-09-22 23:18:35.498400,39.16,0.04703,-0.1300075367685487,0.05305178547002732,0.9665197553255507,0.9230926057074219,-1.491868061034009,1.4218526205908506
2024-09-22 23:18:35.509983,39.16,0.04703,-0.1300075367685487,0.05232008225327238,0.9667027130282496,0.8706096801633015,-1.5443510399390012,1.474335492774099
2024-09-22 23:18:35.552310,39.27,0.047082,-0.12933680527557775,0.05164933860848803,0.9654221063238643,0.8706096801633015,-1.5443510399390012,1.474335492774099
2024-09-22 23:18:35.565633,39.27,0.047082,-0.12933680527557775,0.05164933860848803,0.9654221063238643,0.7743527502676472,-1.5705924226697534,1.474335492774099
2024-09-22 23:18:35.597961,39.27,0.047132,-0.12933680527557775,0.05164933860848803,0.9654221063238643,0.7743527502676472,-1.5705924226697534,1.434973311956227
2024-09-22 23:18:35.609040,39.27,0.047132,-0.13165392520838434,0.051161467603708745,0.9654221063238643,0.7962397257629782,-1.5705924226697534,1.434973311956227
2024-09-22 23:18:35.650896,39.27,0.047227,-0.12775127311729872,0.05591783926999775,0.9654221063238643,0.7962397257629782,-1.5487055005352943,1.3693696416858583
2024-09-22 23:18:35.662671,39.27,0.047227,-0.12775127311729872,0.05591783926999775,0.9716419877140772,0.7962397257629782,-1.5487055005352943,1.3693696416858583
2024-09-22 23:18:35.695211,39.27,0.047227,-0.12775127311729872,0.05591783926999775,0.9716419877140772,0.7262242853198201,-1.509343212995678,1.3693696416858583
2024-09-22 23:18:35.706784,39.27,0.047278,-0.1287270151268573,0.051344443534127794,0.9716419877140772,0.7262242853198201,-1.509343212995678,1.3606034109167755
2024-09-22 23:18:35.749835,39.27,0.047328,-0.1287879686229212,0.051344443534127794,0.9667027130282496,0.8618434493942186,-1.3824903330512346,1.413086283100024
2024-09-22 23:18:35.793230,39.27,0.047328,-0.1287879686229212,0.051161467603708745,0.9658490724398333,0.8618434493942186,-1.3824903330512346,1.413086283100024
2024-09-22 23:18:35.806780,39.27,0.04742,-0.1287879686229212,0.051161467603708745,0.9658490724398333,0.7787072108639405,-1.5924794515259564,1.426207081187144
2024-09-22 23:18:35.849862,39.27,0.04742,-0.12579999567900957,0.05262497732763261,0.9648733304302748,0.7655864661376923,-1.56623796207346,1.469981032177806
2024-09-22 23:18:35.892084,39.27,0.047472,-0.13238573171555326,0.05262497732763261,0.9648733304302748,0.7655864661376923,-1.56623796207346,1.469981032177806
2024-09-22 23:18:35.903568,39.27,0.047472,-0.13238573171555326,0.05347869690283601,0.9651172416290376,0.769998236310482,-1.531230241851881,1.469981032177806
2024-09-22 23:18:35.945833,39.27,0.047522,-0.1270195759764505,0.0518322112484931,0.9673734931284742,1.0587118231426924,-1.531230241851881,1.448094003321603
2024-09-22 23:18:35.989730,39.27,0.047573,-0.1270195759764505,0.0518322112484931,0.9673734931284742,1.0587118231426924,-1.4524485706396402,1.4874562908612192
2024-09-22 23:18:36.001095,39.27,0.047573,-0.12897084126292627,0.05238104182524297,0.9667636665243134,1.0587118231426924,-1.4524485706396402,1.4874562908612192
2024-09-22 23:18:36.042961,39.27,0.047624,-0.13275158636188408,0.05158827574610345,0.9667636665243134,0.6387335861932486,-1.5618261919006706,1.4087318225037306
2024-09-22 23:18:36.086038,39.27,0.047624,-0.13275158636188408,0.05158827574610345,0.9685320956262243,0.8049487003164366,-1.6230754015747457,1.4087318225037306
2024-09-22 23:18:36.097788,39.27,0.047674,-0.12866595226447272,0.05158827574610345,0.9685320956262243,0.8049487003164366,-1.6230754015747457,1.3562488435987383
2024-09-22 23:18:36.139901,39.27,0.047761,-0.12866595226447272,0.05396656183170859,0.9678002648154287,0.7918279555901885,-1.496222521630302,1.413086283100024
2024-09-22 23:18:36.183428,39.27,0.047761,-0.12976360126615907,0.05274689039566709,0.9678002648154287,0.7918279555901885,-1.496222521630302,1.413086283100024
2024-09-22 23:18:36.196027,39.27,0.047761,-0.12976360126615907,0.05274689039566709,0.9663978483334229,0.8005942397201434,-1.56623796207346,1.3911993609655648
2024-09-22 23:18:36.238711,39.27,0.047813,-0.12848307962446767,0.05396656183170859,0.964446461528813,0.8618434493942186,-1.6537286612000317,1.3911993609655648
2024-09-22 23:18:36.281357,39.27,0.047864,-0.12897084126292627,0.05396656183170859,0.964446461528813,0.8618434493942186,-1.6537286612000317,1.3168293532043696
2024-09-22 23:18:36.292695,39.27,0.047864,-0.12897084126292627,0.0526859308236965,0.9640806433379224,0.748111260815151,-1.6537286612000317,1.3168293532043696
2024-09-22 23:18:36.336641,39.27,0.047915,-0.1288489342707985,0.05402752140367918,0.9667027130282496,0.748111260815151,-1.5749469899877906,1.404320052330941
2024-09-22 23:18:36.430344,39.27,0.047915,-0.1288489342707985,0.05402752140367918,0.9667027130282496,0.8968511162549258,-1.504988752399385,1.404320052330941
2024-09-22 23:18:36.473184,39.27,0.047915,-0.1288489342707985,0.05402752140367918,0.9667027130282496,0.8968511162549258,-1.504988752399385,1.3780785628784449
2024-09-22 23:18:36.484613,39.27,0.047965,-0.13171498807076892,0.05329572097241696,0.9667027130282496,0.8968511162549258,-1.504988752399385,1.3780785628784449
2024-09-22 23:18:36.527962,39.27,0.047965,-0.13171498807076892,0.05329572097241696,0.96615393713466,0.9318589431982487,-1.763106389182806,1.3387163820605725
2024-09-22 23:18:36.539782,39.27,0.048016,-0.13037339141487952,0.05329572097241696,0.96615393713466,0.9318589431982487,-1.763106389182806,1.3387163820605725
2024-09-22 23:18:36.574162,39.39,0.048016,-0.13037339141487952,0.051710298180458615,0.9659709794319611,0.9318589431982487,-1.763106389182806,1.3387163820605725
2024-09-22 23:18:36.585206,39.39,0.048103,-0.13037339141487952,0.051710298180458615,0.9659709794319611,0.8005942397201434,-1.5574717313043773,1.4874562908612192
2024-09-22 23:18:36.628275,39.39,0.048103,-0.1287879686229212,0.05549103112760304,0.967434446624538,0.769998236310482,-1.4655692620050162,1.4306188513599336
2024-09-22 23:18:36.671345,39.39,0.048154,-0.13019051877487448,0.05323476140044637,0.967434446624538,0.769998236310482,-1.4655692620050162,1.4306188513599336
2024-09-22 23:18:36.683022,39.39,0.048154,-0.13019051877487448,0.05323476140044637,0.9630439478323,0.8312474459845572,-1.5355847024481744,1.4306188513599336
2024-09-22 23:18:36.726318,39.39,0.048298,-0.13128807056205352,0.056039752338032225,0.9682272309313977,0.7874734949938953,-1.5355847024481744,1.4568603408124299
2024-09-22 23:18:36.768389,39.39,0.048349,-0.13128807056205352,0.056039752338032225,0.9682272309313977,0.7874734949938953,-1.531230241851881,1.426207081187144
2024-09-22 23:18:36.821655,39.39,0.048349,-0.1326906207140068,0.05213710632285333,0.9659100259358973,0.7962397257629782,-1.531230241851881,1.426207081187144
2024-09-22 23:18:36.835100,39.39,0.048349,-0.1326906207140068,0.05213710632285333,0.9659100259358973,0.7962397257629782,-1.6143664803821594,1.448094003321603
2024-09-22 23:18:36.867175,39.39,0.0484,-0.13409317086596007,0.05305178547002732,0.9659100259358973,0.7962397257629782,-1.6143664803821594,1.448094003321603
2024-09-22 23:18:36.878750,39.39,0.0484,-0.13409317086596007,0.05305178547002732,0.9700566135293724,0.7918279555901885,-1.5355847024481744,1.448094003321603
2024-09-22 23:18:36.921987,39.39,0.048451,-0.12726351147884013,0.05488124097888258,0.9649953346369098,0.6955710256945342,-1.5355847024481744,1.3649578715130686
2024-09-22 23:18:36.964313,39.39,0.048541,-0.12726351147884013,0.05488124097888258,0.9649953346369098,0.6955710256945342,-1.496222521630302,1.43932777255252
2024-09-22 23:18:36.975937,39.39,0.048541,-0.1283610632660192,0.049941896420127876,0.9615803834252158,0.6955710256945342,-1.496222521630302,1.43932777255252
2024-09-22 23:18:37.019188,39.39,0.048592,-0.13323944521484996,0.05286890675411555,0.9615803834252158,0.7568202353686094,-1.5749469899877906,1.434973311956227
2024-09-22 23:18:37.061817,39.39,0.048592,-0.13323944521484996,0.05286890675411555,0.964934381140846,0.691216511737369,-1.6406079698346556,1.434973311956227
2024-09-22 23:18:37.073051,39.39,0.048643,-0.1292147767653159,0.05286890675411555,0.964934381140846,0.691216511737369,-1.6406079698346556,1.518109550486505
2024-09-22 23:18:37.116902,39.39,0.048643,-0.1292147767653159,0.05555199069957364,0.9640196898418586,0.9187381451111287,-1.509343212995678,1.518109550486505
2024-09-22 23:18:37.128400,39.39,0.048737,-0.1292147767653159,0.05555199069957364,0.9640196898418586,0.9187381451111287,-1.509343212995678,1.3606034109167755
2024-09-22 23:18:37.162468,39.39,0.048737,-0.12799520861968838,0.052929866326086136,0.968897913817115,0.7874734949938953,-1.509343212995678,1.3606034109167755
2024-09-22 23:18:37.173895,39.39,0.048737,-0.12799520861968838,0.052929866326086136,0.968897913817115,0.7874734949938953,-1.4655692620050162,1.3606034109167755
2024-09-22 23:18:37.207506,39.39,0.048788,-0.13031243791881564,0.052929866326086136,0.968897913817115,0.7874734949938953,-1.4655692620050162,1.3606034109167755
2024-09-22 23:18:37.219195,39.39,0.048788,-0.13031243791881564,0.05262497732763261,0.9656660175226272,0.8356019599417225,-1.504988752399385,1.3606034109167755
2024-09-22 23:18:37.261567,39.39,0.048839,-0.1279342551236245,0.05305178547002732,0.968836960321051,0.8574889354370534,-1.504988752399385,1.4655692620050162
2024-09-22 23:18:37.303602,39.39,0.048889,-0.1279342551236245,0.05305178547002732,0.968836960321051,0.8574889354370534,-1.5355847024481744,1.3649578715130686
2024-09-22 23:18:37.314864,39.39,0.048889,-0.12890988776686238,0.050978491673289696,0.9687760068249872,0.8574889354370534,-1.5355847024481744,1.3649578715130686
2024-09-22 23:18:37.357091,39.39,0.04894,-0.12799520861968838,0.0517712516765225,0.9687760068249872,0.936213403794542,-1.3911993609655648,1.4874562908612192
2024-09-22 23:18:37.398534,39.39,0.04894,-0.12799520861968838,0.0517712516765225,0.967495400120602,0.936213403794542,-1.3911993609655648,1.4874562908612192
2024-09-22 23:18:37.411207,39.39,0.04894,-0.12799520861968838,0.0517712516765225,0.967495400120602,0.9012056835729628,-1.5355847024481744,1.4874562908612192
2024-09-22 23:18:37.453332,39.39,0.048991,-0.12994658327248482,0.05372263240522565,0.964934381140846,0.8268356758117675,-1.5355847024481744,1.3999655917346479
2024-09-22 23:18:37.505869,39.39,0.049078,-0.12689754746618864,0.05360060997087049,0.9635927237258896,0.8268356758117675,-1.6143664803821594,1.3999655917346479
2024-09-22 23:18:37.547978,39.39,0.049078,-0.12689754746618864,0.05360060997087049,0.9635927237258896,0.8005942397201434,-1.553117270708084,1.4306188513599336
2024-09-22 23:18:37.559499,39.39,0.049129,-0.12762935397335756,0.05482018419240471,0.9635927237258896,0.8005942397201434,-1.553117270708084,1.4306188513599336
2024-09-22 23:18:37.601241,39.46,0.04918,-0.128239144122078,0.05482018419240471,0.9649953346369098,0.7393449766851962,-1.6580831217963248,1.3343619214642792
2024-09-22 23:18:37.643649,39.46,0.04918,-0.128239144122078,0.0565885829147821,0.9685320956262243,0.7393449766851962,-1.6580831217963248,1.3343619214642792
2024-09-22 23:18:37.654962,39.46,0.049231,-0.128239144122078,0.0565885829147821,0.9685320956262243,0.8661979099905118,-1.671203919883445,1.3212411233771593
2024-09-22 23:18:37.697770,39.46,0.049231,-0.12854403312053156,0.05494220055085317,0.9638367321391597,0.8574889354370534,-1.5355847024481744,1.4568603408124299
2024-09-22 23:18:37.740867,39.46,0.049322,-0.129153823269252,0.05494220055085317,0.9638367321391597,0.8574889354370534,-1.5355847024481744,1.4568603408124299
2024-09-22 23:18:37.752327,39.46,0.049322,-0.129153823269252,0.05280795325805166,0.964446461528813,0.9318589431982487,-1.4655692620050162,1.4568603408124299
2024-09-22 23:18:37.795144,39.46,0.049373,-0.12756840047729368,0.05250305818369143,0.9647513262236397,0.9318589431982487,-1.4655692620050162,1.4306188513599336
2024-09-22 23:18:37.806554,39.46,0.049373,-0.12756840047729368,0.05250305818369143,0.9647513262236397,0.8706096801633015,-1.4655692620050162,1.4306188513599336
2024-09-22 23:18:37.838490,39.46,0.049373,-0.12756840047729368,0.05250305818369143,0.9647513262236397,0.8706096801633015,-1.3780785628784449,1.3824903330512346
2024-09-22 23:18:37.849759,39.46,0.049424,-0.12677564047406087,0.05536900869324788,0.9643245545366853,0.8706096801633015,-1.3780785628784449,1.3824903330512346
2024-09-22 23:18:37.892220,39.46,0.049475,-0.1287879686229212,0.05378358590128954,0.9643245545366853,0.8487227046679705,-1.5749469899877906,1.3737241022821516
2024-09-22 23:18:37.945471,39.46,0.049525,-0.12945871226770553,0.05378358590128954,0.9669466242270124,0.8312474459845572,-1.4218526205908506,1.448094003321603
2024-09-22 23:18:37.987914,39.46,0.049525,-0.12945871226770553,0.052259122681301784,0.9742032011228478,0.8880848854858429,-1.448094003321603,1.448094003321603
2024-09-22 23:18:38.000178,39.46,0.049614,-0.12945871226770553,0.052259122681301784,0.9742032011228478,0.8880848854858429,-1.448094003321603,1.3780785628784449
2024-09-22 23:18:38.042063,39.46,0.049614,-0.1270805294725144,0.05286890675411555,0.9699956600333086,0.8443681907108054,-1.6274871717475354,1.4174980532728136
2024-09-22 23:18:38.084056,39.46,0.049665,-0.1292147767653159,0.05286890675411555,0.9699956600333086,0.8443681907108054,-1.6274871717475354,1.4174980532728136
2024-09-22 23:18:38.098483,39.46,0.049665,-0.1292147767653159,0.05286890675411555,0.9632269055349989,0.8968511162549258,-1.518109550486505,1.4174980532728136
2024-09-22 23:18:38.133621,39.46,0.049716,-0.1292147767653159,0.05286890675411555,0.9632269055349989,0.8968511162549258,-1.518109550486505,1.3868447936475277
2024-09-22 23:18:38.145208,39.46,0.049716,-0.13342231785485503,0.05238104182524297,0.9715810342180133,0.8049487003164366,-1.518109550486505,1.3868447936475277
2024-09-22 23:18:38.179605,39.46,0.049716,-0.13342231785485503,0.05238104182524297,0.9715810342180133,0.8049487003164366,-1.6274871717475354,1.3868447936475277
2024-09-22 23:18:38.191417,39.46,0.049767,-0.12854403312053156,0.05317380182847578,0.9632269055349989,0.8049487003164366,-1.6274871717475354,1.4174980532728136
2024-09-22 23:18:38.234457,39.46,0.049818,-0.1279342551236245,0.05549103112760304,0.9632269055349989,0.7524657214114443,-1.5793587601605803,1.426207081187144
2024-09-22 23:18:38.276954,39.46,0.049818,-0.1279342551236245,0.05549103112760304,0.9687760068249872,0.7524657214114443,-1.5793587601605803,1.426207081187144
2024-09-22 23:18:38.328646,39.46,0.049818,-0.1279342551236245,0.05549103112760304,0.9687760068249872,0.8268356758117675,-1.5793587601605803,1.426207081187144
2024-09-22 23:18:38.380425,39.46,0.049868,-0.1301294559124899,0.05402752140367918,0.9695686939173396,0.8268356758117675,-1.5968339121222497,1.461214801408723
2024-09-22 23:18:38.422219,39.46,0.049868,-0.1301294559124899,0.05402752140367918,0.9695686939173396,0.8268356758117675,-1.5968339121222497,1.461214801408723
2024-09-22 23:18:38.433623,39.46,0.049868,-0.1301294559124899,0.05402752140367918,0.9695686939173396,0.8268356758117675,-1.5749469899877906,1.461214801408723
2024-09-22 23:18:38.476019,39.46,0.049955,-0.12811722497813685,0.05445432954607389,0.9685930491222883,0.8268356758117675,-1.5749469899877906,1.448094003321603
2024-09-22 23:18:38.487500,39.46,0.049955,-0.12811722497813685,0.05445432954607389,0.9685930491222883,0.8399564205380157,-1.5749469899877906,1.448094003321603
2024-09-22 23:18:38.529195,39.46,0.050007,-0.12579999567900957,0.05146636267806898,0.9642025503300502,0.8399564205380157,-1.6143664803821594,1.43932777255252
2024-09-22 23:18:38.571499,39.46,0.050007,-0.12579999567900957,0.05146636267806898,0.9642025503300502,0.8268356758117675,-1.4874562908612192,1.4524485706396402
2024-09-22 23:18:38.583668,39.46,0.050057,-0.12665372133011968,0.05518613605324281,0.9642025503300502,0.8268356758117675,-1.4874562908612192,1.4524485706396402
2024-09-22 23:18:38.625242,39.41,0.050057,-0.12665372133011968,0.05518613605324281,0.9629220408401722,0.24935132597303017,-1.6012456822950394,1.4524485706396402
2024-09-22 23:18:38.667586,39.41,0.050199,-0.12665372133011968,0.05518613605324281,0.9629220408401722,0.24935132597303017,-1.6012456822950394,1.4218526205908506
2024-09-22 23:18:38.679301,39.41,0.050199,-0.12860499876840883,0.057076453919561385,0.9634098632376978,0.6824502809682861,-1.6012456822950394,1.4218526205908506
2024-09-22 23:18:38.721074,39.41,0.05025,-0.13189786071077397,0.05585687969802716,0.9687760068249872,0.6824502809682861,-1.6230754015747457,1.4174980532728136
2024-09-22 23:18:38.773277,39.41,0.050346,-0.1283610632660192,0.05262497732763261,0.9687760068249872,0.7393449766851962,-1.4874562908612192,1.3562488435987383
2024-09-22 23:18:38.815419,39.41,0.050346,-0.1283610632660192,0.05262497732763261,0.9636536772219534,0.6168465573370456,-1.56623796207346,1.3562488435987383
2024-09-22 23:18:38.827154,39.41,0.050397,-0.12866595226447272,0.05262497732763261,0.9636536772219534,0.6168465573370456,-1.56623796207346,1.483101830264926
2024-09-22 23:18:38.868800,39.41,0.050448,-0.12866595226447272,0.05317380182847578,0.9677393113193647,0.7962397257629782,-1.6012456822950394,1.426207081187144
2024-09-22 23:18:38.911418,39.41,0.050448,-0.13262966721794292,0.05445432954607389,0.9677393113193647,0.7962397257629782,-1.6012456822950394,1.426207081187144
2024-09-22 23:18:38.922671,39.41,0.050448,-0.13262966721794292,0.05445432954607389,0.9671295819297113,0.8443681907108054,-1.434973311956227,1.413086283100024
2024-09-22 23:18:38.965370,39.41,0.050541,-0.12866595226447272,0.05341773733086542,0.9692028757264489,0.7612320055413991,-1.5443510399390012,1.413086283100024
2024-09-22 23:18:39.007142,39.41,0.050541,-0.12866595226447272,0.05341773733086542,0.9692028757264489,0.7612320055413991,-1.5443510399390012,1.4437395427253097
2024-09-22 23:18:39.018019,39.41,0.050592,-0.1279342551236245,0.052198163109331196,0.966031932928025,0.6343218160204589,-1.5443510399390012,1.4437395427253097
2024-09-22 23:18:39.060145,39.41,0.050643,-0.130068502416426,0.052198163109331196,0.966031932928025,0.6343218160204589,-1.518109550486505,1.3911993609655648
2024-09-22 23:18:39.073061,39.41,0.050643,-0.130068502416426,0.05360060997087049,0.9672515861363464,0.6343218160204589,-1.518109550486505,1.3911993609655648
2024-09-22 23:18:39.104623,39.41,0.050643,-0.130068502416426,0.05360060997087049,0.9672515861363464,0.7436994906423613,-1.518109550486505,1.3911993609655648
2024-09-22 23:18:39.115489,39.41,0.050694,-0.1261048968292765,0.05646666377084092,0.9672515861363464,0.7436994906423613,-1.5793587601605803,1.4568603408124299
2024-09-22 23:18:39.158139,39.41,0.050694,-0.1261048968292765,0.05646666377084092,0.9626781296414094,0.7787072108639405,-1.6012456822950394,1.3868447936475277
2024-09-22 23:18:39.170853,39.41,0.050744,-0.12671467482618357,0.05646666377084092,0.9626781296414094,0.7787072108639405,-1.6012456822950394,1.3868447936475277
2024-09-22 23:18:39.203533,39.41,0.050744,-0.12671467482618357,0.05366156954284108,0.9666416623176785,0.7787072108639405,-1.6012456822950394,1.3868447936475277
2024-09-22 23:18:39.214905,39.41,0.050833,-0.12671467482618357,0.05366156954284108,0.9666416623176785,0.936213403794542,-1.491868061034009,1.43932777255252
2024-09-22 23:18:39.256514,39.41,0.050833,-0.1287270151268573,0.05347869690283601,0.9699346093227375,0.748111260815151,-1.5443510399390012,1.43932777255252
2024-09-22 23:18:39.267688,39.41,0.050833,-0.1287270151268573,0.05347869690283601,0.9699346093227375,0.748111260815151,-1.5443510399390012,1.3037086618389935
2024-09-22 23:18:39.309711,39.41,0.050884,-0.1280561742675657,0.057259429849980434,0.9690809687343211,0.8661979099905118,-1.539996472620964,1.3037086618389935
2024-09-22 23:18:39.351539,39.41,0.050935,-0.12976360126615907,0.057259429849980434,0.9690809687343211,0.8661979099905118,-1.539996472620964,1.404320052330941
2024-09-22 23:18:39.362510,39.41,0.050935,-0.12976360126615907,0.05262497732763261,0.9689589645276862,0.8093604704892263,-1.539996472620964,1.404320052330941
2024-09-22 23:18:39.404705,39.41,0.050986,-0.1287879686229212,0.049210092950912304,0.9685930491222883,0.8093604704892263,-1.553117270708084,1.3562488435987383
2024-09-22 23:18:39.447147,39.41,0.050986,-0.1287879686229212,0.049210092950912304,0.9685930491222883,0.7918279555901885,-1.553117270708084,1.3562488435987383
2024-09-22 23:18:39.458329,39.41,0.051037,-0.13110519792204844,0.05646666377084092,0.9685930491222883,0.7918279555901885,-1.5618261919006706,1.43932777255252
2024-09-22 23:18:39.500809,39.41,0.051087,-0.13110519792204844,0.05646666377084092,0.9591412714375875,0.7393449766851962,-1.6537286612000317,1.4087318225037306
2024-09-22 23:18:39.512130,39.41,0.051087,-0.13360529986118078,0.05646666377084092,0.9591412714375875,0.7393449766851962,-1.6537286612000317,1.4087318225037306
2024-09-22 23:18:39.543544,39.41,0.051087,-0.13360529986118078,0.052198163109331196,0.9591412714375875,0.7393449766851962,-1.6537286612000317,1.4087318225037306
2024-09-22 23:18:39.555216,39.41,0.051174,-0.13360529986118078,0.052198163109331196,0.9690809687343211,0.7612320055413991,-1.483101830264926,1.3824903330512346
2024-09-22 23:18:39.598517,39.41,0.051174,-0.1261658503253404,0.0518322112484931,0.9677393113193647,0.678095767011121,-1.6056002496130763,1.474335492774099
2024-09-22 23:18:39.650902,39.57,0.051226,-0.13201987706922244,0.05061264006491222,0.9679833197326349,0.6868620511410758,-1.636196199661866,1.474335492774099
2024-09-22 23:18:39.692169,39.57,0.051276,-0.1297026477700952,0.05061264006491222,0.9679833197326349,0.6868620511410758,-1.636196199661866,1.3956111311383546
2024-09-22 23:18:39.703354,39.57,0.051276,-0.1297026477700952,0.05451528911804448,0.9659709794319611,0.8924966556586326,-1.636196199661866,1.3956111311383546
2024-09-22 23:18:39.745827,39.57,0.051327,-0.13147105256837927,0.05713741349153197,0.9646903727275759,0.8924966556586326,-1.5968339121222497,1.4174980532728136
2024-09-22 23:18:39.787130,39.57,0.051327,-0.13147105256837927,0.05713741349153197,0.9646903727275759,0.8005942397201434,-1.5968339121222497,1.4174980532728136
2024-09-22 23:18:39.798052,39.57,0.051378,-0.130495407773328,0.05347869690283601,0.9646903727275759,0.8005942397201434,-1.5005769822265953,1.434973311956227
2024-09-22 23:18:39.840049,39.57,0.051378,-0.130495407773328,0.05347869690283601,0.9646294192315119,0.8224812152154743,-1.5968339121222497,1.3780785628784449
2024-09-22 23:18:39.852535,39.57,0.051428,-0.1280561742675657,0.05347869690283601,0.9646294192315119,0.8224812152154743,-1.5968339121222497,1.3780785628784449
2024-09-22 23:18:39.894819,39.57,0.051515,-0.1280561742675657,0.05530805519718399,0.9671295819297113,0.8224812152154743,-1.6449624304309487,1.496222521630302
2024-09-22 23:18:39.936056,39.57,0.051515,-0.1300075367685487,0.05494220055085317,0.9645074150248769,0.8224812152154743,-1.6449624304309487,1.496222521630302
2024-09-22 23:18:39.948059,39.57,0.051515,-0.1300075367685487,0.05494220055085317,0.9645074150248769,0.8180694450426846,-1.6230754015747457,1.469981032177806
2024-09-22 23:18:39.989817,39.57,0.051567,-0.12890988776686238,0.052015187178912146,0.9664588018294867,0.691216511737369,-1.5924794515259564,1.469981032177806
2024-09-22 23:18:40.032758,39.57,0.051617,-0.12890988776686238,0.052015187178912146,0.9664588018294867,0.691216511737369,-1.5924794515259564,1.474335492774099
2024-09-22 23:18:40.044078,39.57,0.051617,-0.13067829256514646,0.05402752140367918,0.9642025503300502,0.7743527502676472,-1.5924794515259564,1.474335492774099
2024-09-22 23:18:40.086225,39.57,0.051668,-0.12817817847420074,0.05079561599533128,0.9638976856352235,0.7743527502676472,-1.697445409335941,1.413086283100024
2024-09-22 23:18:40.128352,39.57,0.051668,-0.12817817847420074,0.05079561599533128,0.9638976856352235,0.8924966556586326,-1.697445409335941,1.413086283100024
2024-09-22 23:18:40.139881,39.57,0.051719,-0.12769031962123487,0.05482018419240471,0.9638976856352235,0.8924966556586326,-1.4874562908612192,1.3911993609655648
2024-09-22 23:18:40.182385,39.57,0.05177,-0.12769031962123487,0.05482018419240471,0.9676783578233009,0.8880848854858429,-1.5793587601605803,1.5224640110827983
2024-09-22 23:18:40.194015,39.57,0.05177,-0.1313490240581174,0.05482018419240471,0.9676783578233009,0.8880848854858429,-1.5793587601605803,1.5224640110827983
2024-09-22 23:18:40.226885,39.57,0.05177,-0.1313490240581174,0.05250305818369143,0.9676783578233009,0.8880848854858429,-1.5793587601605803,1.5224640110827983
2024-09-22 23:18:40.237802,39.57,0.051857,-0.1313490240581174,0.05250305818369143,0.9719468524089039,0.3280757409696467,-1.483101830264926,1.4306188513599336
2024-09-22 23:18:40.279519,39.57,0.051857,-0.13092222806753612,0.05427145690606882,0.9682881844274616,0.7962397257629782,-1.3868447936475277,1.4306188513599336
2024-09-22 23:18:40.290898,39.57,0.051857,-0.13092222806753612,0.05427145690606882,0.9682881844274616,0.7962397257629782,-1.3868447936475277,1.531230241851881
2024-09-22 23:18:40.333642,39.57,0.051908,-0.12775127311729872,0.05518613605324281,0.9667027130282496,0.914326374938339,-1.5618261919006706,1.531230241851881
2024-09-22 23:18:40.375783,39.57,0.051959,-0.12933680527557775,0.05518613605324281,0.9667027130282496,0.914326374938339,-1.5618261919006706,1.3606034109167755
2024-09-22 23:18:40.387281,39.57,0.051959,-0.12933680527557775,0.05390550504523072,0.9662758441267878,0.936213403794542,-1.5618261919006706,1.3606034109167755
2024-09-22 23:18:40.429552,39.57,0.052009,-0.12854403312053156,0.05030774802850534,0.9660929836385962,0.936213403794542,-1.5880676813531667,1.3343619214642792
2024-09-22 23:18:40.472544,39.57,0.052009,-0.12854403312053156,0.05030774802850534,0.9660929836385962,0.8049487003164366,-1.3649578715130686,1.5224640110827983
2024-09-22 23:18:40.484032,39.57,0.05206,-0.13080030892359493,0.05049072395892439,0.9660929836385962,0.8049487003164366,-1.3649578715130686,1.5224640110827983
2024-09-22 23:18:40.525931,39.57,0.052111,-0.1309831815636,0.05049072395892439,0.9667636665243134,0.8137149310855195,-1.43932777255252,1.434973311956227
2024-09-22 23:18:40.568629,39.57,0.052111,-0.1309831815636,0.05439337605001,0.9654831570344354,0.8137149310855195,-1.43932777255252,1.434973311956227
2024-09-22 23:18:40.580284,39.57,0.052111,-0.1309831815636,0.05439337605001,0.9654831570344354,0.8137149310855195,-1.43932777255252,1.434973311956227
2024-09-22 23:18:40.622441,39.57,0.052198,-0.1283000976181419,0.0569545347756202,0.9654831570344354,0.8137149310855195,-1.539996472620964,1.4437395427253097
2024-09-22 23:18:40.633847,39.57,0.052198,-0.1283000976181419,0.0569545347756202,0.9667027130282496,0.8137149310855195,-1.539996472620964,1.4437395427253097
2024-09-22 23:18:40.665930,39.5,0.052198,-0.1283000976181419,0.0569545347756202,0.9667027130282496,0.8968511162549258,-1.5136977803137153,1.4437395427253097
2024-09-22 23:18:40.677427,39.5,0.052249,-0.12903190412531082,0.05372263240522565,0.9667027130282496,0.8968511162549258,-1.5136977803137153,1.4437395427253097
2024-09-22 23:18:40.720252,39.5,0.0523,-0.1300075367685487,0.05372263240522565,0.9629829943362361,0.9099719143420458,-1.483101830264926,1.3387163820605725
2024-09-22 23:18:40.763161,39.5,0.0523,-0.1300075367685487,0.0569545347756202,0.9629829943362361,0.9099719143420458,-1.483101830264926,1.3387163820605725
2024-09-22 23:18:40.774073,39.5,0.052351,-0.1300075367685487,0.0569545347756202,0.9712761695231866,1.0062288442377,-1.518109550486505,1.3606034109167755
2024-09-22 23:18:40.816213,39.5,0.052351,-0.13141009907231538,0.0518322112484931,0.9668247172348846,0.9056174537457525,-1.649316891027242,1.3606034109167755
2024-09-22 23:18:40.827797,39.5,0.052351,-0.13141009907231538,0.0518322112484931,0.9668247172348846,0.9056174537457525,-1.649316891027242,1.3956111311383546
2024-09-22 23:18:40.859603,39.5,0.052442,-0.13141009907231538,0.0518322112484931,0.9668247172348846,0.9056174537457525,-1.649316891027242,1.3956111311383546
2024-09-22 23:18:40.870568,39.5,0.052442,-0.1283610632660192,0.05317380182847578,0.9672515861363464,0.8005942397201434,-1.5136977803137153,1.3956111311383546
2024-09-22 23:18:40.912371,39.5,0.052493,-0.1265317049716712,0.052198163109331196,0.9672515861363464,0.8005942397201434,-1.5136977803137153,1.3999655917346479
2024-09-22 23:18:40.923710,39.5,0.052493,-0.1265317049716712,0.052198163109331196,0.9689589645276862,0.678095767011121,-1.5136977803137153,1.3999655917346479
2024-09-22 23:18:40.966280,39.5,0.052544,-0.1278732894757472,0.05329572097241696,0.968836960321051,0.678095767011121,-1.491868061034009,1.3737241022821516
2024-09-22 23:18:41.008271,39.5,0.052544,-0.1278732894757472,0.05329572097241696,0.968836960321051,0.713103540593572,-1.5487055005352943,1.3737241022821516
2024-09-22 23:18:41.019202,39.5,0.052595,-0.12939775877164164,0.05164933860848803,0.968836960321051,0.713103540593572,-1.5487055005352943,1.3956111311383546
2024-09-22 23:18:41.061298,39.5,0.052645,-0.1287270151268573,0.05164933860848803,0.9651172416290376,0.7655864661376923,-1.6318416323438287,1.4568603408124299
2024-09-22 23:18:41.104975,39.5,0.052645,-0.1287270151268573,0.05427145690606882,0.9658490724398333,0.7655864661376923,-1.6318416323438287,1.4568603408124299
2024-09-22 23:18:41.116127,39.5,0.052734,-0.1287270151268573,0.05427145690606882,0.9658490724398333,0.769998236310482,-1.6230754015747457,1.3649578715130686
2024-09-22 23:18:41.158338,39.5,0.052734,-0.13208083056528633,0.052015187178912146,0.9643245545366853,0.769998236310482,-1.6230754015747457,1.3649578715130686
2024-09-22 23:18:41.210418,39.5,0.052786,-0.1279342551236245,0.05738134291801491,0.9643245545366853,0.6955710256945342,-1.3474826128296553,1.5268184716790913
2024-09-22 23:18:41.252632,39.5,0.052786,-0.1279342551236245,0.05738134291801491,0.9659709794319611,0.8137149310855195,-1.5487055005352943,1.5268184716790913
2024-09-22 23:18:41.263329,39.5,0.052836,-0.12677564047406087,0.05738134291801491,0.9659709794319611,0.8137149310855195,-1.5487055005352943,1.509343212995678
2024-09-22 23:18:41.304591,39.5,0.052887,-0.12677564047406087,0.05396656183170859,0.9675564508311731,0.914326374938339,-1.6537286612000317,1.4437395427253097
2024-09-22 23:18:41.397181,39.5,0.052887,-0.13171498807076892,0.05622273434435798,0.9675564508311731,0.914326374938339,-1.6537286612000317,1.4437395427253097
2024-09-22 23:18:41.408982,39.5,0.052887,-0.13171498807076892,0.05622273434435798,0.9659709794319611,0.914326374938339,-1.6537286612000317,1.4437395427253097
2024-09-22 23:18:41.451053,39.5,0.052938,-0.13201987706922244,0.05262497732763261,0.9659709794319611,0.8443681907108054,-1.671203919883445,1.3693696416858583
2024-09-22 23:18:41.503031,39.5,0.053028,-0.13281253985794797,0.05262497732763261,0.9648733304302748,0.7874734949938953,-1.404320052330941,1.4568603408124299
2024-09-22 23:18:41.596081,39.5,0.053028,-0.13281253985794797,0.05164933860848803,0.9646903727275759,0.7524657214114443,-1.518109550486505,1.4437395427253097
2024-09-22 23:18:41.607463,39.5,0.053079,-0.13281253985794797,0.05164933860848803,0.9646903727275759,0.7524657214114443,-1.518109550486505,1.4437395427253097
2024-09-22 23:18:41.649484,39.5,0.053079,-0.13025147227093836,0.05329572097241696,0.9655441105304994,0.748111260815151,-1.491868061034009,1.483101830264926
2024-09-22 23:18:41.691729,39.26,0.053129,-0.12732446497490402,0.0526859308236965,0.9655441105304994,0.748111260815151,-1.491868061034009,1.483101830264926
2024-09-22 23:18:41.702838,39.26,0.053129,-0.12732446497490402,0.0526859308236965,0.9669466242270124,0.9405678643908352,-1.469981032177806,1.483101830264926
2024-09-22 23:18:41.744607,39.26,0.053271,-0.12951967791558283,0.050551680492941634,0.9633488125271267,0.8661979099905118,-1.469981032177806,1.3956111311383546
2024-09-22 23:18:41.788267,39.26,0.053271,-0.12951967791558283,0.050551680492941634,0.9633488125271267,0.8661979099905118,-1.5136977803137153,1.448094003321603
2024-09-22 23:18:41.799665,39.26,0.053322,-0.12909286977318812,0.04975892048970882,0.9621292565333126,0.8661979099905118,-1.5136977803137153,1.448094003321603
2024-09-22 23:18:41.840864,39.26,0.053419,-0.12762935397335756,0.05445432954607389,0.9621292565333126,0.7087490266364068,-1.553117270708084,1.3868447936475277
2024-09-22 23:18:41.892896,39.26,0.053469,-0.12848307962446767,0.05445432954607389,0.9699346093227375,-0.16621511412318796,-1.5268184716790913,1.434973311956227
2024-09-22 23:18:41.934701,39.26,0.053469,-0.12848307962446767,0.05445432954607389,0.96901991802375,0.9537458653327078,-1.5268184716790913,1.434973311956227
2024-09-22 23:18:41.945828,39.26,0.053563,-0.12848307962446767,0.05445432954607389,0.96901991802375,0.9537458653327078,-1.448094003321603,1.3474826128296553
2024-09-22 23:18:41.987301,39.26,0.053563,-0.12799520861968838,0.05372263240522565,0.9698126051161023,-0.3674952580444515,-1.6056002496130763,1.5355847024481744
2024-09-22 23:18:42.039673,39.26,0.053614,-0.13080030892359493,0.05549103112760304,0.9652392458356727,0.10061142384249251,-1.706211640105024,1.5355847024481744
2024-09-22 23:18:42.081610,39.26,0.053665,-0.1317759415668328,0.05549103112760304,0.9652392458356727,0.10061142384249251,-1.706211640105024,1.531230241851881
2024-09-22 23:18:42.093085,39.26,0.053665,-0.1317759415668328,0.051710298180458615,0.9667636665243134,0.3018342781975865,-1.706211640105024,1.531230241851881
2024-09-22 23:18:42.134433,39.26,0.053665,-0.1317759415668328,0.051710298180458615,0.9667636665243134,0.3018342781975865,-1.5924794515259564,1.4306188513599336
2024-09-22 23:18:42.175855,39.26,0.053716,-0.1317759415668328,0.051710298180458615,0.9667636665243134,0.3018342781975865,-1.5924794515259564,1.4306188513599336
2024-09-22 23:18:42.187637,39.26,0.053716,-0.12598288047082806,0.04738073465656432,0.9719468524089039,0.3018342781975865,-1.5924794515259564,1.4306188513599336
2024-09-22 23:18:42.230737,39.26,0.053766,-0.12598288047082806,0.04738073465656432,0.9719468524089039,-1.8287099527314306,-1.6624948919691145,1.3562488435987383
2024-09-22 23:18:42.242460,39.26,0.053766,-0.12433649203099241,0.05030774802850534,0.9719468524089039,-1.8287099527314306,-1.6624948919691145,1.3562488435987383
2024-09-22 23:18:42.274548,39.26,0.053766,-0.12433649203099241,0.05030774802850534,0.9681052267247626,-1.8287099527314306,-1.6624948919691145,1.3562488435987383
2024-09-22 23:18:42.285764,39.26,0.053817,-0.1295807407779674,0.05030774802850534,0.9681052267247626,-2.3449452262982726,-1.461214801408723,1.5224640110827983
2024-09-22 23:18:42.382943,39.26,0.053904,-0.1295807407779674,0.05238104182524297,0.9668247172348846,-0.42433269754573705,-1.5837132207568734,1.5793587601605803
2024-09-22 23:18:42.425594,39.26,0.053904,-0.1275074469812298,0.059210701212362896,0.9693858334291479,0.734990516088903,-1.5837132207568734,1.5793587601605803
2024-09-22 23:18:42.439171,39.26,0.053904,-0.1275074469812298,0.059210701212362896,0.9693858334291479,0.734990516088903,-1.4874562908612192,1.5749469899877906
2024-09-22 23:18:42.471611,39.26,0.053955,-0.1275074469812298,0.059210701212362896,0.9693858334291479,0.734990516088903,-1.4874562908612192,1.5749469899877906
2024-09-22 23:18:42.482996,39.26,0.053955,-0.1275074469812298,0.055978798841968345,0.9681662774353338,0.7393449766851962,-1.5749469899877906,1.5749469899877906
2024-09-22 23:18:42.525084,39.26,0.053955,-0.1275074469812298,0.055978798841968345,0.9681662774353338,0.7393449766851962,-1.5749469899877906,1.5487055005352943
2024-09-22 23:18:42.566907,39.26,0.054051,-0.1275074469812298,0.055978798841968345,0.9681662774353338,0.7393449766851962,-1.5749469899877906,1.5487055005352943
2024-09-22 23:18:42.579853,39.26,0.054051,-0.12579999567900957,0.06097909993474029,0.9716419877140772,-1.4218526205908506,-1.2993542012427002,1.5487055005352943
2024-09-22 23:18:42.622467,39.26,0.054102,-0.12933680527557775,0.06097909993474029,0.9716419877140772,-1.4218526205908506,-1.2993542012427002,1.3824903330512346
2024-09-22 23:18:42.665473,39.26,0.054102,-0.12933680527557775,0.0622596337282451,0.9716419877140772,-1.4218526205908506,-1.2993542012427002,1.3824903330512346
2024-09-22 23:18:42.676715,39.26,0.054199,-0.12933680527557775,0.0622596337282451,0.9680442732286988,0.6955710256945342,-1.6230754015747457,1.3999655917346479
2024-09-22 23:18:42.720285,38.96,0.054199,-0.1292757424131932,0.059271660784333484,0.9681662774353338,0.8837304248895496,-1.469981032177806,1.3999655917346479
2024-09-22 23:18:42.732663,38.96,0.054199,-0.1292757424131932,0.059271660784333484,0.9681662774353338,0.8837304248895496,-1.469981032177806,1.3911993609655648
2024-09-22 23:18:42.764282,38.96,0.054249,-0.13073924606121035,0.059271660784333484,0.9681662774353338,0.8837304248895496,-1.469981032177806,1.3911993609655648
2024-09-22 23:18:42.775477,38.96,0.054249,-0.13073924606121035,0.05945463671475253,0.9670076749375836,0.8137149310855195,-1.5618261919006706,1.3911993609655648
2024-09-22 23:18:42.817713,38.96,0.054343,-0.12689754746618864,0.05963761264517159,0.9667027130282496,0.8137149310855195,-1.5618261919006706,1.3518370734259486
2024-09-22 23:18:42.829998,38.96,0.054343,-0.12689754746618864,0.05963761264517159,0.9667027130282496,0.7524657214114443,-1.5618261919006706,1.3518370734259486
2024-09-22 23:18:42.862134,38.96,0.054343,-0.12689754746618864,0.05963761264517159,0.9667027130282496,0.7524657214114443,-1.7368648997303098,1.3737241022821516
2024-09-22 23:18:42.873643,38.96,0.05444,-0.13037339141487952,0.0609181464386764,0.96615393713466,0.7524657214114443,-1.7368648997303098,1.3737241022821516
2024-09-22 23:18:42.916376,38.96,0.054492,-0.13025147227093836,0.059271660784333484,0.96615393713466,0.8618434493942186,-1.5136977803137153,1.461214801408723
2024-09-22 23:18:42.958566,38.96,0.054492,-0.13025147227093836,0.059271660784333484,0.9689589645276862,0.7436994906423613,-1.5136977803137153,1.461214801408723
2024-09-22 23:18:42.970052,38.96,0.054492,-0.13025147227093836,0.059271660784333484,0.9689589645276862,0.7436994906423613,-1.4568603408124299,1.4306188513599336
2024-09-22 23:18:43.012043,38.96,0.054542,-0.12683659397012476,0.05969857221714218,0.9646903727275759,0.7436994906423613,-1.4568603408124299,1.4306188513599336
2024-09-22 23:18:43.023820,38.96,0.054542,-0.12683659397012476,0.05969857221714218,0.9646903727275759,0.8224812152154743,-1.539996472620964,1.4306188513599336
2024-09-22 23:18:43.056036,38.96,0.054636,-0.12683659397012476,0.05969857221714218,0.9646903727275759,0.8224812152154743,-1.539996472620964,1.469981032177806
2024-09-22 23:18:43.068398,38.96,0.054636,-0.12799520861968838,0.05774719756434574,0.9667636665243134,0.7568202353686094,-1.539996472620964,1.469981032177806
2024-09-22 23:18:43.110851,38.96,0.054687,-0.12775127311729872,0.061040059506710875,0.9667636665243134,0.7568202353686094,-1.5268184716790913,1.4568603408124299
2024-09-22 23:18:43.122670,38.96,0.054687,-0.12775127311729872,0.061040059506710875,0.9654831570344354,0.7568202353686094,-1.5268184716790913,1.4568603408124299
2024-09-22 23:18:43.154661,38.96,0.054687,-0.12775127311729872,0.061040059506710875,0.9654831570344354,0.8356019599417225,-1.5705924226697534,1.4568603408124299
2024-09-22 23:18:43.165729,38.96,0.054738,-0.12769031962123487,0.06079622729473522,0.9654831570344354,0.8356019599417225,-1.5705924226697534,1.434973311956227
2024-09-22 23:18:43.208684,38.96,0.054789,-0.1297026477700952,0.06079622729473522,0.9652392458356727,0.6868620511410758,-1.518109550486505,1.4787472629468887
2024-09-22 23:18:43.254236,38.96,0.054789,-0.1297026477700952,0.058844852641938776,0.965726971018691,0.8574889354370534,-1.518109550486505,1.4787472629468887
2024-09-22 23:18:43.266068,38.96,0.054879,-0.1297026477700952,0.058844852641938776,0.965726971018691,0.8574889354370534,-1.539996472620964,1.3518370734259486
2024-09-22 23:18:43.297866,38.96,0.054879,-0.13305647536033763,0.058844852641938776,0.965726971018691,0.8574889354370534,-1.539996472620964,1.3518370734259486
2024-09-22 23:18:43.309390,38.96,0.054879,-0.13305647536033763,0.06036931586192653,0.9659709794319611,0.914326374938339,-1.5224640110827983,1.3956111311383546
2024-09-22 23:18:43.352642,38.96,0.054931,-0.13073924606121035,0.05914974771629901,0.9659709794319611,0.914326374938339,-1.5224640110827983,1.3956111311383546
2024-09-22 23:18:43.405909,38.96,0.054981,-0.1305563734212053,0.05914974771629901,0.9683491379235255,0.8224812152154743,-1.474335492774099,1.474335492774099
2024-09-22 23:18:43.448248,38.96,0.054981,-0.1305563734212053,0.06530866345863459,0.9602998739353378,0.8618434493942186,-1.474335492774099,1.474335492774099
2024-09-22 23:18:43.459761,38.96,0.055032,-0.1305563734212053,0.06530866345863459,0.9602998739353378,0.8618434493942186,-1.5224640110827983,1.6887363814216108
2024-09-22 23:18:43.502561,38.96,0.055032,-0.12640978582773005,0.06036931586192653,0.9658490724398333,0.7436994906423613,-1.6056002496130763,1.4218526205908506
2024-09-22 23:18:43.545006,38.96,0.055083,-0.13025147227093836,0.05823506856912502,0.9658490724398333,0.7436994906423613,-1.6056002496130763,1.4218526205908506
2024-09-22 23:18:43.556515,38.96,0.055083,-0.13025147227093836,0.05823506856912502,0.9662758441267878,0.8487227046679705,-1.741219360326603,1.4218526205908506
2024-09-22 23:18:43.600101,38.96,0.055134,-0.12945871226770553,0.059393677142781945,0.9628610873441084,0.6737413064148277,-1.741219360326603,1.3212411233771593
2024-09-22 23:18:43.642654,38.96,0.055222,-0.12945871226770553,0.059393677142781945,0.9628610873441084,0.6737413064148277,-1.6143664803821594,1.413086283100024
2024-09-22 23:18:43.653918,38.96,0.055222,-0.12543415318449216,0.059271660784333484,0.9641415968339864,0.6737413064148277,-1.6143664803821594,1.413086283100024
2024-09-22 23:18:43.695964,38.96,0.055273,-0.128239144122078,0.059271660784333484,0.9641415968339864,0.6605632521120831,-1.6887363814216108,1.3868447936475277
2024-09-22 23:18:43.708254,38.96,0.055273,-0.128239144122078,0.056527623342811514,0.9641415968339864,0.6605632521120831,-1.6887363814216108,1.3868447936475277
2024-09-22 23:18:43.741710,39.68,0.055273,-0.128239144122078,0.056527623342811514,0.966214890630724,0.8268356758117675,-1.6799701506525277,1.3868447936475277
2024-09-22 23:18:43.753609,39.68,0.055323,-0.12811722497813685,0.056527623342811514,0.966214890630724,0.8268356758117675,-1.6799701506525277,1.3299501512914895
2024-09-22 23:18:43.786083,39.68,0.055323,-0.12811722497813685,0.05994250771953182,0.966214890630724,0.8268356758117675,-1.6799701506525277,1.3299501512914895
2024-09-22 23:18:43.798145,39.68,0.055415,-0.12811722497813685,0.05994250771953182,0.9668247172348846,0.7962397257629782,-1.4874562908612192,1.4524485706396402
2024-09-22 23:18:43.841022,39.68,0.055415,-0.1283000976181419,0.05860091713954914,0.9660929836385962,0.6649750756457448,-1.5574717313043773,1.4524485706396402
2024-09-22 23:18:43.852785,39.68,0.055415,-0.1283000976181419,0.05860091713954914,0.9660929836385962,0.6649750756457448,-1.5574717313043773,1.3780785628784449
2024-09-22 23:18:43.937440,39.68,0.055467,-0.13025147227093836,0.058356981637159494,0.9660929836385962,0.6649750756457448,-1.5574717313043773,1.3780785628784449
2024-09-22 23:18:43.949618,39.68,0.055467,-0.13025147227093836,0.058356981637159494,0.9665807088216145,0.7787072108639405,-1.6887363814216108,1.3780785628784449
2024-09-22 23:18:43.983169,39.68,0.055467,-0.13025147227093836,0.058356981637159494,0.9665807088216145,0.7787072108639405,-1.6887363814216108,1.434973311956227
2024-09-22 23:18:43.995278,39.68,0.055518,-0.1279342551236245,0.060064426863473,0.9682881844274616,0.78311898103673,-1.6887363814216108,1.434973311956227
2024-09-22 23:18:44.038642,39.68,0.055568,-0.12933680527557775,0.06110112236909545,0.9682881844274616,0.78311898103673,-1.56623796207346,1.43932777255252
2024-09-22 23:18:44.050847,39.68,0.055568,-0.12933680527557775,0.06110112236909545,0.9703005247281353,0.78311898103673,-1.56623796207346,1.43932777255252
2024-09-22 23:18:44.084150,39.68,0.055619,-0.12933680527557775,0.06110112236909545,0.9703005247281353,0.8968511162549258,-1.553117270708084,1.474335492774099
2024-09-22 23:18:44.096035,39.68,0.055619,-0.12854403312053156,0.05969857221714218,0.9703005247281353,0.8968511162549258,-1.553117270708084,1.474335492774099
2024-09-22 23:18:44.129206,39.68,0.055619,-0.12854403312053156,0.05969857221714218,0.966214890630724,0.9405678643908352,-1.553117270708084,1.474335492774099
2024-09-22 23:18:44.140590,39.68,0.05567,-0.12665372133011968,0.05969857221714218,0.966214890630724,0.9405678643908352,-1.496222521630302,1.4306188513599336
2024-09-22 23:18:44.184214,39.68,0.05567,-0.12665372133011968,0.057015494347590796,0.9678002648154287,0.748111260815151,-1.4874562908612192,1.509343212995678
2024-09-22 23:18:44.196269,39.68,0.055805,-0.12665372133011968,0.057015494347590796,0.9678002648154287,0.748111260815151,-1.4874562908612192,1.509343212995678
2024-09-22 23:18:44.227851,39.68,0.055805,-0.1287270151268573,0.062076761088240034,0.9683491379235255,0.748111260815151,-1.4874562908612192,1.509343212995678
2024-09-22 23:18:44.239157,39.68,0.055805,-0.1287270151268573,0.062076761088240034,0.9683491379235255,0.8968511162549258,-1.4437395427253097,1.4437395427253097
2024-09-22 23:18:44.282459,39.68,0.055857,-0.1280561742675657,0.0631133533034485,0.9653001993317365,0.7524657214114443,-1.4437395427253097,1.4437395427253097
2024-09-22 23:18:44.294102,39.68,0.055857,-0.1280561742675657,0.0631133533034485,0.9653001993317365,0.7524657214114443,-1.5968339121222497,1.4437395427253097
2024-09-22 23:18:44.327433,39.68,0.055908,-0.13201987706922244,0.05853995756757854,0.9653001993317365,0.7524657214114443,-1.5968339121222497,1.3956111311383546
2024-09-22 23:18:44.338699,39.68,0.055908,-0.13201987706922244,0.05853995756757854,0.9668247172348846,1.2731127117902041,-1.5968339121222497,1.3956111311383546
2024-09-22 23:18:44.373252,39.68,0.055908,-0.13201987706922244,0.05853995756757854,0.9668247172348846,1.2731127117902041,-1.5837132207568734,1.2818216329827905
2024-09-22 23:18:44.384783,39.68,0.055958,-0.12640978582773005,0.06043027543389712,0.9632878590310628,1.2731127117902041,-1.5837132207568734,1.2818216329827905
2024-09-22 23:18:44.427317,39.68,0.056009,-0.12640978582773005,0.06097909993474029,0.9632878590310628,1.0937195433642715,-1.474335492774099,1.3868447936475277
2024-09-22 23:18:44.470124,39.68,0.056009,-0.12640978582773005,0.06097909993474029,0.9629829943362361,0.9886962759777903,-1.474335492774099,1.3868447936475277
2024-09-22 23:18:44.481710,39.68,0.05606,-0.1287879686229212,0.06097909993474029,0.9629829943362361,0.9886962759777903,-1.5924794515259564,1.3299501512914895
2024-09-22 23:18:44.524117,39.68,0.05606,-0.1287879686229212,0.059393677142781945,0.9687760068249872,0.8880848854858429,-1.5793587601605803,1.3606034109167755
2024-09-22 23:18:44.536611,39.68,0.056146,-0.1287879686229212,0.059393677142781945,0.9687760068249872,0.8880848854858429,-1.5793587601605803,1.3606034109167755
2024-09-22 23:18:44.621445,39.68,0.056146,-0.12811722497813685,0.05982049136108336,0.9671905354257753,0.713103540593572,-1.5268184716790913,1.3606034109167755
2024-09-22 23:18:44.634009,39.68,0.056146,-0.12811722497813685,0.05982049136108336,0.9671905354257753,0.713103540593572,-1.5268184716790913,1.4437395427253097
2024-09-22 23:18:44.667481,39.68,0.056198,-0.13037339141487952,0.06158889008346075,0.9671905354257753,0.713103540593572,-1.5268184716790913,1.4437395427253097
2024-09-22 23:18:44.720736,39.68,0.056249,-0.13037339141487952,0.06158889008346075,0.9624341212281393,0.8356019599417225,-1.5224640110827983,1.43932777255252
2024-09-22 23:18:44.732511,39.68,0.056249,-0.1283610632660192,0.06158889008346075,0.9624341212281393,0.8356019599417225,-1.5224640110827983,1.43932777255252
2024-09-22 23:18:44.764660,40.13,0.056249,-0.1283610632660192,0.058296022065188906,0.9684711421301605,0.8356019599417225,-1.5224640110827983,1.43932777255252
2024-09-22 23:18:44.776619,40.13,0.056299,-0.1283610632660192,0.058296022065188906,0.9684711421301605,0.7918279555901885,-1.5136977803137153,1.2905878637518733
2024-09-22 23:18:44.819137,40.13,0.056299,-0.1287270151268573,0.061162081941066045,0.9668856707309486,0.8749641407595947,-1.4437395427253097,1.3956111311383546
2024-09-22 23:18:44.861471,40.13,0.05635,-0.1301294559124899,0.06043027543389712,0.9668856707309486,0.8749641407595947,-1.4437395427253097,1.3956111311383546
2024-09-22 23:18:44.873927,40.13,0.05635,-0.1301294559124899,0.06043027543389712,0.967495400120602,0.8224812152154743,-1.6187209409784526,1.3956111311383546
2024-09-22 23:18:44.906555,40.13,0.05635,-0.1301294559124899,0.06043027543389712,0.967495400120602,0.8224812152154743,-1.6187209409784526,1.3737241022821516
2024-09-22 23:18:44.917839,40.13,0.056442,-0.12677564047406087,0.059393677142781945,0.9626781296414094,0.7962397257629782,-1.6187209409784526,1.3737241022821516
2024-09-22 23:18:44.959713,40.13,0.056538,-0.12677564047406087,0.059393677142781945,0.9626781296414094,0.7962397257629782,-1.5924794515259564,1.413086283100024
2024-09-22 23:18:44.970847,40.13,0.056538,-0.130068502416426,0.05957655585869372,0.9609097005394984,0.7962397257629782,-1.5924794515259564,1.413086283100024
2024-09-22 23:18:45.013207,40.13,0.056589,-0.12573904218294568,0.06067421093628676,0.9609097005394984,0.958100325929001,-1.6143664803821594,1.43932777255252
2024-09-22 23:18:45.056177,40.13,0.056589,-0.12573904218294568,0.06067421093628676,0.9687760068249872,0.8968511162549258,-1.6143664803821594,1.43932777255252
2024-09-22 23:18:45.067327,40.13,0.05664,-0.1283610632660192,0.06067421093628676,0.9687760068249872,0.8968511162549258,-1.5749469899877906,1.4787472629468887
2024-09-22 23:18:45.109235,40.13,0.05664,-0.1283610632660192,0.06195473865388487,0.9629829943362361,0.41121195281948897,-1.553117270708084,1.4306188513599336
2024-09-22 23:18:45.120989,40.13,0.056732,-0.1283610632660192,0.06195473865388487,0.9629829943362361,0.41121195281948897,-1.553117270708084,1.4306188513599336
2024-09-22 23:18:45.153079,40.13,0.056732,-0.1275074469812298,0.05872293349799759,0.9629829943362361,0.41121195281948897,-1.553117270708084,1.4306188513599336
2024-09-22 23:18:45.164657,40.13,0.056732,-0.1275074469812298,0.05872293349799759,0.964934381140846,0.5074688827151432,-1.5968339121222497,1.4787472629468887
2024-09-22 23:18:45.207580,40.13,0.056783,-0.12140948473495809,0.059393677142781945,0.9571289311369138,0.7087490266364068,-1.3737241022821516,1.4787472629468887
2024-09-22 23:18:45.251155,40.13,0.056834,-0.12140948473495809,0.059393677142781945,0.9571289311369138,0.7087490266364068,-1.3737241022821516,1.728098668961227
2024-09-22 23:18:45.262636,40.13,0.056834,-0.13122711706598963,0.059759531789112766,0.9682881844274616,0.8661979099905118,-1.3737241022821516,1.728098668961227
2024-09-22 23:18:45.306279,40.13,0.056884,-0.12573904218294568,0.05817410899715443,0.9640806433379224,0.8661979099905118,-1.469981032177806,1.5005769822265953
2024-09-22 23:18:45.348892,40.13,0.056884,-0.12573904218294568,0.05817410899715443,0.9640806433379224,0.5118233966723085,-1.5749469899877906,1.491868061034009
2024-09-22 23:18:45.359997,40.13,0.056935,-0.1317759415668328,0.059759531789112766,0.9640806433379224,0.5118233966723085,-1.5749469899877906,1.491868061034009
2024-09-22 23:18:45.402526,40.13,0.056986,-0.1279342551236245,0.059759531789112766,0.967922366236571,0.8312474459845572,-1.509343212995678,1.3956111311383546
2024-09-22 23:18:45.445380,40.13,0.056986,-0.1279342551236245,0.05878389306996819,0.9654831570344354,0.8312474459845572,-1.509343212995678,1.3956111311383546
2024-09-22 23:18:45.457136,40.13,0.057073,-0.1279342551236245,0.05878389306996819,0.9654831570344354,0.5468311168938875,-1.6449624304309487,1.434973311956227
2024-09-22 23:18:45.499875,40.13,0.057073,-0.1288489342707985,0.05853995756757854,0.9657881189437695,0.5512428870666772,-1.6580831217963248,1.434973311956227
2024-09-22 23:18:45.512799,40.13,0.057073,-0.1288489342707985,0.05853995756757854,0.9657881189437695,0.5512428870666772,-1.6580831217963248,1.4874562908612192
2024-09-22 23:18:45.545435,40.13,0.057124,-0.13067829256514646,0.05628368784042187,0.973410416815988,0.5512428870666772,-1.6580831217963248,1.4874562908612192
2024-09-22 23:18:45.557097,40.13,0.057124,-0.13067829256514646,0.05628368784042187,0.973410416815988,-0.7087490266364068,-1.5487055005352943,1.4874562908612192
2024-09-22 23:18:45.589398,40.13,0.057124,-0.13067829256514646,0.05628368784042187,0.973410416815988,-0.7087490266364068,-1.5487055005352943,1.496222521630302
2024-09-22 23:18:45.602723,40.13,0.057175,-0.12939775877164164,0.05951559628672313,0.9714591272258856,0.9099719143420458,-1.5487055005352943,1.496222521630302
2024-09-22 23:18:45.646268,40.13,0.057226,-0.12732446497490402,0.05957655585869372,0.9714591272258856,0.9099719143420458,-1.5968339121222497,1.413086283100024
2024-09-22 23:18:45.657805,40.13,0.057226,-0.12732446497490402,0.05957655585869372,0.9633488125271267,0.9099719143420458,-1.5968339121222497,1.413086283100024
2024-09-22 23:18:45.690092,40.13,0.057226,-0.12732446497490402,0.05957655585869372,0.9633488125271267,0.8706096801633015,-1.684324611248821,1.413086283100024
2024-09-22 23:18:45.701089,40.13,0.057276,-0.1296416942740313,0.05622273434435798,0.9633488125271267,0.8706096801633015,-1.684324611248821,1.426207081187144
2024-09-22 23:18:45.744203,40.13,0.057327,-0.1309831815636,0.05622273434435798,0.9652392458356727,1.0718325145080685,-1.6230754015747457,1.294999633924663
2024-09-22 23:18:45.788259,40.55,0.057327,-0.1309831815636,0.05872293349799759,0.96901991802375,0.7743527502676472,-1.6230754015747457,1.294999633924663
2024-09-22 23:18:45.799485,40.55,0.057414,-0.1309831815636,0.05872293349799759,0.96901991802375,0.7743527502676472,-1.469981032177806,1.4787472629468887
2024-09-22 23:18:45.842409,40.55,0.057414,-0.13073924606121035,0.06061325136431617,0.9700566135293724,0.8180694450426846,-1.5443510399390012,1.518109550486505
2024-09-22 23:18:45.885453,40.55,0.057466,-0.12945871226770553,0.060125380359536885,0.9700566135293724,0.8180694450426846,-1.5443510399390012,1.518109550486505
2024-09-22 23:18:45.897369,40.55,0.057466,-0.12945871226770553,0.060125380359536885,0.9651782923396087,0.6124920967407524,-1.5880676813531667,1.518109550486505
2024-09-22 23:18:45.940829,40.55,0.057516,-0.1287879686229212,0.05890581221390937,0.9628001338480444,0.7743527502676472,-1.5880676813531667,1.509343212995678
2024-09-22 23:18:45.982772,40.55,0.057567,-0.1287879686229212,0.05890581221390937,0.9628001338480444,0.7743527502676472,-1.5749469899877906,1.496222521630302
2024-09-22 23:18:45.993870,40.55,0.057567,-0.12714148296857827,0.06097909993474029,0.9662758441267878,0.7743527502676472,-1.5749469899877906,1.496222521630302
2024-09-22 23:18:46.037318,40.55,0.057618,-0.128239144122078,0.06195473865388487,0.9662758441267878,0.8137149310855195,-1.504988752399385,1.426207081187144
2024-09-22 23:18:46.080046,40.55,0.057618,-0.128239144122078,0.06195473865388487,0.9646903727275759,0.7787072108639405,-1.496222521630302,1.426207081187144
2024-09-22 23:18:46.091041,40.55,0.057668,-0.12092161373017882,0.06195473865388487,0.9646903727275759,0.7787072108639405,-1.496222521630302,1.4787472629468887
2024-09-22 23:18:46.136002,40.55,0.057755,-0.12092161373017882,0.056161774772387395,0.9713981737298216,5.643693414062262,-1.5355847024481744,1.6318416323438287
2024-09-22 23:18:46.179302,40.55,0.057755,-0.13092222806753612,0.06049133829628169,0.9663978483334229,0.9974626134686172,-1.5355847024481744,1.6318416323438287
2024-09-22 23:18:46.190654,40.55,0.057755,-0.13092222806753612,0.06049133829628169,0.9663978483334229,0.9974626134686172,-1.461214801408723,1.404320052330941
2024-09-22 23:18:46.222837,40.55,0.057807,-0.13092222806753612,0.06049133829628169,0.9663978483334229,0.9974626134686172,-1.461214801408723,1.404320052330941
2024-09-22 23:18:46.233905,40.55,0.057807,-0.13037339141487952,0.060308356289955935,0.9700566135293724,0.7043372564636171,-1.6449624304309487,1.404320052330941
2024-09-22 23:18:46.277679,40.55,0.057858,-0.1261658503253404,0.060308356289955935,0.9700566135293724,0.7043372564636171,-1.6449624304309487,1.3868447936475277
2024-09-22 23:18:46.289483,40.55,0.057858,-0.1261658503253404,0.06195473865388487,0.96615393713466,0.7612320055413991,-1.6449624304309487,1.3868447936475277
2024-09-22 23:18:46.322071,40.55,0.057858,-0.1261658503253404,0.06195473865388487,0.96615393713466,0.7612320055413991,-1.6799701506525277,1.3868447936475277
2024-09-22 23:18:46.333916,40.55,0.057908,-0.1287879686229212,0.05994250771953182,0.9700566135293724,0.7612320055413991,-1.6799701506525277,1.3430708426568656
2024-09-22 23:18:46.375867,40.55,0.057959,-0.12762935397335756,0.05994250771953182,0.9700566135293724,0.40685746554275976,-1.5749469899877906,1.4174980532728136
2024-09-22 23:18:46.388380,40.55,0.057959,-0.12762935397335756,0.059271660784333484,0.9700566135293724,0.40685746554275976,-1.5749469899877906,1.4174980532728136
2024-09-22 23:18:46.422238,40.55,0.057959,-0.12762935397335756,0.059271660784333484,0.9684711421301605,0.9056174537457525,-1.6099547102093696,1.4174980532728136
2024-09-22 23:18:46.433196,40.55,0.05801,-0.12866595226447272,0.059271660784333484,0.9684711421301605,0.9056174537457525,-1.6099547102093696,1.3911993609655648
2024-09-22 23:18:46.476111,40.55,0.058097,-0.12866595226447272,0.06158889008346075,0.968714956114416,0.7743527502676472,-1.531230241851881,1.5355847024481744
2024-09-22 23:18:46.519466,40.55,0.058097,-0.12500723567577676,0.06036931586192653,0.9660929836385962,0.7743527502676472,-1.531230241851881,1.5355847024481744
2024-09-22 23:18:46.531062,40.55,0.058097,-0.12500723567577676,0.06036931586192653,0.9660929836385962,0.8093604704892263,-1.483101830264926,1.483101830264926
2024-09-22 23:18:46.573416,40.55,0.058148,-0.1265317049716712,0.05762527842040455,0.965726971018691,0.7612320055413991,-1.6449624304309487,1.483101830264926
2024-09-22 23:18:46.615586,40.55,0.058199,-0.1265317049716712,0.05762527842040455,0.965726971018691,0.7612320055413991,-1.6449624304309487,1.448094003321603
2024-09-22 23:18:46.627266,40.55,0.058199,-0.12458042753338205,0.06097909993474029,0.9659100259358973,0.7524657214114443,-1.6449624304309487,1.448094003321603
2024-09-22 23:18:46.670663,40.55,0.05825,-0.12647073932379393,0.05750326206195609,0.9659100259358973,0.7524657214114443,-1.684324611248821,1.3255955839734523
2024-09-22 23:18:46.682213,40.55,0.05825,-0.12647073932379393,0.05750326206195609,0.9698126051161023,0.7524657214114443,-1.684324611248821,1.3255955839734523
2024-09-22 23:18:46.714318,40.55,0.05825,-0.12647073932379393,0.05750326206195609,0.9698126051161023,1.028115873093903,-1.6143664803821594,1.2818216329827905
2024-09-22 23:18:46.725304,40.55,0.0583,-0.1292757424131932,0.06189377908191428,0.9698126051161023,1.028115873093903,-1.6143664803821594,1.2818216329827905
2024-09-22 23:18:46.767897,40.55,0.058351,-0.12976360126615907,0.06189377908191428,0.9606048358446717,0.7436994906423613,-1.4306188513599336,1.413086283100024
2024-09-22 23:18:46.811200,40.74,0.058351,-0.12976360126615907,0.05951559628672313,0.9653611528278004,0.7087490266364068,-1.4306188513599336,1.413086283100024
2024-09-22 23:18:46.822677,40.74,0.058438,-0.12976360126615907,0.05951559628672313,0.9653611528278004,0.7087490266364068,-1.56623796207346,1.3737241022821516
2024-09-22 23:18:46.865747,40.74,0.058438,-0.12848307962446767,0.05945463671475253,0.9686540026183521,0.8618434493942186,-1.539996472620964,1.404320052330941
2024-09-22 23:18:46.909027,40.74,0.058489,-0.1297026477700952,0.06250356923063474,0.9686540026183521,0.8618434493942186,-1.539996472620964,1.404320052330941
2024-09-22 23:18:46.920361,40.74,0.058489,-0.1297026477700952,0.06250356923063474,0.9692638292225129,0.8530771652642637,-1.6449624304309487,1.404320052330941
2024-09-22 23:18:46.964267,40.74,0.05854,-0.1295807407779674,0.05982049136108336,0.964934381140846,0.8093604704892263,-1.6449624304309487,1.3824903330512346
2024-09-22 23:18:47.007794,40.74,0.058591,-0.1295807407779674,0.05982049136108336,0.964934381140846,0.8093604704892263,-1.7543400516919792,1.4306188513599336
2024-09-22 23:18:47.019440,40.74,0.058591,-0.1292757424131932,0.0578692139227942,0.9667636665243134,0.8093604704892263,-1.7543400516919792,1.4306188513599336
2024-09-22 23:18:47.051453,40.74,0.058591,-0.1292757424131932,0.0578692139227942,0.9667636665243134,0.8574889354370534,-1.7543400516919792,1.4306188513599336
2024-09-22 23:18:47.063310,40.74,0.058642,-0.1300075367685487,0.061162081941066045,0.9667636665243134,0.8574889354370534,-1.504988752399385,1.413086283100024
2024-09-22 23:18:47.106686,40.74,0.058642,-0.1300075367685487,0.061162081941066045,0.9663978483334229,0.7787072108639405,-1.5749469899877906,1.413086283100024
2024-09-22 23:18:47.118006,40.74,0.058692,-0.13287360272033255,0.061162081941066045,0.9663978483334229,0.7787072108639405,-1.5749469899877906,1.3649578715130686
2024-09-22 23:18:47.150873,40.74,0.058692,-0.13287360272033255,0.06067421093628676,0.9663978483334229,0.7787072108639405,-1.5749469899877906,1.3649578715130686
2024-09-22 23:18:47.162635,40.74,0.058779,-0.13287360272033255,0.06067421093628676,0.9656050640265632,0.9974626134686172,-1.469981032177806,1.404320052330941
2024-09-22 23:18:47.205903,40.74,0.058779,-0.1261658503253404,0.05982049136108336,0.9689589645276862,0.4155664400962181,-1.5268184716790913,1.469981032177806
2024-09-22 23:18:47.248367,40.74,0.058831,-0.12988562977642093,0.05982049136108336,0.9689589645276862,0.4155664400962181,-1.5268184716790913,1.469981032177806
2024-09-22 23:18:47.259429,40.74,0.058831,-0.12988562977642093,0.05866187671151973,0.9685320956262243,0.4330989549952559,-1.6624948919691145,1.469981032177806
2024-09-22 23:18:47.302196,40.74,0.058881,-0.12640978582773005,0.06122303543712993,0.9672515861363464,0.4330989549952559,-1.6624948919691145,1.3606034109167755
2024-09-22 23:18:47.313607,40.74,0.058881,-0.12640978582773005,0.06122303543712993,0.9672515861363464,0.9318589431982487,-1.6624948919691145,1.3606034109167755
2024-09-22 23:18:47.345368,40.74,0.058881,-0.12640978582773005,0.06122303543712993,0.9672515861363464,0.9318589431982487,-1.5487055005352943,1.3606034109167755
2024-09-22 23:18:47.356904,40.74,0.058932,-0.12482426582126442,0.06195473865388487,0.9656660175226272,0.9318589431982487,-1.5487055005352943,1.43932777255252
2024-09-22 23:18:47.398805,40.74,0.058983,-0.12482426582126442,0.06195473865388487,0.9656660175226272,1.0805987452771515,-1.6099547102093696,1.3649578715130686
2024-09-22 23:18:47.410766,40.74,0.058983,-0.1301294559124899,0.061040059506710875,0.9656660175226272,1.0805987452771515,-1.6099547102093696,1.3649578715130686
2024-09-22 23:18:47.443309,40.74,0.058983,-0.1301294559124899,0.061040059506710875,0.9676783578233009,1.0805987452771515,-1.6099547102093696,1.3649578715130686
2024-09-22 23:18:47.454388,40.74,0.059033,-0.12665372133011968,0.061040059506710875,0.9676783578233009,0.5555973476629704,-1.6056002496130763,1.434973311956227
2024-09-22 23:18:47.497442,40.74,0.059033,-0.12665372133011968,0.06195473865388487,0.9619463960451209,0.9624548932470381,-1.6230754015747457,1.4306188513599336
2024-09-22 23:18:47.509856,40.74,0.05912,-0.12665372133011968,0.06195473865388487,0.9619463960451209,0.9624548932470381,-1.6230754015747457,1.4306188513599336
2024-09-22 23:18:47.542204,40.74,0.05912,-0.12482426582126442,0.060125380359536885,0.9619463960451209,0.9624548932470381,-1.6230754015747457,1.4306188513599336
2024-09-22 23:18:47.554084,40.74,0.05912,-0.12482426582126442,0.060125380359536885,0.9660929836385962,0.6999827958673239,-1.553117270708084,1.3911993609655648
2024-09-22 23:18:47.596070,40.74,0.059172,-0.12543415318449216,0.058356981637159494,0.9664588018294867,0.9230926057074219,-1.6449624304309487,1.3911993609655648
2024-09-22 23:18:47.639357,40.74,0.059223,-0.12543415318449216,0.058356981637159494,0.9664588018294867,0.9230926057074219,-1.6449624304309487,1.3868447936475277
2024-09-22 23:18:47.651513,40.74,0.059223,-0.1297026477700952,0.06061325136431617,0.961763438342422,1.0237041029211134,-1.6449624304309487,1.3868447936475277
2024-09-22 23:18:47.695120,40.74,0.059273,-0.12598288047082806,0.06122303543712993,0.961763438342422,1.0237041029211134,-1.684324611248821,1.43932777255252
2024-09-22 23:18:47.707330,40.74,0.059273,-0.12598288047082806,0.06122303543712993,0.9643245545366853,1.0237041029211134,-1.684324611248821,1.43932777255252
2024-09-22 23:18:47.739575,40.74,0.059324,-0.12598288047082806,0.06122303543712993,0.9643245545366853,0.6693295362420381,-1.539996472620964,1.413086283100024
2024-09-22 23:18:47.750712,40.74,0.059324,-0.12848307962446767,0.0635402647362572,0.9643245545366853,0.6693295362420381,-1.539996472620964,1.413086283100024
2024-09-22 23:18:47.783201,40.74,0.059324,-0.12848307962446767,0.0635402647362572,0.9598120515378121,0.6693295362420381,-1.539996472620964,1.413086283100024
2024-09-22 23:18:47.794295,40.74,0.059375,-0.12628776946928158,0.0635402647362572,0.9598120515378121,0.8618434493942186,-1.491868061034009,1.3212411233771593
2024-09-22 23:18:47.836813,41.23,0.059375,-0.12628776946928158,0.06079622729473522,0.9618853453345497,0.9624548932470381,-1.5487055005352943,1.3212411233771593
2024-09-22 23:18:47.848451,41.23,0.059462,-0.12628776946928158,0.06079622729473522,0.9618853453345497,0.9624548932470381,-1.5487055005352943,1.3956111311383546
2024-09-22 23:18:47.880953,41.23,0.059462,-0.11220163040083361,0.06079622729473522,0.9618853453345497,0.9624548932470381,-1.5487055005352943,1.3956111311383546
2024-09-22 23:18:47.892934,41.23,0.059462,-0.11220163040083361,0.08469999869421474,0.9606657893407357,3.176249981859326,-1.5749469899877906,1.7718153103753924
2024-09-22 23:18:47.935999,41.23,0.059513,-0.12451936467099749,0.050124872350546926,0.9736543280147509,2.1087147250927987,-1.5749469899877906,1.7718153103753924
2024-09-22 23:18:47.947846,41.23,0.059513,-0.12451936467099749,0.050124872350546926,0.9736543280147509,2.1087147250927987,-1.448094003321603,1.7718153103753924
2024-09-22 23:18:47.979840,41.23,0.059564,-0.12451936467099749,0.050124872350546926,0.9736543280147509,2.1087147250927987,-1.448094003321603,4.724955375672876
2024-09-22 23:18:47.991028,41.23,0.059564,-0.1288489342707985,0.06774780582579633,0.9640196898418586,1.4655692620050162,-1.448094003321603,4.724955375672876
2024-09-22 23:18:48.034205,41.23,0.059615,-0.12854403312053156,0.0634793051642866,0.9640196898418586,1.4655692620050162,-1.6230754015747457,2.511217703358829
2024-09-22 23:18:48.046520,41.23,0.059615,-0.12854403312053156,0.0634793051642866,0.9636536772219534,1.4655692620050162,-1.6230754015747457,2.511217703358829
2024-09-22 23:18:48.078073,41.23,0.059615,-0.12854403312053156,0.0634793051642866,0.9636536772219534,1.5968339121222497,-1.509343212995678,2.511217703358829
2024-09-22 23:18:48.089192,41.23,0.059665,-0.12842211397659037,0.06762589275776185,0.9636536772219534,1.5968339121222497,-1.509343212995678,1.4218526205908506
2024-09-22 23:18:48.131471,41.23,0.059716,-0.12842211397659037,0.06762589275776185,0.9700566135293724,0.9493340951599181,-1.6143664803821594,1.3124748926080763
2024-09-22 23:18:48.143607,41.23,0.059716,-0.13201987706922244,0.06762589275776185,0.9700566135293724,0.9493340951599181,-1.6143664803821594,1.3124748926080763
2024-09-22 23:18:48.175696,41.23,0.059716,-0.13201987706922244,0.06250356923063474,0.9695686939173396,0.9493340951599181,-1.6143664803821594,1.3124748926080763
2024-09-22 23:18:48.187989,41.23,0.059803,-0.13201987706922244,0.06250356923063474,0.9695686939173396,0.35872900059493257,-1.5880676813531667,1.491868061034009
2024-09-22 23:18:48.231172,41.23,0.059803,-0.12640978582773005,0.0626255855890832,0.9692028757264489,0.7524657214114443,-1.4306188513599336,1.43932777255252
2024-09-22 23:18:48.274630,41.23,0.059854,-0.1287879686229212,0.06195473865388487,0.9692028757264489,0.7524657214114443,-1.4306188513599336,1.43932777255252
2024-09-22 23:18:48.286551,41.23,0.059854,-0.1287879686229212,0.06195473865388487,0.9703005247281353,0.9230926057074219,-1.5749469899877906,1.43932777255252
2024-09-22 23:18:48.329000,41.23,0.059905,-0.12519021768210253,0.06372313737626226,0.9729225944184624,0.20122284768498502,-1.5749469899877906,1.413086283100024
2024-09-22 23:18:48.371984,41.23,0.059956,-0.12519021768210253,0.06372313737626226,0.9729225944184624,0.20122284768498502,-1.531230241851881,1.474335492774099
2024-09-22 23:18:48.383688,41.23,0.059956,-0.12817817847420074,0.06335728880583814,0.9712761695231866,0.20122284768498502,-1.531230241851881,1.474335492774099
2024-09-22 23:18:48.427039,41.23,0.060006,-0.1261048968292765,0.06579643117299988,0.9712761695231866,0.2143435924112331,-1.3824903330512346,1.491868061034009
2024-09-22 23:18:48.470225,41.23,0.060006,-0.1261048968292765,0.06579643117299988,0.9628001338480444,0.40244569536997005,-1.483101830264926,1.491868061034009
2024-09-22 23:18:48.481791,41.23,0.060057,-0.12366574838620806,0.06579643117299988,0.9628001338480444,0.40244569536997005,-1.483101830264926,1.539996472620964
2024-09-22 23:18:48.566144,41.23,0.060057,-0.12366574838620806,0.06463781652343625,0.9664588018294867,0.40244569536997005,-1.483101830264926,1.539996472620964
2024-09-22 23:18:48.578333,41.23,0.060144,-0.12366574838620806,0.06463781652343625,0.9664588018294867,0.05248295222455636,-1.5443510399390012,1.5005769822265953
2024-09-22 23:18:48.621431,41.23,0.060144,-0.1287270151268573,0.06799174132818597,0.9620683030372487,-0.42433269754573705,-1.509343212995678,1.5224640110827983
2024-09-22 23:18:48.664646,41.23,0.060196,-0.13080030892359493,0.06055229179234558,0.9620683030372487,-0.42433269754573705,-1.509343212995678,1.5224640110827983
2024-09-22 23:18:48.676411,41.23,0.060196,-0.13080030892359493,0.06055229179234558,0.9677393113193647,0.7087490266364068,-1.5005769822265953,1.5224640110827983
2024-09-22 23:18:48.710444,41.23,0.060196,-0.13080030892359493,0.06055229179234558,0.9677393113193647,0.7087490266364068,-1.5005769822265953,1.4655692620050162
2024-09-22 23:18:48.721993,41.23,0.060246,-0.1261658503253404,0.06549154217454636,0.9609706540355624,1.1418479549512268,-1.5005769822265953,1.4655692620050162
2024-09-22 23:18:48.763657,41.23,0.060297,-0.12951967791558283,0.06549154217454636,0.9609706540355624,1.1418479549512268,-1.4655692620050162,1.5268184716790913
2024-09-22 23:18:48.776387,41.23,0.060297,-0.12951967791558283,0.06195473865388487,0.9710321611099165,1.1418479549512268,-1.4655692620050162,1.5268184716790913
2024-09-22 23:18:48.808884,41.23,0.060297,-0.12951967791558283,0.06195473865388487,0.9710321611099165,0.6080803265679627,-1.5487055005352943,1.5268184716790913
2024-09-22 23:18:48.821006,41.23,0.06039,-0.12573904218294568,0.06457686302737237,0.9710321611099165,0.6080803265679627,-1.5487055005352943,1.3956111311383546
2024-09-22 23:18:48.863996,41.61,0.060441,-0.12573904218294568,0.06457686302737237,0.9643245545366853,0.7174580011898651,-1.6099547102093696,1.413086283100024
2024-09-22 23:18:48.875703,41.61,0.060441,-0.12378766753014925,0.06457686302737237,0.9643245545366853,0.7174580011898651,-1.6099547102093696,1.413086283100024
2024-09-22 23:18:48.907908,41.61,0.060441,-0.12378766753014925,0.06530866345863459,0.9669466242270124,0.7174580011898651,-1.6099547102093696,1.413086283100024
2024-09-22 23:18:48.919704,41.61,0.060534,-0.12378766753014925,0.06530866345863459,0.9669466242270124,0.8312474459845572,-1.5705924226697534,1.5136977803137153
2024-09-22 23:18:48.963308,41.61,0.060534,-0.12939775877164164,0.06335728880583814,0.9638976856352235,0.936213403794542,-1.6230754015747457,1.5136977803137153
2024-09-22 23:18:48.974824,41.61,0.060534,-0.12939775877164164,0.06335728880583814,0.9638976856352235,0.936213403794542,-1.6230754015747457,1.3518370734259486
2024-09-22 23:18:49.006665,41.61,0.060586,-0.1256779793205611,0.06360122430822779,0.9676783578233009,0.936213403794542,-1.6230754015747457,1.3518370734259486
2024-09-22 23:18:49.018120,41.61,0.060586,-0.1256779793205611,0.06360122430822779,0.9676783578233009,0.971221124016121,-1.504988752399385,1.3518370734259486
2024-09-22 23:18:49.050337,41.61,0.060586,-0.1256779793205611,0.06360122430822779,0.9676783578233009,0.971221124016121,-1.504988752399385,1.3562488435987383
2024-09-22 23:18:49.061804,41.61,0.060636,-0.12732446497490402,0.06335728880583814,0.9667636665243134,0.5861933510726318,-1.504988752399385,1.3562488435987383
2024-09-22 23:18:49.103861,41.61,0.060687,-0.12732446497490402,0.06335728880583814,0.9667636665243134,0.5861933510726318,-1.6406079698346556,1.43932777255252
2024-09-22 23:18:49.114973,41.61,0.060687,-0.128239144122078,0.06433292752498272,0.9656050640265632,0.5861933510726318,-1.6406079698346556,1.43932777255252
2024-09-22 23:18:49.157372,41.61,0.060738,-0.12482426582126442,0.06543058260257577,0.9656050640265632,0.49870265194606034,-1.539996472620964,1.426207081187144
2024-09-22 23:18:49.200139,41.61,0.060738,-0.12482426582126442,0.06543058260257577,0.9652392458356727,0.6080803265679627,-1.539996472620964,1.426207081187144
2024-09-22 23:18:49.211828,41.61,0.060788,-0.12427553853492852,0.06543058260257577,0.9652392458356727,0.6080803265679627,-1.5618261919006706,1.553117270708084
2024-09-22 23:18:49.254450,41.61,0.060875,-0.12427553853492852,0.0631133533034485,0.9616415313502942,1.741219360326603,-1.4787472629468887,2.8787129614032807
2024-09-22 23:18:49.298167,41.61,0.060875,-0.13116616356992575,0.06256452880260534,0.9634098632376978,1.741219360326603,-1.4787472629468887,2.8787129614032807
2024-09-22 23:18:49.312624,41.61,0.060875,-0.13116616356992575,0.06256452880260534,0.9634098632376978,0.914326374938339,-1.4437395427253097,2.8787129614032807
2024-09-22 23:18:49.344552,41.61,0.060875,-0.13116616356992575,0.06256452880260534,0.9634098632376978,0.914326374938339,-1.4437395427253097,1.4437395427253097
2024-09-22 23:18:49.356440,41.61,0.060927,-0.12640978582773005,0.06445494388343119,0.9667636665243134,1.413086283100024,-1.4437395427253097,1.4437395427253097
2024-09-22 23:18:49.399917,41.61,0.060978,-0.12811722497813685,0.0635402647362572,0.9667636665243134,1.413086283100024,-1.509343212995678,1.294999633924663
2024-09-22 23:18:49.411735,41.61,0.060978,-0.12811722497813685,0.0635402647362572,0.9675564508311731,1.413086283100024,-1.509343212995678,1.294999633924663
2024-09-22 23:18:49.444105,41.61,0.060978,-0.12811722497813685,0.0635402647362572,0.9675564508311731,0.4636949317244813,-1.5443510399390012,1.3387163820605725
2024-09-22 23:18:49.455104,41.61,0.061028,-0.1279342551236245,0.06530866345863459,0.9675564508311731,0.4636949317244813,-1.5443510399390012,1.3387163820605725
2024-09-22 23:18:49.497722,41.61,0.061079,-0.12494628217971288,0.06530866345863459,0.9658490724398333,0.8837304248895496,-1.5136977803137153,1.4306188513599336
2024-09-22 23:18:49.539720,41.61,0.061079,-0.12494628217971288,0.06421100838104155,0.9626170789308383,0.8837304248895496,-1.5136977803137153,1.4306188513599336
2024-09-22 23:18:49.551398,41.61,0.061168,-0.12494628217971288,0.06421100838104155,0.9626170789308383,1.1768557818945498,-1.553117270708084,1.3255955839734523
2024-09-22 23:18:49.593365,41.61,0.061168,-0.12689754746618864,0.06445494388343119,0.96615393713466,0.38061600277069957,-1.483101830264926,1.3255955839734523
2024-09-22 23:18:49.605213,41.61,0.061168,-0.12689754746618864,0.06445494388343119,0.96615393713466,0.38061600277069957,-1.483101830264926,1.4568603408124299
2024-09-22 23:18:49.637115,41.61,0.061219,-0.12951967791558283,0.06445494388343119,0.96615393713466,0.38061600277069957,-1.483101830264926,1.4568603408124299
2024-09-22 23:18:49.648770,41.61,0.061219,-0.12951967791558283,0.06494281488821046,0.9640806433379224,0.4330989549952559,-1.5268184716790913,1.4568603408124299
2024-09-22 23:18:49.691569,41.61,0.06127,-0.12951967791558283,0.06494281488821046,0.9640806433379224,0.4330989549952559,-1.5268184716790913,1.3911993609655648
2024-09-22 23:18:49.734359,41.61,0.06127,-0.1265926584677351,0.06494281488821046,0.9640806433379224,0.4330989549952559,-1.5268184716790913,1.3911993609655648
2024-09-22 23:18:49.745725,41.61,0.06127,-0.1265926584677351,0.0648207924538553,0.9617024848463581,0.6387335861932486,-1.5355847024481744,1.3911993609655648
2024-09-22 23:18:49.788978,41.61,0.061321,-0.12982456691403635,0.0635402647362572,0.9662758441267878,0.8224812152154743,-1.5355847024481744,1.3911993609655648
2024-09-22 23:18:49.801198,41.61,0.061321,-0.12982456691403635,0.0635402647362572,0.9662758441267878,0.8224812152154743,-1.5618261919006706,1.3911993609655648
2024-09-22 23:18:49.833945,41.61,0.061371,-0.12976360126615907,0.0635402647362572,0.9662758441267878,0.8224812152154743,-1.5618261919006706,1.4174980532728136
2024-09-22 23:18:49.845345,41.61,0.061371,-0.12976360126615907,0.06164984965543134,0.9680442732286988,0.6868620511410758,-1.5618261919006706,1.4174980532728136
2024-09-22 23:18:49.888271,42.0,0.061422,-0.12714148296857827,0.0639061133066813,0.9692028757264489,0.6868620511410758,-1.5005769822265953,1.413086283100024
2024-09-22 23:18:49.930177,42.0,0.061422,-0.12714148296857827,0.0639061133066813,0.9692028757264489,0.4812274466235191,-1.539996472620964,1.413086283100024
2024-09-22 23:18:49.941451,42.0,0.061509,-0.1309831815636,0.06683312667862233,0.9692028757264489,0.4812274466235191,-1.539996472620964,1.43932777255252
2024-09-22 23:18:49.983545,42.0,0.061561,-0.1309831815636,0.06683312667862233,0.9648123769342108,0.6299673020632938,-1.518109550486505,1.4437395427253097
2024-09-22 23:18:49.995087,42.0,0.061561,-0.12512915481971795,0.06683312667862233,0.9648123769342108,0.6299673020632938,-1.518109550486505,1.4437395427253097
2024-09-22 23:18:50.026930,42.0,0.061561,-0.12512915481971795,0.06512568752821553,0.9635317702298256,0.6299673020632938,-1.518109550486505,1.4437395427253097
2024-09-22 23:18:50.038248,42.0,0.061655,-0.12512915481971795,0.06512568752821553,0.9635317702298256,0.7874734949938953,-1.5443510399390012,1.294999633924663
2024-09-22 23:18:50.080810,42.0,0.061655,-0.1283610632660192,0.06341824837780874,0.9651172416290376,0.8268356758117675,-1.426207081187144,1.294999633924663
2024-09-22 23:18:50.092729,42.0,0.061655,-0.1283610632660192,0.06341824837780874,0.9651172416290376,0.8268356758117675,-1.426207081187144,1.404320052330941
2024-09-22 23:18:50.125987,42.0,0.061707,-0.12909286977318812,0.06341824837780874,0.9651172416290376,0.8268356758117675,-1.426207081187144,1.404320052330941
2024-09-22 23:18:50.137965,42.0,0.061707,-0.12909286977318812,0.06543058260257577,0.9655441105304994,0.8443681907108054,-1.4524485706396402,1.404320052330941
2024-09-22 23:18:50.182124,42.0,0.061758,-0.1278123359796833,0.06847950904255126,0.964934381140846,0.8487227046679705,-1.4524485706396402,1.404320052330941
2024-09-22 23:18:50.226037,42.0,0.061808,-0.1287879686229212,0.06847950904255126,0.964934381140846,0.8487227046679705,-1.5136977803137153,1.5443510399390012
2024-09-22 23:18:50.236945,42.0,0.061808,-0.1287879686229212,0.06451590345540177,0.9681662774353338,0.8487227046679705,-1.5136977803137153,1.5443510399390012
2024-09-22 23:18:50.268201,42.0,0.061808,-0.1287879686229212,0.06451590345540177,0.9681662774353338,0.8749641407595947,-1.5136977803137153,1.5443510399390012
2024-09-22 23:18:50.279051,42.0,0.061859,-0.1292757424131932,0.06110112236909545,0.9681662774353338,0.8749641407595947,-1.6230754015747457,1.413086283100024
2024-09-22 23:18:50.321402,42.0,0.061859,-0.1292757424131932,0.06110112236909545,0.9637148251470319,0.971221124016121,-1.5749469899877906,1.4218526205908506
2024-09-22 23:18:50.333699,42.0,0.06191,-0.1273854184709679,0.06110112236909545,0.9637148251470319,0.971221124016121,-1.5749469899877906,1.4218526205908506
2024-09-22 23:18:50.375630,42.0,0.061997,-0.1273854184709679,0.06238165008669356,0.9618853453345497,0.691216511737369,-1.6012456822950394,1.434973311956227
2024-09-22 23:18:50.417596,42.0,0.061997,-0.13061732691726918,0.06360122430822779,0.9635317702298256,0.691216511737369,-1.6012456822950394,1.434973311956227
2024-09-22 23:18:50.428954,42.0,0.061997,-0.13061732691726918,0.06360122430822779,0.9635317702298256,1.4874562908612192,-1.6449624304309487,1.294999633924663
2024-09-22 23:18:50.471457,42.0,0.062049,-0.1262268159732177,0.06549154217454636,0.9645683685209407,1.0980740039605648,-1.483101830264926,1.294999633924663
2024-09-22 23:18:50.514234,42.0,0.062099,-0.1262268159732177,0.06549154217454636,0.9645683685209407,1.0980740039605648,-1.483101830264926,1.4174980532728136
2024-09-22 23:18:50.525801,42.0,0.062099,-0.12909286977318812,0.06451590345540177,0.9675564508311731,0.914326374938339,-1.483101830264926,1.4174980532728136
2024-09-22 23:18:50.567582,42.0,0.06215,-0.12945871226770553,0.0617718660138798,0.9727396367157635,0.914326374938339,-1.5924794515259564,1.3911993609655648
2024-09-22 23:18:50.610472,42.0,0.06215,-0.12945871226770553,0.0617718660138798,0.9727396367157635,0.4724611624935642,-1.5924794515259564,1.3911993609655648
2024-09-22 23:18:50.621585,42.0,0.062201,-0.12909286977318812,0.06366218388019837,0.9727396367157635,0.4724611624935642,-1.539996472620964,1.3824903330512346
2024-09-22 23:18:50.663921,42.0,0.062252,-0.12909286977318812,0.06366218388019837,0.9649953346369098,0.6299673020632938,-1.5574717313043773,1.491868061034009
2024-09-22 23:18:50.675318,42.0,0.062252,-0.12945871226770553,0.06366218388019837,0.9649953346369098,0.6299673020632938,-1.5574717313043773,1.491868061034009
2024-09-22 23:18:50.707084,42.0,0.062252,-0.12945871226770553,0.06506472795624495,0.9649953346369098,0.6299673020632938,-1.5574717313043773,1.491868061034009
2024-09-22 23:18:50.717992,42.0,0.062338,-0.12945871226770553,0.06506472795624495,0.967617404327237,0.8487227046679705,-1.5355847024481744,1.3737241022821516
2024-09-22 23:18:50.760535,42.0,0.062338,-0.12854403312053156,0.065247703886664,0.9632878590310628,1.1243154934130608,-1.5355847024481744,1.3737241022821516
2024-09-22 23:18:50.772670,42.0,0.062338,-0.12854403312053156,0.065247703886664,0.9632878590310628,1.1243154934130608,-1.434973311956227,1.426207081187144
2024-09-22 23:18:50.814282,42.0,0.062389,-0.12775127311729872,0.06299144023541403,0.9643855080327491,0.8661979099905118,-1.6274871717475354,1.426207081187144
2024-09-22 23:18:50.856292,42.0,0.06244,-0.1256779793205611,0.06299144023541403,0.9643855080327491,0.8661979099905118,-1.6274871717475354,1.404320052330941
2024-09-22 23:18:50.867996,42.0,0.06244,-0.1256779793205611,0.06451590345540177,0.9670076749375836,1.539996472620964,-1.6274871717475354,1.404320052330941
2024-09-22 23:18:50.909363,42.18,0.062491,-0.12689754746618864,0.06256452880260534,0.9659709794319611,1.539996472620964,-1.474335492774099,1.4787472629468887
2024-09-22 23:18:50.950871,42.18,0.062491,-0.12689754746618864,0.06256452880260534,0.9659709794319611,0.8968511162549258,-1.474335492774099,1.4787472629468887
2024-09-22 23:18:50.961907,42.18,0.062542,-0.129153823269252,0.06469887938582082,0.9659709794319611,0.8968511162549258,-1.5618261919006706,1.2555801435302942
2024-09-22 23:18:51.004066,42.18,0.062542,-0.129153823269252,0.06469887938582082,0.9681662774353338,0.9537458653327078,-1.5618261919006706,1.2555801435302942
2024-09-22 23:18:51.056153,42.18,0.062592,-0.13025147227093836,0.06677217318255844,0.9641415968339864,0.9537458653327078,-1.5618261919006706,1.3080631224352866
2024-09-22 23:18:51.109374,42.18,0.062679,-0.12903190412531082,0.06677217318255844,0.9641415968339864,0.8661979099905118,-1.539996472620964,1.3737241022821516
2024-09-22 23:18:51.121389,42.18,0.062679,-0.12903190412531082,0.0639061133066813,0.9641415968339864,0.8661979099905118,-1.539996472620964,1.3737241022821516
2024-09-22 23:18:51.155596,42.18,0.062731,-0.12903190412531082,0.0639061133066813,0.9694467869252118,0.8399564205380157,-1.5705924226697534,1.3606034109167755
2024-09-22 23:18:51.167222,42.18,0.062731,-0.1301294559124899,0.0639061133066813,0.9694467869252118,0.8399564205380157,-1.5705924226697534,1.3606034109167755
2024-09-22 23:18:51.199317,42.18,0.062731,-0.1301294559124899,0.06640621524581364,0.9670076749375836,0.8093604704892263,-1.5705924226697534,1.3606034109167755
2024-09-22 23:18:51.211090,42.18,0.062781,-0.1301294559124899,0.06640621524581364,0.9670076749375836,0.8093604704892263,-1.6012456822950394,1.3562488435987383
2024-09-22 23:18:51.246546,42.18,0.062781,-0.12817817847420074,0.06640621524581364,0.9670076749375836,0.8093604704892263,-1.6012456822950394,1.3562488435987383
2024-09-22 23:18:51.257633,42.18,0.062781,-0.12817817847420074,0.0635402647362572,0.968836960321051,0.8180694450426846,-1.3999655917346479,1.4568603408124299
2024-09-22 23:18:51.301825,42.18,0.062875,-0.12549510668055605,0.06427196795301214,0.9609706540355624,0.9755755846124142,-1.3780785628784449,1.4568603408124299
2024-09-22 23:18:51.347701,42.18,0.062926,-0.1280561742675657,0.06317441616583308,0.9609706540355624,0.9755755846124142,-1.3780785628784449,1.483101830264926
2024-09-22 23:18:51.358457,42.18,0.062926,-0.1280561742675657,0.06317441616583308,0.9698126051161023,0.8530771652642637,-1.3780785628784449,1.483101830264926
2024-09-22 23:18:51.390525,42.18,0.062926,-0.1280561742675657,0.06317441616583308,0.9698126051161023,0.8530771652642637,-1.509343212995678,1.483101830264926
2024-09-22 23:18:51.402084,42.18,0.062977,-0.12470234667732323,0.06415004880907095,0.9641415968339864,0.8530771652642637,-1.509343212995678,1.3868447936475277
2024-09-22 23:18:51.444258,42.18,0.063027,-0.1296416942740313,0.06415004880907095,0.9641415968339864,0.8530771652642637,-1.483101830264926,1.3868447936475277
2024-09-22 23:18:51.456020,42.18,0.063027,-0.1296416942740313,0.06433292752498272,0.9641415968339864,0.8530771652642637,-1.483101830264926,1.3868447936475277
2024-09-22 23:18:51.488898,42.18,0.063027,-0.1296416942740313,0.06433292752498272,0.9642025503300502,0.8268356758117675,-1.483101830264926,1.3868447936475277
2024-09-22 23:18:51.500658,42.18,0.063078,-0.129153823269252,0.06433292752498272,0.9642025503300502,0.8268356758117675,-1.6056002496130763,1.3080631224352866
2024-09-22 23:18:51.543009,42.18,0.063167,-0.129153823269252,0.0657354716010293,0.96615393713466,1.3518370734259486,-1.5749469899877906,1.3037086618389935
2024-09-22 23:18:51.586245,42.18,0.063167,-0.12951967791558283,0.06719898132495315,0.96615393713466,1.3518370734259486,-1.5749469899877906,1.3037086618389935
2024-09-22 23:18:51.597601,42.18,0.063167,-0.12951967791558283,0.06719898132495315,0.9656050640265632,1.469981032177806,-1.5793587601605803,1.224984193481505
2024-09-22 23:18:51.690250,42.18,0.063218,-0.12519021768210253,0.0657354716010293,0.9700566135293724,0.9624548932470381,-1.6230754015747457,1.224984193481505
2024-09-22 23:18:51.732348,42.18,0.063269,-0.12519021768210253,0.0657354716010293,0.9700566135293724,0.9624548932470381,-1.6230754015747457,1.483101830264926
2024-09-22 23:18:51.743571,42.18,0.063269,-0.1283000976181419,0.06341824837780874,0.9678002648154287,0.8487227046679705,-1.6230754015747457,1.483101830264926
2024-09-22 23:18:51.785840,42.18,0.06332,-0.1278732894757472,0.06366218388019837,0.9668856707309486,0.8487227046679705,-1.5618261919006706,1.469981032177806
2024-09-22 23:18:51.838143,42.18,0.06337,-0.12726351147884013,0.06317441616583308,0.9668856707309486,0.8049487003164366,-1.531230241851881,1.4174980532728136
2024-09-22 23:18:51.879744,42.18,0.06337,-0.12726351147884013,0.06317441616583308,0.9704833852163269,0.769998236310482,-1.5005769822265953,1.4174980532728136
2024-09-22 23:18:51.890461,42.18,0.063421,-0.12939775877164164,0.06317441616583308,0.9704833852163269,0.769998236310482,-1.5005769822265953,1.3780785628784449
2024-09-22 23:18:51.932359,42.48,0.063557,-0.12939775877164164,0.0643939843114606,0.9687760068249872,1.0193495356030762,-1.5880676813531667,1.3956111311383546
2024-09-22 23:18:51.985340,42.48,0.063557,-0.1292147767653159,0.06433292752498272,0.9663367976228517,1.3430708426568656,-1.6318416323438287,1.3255955839734523
2024-09-22 23:18:52.027793,42.48,0.063608,-0.12671467482618357,0.06671111032017388,0.9630439478323,1.3430708426568656,-1.6318416323438287,1.3255955839734523
2024-09-22 23:18:52.040439,42.48,0.063608,-0.12671467482618357,0.06671111032017388,0.9630439478323,0.8443681907108054,-1.5005769822265953,1.3255955839734523
2024-09-22 23:18:52.071909,42.48,0.063608,-0.12671467482618357,0.06671111032017388,0.9630439478323,0.8443681907108054,-1.5005769822265953,1.4437395427253097
2024-09-22 23:18:52.083148,42.48,0.063659,-0.12775127311729872,0.06622334260580857,0.9646903727275759,0.87931865471676,-1.5005769822265953,1.4437395427253097
2024-09-22 23:18:52.128633,42.48,0.06371,-0.1279342551236245,0.06232069051472297,0.9684100914195893,0.87931865471676,-1.4655692620050162,1.4524485706396402
2024-09-22 23:18:52.172543,42.48,0.06371,-0.1279342551236245,0.06232069051472297,0.9684100914195893,0.914326374938339,-1.5837132207568734,1.4524485706396402
2024-09-22 23:18:52.183562,42.48,0.06376,-0.12470234667732323,0.06597940710341893,0.9684100914195893,0.914326374938339,-1.5837132207568734,1.404320052330941
2024-09-22 23:18:52.226243,42.48,0.063811,-0.1292757424131932,0.06597940710341893,0.9657881189437695,0.9274470663037151,-1.531230241851881,1.448094003321603
2024-09-22 23:18:52.269309,42.48,0.063811,-0.1292757424131932,0.06500377446018106,0.968714956114416,0.9274470663037151,-1.531230241851881,1.448094003321603
2024-09-22 23:18:52.281388,42.48,0.063898,-0.1292757424131932,0.06500377446018106,0.968714956114416,0.8180694450426846,-1.6580831217963248,1.3693696416858583
2024-09-22 23:18:52.325079,42.48,0.063898,-0.128239144122078,0.0635402647362572,0.966031932928025,0.8137149310855195,-1.509343212995678,1.3430708426568656
