Ayaan's Suite
Timestamp,Sample Rate (Hz),Time,Ax,Ay,Az,Gx,Gy,Gz
2024-09-23 06:05:55.847811,0,23.379116,-0.016708257366028764,0.016464321863639123,1.013778546534547,0.38932495064372197,-1.0805987452771515,-1.3693696416858583
2024-09-23 06:05:55.858818,0,23.379202,-0.015610600769459046,0.016464321863639123,1.013778546534547,0.29747979092085736,-1.0937195433642715,-1.3343619214642792
2024-09-23 06:05:55.902590,0,23.379202,-0.015610600769459046,0.021037716080532405,1.014205512650516,0.3193667930966243,-1.15932321363464,-1.3780785628784449
2024-09-23 06:05:55.915255,0,23.379254,-0.015610600769459046,0.021037716080532405,1.014205512650516,0.3193667930966243,-1.15932321363464,-1.3780785628784449
2024-09-23 06:05:55.947438,0,23.379254,-0.017074107455429557,0.020793883868556746,1.0116442992417454,0.3193667930966243,-1.15932321363464,-1.3780785628784449
2024-09-23 06:05:55.959206,0,23.379254,-0.017074107455429557,0.020793883868556746,1.0116442992417454,0.29747979092085736,-1.1287272635858505,-1.3824903330512346
2024-09-23 06:05:56.002328,0,23.379304,-0.01408613603049462,0.019452293288574063,1.0166446246381442,0.29747979092085736,-1.1287272635858505,-1.3824903330512346
2024-09-23 06:05:56.044897,0,23.379304,-0.01408613603049462,0.019452293288574063,1.0166446246381442,0.38061600277069957,-1.1462025222692638,-1.2205724233087152
2024-09-23 06:05:56.056242,0,23.379355,-0.014208053655459124,0.019818144896951533,1.0166446246381442,0.38061600277069957,-1.1462025222692638,-1.2205724233087152
2024-09-23 06:05:56.099165,0,23.379496,-0.018781549643789714,0.019818144896951533,1.0103028362558035,0.3499627431454137,-1.1243154934130608,-1.4218526205908506
2024-09-23 06:05:56.142505,0,23.379496,-0.018781549643789714,0.018842507696783625,1.0148152420401695,0.3543172304221429,-1.1243154934130608,-1.4218526205908506
2024-09-23 06:05:56.153976,0,23.379547,-0.018781549643789714,0.018842507696783625,1.0148152420401695,0.3543172304221429,-1.1199610328167677,-1.4218526205908506
2024-09-23 06:05:56.196063,0,23.379547,-0.014512945691866003,0.019208359305161096,1.0153031616522024,0.37620423259790986,-1.1068402347296475,-1.4874562908612192
2024-09-23 06:05:56.238107,0,23.379598,-0.01695219134944173,0.019208359305161096,1.0153031616522024,0.37620423259790986,-1.1068402347296475,-1.4874562908612192
2024-09-23 06:05:56.249857,0,23.379598,-0.01695219134944173,0.020427930488741967,1.0087784155671629,0.3237212803733535,-1.1462025222692638,-1.4874562908612192
2024-09-23 06:05:56.293074,0,23.379691,-0.013720285941093825,0.023050050305299438,1.0134736818397203,0.3237212803733535,-1.1462025222692638,-1.553117270708084
2024-09-23 06:05:56.304925,0,23.379691,-0.013720285941093825,0.023050050305299438,1.0134736818397203,0.40685746554275976,-1.1462025222692638,-1.553117270708084
2024-09-23 06:05:56.336564,0,23.379691,-0.013720285941093825,0.023050050305299438,1.0134736818397203,0.40685746554275976,-1.1724439050000162,-1.4787472629468887
2024-09-23 06:05:56.347619,0,23.379742,-0.014695923141261731,0.022562284109910815,1.015608026347029,0.40685746554275976,-1.1724439050000162,-1.4787472629468887
2024-09-23 06:05:56.391718,0,23.379792,-0.009939551474972724,0.019696228790963704,1.015608026347029,0.29306802074806765,-1.3080631224352866,-1.448094003321603
2024-09-23 06:05:56.434298,0,23.379792,-0.009939551474972724,0.019696228790963704,1.0135956860463553,0.38061600277069957,-1.1374934943549335,-1.448094003321603
2024-09-23 06:05:56.445430,0,23.379843,-0.01146401621393715,0.019696228790963704,1.0135956860463553,0.38061600277069957,-1.1374934943549335,-1.3824903330512346
2024-09-23 06:05:56.487500,0,23.379843,-0.01146401621393715,0.01939133523558015,1.0144494238492787,0.2362305812467821,-1.1111946953259408,-1.4568603408124299
2024-09-23 06:05:56.499562,0,23.379933,-0.01146401621393715,0.01939133523558015,1.0144494238492787,0.2362305812467821,-1.1111946953259408,-1.4568603408124299
2024-09-23 06:05:56.532343,0,23.379933,-0.017439959063807027,0.02018409827676631,1.0162178529511898,0.2362305812467821,-1.1111946953259408,-1.4568603408124299
2024-09-23 06:05:56.544001,0,23.379933,-0.017439959063807027,0.02018409827676631,1.0162178529511898,0.39373674749694765,-1.0980740039605648,-1.4087318225037306
2024-09-23 06:05:56.586953,0,23.379985,-0.012500713238536278,0.019574312684975875,1.009510051948944,0.4418652124447748,-1.1199610328167677,-1.4087318225037306
2024-09-23 06:05:56.629922,0,23.380036,-0.016464321863639123,0.019574312684975875,1.009510051948944,0.4418652124447748,-1.1199610328167677,-1.3824903330512346
2024-09-23 06:05:56.641476,0,23.380036,-0.016464321863639123,0.01835463821098102,1.013778546534547,0.41997821026900783,-1.1199610328167677,-1.3824903330512346
2024-09-23 06:05:56.684445,0,23.380086,-0.01664729931303485,0.01768389456619667,1.0115833457456815,0.41997821026900783,-1.1111946953259408,-1.3299501512914895
2024-09-23 06:05:56.726921,0,23.380086,-0.01664729931303485,0.01768389456619667,1.0115833457456815,0.38061600277069957,-1.2993542012427002,-1.413086283100024
2024-09-23 06:05:56.738682,0,23.380137,-0.01146401621393715,0.019818144896951533,1.0115833457456815,0.38061600277069957,-1.2993542012427002,-1.413086283100024
2024-09-23 06:05:56.874477,37.46,23.380137,-0.01146401621393715,0.019818144896951533,1.0087784155671629,0.3499627431454137,-1.1156065722204744,-1.413086283100024
2024-09-23 06:05:56.886669,37.46,23.380188,-0.016098470255261652,0.019818144896951533,1.0087784155671629,0.3499627431454137,-1.1156065722204744,-1.3737241022821516
2024-09-23 06:05:56.918689,37.46,23.380188,-0.016098470255261652,0.0187205915907958,1.0087784155671629,0.3499627431454137,-1.1156065722204744,-1.3737241022821516
2024-09-23 06:05:56.930354,37.46,23.380274,-0.016098470255261652,0.0187205915907958,1.0147542885441054,0.29306802074806765,-1.1111946953259408,-1.3693696416858583
2024-09-23 06:05:56.973375,37.46,23.380274,-0.017439959063807027,0.019452293288574063,1.0159129882563631,0.40244569536997005,-1.1111946953259408,-1.3693696416858583
2024-09-23 06:05:56.984545,37.46,23.380274,-0.017439959063807027,0.019452293288574063,1.0159129882563631,0.40244569536997005,-1.1024857741333545,-1.413086283100024
2024-09-23 06:05:57.018453,37.46,23.380326,-0.012744546969488612,0.019452293288574063,1.0159129882563631,0.40244569536997005,-1.1024857741333545,-1.413086283100024
2024-09-23 06:05:57.029734,37.46,23.380326,-0.012744546969488612,0.018598572194393984,1.0100589250570406,0.4287444677185267,-1.216217962712422,-1.413086283100024
2024-09-23 06:05:57.071565,37.46,23.380377,-0.01622038788022616,0.02018409827676631,1.0126809947473678,0.4287444677185267,-1.216217962712422,-1.3868447936475277
2024-09-23 06:05:57.084231,37.46,23.380377,-0.01622038788022616,0.02018409827676631,1.0126809947473678,0.39809120809324083,-1.216217962712422,-1.3868447936475277
2024-09-23 06:05:57.115857,37.46,23.380377,-0.01622038788022616,0.02018409827676631,1.0126809947473678,0.39809120809324083,-1.1243154934130608,-1.3474826128296553
2024-09-23 06:05:57.128156,37.46,23.38052,-0.011768909009832369,0.01585453627184869,1.0146933350480416,0.39809120809324083,-1.1243154934130608,-1.3474826128296553
2024-09-23 06:05:57.171341,37.46,23.380571,-0.01365932788809991,0.019940162774376668,1.0146933350480416,0.28871353347133843,-1.1068402347296475,-1.3999655917346479
2024-09-23 06:05:57.214315,37.46,23.380571,-0.01365932788809991,0.019940162774376668,1.0168275823408433,0.31060053564710544,-1.2118635021161288,-1.3999655917346479
2024-09-23 06:05:57.225634,37.46,23.380621,-0.013842202047081654,0.019940162774376668,1.0168275823408433,0.31060053564710544,-1.2118635021161288,-1.4218526205908506
2024-09-23 06:05:57.269164,37.46,23.380714,-0.013842202047081654,0.02018409827676631,1.0113394345469187,0.28871353347133843,-1.0980740039605648,-1.3693696416858583
2024-09-23 06:05:57.310923,37.46,23.380714,-0.015183792627064338,0.021281651582922046,1.0113394345469187,0.28871353347133843,-1.0980740039605648,-1.3693696416858583
2024-09-23 06:05:57.322009,37.46,23.380714,-0.015183792627064338,0.021281651582922046,1.0120102146471432,0.2362305812467821,-1.1374934943549335,-1.3956111311383546
2024-09-23 06:05:57.364617,37.46,23.380765,-0.014147094083488534,0.019696228790963704,1.015668979843093,0.2843590461946093,-1.1374934943549335,-1.3956111311383546
2024-09-23 06:05:57.377209,37.46,23.380765,-0.014147094083488534,0.019696228790963704,1.015668979843093,0.2843590461946093,-1.1462025222692638,-1.3956111311383546
2024-09-23 06:05:57.409971,37.46,23.380816,-0.014878899071680782,0.019696228790963704,1.015668979843093,0.2843590461946093,-1.1462025222692638,-1.426207081187144
2024-09-23 06:05:57.421872,37.46,23.380816,-0.014878899071680782,0.02176952106872465,1.0117053499523165,0.27123832814879717,-1.1462025222692638,-1.426207081187144
2024-09-23 06:05:57.464201,37.46,23.380867,-0.010183486217874026,0.017744852619190586,1.0107906586533293,0.27123832814879717,-1.1418479549512268,-1.4437395427253097
2024-09-23 06:05:57.507592,37.46,23.380867,-0.010183486217874026,0.017744852619190586,1.0107906586533293,0.3062460483703762,-1.1680894444037229,-1.3737241022821516
2024-09-23 06:05:57.518825,37.46,23.380917,-0.013903160100075569,0.017561976941232165,1.0107906586533293,0.3062460483703762,-1.1680894444037229,-1.3737241022821516
2024-09-23 06:05:57.562166,37.46,23.380968,-0.012805606793919833,0.017561976941232165,1.0134736818397203,0.27994727602181957,-1.1855647030871361,-1.43932777255252
2024-09-23 06:05:57.605247,37.46,23.380968,-0.012805606793919833,0.018293680157987106,1.0153031616522024,0.35872900059493257,-1.1855647030871361,-1.43932777255252
2024-09-23 06:05:57.616699,37.46,23.381055,-0.012805606793919833,0.018293680157987106,1.0153031616522024,0.35872900059493257,-1.1899764732599258,-1.4174980532728136
2024-09-23 06:05:57.659616,37.46,23.381055,-0.01341539238571027,0.01963527073796979,1.0133517748475924,0.3499627431454137,-1.0587118231426924,-1.3780785628784449
2024-09-23 06:05:57.753006,37.46,23.381106,-0.01396421992450679,0.02280611632188647,1.0149982969573756,0.3499627431454137,-1.0587118231426924,-1.3780785628784449
2024-09-23 06:05:57.764996,37.46,23.381106,-0.01396421992450679,0.02280611632188647,1.0149982969573756,0.3280757409696467,-1.0849533125951887,-1.3780785628784449
2024-09-23 06:05:57.848561,37.46,23.381157,-0.013903160100075569,0.02280611632188647,1.0149982969573756,0.3280757409696467,-1.0849533125951887,-1.3430708426568656
2024-09-23 06:05:57.903069,38.17,23.381208,-0.013903160100075569,0.018476656088406155,1.0157299333391567,0.28871353347133843,-1.1462025222692638,-1.3737241022821516
2024-09-23 06:05:57.946551,38.17,23.381208,-0.01536666678604608,0.018476656088406155,1.0157299333391567,0.28871353347133843,-1.1462025222692638,-1.3737241022821516
2024-09-23 06:05:58.000534,38.17,23.381258,-0.01536666678604608,0.018171764051999276,1.0131078636488298,0.3062460483703762,-1.1549687530383468,-1.3956111311383546
2024-09-23 06:05:58.043863,38.17,23.381258,-0.01408613603049462,0.02140366946034718,1.0118273541589518,0.3062460483703762,-1.1549687530383468,-1.3956111311383546
2024-09-23 06:05:58.055303,38.17,23.381258,-0.01408613603049462,0.02140366946034718,1.0118273541589518,0.2405850685235113,-1.1724439050000162,-1.474335492774099
2024-09-23 06:05:58.097979,38.17,23.381309,-0.012927522899907663,0.02012303845233509,1.0130469101527657,0.3674952580444515,-1.1287272635858505,-1.474335492774099
2024-09-23 06:05:58.141146,38.17,23.381494,-0.012134760618209839,0.02012303845233509,1.0130469101527657,0.3674952580444515,-1.1287272635858505,-1.3868447936475277
2024-09-23 06:05:58.152182,38.17,23.381494,-0.012134760618209839,0.02048899031317319,1.0138396944596255,0.3324875378228724,-1.1287272635858505,-1.3868447936475277
2024-09-23 06:05:58.195713,38.17,23.381545,-0.013476350438704184,0.018415698035412244,1.0113394345469187,0.3324875378228724,-0.993108152872324,-1.294999633924663
2024-09-23 06:05:58.238534,38.17,23.381545,-0.013476350438704184,0.018415698035412244,1.0113394345469187,0.3543172304221429,-1.2555801435302942,-1.4218526205908506
2024-09-23 06:05:58.291460,38.17,23.381642,-0.016525279916633037,0.01835463821098102,1.0159129882563631,0.29747979092085736,-1.2555801435302942,-1.4218526205908506
2024-09-23 06:05:58.303712,38.17,23.381642,-0.016525279916633037,0.01835463821098102,1.0159129882563631,0.29747979092085736,-1.1549687530383468,-1.4218526205908506
2024-09-23 06:05:58.336446,38.17,23.381693,-0.013293374508285133,0.01835463821098102,1.0159129882563631,0.29747979092085736,-1.1549687530383468,-1.3430708426568656
2024-09-23 06:05:58.347566,38.17,23.381693,-0.013293374508285133,0.0173180429578192,1.01426646614658,0.26247207069927825,-1.1549687530383468,-1.3430708426568656
2024-09-23 06:05:58.390411,38.17,23.381786,-0.013293374508285133,0.018659531766364576,1.0114614387535539,0.26247207069927825,-1.1199610328167677,-1.3606034109167755
2024-09-23 06:05:58.432341,38.17,23.381786,-0.013293374508285133,0.018659531766364576,1.0114614387535539,0.3411964856958948,-1.1462025222692638,-1.3606034109167755
2024-09-23 06:05:58.443607,38.17,23.381837,-0.014574005516297226,0.01750101888823825,1.0114614387535539,0.3411964856958948,-1.1462025222692638,-1.3999655917346479
2024-09-23 06:05:58.486116,38.17,23.381888,-0.014574005516297226,0.01750101888823825,1.0145713308414066,0.3411964856958948,-1.1111946953259408,-1.4174980532728136
2024-09-23 06:05:58.497832,38.17,23.381888,-0.011281142054955407,0.01750101888823825,1.0145713308414066,0.3411964856958948,-1.1111946953259408,-1.4174980532728136
2024-09-23 06:05:58.529718,38.17,23.381888,-0.011281142054955407,0.021708563015730736,1.0079246777642392,0.3411964856958948,-1.1111946953259408,-1.4174980532728136
2024-09-23 06:05:58.541107,38.17,23.381981,-0.011281142054955407,0.021708563015730736,1.0079246777642392,0.31060053564710544,-1.0455910250555724,-1.474335492774099
2024-09-23 06:05:58.583800,38.17,23.381981,-0.012744546969488612,0.018476656088406155,1.0131078636488298,0.3149550229238346,-1.1243154934130608,-1.474335492774099
2024-09-23 06:05:58.595528,38.17,23.381981,-0.012744546969488612,0.018476656088406155,1.0131078636488298,0.3149550229238346,-1.1243154934130608,-1.43932777255252
2024-09-23 06:05:58.627685,38.17,23.382032,-0.014878899071680782,0.018476656088406155,1.0131078636488298,0.3149550229238346,-1.1243154934130608,-1.43932777255252
2024-09-23 06:05:58.639611,38.17,23.382032,-0.014878899071680782,0.022989092252305523,1.0126809947473678,0.3543172304221429,-1.1943309338562191,-1.43932777255252
2024-09-23 06:05:58.681818,38.17,23.382083,-0.013354434332716355,0.019208359305161096,1.0152421109416312,0.38061600277069957,-1.1943309338562191,-1.4524485706396402
2024-09-23 06:05:58.724639,38.17,23.382083,-0.013354434332716355,0.019208359305161096,1.0152421109416312,0.38061600277069957,-1.1549687530383468,-1.413086283100024
2024-09-23 06:05:58.736049,38.17,23.382134,-0.011524974266931064,0.02329398580768908,1.0132908213515286,0.38061600277069957,-1.1549687530383468,-1.413086283100024
2024-09-23 06:05:58.779260,38.17,23.382185,-0.00969561673207142,0.020245056329760223,1.0132908213515286,0.24935132597303017,-1.1812102424908428,-1.461214801408723
2024-09-23 06:05:58.872688,38.17,23.382185,-0.00969561673207142,0.020245056329760223,1.0136566395424191,0.31060053564710544,-1.1812102424908428,-1.461214801408723
2024-09-23 06:05:58.928147,37.81,23.382235,-0.014208053655459124,0.02134260963591596,1.0145103773453428,0.31060053564710544,-1.0674780539117754,-1.3780785628784449
2024-09-23 06:05:58.970091,37.81,23.382235,-0.014208053655459124,0.02134260963591596,1.0145103773453428,0.3543172304221429,-1.0762442846808582,-1.3956111311383546
2024-09-23 06:05:58.981799,37.81,23.382322,-0.012317737308117227,0.022928134199311608,1.0145103773453428,0.3543172304221429,-1.0762442846808582,-1.3956111311383546
2024-09-23 06:05:59.026527,37.81,23.382374,-0.012927522899907663,0.022928134199311608,1.015973941752427,0.3630834878716618,-1.1330817241821438,-1.434973311956227
2024-09-23 06:05:59.070196,37.81,23.382374,-0.012927522899907663,0.019574312684975875,1.015486022140394,0.3630834878716618,-1.1462025222692638,-1.509343212995678
2024-09-23 06:05:59.081901,37.81,23.382424,-0.012927522899907663,0.019574312684975875,1.015486022140394,0.3630834878716618,-1.1462025222692638,-1.509343212995678
2024-09-23 06:05:59.114948,37.81,23.382424,-0.014512945691866003,0.020427930488741967,1.015486022140394,0.3630834878716618,-1.1462025222692638,-1.509343212995678
2024-09-23 06:05:59.126313,37.81,23.382424,-0.014512945691866003,0.020427930488741967,1.0151811574455674,0.28871353347133843,-1.1374934943549335,-1.3299501512914895
2024-09-23 06:05:59.170062,37.81,23.382567,-0.013598266544692013,0.02189143717471248,1.0129859566567019,0.35872900059493257,-1.1374934943549335,-1.3299501512914895
2024-09-23 06:05:59.212329,37.81,23.382618,-0.013598266544692013,0.02189143717471248,1.0129859566567019,0.35872900059493257,-1.1374934943549335,-1.4437395427253097
2024-09-23 06:05:59.224478,37.81,23.382618,-0.013598266544692013,0.01963527073796979,1.0135347325502915,0.31060053564710544,-1.1374934943549335,-1.4437395427253097
2024-09-23 06:05:59.266858,37.81,23.382618,-0.013598266544692013,0.01963527073796979,1.0135347325502915,0.31060053564710544,-1.0718325145080685,-1.3868447936475277
2024-09-23 06:05:59.308757,37.81,23.382669,-0.013598266544692013,0.01963527073796979,1.0135347325502915,0.31060053564710544,-1.0718325145080685,-1.3868447936475277
2024-09-23 06:05:59.320075,37.81,23.382669,-0.016891131525010507,0.020366972435748053,1.0149372462468045,0.28871353347133843,-1.1374934943549335,-1.3868447936475277
2024-09-23 06:05:59.415218,37.81,23.38272,-0.01481783924724956,0.021281651582922046,1.0093881449568163,0.2274643237972632,-1.1374934943549335,-1.43932777255252
2024-09-23 06:05:59.458019,37.81,23.38272,-0.01481783924724956,0.021281651582922046,1.0093881449568163,0.2274643237972632,-1.1506142924420535,-1.483101830264926
2024-09-23 06:05:59.470459,37.81,23.38277,-0.01445198763887209,0.021464627513341095,1.011095523348156,0.2274643237972632,-1.1506142924420535,-1.483101830264926
2024-09-23 06:05:59.502886,37.81,23.38277,-0.01445198763887209,0.021464627513341095,1.011095523348156,0.26247207069927825,-1.1506142924420535,-1.483101830264926
2024-09-23 06:05:59.514505,37.81,23.382859,-0.013476350438704184,0.017561976941232165,1.011095523348156,0.26247207069927825,-1.0762442846808582,-1.43932777255252
2024-09-23 06:05:59.557758,37.81,23.382859,-0.013476350438704184,0.017561976941232165,1.0132908213515286,0.2274643237972632,-1.2205724233087152,-1.434973311956227
2024-09-23 06:05:59.570515,37.81,23.382909,-0.01481783924724956,0.017561976941232165,1.0132908213515286,0.2274643237972632,-1.2205724233087152,-1.434973311956227
2024-09-23 06:05:59.604309,37.81,23.382909,-0.01481783924724956,0.02134260963591596,1.0143883731387076,0.3849704900474288,-1.2205724233087152,-1.434973311956227
2024-09-23 06:05:59.615661,37.81,23.383054,-0.01481783924724956,0.02134260963591596,1.0143883731387076,0.3849704900474288,-1.1680894444037229,-1.413086283100024
2024-09-23 06:05:59.658367,37.81,23.383054,-0.012378695361111141,0.018781549643789714,1.0126809947473678,0.3149550229238346,-1.0630662837389857,-1.413086283100024
2024-09-23 06:05:59.669845,37.81,23.383054,-0.012378695361111141,0.018781549643789714,1.0126809947473678,0.3149550229238346,-1.0630662837389857,-1.3124748926080763
2024-09-23 06:05:59.702094,37.81,23.383105,-0.014512945691866003,0.019330377182586234,1.0143274196426437,0.3149550229238346,-1.0630662837389857,-1.3124748926080763
2024-09-23 06:05:59.713797,37.81,23.383105,-0.014512945691866003,0.019330377182586234,1.0143274196426437,0.3411964856958948,-1.203097164625302,-1.3124748926080763
2024-09-23 06:05:59.746266,37.81,23.383105,-0.014512945691866003,0.019330377182586234,1.0143274196426437,0.3411964856958948,-1.203097164625302,-1.3693696416858583
2024-09-23 06:05:59.757338,37.81,23.383156,-0.01396421992450679,0.020732824044125523,1.0149982969573756,0.3849704900474288,-1.203097164625302,-1.3693696416858583
2024-09-23 06:05:59.800488,37.81,23.383207,-0.016342405757651293,0.020732824044125523,1.0149982969573756,0.3849704900474288,-1.1243154934130608,-1.4787472629468887
2024-09-23 06:05:59.812319,37.81,23.383207,-0.016342405757651293,0.02152558556633501,1.013778546534547,0.3849704900474288,-1.1243154934130608,-1.4787472629468887
2024-09-23 06:05:59.896489,37.81,23.383207,-0.016342405757651293,0.02152558556633501,1.013778546534547,0.3456082558686845,-1.1243154934130608,-1.4787472629468887
2024-09-23 06:05:59.990436,37.77,23.383207,-0.016342405757651293,0.02152558556633501,1.013778546534547,0.3456082558686845,-1.1374934943549335,-1.4787472629468887
2024-09-23 06:06:00.002234,37.77,23.383257,-0.012012843752733671,0.01798878660260355,1.015608026347029,0.3456082558686845,-1.1374934943549335,-1.483101830264926
2024-09-23 06:06:00.045634,37.77,23.383308,-0.012012843752733671,0.01798878660260355,1.015608026347029,0.3280757409696467,-1.1462025222692638,-1.4524485706396402
2024-09-23 06:06:00.057483,37.77,23.383308,-0.01341539238571027,0.01853761414140007,1.015608026347029,0.3280757409696467,-1.1462025222692638,-1.4524485706396402
2024-09-23 06:06:00.090691,37.77,23.383308,-0.01341539238571027,0.01853761414140007,1.0139006479556893,0.37184974532118065,-1.1462025222692638,-1.4524485706396402
2024-09-23 06:06:00.102510,37.77,23.383395,-0.011220081471035847,0.01853761414140007,1.0139006479556893,0.37184974532118065,-1.0849533125951887,-1.4787472629468887
2024-09-23 06:06:00.145772,37.77,23.383446,-0.011220081471035847,0.019818144896951533,1.0140835084438808,0.37620423259790986,-1.0893650827679784,-1.426207081187144
2024-09-23 06:06:00.188555,37.77,23.383446,-0.012073802565215924,0.01975718684395762,1.0109126628599643,0.37620423259790986,-1.0893650827679784,-1.426207081187144
2024-09-23 06:06:00.200171,37.77,23.383446,-0.012073802565215924,0.01975718684395762,1.0109126628599643,0.3630834878716618,-1.1462025222692638,-1.4787472629468887
2024-09-23 06:06:00.242419,37.77,23.383639,-0.012744546969488612,0.01890346574977754,1.0143274196426437,0.3630834878716618,-1.1462025222692638,-1.4787472629468887
2024-09-23 06:06:00.286699,37.77,23.383639,-0.012744546969488612,0.01890346574977754,1.0143274196426437,0.3018342781975865,-1.1943309338562191,-1.426207081187144
2024-09-23 06:06:00.297809,37.77,23.38369,-0.01481783924724956,0.019696228790963704,1.0143274196426437,0.3018342781975865,-1.1943309338562191,-1.426207081187144
2024-09-23 06:06:00.341572,37.77,23.383741,-0.013293374508285133,0.019696228790963704,1.0111565740587272,0.26247207069927825,-1.0543573625463993,-1.3737241022821516
2024-09-23 06:06:00.384415,37.77,23.383741,-0.013293374508285133,0.02164760496273682,1.0129859566567019,0.28871353347133843,-1.2643463742993772,-1.3737241022821516
2024-09-23 06:06:00.396195,37.77,23.383792,-0.013293374508285133,0.02164760496273682,1.0129859566567019,0.28871353347133843,-1.2643463742993772,-1.4174980532728136
2024-09-23 06:06:00.428566,37.77,23.383792,-0.014756881194255646,0.02164760496273682,1.0129859566567019,0.28871353347133843,-1.2643463742993772,-1.4174980532728136
2024-09-23 06:06:00.440421,37.77,23.383792,-0.014756881194255646,0.02018409827676631,1.012925003160638,0.3456082558686845,-1.224984193481505,-1.491868061034009
2024-09-23 06:06:00.482225,37.77,23.383843,-0.011586034850850625,0.02012303845233509,1.012925003160638,0.3456082558686845,-1.224984193481505,-1.491868061034009
2024-09-23 06:06:00.493309,37.77,23.383843,-0.011586034850850625,0.02012303845233509,1.0130469101527657,0.2405850685235113,-1.0630662837389857,-1.491868061034009
2024-09-23 06:06:00.527212,37.77,23.383843,-0.011586034850850625,0.02012303845233509,1.0130469101527657,0.2405850685235113,-1.0630662837389857,-1.3956111311383546
2024-09-23 06:06:00.539348,37.77,23.383932,-0.01445198763887209,0.023415901913676908,1.0120712653577144,0.3280757409696467,-1.0630662837389857,-1.3956111311383546
2024-09-23 06:06:00.581729,37.77,23.383983,-0.015183792627064338,0.020610907938137694,1.0120712653577144,0.3280757409696467,-1.0193495356030762,-1.3255955839734523
2024-09-23 06:06:00.593591,37.77,23.383983,-0.015183792627064338,0.020610907938137694,1.012498037044669,0.3280757409696467,-1.0193495356030762,-1.3255955839734523
2024-09-23 06:06:00.626576,37.77,23.383983,-0.015183792627064338,0.020610907938137694,1.012498037044669,0.28871353347133843,-1.1374934943549335,-1.3255955839734523
2024-09-23 06:06:00.638599,37.77,23.384034,-0.013537308491698099,0.023476961738108128,1.012498037044669,0.28871353347133843,-1.1374934943549335,-1.4218526205908506
2024-09-23 06:06:00.680661,37.77,23.384085,-0.01378124399408774,0.023476961738108128,1.009510051948944,0.27559278874509036,-1.1111946953259408,-1.3299501512914895
2024-09-23 06:06:00.774422,37.77,23.384085,-0.01378124399408774,0.020306014382754138,1.0126809947473678,0.2668265312955715,-1.1111946953259408,-1.3299501512914895
2024-09-23 06:06:00.786812,37.77,23.384175,-0.01378124399408774,0.020306014382754138,1.0126809947473678,0.2668265312955715,-1.0980740039605648,-1.3474826128296553
2024-09-23 06:06:00.819818,37.77,23.384175,-0.012073802565215924,0.020306014382754138,1.0126809947473678,0.2668265312955715,-1.0980740039605648,-1.3474826128296553
2024-09-23 06:06:00.831378,37.77,23.384175,-0.012073802565215924,0.019513251341567978,1.012498037044669,0.3674952580444515,-1.0980740039605648,-1.3956111311383546
2024-09-23 06:06:00.873307,37.77,23.384226,-0.01573262016586086,0.020793883868556746,1.012498037044669,0.3674952580444515,-1.0980740039605648,-1.3956111311383546
2024-09-23 06:06:00.885239,37.77,23.384226,-0.01573262016586086,0.020793883868556746,1.012498037044669,0.4155664400962181,-1.1330817241821438,-1.3956111311383546
2024-09-23 06:06:00.969871,37.77,23.384277,-0.01786687049661572,0.018842507696783625,1.012498037044669,0.4155664400962181,-1.1330817241821438,-1.4218526205908506
2024-09-23 06:06:00.981694,37.77,23.384277,-0.01786687049661572,0.018842507696783625,1.010668654446694,0.3674952580444515,-1.1330817241821438,-1.4218526205908506
2024-09-23 06:06:01.014540,38.42,23.384277,-0.01786687049661572,0.018842507696783625,1.010668654446694,0.3674952580444515,-1.1812102424908428,-1.4218526205908506
2024-09-23 06:06:01.026634,38.42,23.384328,-0.013110498830326714,0.019086441680196593,1.014205512650516,0.3674952580444515,-1.1812102424908428,-1.4174980532728136
2024-09-23 06:06:01.069776,38.42,23.384421,-0.012073802565215924,0.019086441680196593,1.014205512650516,0.29306802074806765,-1.0849533125951887,-1.294999633924663
2024-09-23 06:06:01.081938,38.42,23.384421,-0.012073802565215924,0.01975718684395762,1.014205512650516,0.29306802074806765,-1.0849533125951887,-1.294999633924663
2024-09-23 06:06:01.113354,38.42,23.384421,-0.012073802565215924,0.01975718684395762,1.0098759673543418,0.37184974532118065,-1.0849533125951887,-1.294999633924663
2024-09-23 06:06:01.124872,38.42,23.384471,-0.015610600769459046,0.01975718684395762,1.0098759673543418,0.37184974532118065,-1.1637349838074296,-1.3780785628784449
2024-09-23 06:06:01.168102,38.42,23.384565,-0.015610600769459046,0.019818144896951533,1.0138396944596255,0.3630834878716618,-1.0937195433642715,-1.4174980532728136
2024-09-23 06:06:01.210583,38.42,23.384565,-0.01378124399408774,0.019940162774376668,1.0138396944596255,0.3630834878716618,-1.0937195433642715,-1.4174980532728136
2024-09-23 06:06:01.222009,38.42,23.384565,-0.01378124399408774,0.019940162774376668,1.0126809947473678,0.26247207069927825,-1.1199610328167677,-1.4087318225037306
2024-09-23 06:06:01.263927,38.42,23.384663,-0.017013149402435646,0.022318348607521174,1.0144494238492787,0.3324875378228724,-1.1199610328167677,-1.4087318225037306
2024-09-23 06:06:01.275982,38.42,23.384663,-0.017013149402435646,0.022318348607521174,1.0144494238492787,0.3324875378228724,-1.2205724233087152,-1.4087318225037306
2024-09-23 06:06:01.308080,38.42,23.384715,-0.017013149402435646,0.022318348607521174,1.0144494238492787,0.3324875378228724,-1.2205724233087152,-1.3693696416858583
2024-09-23 06:06:01.319531,38.42,23.384715,-0.014939857124674697,0.01798878660260355,1.017132544250177,0.3368419984191656,-1.2205724233087152,-1.3693696416858583
2024-09-23 06:06:01.361744,38.42,23.384765,-0.01445198763887209,0.01750101888823825,1.017132544250177,0.3368419984191656,-1.1680894444037229,-1.43932777255252
2024-09-23 06:06:01.373356,38.42,23.384765,-0.01445198763887209,0.01750101888823825,1.0152421109416312,0.3368419984191656,-1.1680894444037229,-1.43932777255252
2024-09-23 06:06:01.405875,38.42,23.384765,-0.01445198763887209,0.01750101888823825,1.0152421109416312,0.3630834878716618,-1.0499454856518655,-1.43932777255252
2024-09-23 06:06:01.417384,38.42,23.384816,-0.017561976941232165,0.02067186599113161,1.0152421109416312,0.3630834878716618,-1.0499454856518655,-1.426207081187144
2024-09-23 06:06:01.459195,38.42,23.384867,-0.017561976941232165,0.02067186599113161,1.012742045457939,0.3499627431454137,-1.0237041029211134,-1.3911993609655648
2024-09-23 06:06:01.470825,38.42,23.384867,-0.01146401621393715,0.02067186599113161,1.012742045457939,0.3499627431454137,-1.0237041029211134,-1.3911993609655648
2024-09-23 06:06:01.503786,38.42,23.384867,-0.01146401621393715,0.020427930488741967,1.0131078636488298,0.3499627431454137,-1.0237041029211134,-1.3911993609655648
2024-09-23 06:06:01.515476,38.42,23.384955,-0.01146401621393715,0.020427930488741967,1.0131078636488298,0.3456082558686845,-1.1855647030871361,-1.413086283100024
2024-09-23 06:06:01.559261,38.42,23.384955,-0.014939857124674697,0.02201345505213762,1.013778546534547,0.40244569536997005,-1.0193495356030762,-1.3606034109167755
2024-09-23 06:06:01.602648,38.42,23.385006,-0.014695923141261731,0.020793883868556746,1.013778546534547,0.40244569536997005,-1.0193495356030762,-1.3606034109167755
2024-09-23 06:06:01.614379,38.42,23.385006,-0.014695923141261731,0.020793883868556746,1.0087784155671629,0.3849704900474288,-1.0543573625463993,-1.3606034109167755
2024-09-23 06:06:01.657453,38.42,23.385057,-0.013293374508285133,0.019086441680196593,1.0148152420401695,0.28871353347133843,-1.0543573625463993,-1.2905878637518733
2024-09-23 06:06:01.699332,38.42,23.385108,-0.013293374508285133,0.019086441680196593,1.0148152420401695,0.28871353347133843,-1.1724439050000162,-1.2512256829340012
2024-09-23 06:06:01.710591,38.42,23.385108,-0.012988480952901577,0.021159735476934217,1.0117053499523165,0.28871353347133843,-1.1724439050000162,-1.2512256829340012
2024-09-23 06:06:01.752694,38.42,23.385159,-0.015061773230662524,0.021159735476934217,1.0117053499523165,0.27994727602181957,-1.1549687530383468,-1.3255955839734523
2024-09-23 06:06:01.764458,38.42,23.385159,-0.015061773230662524,0.02122069352992813,1.0117053499523165,0.27994727602181957,-1.1549687530383468,-1.3255955839734523
2024-09-23 06:06:01.796318,38.42,23.385159,-0.015061773230662524,0.02122069352992813,1.0165227176460165,0.31060053564710544,-1.1549687530383468,-1.3255955839734523
2024-09-23 06:06:01.807608,38.42,23.385209,-0.012744546969488612,0.02122069352992813,1.0165227176460165,0.31060053564710544,-1.207451731943339,-1.3956111311383546
2024-09-23 06:06:01.849556,38.42,23.385209,-0.012744546969488612,0.01963527073796979,1.0144494238492787,0.3674952580444515,-1.1855647030871361,-1.3956111311383546
2024-09-23 06:06:01.861158,38.42,23.385296,-0.012744546969488612,0.01963527073796979,1.0144494238492787,0.3674952580444515,-1.1855647030871361,-1.4568603408124299
2024-09-23 06:06:01.997722,38.42,23.385296,-0.01622038788022616,0.022318348607521174,1.013778546534547,0.3674952580444515,-1.1418479549512268,-1.3999655917346479
2024-09-23 06:06:02.040474,39.0,23.385348,-0.018171764051999276,0.022318348607521174,1.013778546534547,0.3674952580444515,-1.1418479549512268,-1.3999655917346479
2024-09-23 06:06:02.051763,39.0,23.385348,-0.018171764051999276,0.02012303845233509,1.0120712653577144,0.3193667930966243,-1.1374934943549335,-1.3999655917346479
2024-09-23 06:06:02.094211,39.0,23.385399,-0.013171458402297304,0.021159735476934217,1.0101198785531047,0.3193667930966243,-1.1374934943549335,-1.413086283100024
2024-09-23 06:06:02.106933,39.0,23.385399,-0.013171458402297304,0.021159735476934217,1.0101198785531047,0.3456082558686845,-1.1374934943549335,-1.413086283100024
2024-09-23 06:06:02.140166,39.0,23.38545,-0.01341539238571027,0.021159735476934217,1.0101198785531047,0.3456082558686845,-1.1462025222692638,-1.434973311956227
2024-09-23 06:06:02.151852,39.0,23.38545,-0.01341539238571027,0.01664729931303485,1.0151202039495033,0.3456082558686845,-1.1462025222692638,-1.434973311956227
2024-09-23 06:06:02.183602,39.0,23.38545,-0.01341539238571027,0.01664729931303485,1.0151202039495033,0.3193667930966243,-1.1462025222692638,-1.434973311956227
2024-09-23 06:06:02.194829,39.0,23.3855,-0.015793578218854774,0.022318348607521174,1.0151202039495033,0.3193667930966243,-1.0718325145080685,-1.426207081187144
2024-09-23 06:06:02.238033,39.0,23.3855,-0.015793578218854774,0.022318348607521174,1.017254451242305,0.3543172304221429,-1.1637349838074296,-1.3649578715130686
2024-09-23 06:06:02.249568,39.0,23.38564,-0.014147094083488534,0.022318348607521174,1.017254451242305,0.3543172304221429,-1.1637349838074296,-1.3649578715130686
2024-09-23 06:06:02.283098,39.0,23.38564,-0.014147094083488534,0.017927828549609635,1.0162788064472537,0.3543172304221429,-1.1637349838074296,-1.3649578715130686
2024-09-23 06:06:02.335557,39.0,23.385735,-0.014147094083488534,0.017927828549609635,1.0162788064472537,0.2843590461946093,-1.028115873093903,-1.3868447936475277
2024-09-23 06:06:02.347485,39.0,23.385735,-0.013171458402297304,0.02164760496273682,1.0162788064472537,0.2843590461946093,-1.028115873093903,-1.3868447936475277
2024-09-23 06:06:02.380643,39.0,23.385735,-0.013171458402297304,0.02164760496273682,1.0126809947473678,0.2843590461946093,-1.028115873093903,-1.3868447936475277
2024-09-23 06:06:02.433023,39.0,23.385786,-0.015976452377836518,0.02164760496273682,1.0126809947473678,0.2843590461946093,-0.9755755846124142,-1.3255955839734523
2024-09-23 06:06:02.444887,39.0,23.385786,-0.015976452377836518,0.018842507696783625,1.0149372462468045,0.2843590461946093,-0.9755755846124142,-1.3255955839734523
2024-09-23 06:06:02.476450,39.0,23.385786,-0.015976452377836518,0.018842507696783625,1.0149372462468045,0.28871353347133843,-0.9755755846124142,-1.3255955839734523
2024-09-23 06:06:02.488013,39.0,23.385837,-0.014208053655459124,0.0173180429578192,1.0149372462468045,0.28871353347133843,-1.0455910250555724,-1.294999633924663
2024-09-23 06:06:02.531777,39.0,23.385837,-0.014208053655459124,0.0173180429578192,1.0139006479556893,0.3149550229238346,-1.0455910250555724,-1.3387163820605725
2024-09-23 06:06:02.542687,39.0,23.385888,-0.013110498830326714,0.0173180429578192,1.0139006479556893,0.3149550229238346,-1.0455910250555724,-1.3387163820605725
2024-09-23 06:06:02.575900,39.0,23.385888,-0.013110498830326714,0.02067186599113161,1.0114003880429827,0.3149550229238346,-1.0455910250555724,-1.3387163820605725
2024-09-23 06:06:02.587238,39.0,23.38598,-0.013110498830326714,0.02067186599113161,1.0114003880429827,0.24499683869630098,-1.1637349838074296,-1.2993542012427002
2024-09-23 06:06:02.630555,39.0,23.38598,-0.016159429827232244,0.020245056329760223,1.012742045457939,0.3062460483703762,-1.0893650827679784,-1.3956111311383546
2024-09-23 06:06:02.672692,39.0,23.386077,-0.016159429827232244,0.020245056329760223,1.012742045457939,0.3062460483703762,-1.0893650827679784,-1.3956111311383546
2024-09-23 06:06:02.684229,39.0,23.386077,-0.014939857124674697,0.02018409827676631,1.0115223922496177,0.4768156230898574,-1.0893650827679784,-1.3956111311383546
2024-09-23 06:06:02.726392,39.0,23.386128,-0.013903160100075569,0.02176952106872465,1.0115223922496177,0.4768156230898574,-1.0893650827679784,-1.3474826128296553
2024-09-23 06:06:02.740157,39.0,23.386128,-0.013903160100075569,0.02176952106872465,1.0146933350480416,0.28871353347133843,-1.0893650827679784,-1.3474826128296553
2024-09-23 06:06:02.772705,39.0,23.386179,-0.013903160100075569,0.02176952106872465,1.0146933350480416,0.28871353347133843,-1.1637349838074296,-1.3649578715130686
2024-09-23 06:06:02.784241,39.0,23.386179,-0.01182986782231462,0.02085484192155066,1.01542506864433,0.28871353347133843,-1.1637349838074296,-1.3649578715130686
2024-09-23 06:06:02.827163,39.0,23.38623,-0.014208053655459124,0.02085484192155066,1.01542506864433,0.39809120809324083,-1.0455910250555724,-1.4437395427253097
2024-09-23 06:06:02.870179,39.0,23.38623,-0.014208053655459124,0.02085484192155066,1.0112784810508548,0.4374534422719851,-1.0849533125951887,-1.4437395427253097
2024-09-23 06:06:02.881919,39.0,23.38628,-0.01573262016586086,0.02085484192155066,1.0112784810508548,0.4374534422719851,-1.0849533125951887,-1.4524485706396402
2024-09-23 06:06:03.016644,39.0,23.38628,-0.01573262016586086,0.019208359305161096,1.0143274196426437,0.3324875378228724,-1.0849533125951887,-1.4524485706396402
2024-09-23 06:06:03.028887,39.0,23.38628,-0.01573262016586086,0.019208359305161096,1.0143274196426437,0.3324875378228724,-1.1330817241821438,-1.4524485706396402
2024-09-23 06:06:03.061206,39.31,23.38628,-0.01573262016586086,0.019208359305161096,1.0143274196426437,0.3324875378228724,-1.1330817241821438,-1.3824903330512346
2024-09-23 06:06:03.072802,39.31,23.386369,-0.011098165365048018,0.016342405757651293,1.0149982969573756,0.3499627431454137,-1.1330817241821438,-1.3824903330512346
2024-09-23 06:06:03.118407,39.31,23.38642,-0.012378695361111141,0.016708257366028764,1.0097540603622142,0.3499627431454137,-1.1330817241821438,-1.4087318225037306
2024-09-23 06:06:03.161189,39.31,23.38642,-0.012378695361111141,0.016708257366028764,1.0097540603622142,0.38061600277069957,-1.1549687530383468,-1.4087318225037306
2024-09-23 06:06:03.172382,39.31,23.386471,-0.016525279916633037,0.021037716080532405,1.0097540603622142,0.38061600277069957,-1.1549687530383468,-1.4218526205908506
2024-09-23 06:06:03.214695,39.31,23.386522,-0.016525279916633037,0.021037716080532405,1.012620041251304,0.3499627431454137,-1.1111946953259408,-1.3562488435987383
2024-09-23 06:06:03.226881,39.31,23.386522,-0.015000815177668611,0.021037716080532405,1.012620041251304,0.3499627431454137,-1.1111946953259408,-1.3562488435987383
2024-09-23 06:06:03.259977,39.31,23.386522,-0.015000815177668611,0.01853761414140007,1.0114003880429827,0.3543172304221429,-1.1111946953259408,-1.3562488435987383
2024-09-23 06:06:03.271083,39.31,23.38671,-0.015000815177668611,0.01853761414140007,1.0114003880429827,0.3543172304221429,-1.2205724233087152,-1.3562488435987383
2024-09-23 06:06:03.313023,39.31,23.38671,-0.015000815177668611,0.02122069352992813,1.0132908213515286,0.29747979092085736,-1.0805987452771515,-1.3474826128296553
2024-09-23 06:06:03.355693,39.31,23.386761,-0.016342405757651293,0.02122069352992813,1.0132908213515286,0.29747979092085736,-1.0805987452771515,-1.3474826128296553
2024-09-23 06:06:03.367131,39.31,23.386761,-0.016342405757651293,0.018049744655597465,1.0115833457456815,0.2537058132497594,-1.0543573625463993,-1.3474826128296553
2024-09-23 06:06:03.410074,39.31,23.386812,-0.013049540777332799,0.021708563015730736,1.010668654446694,0.2537058132497594,-1.0543573625463993,-1.4087318225037306
2024-09-23 06:06:03.422182,39.31,23.386812,-0.013049540777332799,0.021708563015730736,1.010668654446694,0.3062460483703762,-1.0543573625463993,-1.4087318225037306
2024-09-23 06:06:03.454679,39.31,23.386812,-0.013049540777332799,0.021708563015730736,1.010668654446694,0.3062460483703762,-1.216217962712422,-1.3606034109167755
2024-09-23 06:06:03.465690,39.31,23.386863,-0.014695923141261731,0.02189143717471248,1.0102418827597397,0.3062460483703762,-1.216217962712422,-1.3606034109167755
2024-09-23 06:06:03.509351,39.31,23.386914,-0.014939857124674697,0.019330377182586234,1.0102418827597397,0.37620423259790986,-1.1287272635858505,-1.3911993609655648
2024-09-23 06:06:03.552103,39.31,23.386914,-0.014939857124674697,0.019330377182586234,1.0134736818397203,0.3237212803733535,-1.0980740039605648,-1.3911993609655648
2024-09-23 06:06:03.563449,39.31,23.386964,-0.01268358815700636,0.019330377182586234,1.0134736818397203,0.3237212803733535,-1.0980740039605648,-1.3518370734259486
2024-09-23 06:06:03.605661,39.31,23.386964,-0.01268358815700636,0.020366972435748053,1.0123761300525411,0.3237212803733535,-1.1024857741333545,-1.404320052330941
2024-09-23 06:06:03.617706,39.31,23.387051,-0.01268358815700636,0.020366972435748053,1.0123761300525411,0.3237212803733535,-1.1024857741333545,-1.404320052330941
2024-09-23 06:06:03.650165,39.31,23.387051,-0.01408613603049462,0.02067186599113161,1.0124370835486052,0.3237212803733535,-1.1024857741333545,-1.404320052330941
2024-09-23 06:06:03.661911,39.31,23.387051,-0.01408613603049462,0.02067186599113161,1.0124370835486052,0.3368419984191656,-1.1680894444037229,-1.426207081187144
2024-09-23 06:06:03.704134,39.31,23.387103,-0.014025177977500705,0.019940162774376668,1.0169495865474782,0.37620423259790986,-1.1024857741333545,-1.426207081187144
2024-09-23 06:06:03.746612,39.31,23.387153,-0.014025177977500705,0.019940162774376668,1.0169495865474782,0.37620423259790986,-1.1024857741333545,-1.426207081187144
2024-09-23 06:06:03.758039,39.31,23.387153,-0.01146401621393715,0.019574312684975875,1.0146933350480416,0.35872900059493257,-1.1024857741333545,-1.426207081187144
2024-09-23 06:06:03.800838,39.31,23.387204,-0.014512945691866003,0.022562284109910815,1.0146933350480416,0.35872900059493257,-1.0412365644592791,-1.448094003321603
2024-09-23 06:06:03.813226,39.31,23.387204,-0.014512945691866003,0.022562284109910815,1.0104247432479314,0.35872900059493257,-1.0412365644592791,-1.448094003321603
2024-09-23 06:06:03.845394,39.31,23.387204,-0.014512945691866003,0.022562284109910815,1.0104247432479314,0.37620423259790986,-1.1156065722204744,-1.3780785628784449
2024-09-23 06:06:03.857108,39.31,23.387255,-0.01573262016586086,0.017744852619190586,1.0104247432479314,0.37620423259790986,-1.1156065722204744,-1.3780785628784449
2024-09-23 06:06:03.890157,39.31,23.387255,-0.01573262016586086,0.017744852619190586,1.0148152420401695,0.37620423259790986,-1.1156065722204744,-1.3780785628784449
2024-09-23 06:06:03.901179,39.31,23.387306,-0.014512945691866003,0.017744852619190586,1.0148152420401695,0.3149550229238346,-1.0937195433642715,-1.2818216329827905
2024-09-23 06:06:03.943466,39.31,23.387306,-0.014512945691866003,0.02164760496273682,1.0139006479556893,0.3499627431454137,-1.0937195433642715,-1.2818216329827905
2024-09-23 06:06:03.955360,39.31,23.387392,-0.014512945691866003,0.02164760496273682,1.0139006479556893,0.3499627431454137,-1.0893650827679784,-1.4306188513599336
2024-09-23 06:06:03.997696,39.31,23.387392,-0.012012843752733671,0.020245056329760223,1.0130469101527657,0.468106701897271,-0.9799873547852039,-1.413086283100024
2024-09-23 06:06:04.040748,39.31,23.387444,-0.015000815177668611,0.01786687049661572,1.0130469101527657,0.468106701897271,-0.9799873547852039,-1.413086283100024
2024-09-23 06:06:04.095128,39.71,23.387495,-0.013049540777332799,0.01786687049661572,1.015668979843093,0.37620423259790986,-1.1024857741333545,-1.4874562908612192
2024-09-23 06:06:04.137871,39.71,23.387495,-0.013049540777332799,0.021830479121718566,1.0130469101527657,0.37620423259790986,-1.1024857741333545,-1.4874562908612192
2024-09-23 06:06:04.149991,39.71,23.387545,-0.013049540777332799,0.021830479121718566,1.0130469101527657,0.37620423259790986,-1.0762442846808582,-1.3606034109167755
2024-09-23 06:06:04.182407,39.71,23.387545,-0.015488684663471218,0.021830479121718566,1.0130469101527657,0.37620423259790986,-1.0762442846808582,-1.3606034109167755
2024-09-23 06:06:04.193976,39.71,23.387545,-0.015488684663471218,0.018598572194393984,1.0132298678554648,0.3368419984191656,-1.1068402347296475,-1.3562488435987383
2024-09-23 06:06:04.236174,39.71,23.387596,-0.014208053655459124,0.01853761414140007,1.0130469101527657,0.3368419984191656,-1.1068402347296475,-1.3562488435987383
2024-09-23 06:06:04.247098,39.71,23.387596,-0.014208053655459124,0.01853761414140007,1.0130469101527657,0.3324875378228724,-1.2424594521649182,-1.3562488435987383
2024-09-23 06:06:04.290320,39.71,23.387647,-0.012866564846913748,0.021464627513341095,1.0129859566567019,0.39809120809324083,-1.2424594521649182,-1.3868447936475277
2024-09-23 06:06:04.332374,39.71,23.387735,-0.012866564846913748,0.021464627513341095,1.0129859566567019,0.39809120809324083,-1.203097164625302,-1.413086283100024
2024-09-23 06:06:04.343394,39.71,23.387735,-0.015610600769459046,0.01750101888823825,1.0093881449568163,0.39809120809324083,-1.203097164625302,-1.413086283100024
2024-09-23 06:06:04.385638,39.71,23.387786,-0.014756881194255646,0.01750101888823825,1.0093881449568163,0.3193667930966243,-1.2205724233087152,-1.3999655917346479
2024-09-23 06:06:04.397787,39.71,23.387786,-0.014756881194255646,0.02152558556633501,1.0093881449568163,0.3193667930966243,-1.2205724233087152,-1.3999655917346479
2024-09-23 06:06:04.429957,39.71,23.387786,-0.014756881194255646,0.02152558556633501,1.0116442992417454,0.28871353347133843,-1.0937195433642715,-1.3999655917346479
2024-09-23 06:06:04.441727,39.71,23.387786,-0.014756881194255646,0.02152558556633501,1.0116442992417454,0.28871353347133843,-1.0937195433642715,-1.474335492774099
2024-09-23 06:06:04.483722,39.71,23.387837,-0.014756881194255646,0.022440264713509,1.0096319589410718,0.3237212803733535,-1.1549687530383468,-1.474335492774099
2024-09-23 06:06:04.526124,39.71,23.387929,-0.014756881194255646,0.022440264713509,1.0096319589410718,0.3237212803733535,-1.1549687530383468,-1.3824903330512346
2024-09-23 06:06:04.538299,39.71,23.387929,-0.015183792627064338,0.018171764051999276,1.0104247432479314,0.3149550229238346,-1.1549687530383468,-1.3824903330512346
2024-09-23 06:06:04.580600,39.71,23.38798,-0.015793578218854774,0.020549948366167105,1.0104247432479314,0.3149550229238346,-1.0893650827679784,-1.2818216329827905
2024-09-23 06:06:04.592355,39.71,23.38798,-0.015793578218854774,0.020549948366167105,1.0147542885441054,0.3149550229238346,-1.0893650827679784,-1.2818216329827905
2024-09-23 06:06:04.625717,39.71,23.38798,-0.015793578218854774,0.020549948366167105,1.0147542885441054,0.3630834878716618,-1.2512256829340012,-1.474335492774099
2024-09-23 06:06:04.637439,39.71,23.388031,-0.010732313756670548,0.020001120827370582,1.0147542885441054,0.3630834878716618,-1.2512256829340012,-1.474335492774099
2024-09-23 06:06:04.670123,39.71,23.388031,-0.010732313756670548,0.020001120827370582,1.01231507934197,0.3630834878716618,-1.2512256829340012,-1.474335492774099
2024-09-23 06:06:04.681795,39.71,23.388082,-0.01256167205101853,0.020001120827370582,1.01231507934197,0.3149550229238346,-1.1111946953259408,-1.3999655917346479
2024-09-23 06:06:04.723897,39.71,23.388082,-0.01256167205101853,0.020001120827370582,1.0117664006628877,0.38932495064372197,-1.2118635021161288,-1.3999655917346479
2024-09-23 06:06:04.735113,39.71,23.388172,-0.01256167205101853,0.020001120827370582,1.0117664006628877,0.38932495064372197,-1.2118635021161288,-1.3387163820605725
2024-09-23 06:06:04.777986,39.71,23.388172,-0.014025177977500705,0.020610907938137694,1.0139616014517532,0.40685746554275976,-1.1068402347296475,-1.4306188513599336
2024-09-23 06:06:04.820953,39.71,23.388224,-0.013171458402297304,0.018781549643789714,1.0139616014517532,0.40685746554275976,-1.1068402347296475,-1.4306188513599336
2024-09-23 06:06:04.832682,39.71,23.388224,-0.013171458402297304,0.018781549643789714,1.010668654446694,0.3674952580444515,-1.1199610328167677,-1.4306188513599336
2024-09-23 06:06:04.876089,39.71,23.388275,-0.012988480952901577,0.018842507696783625,1.0101808320491685,0.39373674749694765,-1.1199610328167677,-1.4524485706396402
2024-09-23 06:06:04.918439,39.71,23.388325,-0.014695923141261731,0.018842507696783625,1.0101808320491685,0.39373674749694765,-1.1374934943549335,-1.3693696416858583
2024-09-23 06:06:04.934003,39.71,23.388325,-0.014695923141261731,0.020427930488741967,1.0174374089450038,0.39373674749694765,-1.1374934943549335,-1.3693696416858583
2024-09-23 06:06:04.966815,39.71,23.388376,-0.014695923141261731,0.020427930488741967,1.0174374089450038,0.37620423259790986,-1.0937195433642715,-1.3693696416858583
2024-09-23 06:06:04.977895,39.71,23.388376,-0.013110498830326714,0.018049744655597465,1.0174374089450038,0.37620423259790986,-1.0937195433642715,-1.3693696416858583
2024-09-23 06:06:05.021330,39.71,23.388427,-0.01219582044264106,0.018049744655597465,1.0117664006628877,0.3456082558686845,-1.0980740039605648,-1.434973311956227
2024-09-23 06:06:05.064871,39.71,23.388427,-0.01219582044264106,0.020732824044125523,1.0114003880429827,0.31060053564710544,-1.0980740039605648,-1.434973311956227
2024-09-23 06:06:05.110037,40.01,23.388427,-0.01219582044264106,0.020732824044125523,1.0114003880429827,0.31060053564710544,-1.1374934943549335,-1.434973311956227
2024-09-23 06:06:05.121250,40.01,23.388514,-0.017561976941232165,0.02012303845233509,1.01426646614658,0.31060053564710544,-1.1374934943549335,-1.483101830264926
2024-09-23 06:06:05.163705,40.01,23.388565,-0.017561976941232165,0.02012303845233509,1.01426646614658,0.3193667930966243,-1.0805987452771515,-1.4437395427253097
2024-09-23 06:06:05.175263,40.01,23.388565,-0.010610295879245411,0.01963527073796979,1.01426646614658,0.3193667930966243,-1.0805987452771515,-1.4437395427253097
2024-09-23 06:06:05.207466,40.01,23.388565,-0.010610295879245411,0.01963527073796979,1.0119492611510794,0.3193667930966243,-1.0805987452771515,-1.4437395427253097
2024-09-23 06:06:05.218620,40.01,23.388616,-0.016037512202267738,0.01963527073796979,1.0119492611510794,0.3062460483703762,-1.1068402347296475,-1.3430708426568656
2024-09-23 06:06:05.261759,40.01,23.388616,-0.016037512202267738,0.019025483627202678,1.0120712653577144,0.3149550229238346,-1.0062288442377,-1.426207081187144
2024-09-23 06:06:05.273407,40.01,23.388667,-0.016037512202267738,0.019025483627202678,1.0120712653577144,0.3149550229238346,-1.0062288442377,-1.426207081187144
2024-09-23 06:06:05.306257,40.01,23.388667,-0.014208053655459124,0.019025483627202678,1.0120712653577144,0.3149550229238346,-1.0062288442377,-1.426207081187144
2024-09-23 06:06:05.317628,40.01,23.388667,-0.014208053655459124,0.020062078880364497,1.014022554947817,0.2362305812467821,-1.1287272635858505,-1.491868061034009
2024-09-23 06:06:05.360199,40.01,23.388758,-0.013842202047081654,0.019940162774376668,1.0079246777642392,0.2362305812467821,-1.1287272635858505,-1.491868061034009
2024-09-23 06:06:05.372261,40.01,23.388758,-0.013842202047081654,0.019940162774376668,1.0079246777642392,0.2362305812467821,-1.1330817241821438,-1.491868061034009
2024-09-23 06:06:05.403857,40.01,23.388809,-0.013842202047081654,0.019940162774376668,1.0079246777642392,0.2362305812467821,-1.1330817241821438,-1.5224640110827983
2024-09-23 06:06:05.415938,40.01,23.388809,-0.013049540777332799,0.02012303845233509,1.0118273541589518,0.31060053564710544,-1.1330817241821438,-1.5224640110827983
2024-09-23 06:06:05.500337,40.01,23.388809,-0.013049540777332799,0.02012303845233509,1.0118273541589518,0.31060053564710544,-1.0937195433642715,-1.5224640110827983
2024-09-23 06:06:05.511504,40.01,23.38886,-0.016098470255261652,0.01481783924724956,1.0153031616522024,0.31060053564710544,-1.0937195433642715,-1.4306188513599336
2024-09-23 06:06:05.554735,40.01,23.388911,-0.016464321863639123,0.01481783924724956,1.0153031616522024,0.40244569536997005,-1.0455910250555724,-1.4787472629468887
2024-09-23 06:06:05.566851,40.01,23.388911,-0.016464321863639123,0.01835463821098102,1.0153031616522024,0.40244569536997005,-1.0455910250555724,-1.4787472629468887
2024-09-23 06:06:05.598582,40.01,23.388911,-0.016464321863639123,0.01835463821098102,1.0133517748475924,0.3456082558686845,-1.0455910250555724,-1.4787472629468887
2024-09-23 06:06:05.610148,40.01,23.388962,-0.012073802565215924,0.01835463821098102,1.0133517748475924,0.3456082558686845,-1.0193495356030762,-1.3693696416858583
2024-09-23 06:06:05.653288,40.01,23.38905,-0.012073802565215924,0.020306014382754138,1.0135956860463553,0.3193667930966243,-1.1156065722204744,-1.4087318225037306
2024-09-23 06:06:05.697057,40.01,23.38905,-0.013476350438704184,0.018415698035412244,1.0128639524500669,0.3193667930966243,-1.1156065722204744,-1.4087318225037306
2024-09-23 06:06:05.708124,40.01,23.38905,-0.013476350438704184,0.018415698035412244,1.0128639524500669,0.27559278874509036,-1.0805987452771515,-1.469981032177806
2024-09-23 06:06:05.750209,40.01,23.389148,-0.013171458402297304,0.01890346574977754,1.0139006479556893,0.3018342781975865,-1.0805987452771515,-1.469981032177806
2024-09-23 06:06:05.793607,40.01,23.389148,-0.013171458402297304,0.01890346574977754,1.0139006479556893,0.3018342781975865,-1.0630662837389857,-1.3649578715130686
2024-09-23 06:06:05.805165,40.01,23.389199,-0.01481783924724956,0.018049744655597465,1.0129859566567019,0.3018342781975865,-1.0630662837389857,-1.3649578715130686
2024-09-23 06:06:05.847275,40.01,23.38925,-0.012866564846913748,0.018049744655597465,1.0129859566567019,0.3018342781975865,-1.1549687530383468,-1.3999655917346479
2024-09-23 06:06:05.859456,40.01,23.38925,-0.012866564846913748,0.020732824044125523,1.0129859566567019,0.3018342781975865,-1.1549687530383468,-1.3999655917346479
2024-09-23 06:06:05.891117,40.01,23.38925,-0.012866564846913748,0.020732824044125523,1.0117053499523165,0.3280757409696467,-1.1549687530383468,-1.3999655917346479
2024-09-23 06:06:05.902358,40.01,23.389301,-0.015305708733052167,0.020732824044125523,1.0117053499523165,0.3280757409696467,-1.0893650827679784,-1.4655692620050162
2024-09-23 06:06:05.945478,40.01,23.389352,-0.015305708733052167,0.018415698035412244,1.0112784810508548,0.29306802074806765,-1.0368247942864894,-1.4218526205908506
2024-09-23 06:06:05.988321,40.01,23.389352,-0.015671560341429636,0.018781549643789714,1.0112784810508548,0.29306802074806765,-1.0368247942864894,-1.4218526205908506
2024-09-23 06:06:06.000041,40.01,23.389352,-0.015671560341429636,0.018781549643789714,1.0152421109416312,0.2581175834225491,-1.1943309338562191,-1.3999655917346479
2024-09-23 06:06:06.041824,40.01,23.38944,-0.019330377182586234,0.021098777423940302,1.011095523348156,0.2581175834225491,-1.1943309338562191,-1.3999655917346479
2024-09-23 06:06:06.053335,40.01,23.38944,-0.019330377182586234,0.021098777423940302,1.011095523348156,0.3368419984191656,-1.1330817241821438,-1.3999655917346479
2024-09-23 06:06:06.085364,40.01,23.389492,-0.019330377182586234,0.021098777423940302,1.011095523348156,0.3368419984191656,-1.1330817241821438,-1.413086283100024
2024-09-23 06:06:06.138335,40.29,23.389492,-0.01445198763887209,0.02048899031317319,1.0136566395424191,0.29306802074806765,-1.1330817241821438,-1.413086283100024
2024-09-23 06:06:06.150241,40.29,23.389492,-0.01445198763887209,0.02048899031317319,1.0136566395424191,0.29306802074806765,-1.0762442846808582,-1.4218526205908506
2024-09-23 06:06:06.183965,40.29,23.389543,-0.013842202047081654,0.02048899031317319,1.0136566395424191,0.29306802074806765,-1.0762442846808582,-1.4218526205908506
2024-09-23 06:06:06.195036,40.29,23.389543,-0.013842202047081654,0.02097675802753849,1.0152421109416312,0.3411964856958948,-1.1506142924420535,-1.4218526205908506
2024-09-23 06:06:06.237590,40.29,23.389593,-0.014878899071680782,0.019513251341567978,1.014022554947817,0.3280757409696467,-1.1506142924420535,-1.43932777255252
2024-09-23 06:06:06.280568,40.29,23.389593,-0.014878899071680782,0.019513251341567978,1.014022554947817,0.3280757409696467,-1.0587118231426924,-1.3562488435987383
2024-09-23 06:06:06.292226,40.29,23.389644,-0.01408613603049462,0.020427930488741967,1.0138396944596255,0.3280757409696467,-1.0587118231426924,-1.3562488435987383
2024-09-23 06:06:06.335241,40.29,23.389733,-0.016464321863639123,0.020427930488741967,1.0138396944596255,0.27123832814879717,-1.0455910250555724,-1.426207081187144
2024-09-23 06:06:06.346900,40.29,23.389733,-0.016464321863639123,0.020366972435748053,1.0138396944596255,0.27123832814879717,-1.0455910250555724,-1.426207081187144
2024-09-23 06:06:06.378844,40.29,23.389733,-0.016464321863639123,0.020366972435748053,1.0150592504534395,0.27123832814879717,-1.0455910250555724,-1.426207081187144
2024-09-23 06:06:06.389876,40.29,23.389784,-0.014025177977500705,0.020366972435748053,1.0150592504534395,0.27123832814879717,-1.1111946953259408,-1.4174980532728136
2024-09-23 06:06:06.473743,40.29,23.389784,-0.014025177977500705,0.021098777423940302,1.0150592504534395,0.27123832814879717,-1.1111946953259408,-1.4174980532728136
2024-09-23 06:06:06.485375,40.29,23.389784,-0.014025177977500705,0.021098777423940302,1.0149982969573756,0.27123832814879717,-1.1111946953259408,-1.4174980532728136
2024-09-23 06:06:06.527361,40.29,23.389784,-0.014025177977500705,0.021098777423940302,1.0149982969573756,0.29747979092085736,-1.1418479549512268,-1.3911993609655648
2024-09-23 06:06:06.539399,40.29,23.389879,-0.015305708733052167,0.016830173472016593,1.0149982969573756,0.29747979092085736,-1.1418479549512268,-1.3911993609655648
2024-09-23 06:06:06.571598,40.29,23.389879,-0.015305708733052167,0.016830173472016593,1.011095523348156,0.29747979092085736,-1.1418479549512268,-1.3911993609655648
2024-09-23 06:06:06.582866,40.29,23.389931,-0.01408613603049462,0.016830173472016593,1.011095523348156,0.3543172304221429,-1.0368247942864894,-1.3299501512914895
2024-09-23 06:06:06.625703,40.29,23.389931,-0.01408613603049462,0.020549948366167105,1.0149372462468045,0.2843590461946093,-1.1243154934130608,-1.3299501512914895
2024-09-23 06:06:06.637619,40.29,23.389982,-0.01408613603049462,0.020549948366167105,1.0149372462468045,0.2843590461946093,-1.1243154934130608,-1.3606034109167755
2024-09-23 06:06:06.669901,40.29,23.389982,-0.016403363810645208,0.020549948366167105,1.0149372462468045,0.2843590461946093,-1.1243154934130608,-1.3606034109167755
2024-09-23 06:06:06.681088,40.29,23.389982,-0.016403363810645208,0.019086441680196593,1.0139616014517532,0.3630834878716618,-1.1243154934130608,-1.4174980532728136
2024-09-23 06:06:06.724400,40.29,23.390032,-0.013232416455291218,0.021281651582922046,1.0120712653577144,0.3630834878716618,-1.1243154934130608,-1.4174980532728136
2024-09-23 06:06:06.736251,40.29,23.390032,-0.013232416455291218,0.021281651582922046,1.0120712653577144,0.3499627431454137,-1.1637349838074296,-1.4174980532728136
2024-09-23 06:06:06.767948,40.29,23.390173,-0.013232416455291218,0.021281651582922046,1.0120712653577144,0.3499627431454137,-1.1637349838074296,-1.3430708426568656
2024-09-23 06:06:06.779789,40.29,23.390173,-0.013110498830326714,0.021037716080532405,1.0157299333391567,0.27994727602181957,-1.1637349838074296,-1.3430708426568656
2024-09-23 06:06:06.821712,40.29,23.390223,-0.01786687049661572,0.02134260963591596,1.0157299333391567,0.27994727602181957,-1.2118635021161288,-1.3868447936475277
2024-09-23 06:06:06.833460,40.29,23.390223,-0.01786687049661572,0.02134260963591596,1.0100589250570406,0.27994727602181957,-1.2118635021161288,-1.3868447936475277
2024-09-23 06:06:06.865201,40.29,23.390223,-0.01786687049661572,0.02134260963591596,1.0100589250570406,0.26247207069927825,-1.1243154934130608,-1.3868447936475277
2024-09-23 06:06:06.877031,40.29,23.390274,-0.015305708733052167,0.02012303845233509,1.0100589250570406,0.26247207069927825,-1.1243154934130608,-1.3956111311383546
2024-09-23 06:06:06.919335,40.29,23.390325,-0.015305708733052167,0.02012303845233509,1.012925003160638,0.3499627431454137,-1.1330817241821438,-1.3999655917346479
2024-09-23 06:06:06.931108,40.29,23.390325,-0.019208359305161096,0.02012303845233509,1.012925003160638,0.3499627431454137,-1.1330817241821438,-1.3999655917346479
2024-09-23 06:06:06.963669,40.29,23.390325,-0.019208359305161096,0.02152558556633501,1.0125589905407328,0.3499627431454137,-1.1330817241821438,-1.3999655917346479
2024-09-23 06:06:06.975022,40.29,23.390415,-0.019208359305161096,0.02152558556633501,1.0125589905407328,0.29747979092085736,-1.0937195433642715,-1.4437395427253097
2024-09-23 06:06:07.017113,40.29,23.390415,-0.012622630104012445,0.0173180429578192,1.0079246777642392,0.3062460483703762,-1.1199610328167677,-1.4437395427253097
2024-09-23 06:06:07.029929,40.29,23.390415,-0.012622630104012445,0.0173180429578192,1.0079246777642392,0.3062460483703762,-1.1199610328167677,-1.3911993609655648
2024-09-23 06:06:07.062791,40.29,23.390467,-0.01365932788809991,0.019696228790963704,1.0079246777642392,0.3062460483703762,-1.1199610328167677,-1.3911993609655648
2024-09-23 06:06:07.074483,40.29,23.390467,-0.01365932788809991,0.019696228790963704,1.0135956860463553,0.29747979092085736,-1.1068402347296475,-1.3911993609655648
2024-09-23 06:06:07.117253,40.29,23.390467,-0.01365932788809991,0.019696228790963704,1.0135956860463553,0.29747979092085736,-1.1068402347296475,-1.4787472629468887
2024-09-23 06:06:07.160072,41.04,23.390517,-0.013842202047081654,0.019879204721382753,1.0135956860463553,0.29747979092085736,-1.1068402347296475,-1.4787472629468887
2024-09-23 06:06:07.171903,41.04,23.390517,-0.013842202047081654,0.019879204721382753,1.0165836711420804,0.3018342781975865,-1.1068402347296475,-1.4787472629468887
2024-09-23 06:06:07.214520,41.04,23.390568,-0.013171458402297304,0.02097675802753849,1.0135956860463553,0.3018342781975865,-1.1855647030871361,-1.3387163820605725
2024-09-23 06:06:07.257806,41.04,23.390568,-0.013171458402297304,0.02097675802753849,1.0135956860463553,0.3499627431454137,-1.1549687530383468,-1.3956111311383546
2024-09-23 06:06:07.269422,41.04,23.390619,-0.01146401621393715,0.016037512202267738,1.0135956860463553,0.3499627431454137,-1.1549687530383468,-1.3956111311383546
2024-09-23 06:06:07.313240,41.04,23.390669,-0.013354434332716355,0.016037512202267738,1.0100589250570406,0.27559278874509036,-1.1812102424908428,-1.434973311956227
2024-09-23 06:06:07.355573,41.04,23.390669,-0.013354434332716355,0.02164760496273682,1.012925003160638,0.3456082558686845,-1.1812102424908428,-1.434973311956227
2024-09-23 06:06:07.366510,41.04,23.390757,-0.013354434332716355,0.02164760496273682,1.012925003160638,0.3456082558686845,-1.1987427040290088,-1.4306188513599336
2024-09-23 06:06:07.450539,41.04,23.390757,-0.016586237969626952,0.018293680157987106,1.012925003160638,0.3456082558686845,-1.1987427040290088,-1.4306188513599336
2024-09-23 06:06:07.462144,41.04,23.390757,-0.016586237969626952,0.018293680157987106,1.011095523348156,0.37184974532118065,-1.1987427040290088,-1.3693696416858583
2024-09-23 06:06:07.505029,41.04,23.390854,-0.014025177977500705,0.01823272210499319,1.0124370835486052,0.3630834878716618,-1.1987427040290088,-1.3693696416858583
2024-09-23 06:06:07.517175,41.04,23.390854,-0.014025177977500705,0.01823272210499319,1.0124370835486052,0.3630834878716618,-1.1418479549512268,-1.3693696416858583
2024-09-23 06:06:07.550568,41.04,23.390906,-0.014574005516297226,0.01823272210499319,1.0124370835486052,0.3630834878716618,-1.1418479549512268,-1.3824903330512346
2024-09-23 06:06:07.562328,41.04,23.390906,-0.014574005516297226,0.019940162774376668,1.0119492611510794,0.27994727602181957,-1.1418479549512268,-1.3824903330512346
2024-09-23 06:06:07.594857,41.04,23.390906,-0.014574005516297226,0.019940162774376668,1.0119492611510794,0.27994727602181957,-1.1111946953259408,-1.3824903330512346
2024-09-23 06:06:07.605877,41.04,23.390956,-0.01268358815700636,0.01798878660260355,1.0092051872541172,0.27994727602181957,-1.1111946953259408,-1.3430708426568656
2024-09-23 06:06:07.648711,41.04,23.391007,-0.01268358815700636,0.01798878660260355,1.0092051872541172,0.2843590461946093,-1.1768557818945498,-1.43932777255252
2024-09-23 06:06:07.661597,41.04,23.391007,-0.016525279916633037,0.02012303845233509,1.0092051872541172,0.2843590461946093,-1.1768557818945498,-1.43932777255252
2024-09-23 06:06:07.694001,41.04,23.391007,-0.016525279916633037,0.02012303845233509,1.0131688171448936,0.2843590461946093,-1.1768557818945498,-1.43932777255252
2024-09-23 06:06:07.705467,41.04,23.3911,-0.012073802565215924,0.02012303845233509,1.0131688171448936,0.3018342781975865,-1.224984193481505,-1.4655692620050162
2024-09-23 06:06:07.747793,41.04,23.3911,-0.012073802565215924,0.017074107455429557,1.0108517093639005,0.37184974532118065,-1.1111946953259408,-1.4524485706396402
2024-09-23 06:06:07.759494,41.04,23.391195,-0.012073802565215924,0.017074107455429557,1.0108517093639005,0.37184974532118065,-1.1111946953259408,-1.4524485706396402
2024-09-23 06:06:07.792402,41.04,23.391195,-0.013171458402297304,0.021098777423940302,1.0108517093639005,0.37184974532118065,-1.1111946953259408,-1.4524485706396402
2024-09-23 06:06:07.803884,41.04,23.391195,-0.013171458402297304,0.021098777423940302,1.0157299333391567,0.38061600277069957,-1.1111946953259408,-1.413086283100024
2024-09-23 06:06:07.847283,41.04,23.391247,-0.017257084904825287,0.021281651582922046,1.0165836711420804,0.3499627431454137,-1.1330817241821438,-1.413086283100024
2024-09-23 06:06:07.890563,41.04,23.391297,-0.017257084904825287,0.021281651582922046,1.0165836711420804,0.3499627431454137,-1.1330817241821438,-1.3999655917346479
2024-09-23 06:06:07.901738,41.04,23.391297,-0.012622630104012445,0.01786687049661572,1.0138396944596255,0.4418652124447748,-1.1330817241821438,-1.3999655917346479
2024-09-23 06:06:07.945022,41.04,23.391348,-0.017013149402435646,0.01786687049661572,1.0138396944596255,0.4418652124447748,-1.203097164625302,-1.4306188513599336
2024-09-23 06:06:07.987837,41.04,23.391348,-0.017013149402435646,0.02097675802753849,1.0130469101527657,0.4418652124447748,-1.203097164625302,-1.4306188513599336
2024-09-23 06:06:07.998997,41.04,23.391399,-0.017013149402435646,0.02097675802753849,1.0130469101527657,0.3630834878716618,-1.0937195433642715,-1.3911993609655648
2024-09-23 06:06:08.041781,41.04,23.391399,-0.017805912443621806,0.018842507696783625,1.0130469101527657,0.3630834878716618,-1.0937195433642715,-1.3911993609655648
2024-09-23 06:06:08.084780,41.04,23.391399,-0.017805912443621806,0.018842507696783625,1.0118883076550156,0.24499683869630098,-1.0937195433642715,-1.3911993609655648
2024-09-23 06:06:08.097126,41.04,23.391449,-0.015122834574070423,0.018842507696783625,1.0118883076550156,0.24499683869630098,-1.2818216329827905,-1.3780785628784449
2024-09-23 06:06:08.182112,41.16,23.391449,-0.015122834574070423,0.02152558556633501,1.0125589905407328,0.24499683869630098,-1.2818216329827905,-1.3780785628784449
2024-09-23 06:06:08.193667,41.16,23.391449,-0.015122834574070423,0.02152558556633501,1.0125589905407328,0.40244569536997005,-1.1812102424908428,-1.413086283100024
2024-09-23 06:06:08.236133,41.16,23.391536,-0.016769215419022678,0.022501222766502915,1.0147542885441054,0.3149550229238346,-1.1812102424908428,-1.413086283100024
2024-09-23 06:06:08.247777,41.16,23.391536,-0.016769215419022678,0.022501222766502915,1.0147542885441054,0.3149550229238346,-1.1199610328167677,-1.413086283100024
2024-09-23 06:06:08.331906,41.16,23.391588,-0.011403058160943235,0.02207441310513153,1.0147542885441054,0.3149550229238346,-1.1199610328167677,-1.3824903330512346
2024-09-23 06:06:08.343164,41.16,23.391588,-0.011403058160943235,0.02207441310513153,1.017010540043542,0.468106701897271,-1.1199610328167677,-1.3824903330512346
2024-09-23 06:06:08.376389,41.16,23.391588,-0.011403058160943235,0.02207441310513153,1.017010540043542,0.468106701897271,-1.1987427040290088,-1.3824903330512346
2024-09-23 06:06:08.387455,41.16,23.391638,-0.014208053655459124,0.01926931735815501,1.0121931723498423,0.468106701897271,-1.1987427040290088,-1.469981032177806
2024-09-23 06:06:08.429477,41.16,23.391733,-0.014208053655459124,0.01926931735815501,1.0121931723498423,0.3193667930966243,-1.1724439050000162,-1.496222521630302
2024-09-23 06:06:08.441181,41.16,23.391733,-0.015915494324842603,0.019696228790963704,1.0121931723498423,0.3193667930966243,-1.1724439050000162,-1.496222521630302
2024-09-23 06:06:08.474290,41.16,23.391733,-0.015915494324842603,0.019696228790963704,1.017254451242305,0.3193667930966243,-1.1724439050000162,-1.496222521630302
2024-09-23 06:06:08.485306,41.16,23.391831,-0.01433007153288426,0.019696228790963704,1.017254451242305,0.3630834878716618,-1.1374934943549335,-1.496222521630302
2024-09-23 06:06:08.579345,41.16,23.391927,-0.01433007153288426,0.02048899031317319,1.0121322188537785,0.40244569536997005,-1.1330817241821438,-1.4306188513599336
2024-09-23 06:06:08.622695,41.16,23.391927,-0.009085831140280984,0.021281651582922046,1.0131688171448936,0.40244569536997005,-1.1330817241821438,-1.4306188513599336
2024-09-23 06:06:08.634273,41.16,23.391927,-0.009085831140280984,0.021281651582922046,1.0131688171448936,0.3368419984191656,-1.0718325145080685,-1.4218526205908506
2024-09-23 06:06:08.676699,41.16,23.392024,-0.014208053655459124,0.02140366946034718,1.0121931723498423,0.39809120809324083,-1.15932321363464,-1.4218526205908506
2024-09-23 06:06:08.719958,41.16,23.392076,-0.014208053655459124,0.02140366946034718,1.0121931723498423,0.39809120809324083,-1.15932321363464,-1.259991913703084
2024-09-23 06:06:08.731825,41.16,23.392076,-0.014208053655459124,0.019513251341567978,1.01426646614658,0.39809120809324083,-1.15932321363464,-1.259991913703084
2024-09-23 06:06:08.774798,41.16,23.392126,-0.01365932788809991,0.020549948366167105,1.0111565740587272,0.39809120809324083,-1.0674780539117754,-1.3911993609655648
2024-09-23 06:06:08.817234,41.16,23.392126,-0.01365932788809991,0.020549948366167105,1.0111565740587272,0.17056960139991714,-1.1987427040290088,-1.3911993609655648
2024-09-23 06:06:08.828655,41.16,23.392221,-0.01445198763887209,0.02067186599113161,1.0111565740587272,0.17056960139991714,-1.1987427040290088,-1.4306188513599336
2024-09-23 06:06:08.872213,41.16,23.392272,-0.012317737308117227,0.02067186599113161,1.013778546534547,0.2581175834225491,-1.1943309338562191,-1.483101830264926
2024-09-23 06:06:08.914484,41.16,23.392272,-0.012317737308117227,0.021037716080532405,1.0162788064472537,0.3456082558686845,-1.1943309338562191,-1.483101830264926
2024-09-23 06:06:08.925819,41.16,23.392365,-0.012317737308117227,0.021037716080532405,1.0162788064472537,0.3456082558686845,-1.1680894444037229,-1.4874562908612192
2024-09-23 06:06:08.968147,41.16,23.392365,-0.014695923141261731,0.02048899031317319,1.0125589905407328,0.2537058132497594,-1.1243154934130608,-1.4874562908612192
2024-09-23 06:06:08.981071,41.16,23.392365,-0.014695923141261731,0.02048899031317319,1.0125589905407328,0.2537058132497594,-1.1243154934130608,-1.4524485706396402
2024-09-23 06:06:09.013843,41.16,23.392417,-0.012073802565215924,0.02122069352992813,1.0131078636488298,0.2537058132497594,-1.1243154934130608,-1.4524485706396402
2024-09-23 06:06:09.025380,41.16,23.392417,-0.012073802565215924,0.02122069352992813,1.0131078636488298,0.24935132597303017,-1.1768557818945498,-1.4524485706396402
2024-09-23 06:06:09.057360,41.16,23.392417,-0.012073802565215924,0.02122069352992813,1.0131078636488298,0.24935132597303017,-1.1768557818945498,-1.434973311956227
2024-09-23 06:06:09.069089,41.16,23.392467,-0.01365932788809991,0.02067186599113161,1.0179862820531007,0.223109849860752,-1.1768557818945498,-1.434973311956227
2024-09-23 06:06:09.112070,41.16,23.392518,-0.016159429827232244,0.02067186599113161,1.0179862820531007,0.223109849860752,-1.2512256829340012,-1.3956111311383546
2024-09-23 06:06:09.123819,41.16,23.392518,-0.016159429827232244,0.020793883868556746,1.0116442992417454,0.223109849860752,-1.2512256829340012,-1.3956111311383546
2024-09-23 06:06:09.156547,41.16,23.392518,-0.016159429827232244,0.020793883868556746,1.0116442992417454,0.27994727602181957,-1.2512256829340012,-1.3956111311383546
2024-09-23 06:06:09.168465,41.16,23.392569,-0.014695923141261731,0.018659531766364576,1.0116442992417454,0.27994727602181957,-1.1156065722204744,-1.3474826128296553
2024-09-23 06:06:09.210467,41.54,23.392569,-0.014695923141261731,0.018659531766364576,1.0114614387535539,0.31060053564710544,-1.1156065722204744,-1.4218526205908506
2024-09-23 06:06:09.254075,41.54,23.39262,-0.014695923141261731,0.018659531766364576,1.0114614387535539,0.31060053564710544,-1.1156065722204744,-1.4218526205908506
2024-09-23 06:06:09.265185,41.54,23.39262,-0.016342405757651293,0.0187205915907958,1.0149982969573756,0.3062460483703762,-1.0543573625463993,-1.4218526205908506
2024-09-23 06:06:09.308622,41.54,23.392707,-0.012256778495634975,0.02067186599113161,1.0109736163560281,0.3062460483703762,-1.0543573625463993,-1.4087318225037306
2024-09-23 06:06:09.320665,41.54,23.392707,-0.012256778495634975,0.02067186599113161,1.0109736163560281,0.3411964856958948,-1.0543573625463993,-1.4087318225037306
2024-09-23 06:06:09.352694,41.54,23.392707,-0.012256778495634975,0.02067186599113161,1.0109736163560281,0.3411964856958948,-1.0937195433642715,-1.518109550486505
2024-09-23 06:06:09.364850,41.54,23.392758,-0.015671560341429636,0.01890346574977754,1.0125589905407328,0.3411964856958948,-1.0937195433642715,-1.518109550486505
2024-09-23 06:06:09.408161,41.54,23.392809,-0.010610295879245411,0.01975718684395762,1.0125589905407328,0.31060053564710544,-1.2205724233087152,-1.3299501512914895
2024-09-23 06:06:09.450525,41.54,23.392809,-0.010610295879245411,0.01975718684395762,1.0118883076550156,0.3193667930966243,-1.1680894444037229,-1.3299501512914895
2024-09-23 06:06:09.462872,41.54,23.392859,-0.013903160100075569,0.01975718684395762,1.0118883076550156,0.3193667930966243,-1.1680894444037229,-1.491868061034009
2024-09-23 06:06:09.506323,41.54,23.39295,-0.013903160100075569,0.01786687049661572,1.0107906586533293,0.3237212803733535,-1.1943309338562191,-1.4568603408124299
2024-09-23 06:06:09.548256,41.54,23.39295,-0.013293374508285133,0.021830479121718566,1.0107906586533293,0.3237212803733535,-1.1943309338562191,-1.4568603408124299
2024-09-23 06:06:09.559502,41.54,23.39295,-0.013293374508285133,0.021830479121718566,1.0129859566567019,0.29747979092085736,-1.216217962712422,-1.3649578715130686
2024-09-23 06:06:09.602421,41.54,23.393002,-0.012988480952901577,0.020245056329760223,1.0134127283436565,0.3543172304221429,-1.216217962712422,-1.3649578715130686
2024-09-23 06:06:09.645864,41.54,23.393002,-0.012988480952901577,0.020245056329760223,1.0134127283436565,0.3543172304221429,-1.1068402347296475,-1.474335492774099
2024-09-23 06:06:09.657787,41.54,23.393052,-0.01664729931303485,0.01823272210499319,1.012742045457939,0.3543172304221429,-1.1068402347296475,-1.474335492774099
2024-09-23 06:06:09.699502,41.54,23.393103,-0.013476350438704184,0.01914740125216718,1.012742045457939,0.223109849860752,-1.1111946953259408,-1.4306188513599336
2024-09-23 06:06:09.742461,41.54,23.393103,-0.013476350438704184,0.01914740125216718,1.0117664006628877,0.29747979092085736,-1.1111946953259408,-1.4306188513599336
2024-09-23 06:06:09.753618,41.54,23.393154,-0.013598266544692013,0.01914740125216718,1.0117664006628877,0.29747979092085736,-1.1812102424908428,-1.413086283100024
2024-09-23 06:06:09.795782,41.54,23.393154,-0.013598266544692013,0.02213537267710212,1.0117664006628877,0.3062460483703762,-1.1374934943549335,-1.426207081187144
2024-09-23 06:06:09.808578,41.54,23.393205,-0.013598266544692013,0.02213537267710212,1.0117664006628877,0.3062460483703762,-1.1374934943549335,-1.426207081187144
2024-09-23 06:06:09.841689,41.54,23.393205,-0.010305402323861856,0.017927828549609635,1.0084734536578288,0.3062460483703762,-1.1374934943549335,-1.426207081187144
2024-09-23 06:06:09.853344,41.54,23.393205,-0.010305402323861856,0.017927828549609635,1.0084734536578288,0.3018342781975865,-1.1374934943549335,-1.4218526205908506
2024-09-23 06:06:09.896614,41.54,23.393292,-0.01573262016586086,0.019330377182586234,1.0162178529511898,0.3149550229238346,-1.1462025222692638,-1.4218526205908506
2024-09-23 06:06:09.938503,41.54,23.393343,-0.014512945691866003,0.019330377182586234,1.0162178529511898,0.3149550229238346,-1.1462025222692638,-1.4218526205908506
2024-09-23 06:06:09.949779,41.54,23.393343,-0.014512945691866003,0.025367278085450026,1.017254451242305,0.31060053564710544,-1.1462025222692638,-1.4218526205908506
2024-09-23 06:06:09.992287,41.54,23.393394,-0.015305708733052167,0.019818144896951533,1.0135956860463553,0.31060053564710544,-1.1418479549512268,-1.3956111311383546
2024-09-23 06:06:10.034610,41.54,23.393394,-0.015305708733052167,0.019818144896951533,1.0135956860463553,0.3630834878716618,-1.0849533125951887,-1.3956111311383546
2024-09-23 06:06:10.046210,41.54,23.393445,-0.010610295879245411,0.018476656088406155,1.0135956860463553,0.3630834878716618,-1.0849533125951887,-1.3124748926080763
2024-09-23 06:06:10.089335,41.54,23.393495,-0.01536666678604608,0.018476656088406155,1.0126809947473678,0.37620423259790986,-1.1243154934130608,-1.43932777255252
2024-09-23 06:06:10.183879,41.54,23.393495,-0.01536666678604608,0.019574312684975875,1.0153641151482662,0.29306802074806765,-1.2118635021161288,-1.43932777255252
2024-09-23 06:06:10.195292,41.54,23.393584,-0.01536666678604608,0.019574312684975875,1.0153641151482662,0.29306802074806765,-1.2118635021161288,-1.4306188513599336
2024-09-23 06:06:10.227352,41.81,23.393584,-0.01182986782231462,0.019574312684975875,1.0153641151482662,0.29306802074806765,-1.2118635021161288,-1.4306188513599336
2024-09-23 06:06:10.239027,41.81,23.393584,-0.01182986782231462,0.018293680157987106,1.0134736818397203,0.29306802074806765,-1.2118635021161288,-1.4306188513599336
2024-09-23 06:06:10.281849,41.81,23.393584,-0.01182986782231462,0.018293680157987106,1.0134736818397203,0.41997821026900783,-1.1243154934130608,-1.4524485706396402
2024-09-23 06:06:10.293345,41.81,23.393635,-0.00957370062608359,0.01914740125216718,1.0134736818397203,0.41997821026900783,-1.1243154934130608,-1.4524485706396402
2024-09-23 06:06:10.327372,41.81,23.393635,-0.00957370062608359,0.01914740125216718,1.0134736818397203,0.3018342781975865,-1.1243154934130608,-1.4524485706396402
2024-09-23 06:06:10.338625,41.81,23.393686,-0.013842202047081654,0.01914740125216718,1.0134736818397203,0.3018342781975865,-1.2205724233087152,-1.3343619214642792
2024-09-23 06:06:10.381722,41.81,23.393686,-0.013842202047081654,0.019879204721382753,1.0088393690632267,0.3368419984191656,-1.1199610328167677,-1.4218526205908506
2024-09-23 06:06:10.393825,41.81,23.393737,-0.013842202047081654,0.019879204721382753,1.0088393690632267,0.3368419984191656,-1.1199610328167677,-1.4218526205908506
2024-09-23 06:06:10.426441,41.81,23.393737,-0.014147094083488534,0.01798878660260355,1.0088393690632267,0.3368419984191656,-1.1199610328167677,-1.4218526205908506
2024-09-23 06:06:10.437791,41.81,23.393737,-0.014147094083488534,0.01798878660260355,1.009815013858278,0.3062460483703762,-1.1506142924420535,-1.434973311956227
2024-09-23 06:06:10.480556,41.81,23.39383,-0.013842202047081654,0.020793883868556746,1.009815013858278,0.3062460483703762,-1.1506142924420535,-1.434973311956227
2024-09-23 06:06:10.524430,41.81,23.39383,-0.013842202047081654,0.020793883868556746,1.015973941752427,0.35872900059493257,-1.2512256829340012,-1.434973311956227
2024-09-23 06:06:10.536398,41.81,23.393926,-0.013232416455291218,0.020793883868556746,1.015973941752427,0.35872900059493257,-1.2512256829340012,-1.448094003321603
2024-09-23 06:06:10.579194,41.81,23.393977,-0.013232416455291218,0.019940162774376668,1.0101198785531047,0.37184974532118065,-1.1855647030871361,-1.448094003321603
2024-09-23 06:06:10.621966,41.81,23.393977,-0.012866564846913748,0.020915799974544576,1.009510051948944,0.37184974532118065,-1.1855647030871361,-1.448094003321603
2024-09-23 06:06:10.632977,41.81,23.393977,-0.012866564846913748,0.020915799974544576,1.009510051948944,0.27559278874509036,-1.2993542012427002,-1.3999655917346479
2024-09-23 06:06:10.675605,41.81,23.394028,-0.01408613603049462,0.020427930488741967,1.0115833457456815,0.2843590461946093,-1.1156065722204744,-1.3999655917346479
2024-09-23 06:06:10.718943,41.81,23.394079,-0.012805606793919833,0.020427930488741967,1.0115833457456815,0.2843590461946093,-1.1156065722204744,-1.2905878637518733
2024-09-23 06:06:10.730657,41.81,23.394079,-0.012805606793919833,0.02067186599113161,1.0131078636488298,0.2843590461946093,-1.1156065722204744,-1.2905878637518733
2024-09-23 06:06:10.772853,41.81,23.394171,-0.014208053655459124,0.02122069352992813,1.0153641151482662,0.2843590461946093,-1.1287272635858505,-1.4306188513599336
2024-09-23 06:06:10.816367,41.81,23.394171,-0.014208053655459124,0.02122069352992813,1.0153641151482662,0.37184974532118065,-1.1506142924420535,-1.3562488435987383
2024-09-23 06:06:10.827850,41.81,23.394221,-0.014147094083488534,0.018293680157987106,1.0153641151482662,0.37184974532118065,-1.1506142924420535,-1.3562488435987383
2024-09-23 06:06:10.870524,41.81,23.394272,-0.015793578218854774,0.018293680157987106,1.0126809947473678,0.37620423259790986,-1.1024857741333545,-1.434973311956227
2024-09-23 06:06:10.914391,41.81,23.394272,-0.015793578218854774,0.020062078880364497,1.013778546534547,0.3543172304221429,-1.1024857741333545,-1.434973311956227
2024-09-23 06:06:10.929141,41.81,23.394364,-0.015793578218854774,0.020062078880364497,1.013778546534547,0.3543172304221429,-1.2468139127612115,-1.3911993609655648
2024-09-23 06:06:10.961256,41.81,23.394364,-0.013171458402297304,0.01963527073796979,1.013778546534547,0.3543172304221429,-1.2468139127612115,-1.3911993609655648
2024-09-23 06:06:10.972738,41.81,23.394364,-0.013171458402297304,0.01963527073796979,1.0116442992417454,0.2843590461946093,-1.1899764732599258,-1.3037086618389935
2024-09-23 06:06:11.015419,41.81,23.394415,-0.017561976941232165,0.016586237969626952,1.0118883076550156,0.39373674749694765,-1.1899764732599258,-1.3037086618389935
2024-09-23 06:06:11.026460,41.81,23.394415,-0.017561976941232165,0.016586237969626952,1.0118883076550156,0.39373674749694765,-1.1374934943549335,-1.3037086618389935
2024-09-23 06:06:11.059210,41.81,23.394466,-0.017561976941232165,0.016586237969626952,1.0118883076550156,0.39373674749694765,-1.1374934943549335,-1.3999655917346479
2024-09-23 06:06:11.071019,41.81,23.394466,-0.014756881194255646,0.02012303845233509,1.0136566395424191,0.3630834878716618,-1.1374934943549335,-1.3999655917346479
2024-09-23 06:06:11.113210,41.81,23.394517,-0.01768389456619667,0.019086441680196593,1.013778546534547,0.3630834878716618,-1.1156065722204744,-1.404320052330941
2024-09-23 06:06:11.156232,41.81,23.394517,-0.01768389456619667,0.019086441680196593,1.013778546534547,0.3237212803733535,-1.203097164625302,-1.404320052330941
2024-09-23 06:06:11.168129,41.81,23.394568,-0.012744546969488612,0.018293680157987106,1.013778546534547,0.3237212803733535,-1.203097164625302,-1.3824903330512346
2024-09-23 06:06:11.211942,41.81,23.394618,-0.015793578218854774,0.018293680157987106,1.0126809947473678,0.4418652124447748,-1.1549687530383468,-1.491868061034009
2024-09-23 06:06:11.254920,41.89,23.394618,-0.015793578218854774,0.019879204721382753,1.0120712653577144,0.3456082558686845,-1.1549687530383468,-1.491868061034009
2024-09-23 06:06:11.308374,41.89,23.394705,-0.011403058160943235,0.02067186599113161,1.0131078636488298,0.3456082558686845,-1.1111946953259408,-1.4524485706396402
2024-09-23 06:06:11.350935,41.89,23.394705,-0.011403058160943235,0.02067186599113161,1.0131078636488298,0.3237212803733535,-1.0499454856518655,-1.4524485706396402
2024-09-23 06:06:11.362518,41.89,23.394757,-0.014939857124674697,0.020427930488741967,1.0131078636488298,0.3237212803733535,-1.0499454856518655,-1.4174980532728136
2024-09-23 06:06:11.404179,41.89,23.394807,-0.014939857124674697,0.020427930488741967,1.0124370835486052,0.27123832814879717,-1.1812102424908428,-1.4087318225037306
2024-09-23 06:06:11.415822,41.89,23.394807,-0.017379001010813116,0.020427930488741967,1.0124370835486052,0.27123832814879717,-1.1812102424908428,-1.4087318225037306
2024-09-23 06:06:11.448429,41.89,23.394807,-0.017379001010813116,0.02152558556633501,1.0175593159371317,0.27123832814879717,-1.1812102424908428,-1.4087318225037306
2024-09-23 06:06:11.459958,41.89,23.394858,-0.017379001010813116,0.02152558556633501,1.0175593159371317,0.3237212803733535,-1.1943309338562191,-1.404320052330941
2024-09-23 06:06:11.501862,41.89,23.394858,-0.01445198763887209,0.021281651582922046,1.0129859566567019,0.37620423259790986,-1.1943309338562191,-1.404320052330941
2024-09-23 06:06:11.543716,41.89,23.394858,-0.01445198763887209,0.021281651582922046,1.0129859566567019,0.37620423259790986,-1.0193495356030762,-1.404320052330941
2024-09-23 06:06:11.555580,41.89,23.394949,-0.009207849017706122,0.015915494324842603,1.0145713308414066,0.37620423259790986,-1.0193495356030762,-1.3737241022821516
2024-09-23 06:06:11.598247,41.89,23.395001,-0.009207849017706122,0.015915494324842603,1.0145713308414066,0.37184974532118065,-1.0543573625463993,-1.3037086618389935
2024-09-23 06:06:11.609249,41.89,23.395001,-0.016464321863639123,0.019879204721382753,1.0145713308414066,0.37184974532118065,-1.0543573625463993,-1.3037086618389935
2024-09-23 06:06:11.641410,41.89,23.395001,-0.016464321863639123,0.019879204721382753,1.0131688171448936,0.37184974532118065,-1.0543573625463993,-1.3037086618389935
2024-09-23 06:06:11.652546,41.89,23.395052,-0.015915494324842603,0.019879204721382753,1.0131688171448936,0.3674952580444515,-1.1724439050000162,-1.3693696416858583
2024-09-23 06:06:11.695099,41.89,23.395052,-0.015915494324842603,0.019696228790963704,1.0118273541589518,0.2581175834225491,-1.1637349838074296,-1.3693696416858583
2024-09-23 06:06:11.706715,41.89,23.395052,-0.015915494324842603,0.019696228790963704,1.0118273541589518,0.2581175834225491,-1.1637349838074296,-1.4218526205908506
2024-09-23 06:06:11.739225,41.89,23.395102,-0.015915494324842603,0.019696228790963704,1.0118273541589518,0.2581175834225491,-1.1637349838074296,-1.4218526205908506
2024-09-23 06:06:11.750232,41.89,23.395102,-0.01268358815700636,0.022501222766502915,1.0144494238492787,0.40244569536997005,-1.1506142924420535,-1.4218526205908506
2024-09-23 06:06:11.791926,41.89,23.395193,-0.01146401621393715,0.022501222766502915,1.0144494238492787,0.40244569536997005,-1.1506142924420535,-1.4787472629468887
2024-09-23 06:06:11.804063,41.89,23.395193,-0.01146401621393715,0.02134260963591596,1.0108517093639005,0.4724611624935642,-1.1506142924420535,-1.4787472629468887
2024-09-23 06:06:11.836371,41.89,23.395193,-0.01146401621393715,0.02134260963591596,1.0108517093639005,0.4724611624935642,-1.0893650827679784,-1.4787472629468887
2024-09-23 06:06:11.848007,41.89,23.395245,-0.014147094083488534,0.020245056329760223,1.0108517093639005,0.4724611624935642,-1.0893650827679784,-1.4174980532728136
2024-09-23 06:06:11.890262,41.89,23.395295,-0.014147094083488534,0.020245056329760223,1.0108517093639005,0.37620423259790986,-1.0893650827679784,-1.461214801408723
2024-09-23 06:06:11.901843,41.89,23.395295,-0.013598266544692013,0.019330377182586234,1.0108517093639005,0.37620423259790986,-1.0893650827679784,-1.461214801408723
2024-09-23 06:06:11.935187,41.89,23.395295,-0.013598266544692013,0.019330377182586234,1.0121931723498423,0.37620423259790986,-1.0893650827679784,-1.461214801408723
2024-09-23 06:06:11.946417,41.89,23.395346,-0.012927522899907663,0.019330377182586234,1.0121931723498423,0.3543172304221429,-1.1943309338562191,-1.4655692620050162
2024-09-23 06:06:11.988061,41.89,23.395346,-0.012927522899907663,0.020245056329760223,1.0122541258459061,0.26247207069927825,-1.0980740039605648,-1.4655692620050162
2024-09-23 06:06:11.999744,41.89,23.395436,-0.012927522899907663,0.020245056329760223,1.0122541258459061,0.26247207069927825,-1.0980740039605648,-1.3299501512914895
2024-09-23 06:06:12.031334,41.89,23.395436,-0.014147094083488534,0.020245056329760223,1.0122541258459061,0.26247207069927825,-1.0980740039605648,-1.3299501512914895
2024-09-23 06:06:12.042635,41.89,23.395436,-0.014147094083488534,0.021586543619328925,1.0113394345469187,0.2581175834225491,-1.1462025222692638,-1.4874562908612192
2024-09-23 06:06:12.085593,41.89,23.395488,-0.01378124399408774,0.02067186599113161,1.017132544250177,0.2581175834225491,-1.1462025222692638,-1.4874562908612192
2024-09-23 06:06:12.097167,41.89,23.395488,-0.01378124399408774,0.02067186599113161,1.017132544250177,0.27994727602181957,-1.1024857741333545,-1.4874562908612192
2024-09-23 06:06:12.129318,41.89,23.395488,-0.01378124399408774,0.02067186599113161,1.017132544250177,0.27994727602181957,-1.1024857741333545,-1.404320052330941
2024-09-23 06:06:12.141251,41.89,23.395539,-0.015488684663471218,0.017805912443621806,1.01231507934197,0.3062460483703762,-1.1024857741333545,-1.404320052330941
2024-09-23 06:06:12.184152,41.89,23.395589,-0.015000815177668611,0.020001120827370582,1.01231507934197,0.3062460483703762,-1.0630662837389857,-1.3780785628784449
2024-09-23 06:06:12.195855,41.89,23.395589,-0.015000815177668611,0.020001120827370582,1.0149982969573756,0.3062460483703762,-1.0630662837389857,-1.3780785628784449
2024-09-23 06:06:12.228307,41.89,23.395589,-0.015000815177668611,0.020001120827370582,1.0149982969573756,0.3062460483703762,-1.0630662837389857,-1.3780785628784449
2024-09-23 06:06:12.280856,42.18,23.395589,-0.015000815177668611,0.020001120827370582,1.0149982969573756,0.3062460483703762,-1.0674780539117754,-1.3780785628784449
2024-09-23 06:06:12.323931,42.18,23.395589,-0.015000815177668611,0.020001120827370582,1.0149982969573756,0.3062460483703762,-1.0674780539117754,-1.3606034109167755
2024-09-23 06:06:12.335703,42.18,23.39564,-0.012439653414105056,0.02134260963591596,1.0121931723498423,0.3062460483703762,-1.0674780539117754,-1.3606034109167755
2024-09-23 06:06:12.378641,42.18,23.395691,-0.011951885699739756,0.02134260963591596,1.0121931723498423,0.3062460483703762,-1.1068402347296475,-1.3737241022821516
2024-09-23 06:06:12.390110,42.18,23.395691,-0.011951885699739756,0.017561976941232165,1.0132908213515286,0.3062460483703762,-1.1068402347296475,-1.3737241022821516
2024-09-23 06:06:12.422955,42.18,23.395691,-0.011951885699739756,0.017561976941232165,1.0132908213515286,0.2843590461946093,-1.1068402347296475,-1.3737241022821516
2024-09-23 06:06:12.434570,42.18,23.395778,-0.011342100107949322,0.019879204721382753,1.0132908213515286,0.2843590461946093,-1.0105833048339934,-1.3911993609655648
2024-09-23 06:06:12.478056,42.18,23.395829,-0.011342100107949322,0.019879204721382753,1.0131078636488298,0.3543172304221429,-1.15932321363464,-1.3649578715130686
2024-09-23 06:06:12.489904,42.18,23.395829,-0.010366361136344109,0.019879204721382753,1.0131078636488298,0.3543172304221429,-1.15932321363464,-1.3649578715130686
2024-09-23 06:06:12.522646,42.18,23.395829,-0.010366361136344109,0.02012303845233509,1.0105467474545664,0.38061600277069957,-1.15932321363464,-1.3649578715130686
2024-09-23 06:06:12.535386,42.18,23.395973,-0.010366361136344109,0.02012303845233509,1.0105467474545664,0.38061600277069957,-1.1724439050000162,-1.3911993609655648
2024-09-23 06:06:12.570667,42.18,23.395973,-0.01365932788809991,0.02012303845233509,1.0105467474545664,0.38061600277069957,-1.1724439050000162,-1.3911993609655648
2024-09-23 06:06:12.582289,42.18,23.395973,-0.01365932788809991,0.02012303845233509,1.015486022140394,0.29306802074806765,-0.971221124016121,-1.3780785628784449
2024-09-23 06:06:12.625358,42.18,23.396025,-0.01365932788809991,0.01853761414140007,1.0162788064472537,0.27559278874509036,-1.1549687530383468,-1.3780785628784449
2024-09-23 06:06:12.668083,42.18,23.396076,-0.014391029585878175,0.01853761414140007,1.0162788064472537,0.27559278874509036,-1.1549687530383468,-1.3999655917346479
2024-09-23 06:06:12.678951,42.18,23.396076,-0.014391029585878175,0.020549948366167105,1.01231507934197,0.28871353347133843,-1.1549687530383468,-1.3999655917346479
2024-09-23 06:06:12.721273,42.18,23.396126,-0.016769215419022678,0.015610600769459046,1.01231507934197,0.28871353347133843,-1.0937195433642715,-1.3737241022821516
2024-09-23 06:06:12.733141,42.18,23.396126,-0.016769215419022678,0.015610600769459046,1.0105467474545664,0.28871353347133843,-1.0937195433642715,-1.3737241022821516
2024-09-23 06:06:12.767262,42.18,23.396126,-0.016769215419022678,0.015610600769459046,1.0105467474545664,0.3324875378228724,-1.0937195433642715,-1.2336931146740913
2024-09-23 06:06:12.778806,42.18,23.396177,-0.013354434332716355,0.016708257366028764,1.0105467474545664,0.3324875378228724,-1.0937195433642715,-1.2336931146740913
2024-09-23 06:06:12.821410,42.18,23.396228,-0.016159429827232244,0.016708257366028764,1.0132298678554648,0.2843590461946093,-1.1987427040290088,-1.3824903330512346
2024-09-23 06:06:12.865058,42.18,23.396228,-0.016159429827232244,0.020732824044125523,1.0097540603622142,0.29306802074806765,-1.1987427040290088,-1.3824903330512346
2024-09-23 06:06:12.878154,42.18,23.396314,-0.016159429827232244,0.020732824044125523,1.0097540603622142,0.29306802074806765,-1.0630662837389857,-1.434973311956227
2024-09-23 06:06:12.910906,42.18,23.396314,-0.011707950956838454,0.019452293288574063,1.0097540603622142,0.29306802074806765,-1.0630662837389857,-1.434973311956227
2024-09-23 06:06:12.922370,42.18,23.396314,-0.011707950956838454,0.019452293288574063,1.0113394345469187,0.3193667930966243,-1.0718325145080685,-1.3430708426568656
2024-09-23 06:06:12.964122,42.18,23.396366,-0.011098165365048018,0.018049744655597465,1.0132298678554648,0.3149550229238346,-1.0718325145080685,-1.3430708426568656
2024-09-23 06:06:12.976076,42.18,23.396366,-0.011098165365048018,0.018049744655597465,1.0132298678554648,0.3149550229238346,-1.0937195433642715,-1.3430708426568656
2024-09-23 06:06:13.008539,42.18,23.396416,-0.011098165365048018,0.018049744655597465,1.0132298678554648,0.3149550229238346,-1.0937195433642715,-1.3649578715130686
2024-09-23 06:06:13.019926,42.18,23.396416,-0.010854230622146716,0.01939133523558015,1.0136566395424191,0.3237212803733535,-1.0937195433642715,-1.3649578715130686
2024-09-23 06:06:13.061750,42.18,23.396467,-0.016159429827232244,0.02207441310513153,1.0136566395424191,0.3237212803733535,-1.1024857741333545,-1.3124748926080763
2024-09-23 06:06:13.073374,42.18,23.396467,-0.016159429827232244,0.02207441310513153,1.0160348952484908,0.3237212803733535,-1.1024857741333545,-1.3124748926080763
2024-09-23 06:06:13.106305,42.18,23.396467,-0.016159429827232244,0.02207441310513153,1.0160348952484908,0.3630834878716618,-1.203097164625302,-1.3124748926080763
2024-09-23 06:06:13.117815,42.18,23.396518,-0.012256778495634975,0.021098777423940302,1.0160348952484908,0.3630834878716618,-1.203097164625302,-1.413086283100024
2024-09-23 06:06:13.160104,42.18,23.396568,-0.012256778495634975,0.021098777423940302,1.015668979843093,0.35872900059493257,-1.2118635021161288,-1.461214801408723
2024-09-23 06:06:13.172121,42.18,23.396568,-0.010732313756670548,0.021098777423940302,1.015668979843093,0.35872900059493257,-1.2118635021161288,-1.461214801408723
2024-09-23 06:06:13.203950,42.18,23.396568,-0.010732313756670548,0.017805912443621806,1.0151202039495033,0.35872900059493257,-1.2118635021161288,-1.461214801408723
2024-09-23 06:06:13.215052,42.18,23.396655,-0.010732313756670548,0.017805912443621806,1.0151202039495033,0.29306802074806765,-1.1111946953259408,-1.4655692620050162
2024-09-23 06:06:13.258175,42.18,23.396655,-0.014147094083488534,0.01664729931303485,1.0112784810508548,0.3193667930966243,-1.0849533125951887,-1.4655692620050162
2024-09-23 06:06:13.300477,42.67,23.396707,-0.014025177977500705,0.01664729931303485,1.0112784810508548,0.3193667930966243,-1.0849533125951887,-1.4655692620050162
2024-09-23 06:06:13.313445,42.67,23.396707,-0.014025177977500705,0.020732824044125523,1.0162788064472537,0.28871353347133843,-1.1330817241821438,-1.4655692620050162
2024-09-23 06:06:13.356013,42.67,23.396758,-0.012439653414105056,0.02164760496273682,1.0132298678554648,0.28871353347133843,-1.1330817241821438,-1.294999633924663
2024-09-23 06:06:13.400112,42.67,23.396758,-0.012439653414105056,0.02164760496273682,1.0132298678554648,0.29306802074806765,-1.0543573625463993,-1.2687009416174144
2024-09-23 06:06:13.411762,42.67,23.396808,-0.015122834574070423,0.020062078880364497,1.0132298678554648,0.29306802074806765,-1.0543573625463993,-1.2687009416174144
2024-09-23 06:06:13.454253,42.67,23.396859,-0.013232416455291218,0.020062078880364497,1.012620041251304,0.3411964856958948,-1.15932321363464,-1.3824903330512346
2024-09-23 06:06:13.496400,42.67,23.396859,-0.013232416455291218,0.017927828549609635,1.0108517093639005,0.3411964856958948,-1.15932321363464,-1.3824903330512346
2024-09-23 06:06:13.508552,42.67,23.39691,-0.013232416455291218,0.017927828549609635,1.0108517093639005,0.3368419984191656,-1.2293386540777982,-1.3212411233771593
2024-09-23 06:06:13.551896,42.67,23.39691,-0.01219582044264106,0.01768389456619667,1.0140835084438808,0.3062460483703762,-1.1156065722204744,-1.43932777255252
2024-09-23 06:06:13.595359,42.67,23.396996,-0.012378695361111141,0.01963527073796979,1.0140835084438808,0.3062460483703762,-1.1156065722204744,-1.43932777255252
2024-09-23 06:06:13.606768,42.67,23.396996,-0.012378695361111141,0.01963527073796979,1.0107297051572652,0.29747979092085736,-1.1068402347296475,-1.43932777255252
2024-09-23 06:06:13.649477,42.67,23.397048,-0.013903160100075569,0.023050050305299438,1.01231507934197,0.27123832814879717,-1.1068402347296475,-1.3562488435987383
2024-09-23 06:06:13.692182,42.67,23.397099,-0.013903160100075569,0.023050050305299438,1.01231507934197,0.27123832814879717,-1.1418479549512268,-1.3343619214642792
2024-09-23 06:06:13.703182,42.67,23.397099,-0.01365932788809991,0.020001120827370582,1.0139006479556893,0.27123832814879717,-1.1418479549512268,-1.3343619214642792
2024-09-23 06:06:13.744909,42.67,23.397149,-0.013110498830326714,0.020001120827370582,1.0139006479556893,0.3411964856958948,-1.1987427040290088,-1.3474826128296553
2024-09-23 06:06:13.757178,42.67,23.397149,-0.013110498830326714,0.01975718684395762,1.0139006479556893,0.3411964856958948,-1.1987427040290088,-1.3474826128296553
2024-09-23 06:06:13.789379,42.67,23.397149,-0.013110498830326714,0.01975718684395762,1.013778546534547,0.3411964856958948,-1.1987427040290088,-1.3474826128296553
2024-09-23 06:06:13.842781,42.67,23.3972,-0.014391029585878175,0.01975718684395762,1.013778546534547,0.3456082558686845,-1.1243154934130608,-1.3649578715130686
2024-09-23 06:06:13.854485,42.67,23.3972,-0.014391029585878175,0.020306014382754138,1.013778546534547,0.3456082558686845,-1.1243154934130608,-1.3649578715130686
2024-09-23 06:06:13.888201,42.67,23.3972,-0.014391029585878175,0.020306014382754138,1.0104856967439952,0.37184974532118065,-1.1111946953259408,-1.3649578715130686
2024-09-23 06:06:13.899250,42.67,23.397289,-0.01445198763887209,0.020306014382754138,1.0104856967439952,0.37184974532118065,-1.1111946953259408,-1.4787472629468887
2024-09-23 06:06:13.941985,42.67,23.397341,-0.01445198763887209,0.02097675802753849,1.0131078636488298,0.3674952580444515,-1.1024857741333545,-1.3693696416858583
2024-09-23 06:06:13.984385,42.67,23.397341,-0.014878899071680782,0.02012303845233509,1.0170715907541132,0.3674952580444515,-1.1024857741333545,-1.3693696416858583
2024-09-23 06:06:13.995794,42.67,23.397341,-0.014878899071680782,0.02012303845233509,1.0170715907541132,0.3193667930966243,-1.1111946953259408,-1.4087318225037306
2024-09-23 06:06:14.038410,42.67,23.397391,-0.013537308491698099,0.02140366946034718,1.01737645544894,0.3543172304221429,-1.1987427040290088,-1.4087318225037306
2024-09-23 06:06:14.080470,42.67,23.397485,-0.013537308491698099,0.02140366946034718,1.01737645544894,0.3543172304221429,-1.1987427040290088,-1.3824903330512346
2024-09-23 06:06:14.092168,42.67,23.397485,-0.014634963569291141,0.01926931735815501,1.0163397599433175,0.2274643237972632,-1.1987427040290088,-1.3824903330512346
2024-09-23 06:06:14.135658,42.67,23.397536,-0.01341539238571027,0.019330377182586234,1.0163397599433175,0.2274643237972632,-1.3080631224352866,-1.404320052330941
2024-09-23 06:06:14.147504,42.67,23.397536,-0.01341539238571027,0.019330377182586234,1.0119492611510794,0.2274643237972632,-1.3080631224352866,-1.404320052330941
2024-09-23 06:06:14.180471,42.67,23.397536,-0.01341539238571027,0.019330377182586234,1.0119492611510794,0.3324875378228724,-1.1418479549512268,-1.404320052330941
2024-09-23 06:06:14.191882,42.67,23.397587,-0.013293374508285133,0.02213537267710212,1.0119492611510794,0.3324875378228724,-1.1418479549512268,-1.4218526205908506
2024-09-23 06:06:14.234422,42.67,23.397638,-0.016586237969626952,0.02213537267710212,1.0115223922496177,0.3062460483703762,-1.1462025222692638,-1.4218526205908506
2024-09-23 06:06:14.277469,42.67,23.397638,-0.016586237969626952,0.02122069352992813,1.0137175930384832,0.3411964856958948,-1.1462025222692638,-1.4218526205908506
2024-09-23 06:06:14.289270,42.67,23.397728,-0.016586237969626952,0.02122069352992813,1.0137175930384832,0.3411964856958948,-1.1680894444037229,-1.3780785628784449
2024-09-23 06:06:14.332298,42.49,23.397728,-0.01268358815700636,0.02122069352992813,1.0137175930384832,0.3411964856958948,-1.1680894444037229,-1.3780785628784449
2024-09-23 06:06:14.375262,42.49,23.397728,-0.01268358815700636,0.02085484192155066,1.015608026347029,0.38932495064372197,-1.1680894444037229,-1.3780785628784449
2024-09-23 06:06:14.387374,42.49,23.397728,-0.01268358815700636,0.02085484192155066,1.015608026347029,0.38932495064372197,-1.1111946953259408,-1.3911993609655648
2024-09-23 06:06:14.430526,42.49,23.397779,-0.016830173472016593,0.02420866495486307,1.012620041251304,0.31060053564710544,-1.1768557818945498,-1.3911993609655648
2024-09-23 06:06:14.472698,42.49,23.39783,-0.015915494324842603,0.02420866495486307,1.012620041251304,0.31060053564710544,-1.1768557818945498,-1.426207081187144
2024-09-23 06:06:14.484365,42.49,23.39783,-0.015915494324842603,0.0173180429578192,1.0094490984528801,0.3280757409696467,-1.1768557818945498,-1.426207081187144
2024-09-23 06:06:14.528232,42.49,23.397881,-0.015244750680058252,0.020366972435748053,1.0146933350480416,0.3280757409696467,-1.2336931146740913,-1.3999655917346479
2024-09-23 06:06:14.572295,42.49,23.397931,-0.015244750680058252,0.020366972435748053,1.0146933350480416,0.3018342781975865,-1.2774671723864972,-1.3999655917346479
2024-09-23 06:06:14.584412,42.49,23.397931,-0.014208053655459124,0.020366972435748053,1.0146933350480416,0.3018342781975865,-1.2774671723864972,-1.3999655917346479
2024-09-23 06:06:14.616594,42.49,23.397931,-0.014208053655459124,0.020366972435748053,1.0159129882563631,0.27559278874509036,-1.2774671723864972,-1.3999655917346479
2024-09-23 06:06:14.630050,42.49,23.397931,-0.014208053655459124,0.020366972435748053,1.0159129882563631,0.27559278874509036,-1.1243154934130608,-1.3430708426568656
2024-09-23 06:06:14.673181,42.49,23.398022,-0.01585453627184869,0.02012303845233509,1.009510051948944,0.3324875378228724,-1.1287272635858505,-1.3430708426568656
2024-09-23 06:06:14.716538,42.49,23.398118,-0.011037206552565765,0.02012303845233509,1.009510051948944,0.3324875378228724,-1.1287272635858505,-1.3562488435987383
2024-09-23 06:06:14.728075,42.49,23.398118,-0.011037206552565765,0.021159735476934217,1.0136566395424191,0.2274643237972632,-1.1287272635858505,-1.3562488435987383
2024-09-23 06:06:14.770826,42.49,23.398169,-0.014695923141261731,0.020793883868556746,1.017254451242305,0.2274643237972632,-1.1637349838074296,-1.3780785628784449
2024-09-23 06:06:14.813269,42.49,23.398169,-0.014695923141261731,0.020793883868556746,1.017254451242305,0.3368419984191656,-1.1330817241821438,-1.3474826128296553
2024-09-23 06:06:14.824338,42.49,23.39822,-0.014756881194255646,0.01926931735815501,1.017254451242305,0.3368419984191656,-1.1330817241821438,-1.3474826128296553
2024-09-23 06:06:14.866650,42.49,23.398271,-0.014756881194255646,0.01926931735815501,1.0161568022406187,0.29747979092085736,-1.1330817241821438,-1.3518370734259486
2024-09-23 06:06:14.878882,42.49,23.398271,-0.012988480952901577,0.01926931735815501,1.0161568022406187,0.29747979092085736,-1.1330817241821438,-1.3518370734259486
2024-09-23 06:06:14.912353,42.49,23.398271,-0.012988480952901577,0.019879204721382753,1.014205512650516,0.3849704900474288,-1.1330817241821438,-1.3518370734259486
2024-09-23 06:06:14.923387,42.49,23.398361,-0.012988480952901577,0.019879204721382753,1.014205512650516,0.3849704900474288,-1.1680894444037229,-1.3780785628784449
2024-09-23 06:06:14.965636,42.49,23.398361,-0.016159429827232244,0.01835463821098102,1.015486022140394,0.2186980663477443,-1.238104991568625,-1.483101830264926
2024-09-23 06:06:15.008058,42.49,23.398413,-0.01585453627184869,0.01853761414140007,1.015486022140394,0.2186980663477443,-1.238104991568625,-1.483101830264926
2024-09-23 06:06:15.020167,42.49,23.398413,-0.01585453627184869,0.01853761414140007,1.0129859566567019,0.2186980663477443,-1.238104991568625,-1.483101830264926
2024-09-23 06:06:15.063159,42.49,23.398464,-0.01341539238571027,0.01914740125216718,1.0129859566567019,0.3018342781975865,-1.1768557818945498,-1.4174980532728136
2024-09-23 06:06:15.106498,42.49,23.398464,-0.01341539238571027,0.01914740125216718,1.0143883731387076,0.27123832814879717,-1.2555801435302942,-1.4174980532728136
2024-09-23 06:06:15.118411,42.49,23.398514,-0.013476350438704184,0.01914740125216718,1.0143883731387076,0.27123832814879717,-1.2555801435302942,-1.4437395427253097
2024-09-23 06:06:15.202376,42.49,23.398514,-0.013476350438704184,0.01914740125216718,1.0120712653577144,0.27123832814879717,-1.2555801435302942,-1.4437395427253097
2024-09-23 06:06:15.213624,42.49,23.398565,-0.013476350438704184,0.01914740125216718,1.0120712653577144,0.3543172304221429,-1.0762442846808582,-1.2993542012427002
2024-09-23 06:06:15.256061,42.49,23.398565,-0.012073802565215924,0.01835463821098102,1.014144559154452,0.3062460483703762,-1.1199610328167677,-1.2993542012427002
2024-09-23 06:06:15.268306,42.49,23.398565,-0.012073802565215924,0.01835463821098102,1.014144559154452,0.3062460483703762,-1.1199610328167677,-1.3649578715130686
2024-09-23 06:06:15.300690,42.49,23.398616,-0.015183792627064338,0.020610907938137694,1.014144559154452,0.3062460483703762,-1.1199610328167677,-1.3649578715130686
2024-09-23 06:06:15.311961,42.49,23.398616,-0.015183792627064338,0.020610907938137694,1.0118883076550156,0.40244569536997005,-1.2512256829340012,-1.3649578715130686
2024-09-23 06:06:15.354065,42.27,23.398616,-0.015183792627064338,0.020610907938137694,1.0118883076550156,0.40244569536997005,-1.2512256829340012,-1.434973311956227
2024-09-23 06:06:15.447722,42.27,23.398704,-0.015305708733052167,0.02213537267710212,1.0118883076550156,0.40244569536997005,-1.2512256829340012,-1.434973311956227
2024-09-23 06:06:15.459468,42.27,23.398704,-0.015305708733052167,0.02213537267710212,1.0129859566567019,0.2668265312955715,-1.0893650827679784,-1.434973311956227
2024-09-23 06:06:15.503286,42.27,23.398755,-0.010854230622146716,0.019574312684975875,1.0116442992417454,0.24499683869630098,-1.0893650827679784,-1.4787472629468887
2024-09-23 06:06:15.545708,42.27,23.398755,-0.010854230622146716,0.019574312684975875,1.0116442992417454,0.24499683869630098,-1.0805987452771515,-1.3430708426568656
2024-09-23 06:06:15.557365,42.27,23.398851,-0.012073802565215924,0.02134260963591596,1.0177422736398305,0.24499683869630098,-1.0805987452771515,-1.3430708426568656
2024-09-23 06:06:15.590168,42.27,23.398851,-0.012073802565215924,0.02134260963591596,1.0177422736398305,0.2581175834225491,-1.0805987452771515,-1.3430708426568656
2024-09-23 06:06:15.601829,42.27,23.398902,-0.01256167205101853,0.019208359305161096,1.0177422736398305,0.2581175834225491,-1.0937195433642715,-1.4174980532728136
2024-09-23 06:06:15.643702,42.27,23.398902,-0.01256167205101853,0.019208359305161096,1.0148152420401695,0.35872900059493257,-1.1243154934130608,-1.4437395427253097
2024-09-23 06:06:15.655301,42.27,23.398995,-0.015488684663471218,0.019208359305161096,1.0148152420401695,0.35872900059493257,-1.1243154934130608,-1.4437395427253097
2024-09-23 06:06:15.697991,42.27,23.398995,-0.015488684663471218,0.021464627513341095,1.0144494238492787,0.27559278874509036,-1.1068402347296475,-1.3780785628784449
2024-09-23 06:06:15.709941,42.27,23.399142,-0.015488684663471218,0.021464627513341095,1.0144494238492787,0.27559278874509036,-1.1068402347296475,-1.3780785628784449
2024-09-23 06:06:15.742578,42.27,23.399142,-0.015793578218854774,0.02012303845233509,1.0114003880429827,0.2537058132497594,-1.1068402347296475,-1.3780785628784449
2024-09-23 06:06:15.754431,42.27,23.399142,-0.015793578218854774,0.02012303845233509,1.0114003880429827,0.2537058132497594,-1.0499454856518655,-1.2512256829340012
2024-09-23 06:06:15.786577,42.27,23.399193,-0.015793578218854774,0.02012303845233509,1.0114003880429827,0.2537058132497594,-1.0499454856518655,-1.2512256829340012
2024-09-23 06:06:15.798343,42.27,23.399193,-0.012500713238536278,0.02164760496273682,1.014144559154452,0.26247207069927825,-1.0499454856518655,-1.2512256829340012
2024-09-23 06:06:15.841773,42.27,23.399244,-0.014147094083488534,0.02012303845233509,1.014144559154452,0.26247207069927825,-1.1024857741333545,-1.404320052330941
2024-09-23 06:06:15.853484,42.27,23.399244,-0.014147094083488534,0.02012303845233509,1.0124370835486052,0.26247207069927825,-1.1024857741333545,-1.404320052330941
2024-09-23 06:06:15.885842,42.27,23.399244,-0.014147094083488534,0.02012303845233509,1.0124370835486052,0.4418652124447748,-1.0805987452771515,-1.3911993609655648
2024-09-23 06:06:15.896733,42.27,23.399295,-0.01256167205101853,0.020001120827370582,1.0124370835486052,0.4418652124447748,-1.0805987452771515,-1.3911993609655648
2024-09-23 06:06:15.938994,42.27,23.399345,-0.01256167205101853,0.020001120827370582,1.0134736818397203,0.4287444677185267,-1.1156065722204744,-1.4174980532728136
2024-09-23 06:06:15.950978,42.27,23.399345,-0.01695219134944173,0.020001120827370582,1.0134736818397203,0.4287444677185267,-1.1156065722204744,-1.4174980532728136
2024-09-23 06:06:15.983371,42.27,23.399345,-0.01695219134944173,0.019696228790963704,1.0113394345469187,0.4155664400962181,-1.1156065722204744,-1.4174980532728136
2024-09-23 06:06:15.994518,42.27,23.399396,-0.01695219134944173,0.019696228790963704,1.0113394345469187,0.4155664400962181,-1.15932321363464,-1.413086283100024
2024-09-23 06:06:16.036609,42.27,23.399396,-0.01219582044264106,0.020915799974544576,1.0150592504534395,0.3280757409696467,-1.203097164625302,-1.413086283100024
2024-09-23 06:06:16.048869,42.27,23.399396,-0.01219582044264106,0.020915799974544576,1.0150592504534395,0.3280757409696467,-1.203097164625302,-1.3911993609655648
2024-09-23 06:06:16.080903,42.27,23.399483,-0.014512945691866003,0.01890346574977754,1.0150592504534395,0.3280757409696467,-1.203097164625302,-1.3911993609655648
2024-09-23 06:06:16.092188,42.27,23.399483,-0.014512945691866003,0.01890346574977754,1.0128639524500669,0.27123832814879717,-1.0937195433642715,-1.3911993609655648
2024-09-23 06:06:16.135504,42.27,23.399535,-0.012134760618209839,0.019025483627202678,1.0122541258459061,0.29747979092085736,-1.0937195433642715,-1.2905878637518733
2024-09-23 06:06:16.178519,42.27,23.399585,-0.012134760618209839,0.019025483627202678,1.0122541258459061,0.29747979092085736,-1.0893650827679784,-1.2818216329827905
2024-09-23 06:06:16.190490,42.27,23.399585,-0.013354434332716355,0.020732824044125523,1.0107297051572652,0.29747979092085736,-1.0893650827679784,-1.2818216329827905
2024-09-23 06:06:16.232986,42.27,23.399636,-0.016342405757651293,0.019452293288574063,1.0107297051572652,0.37184974532118065,-1.1943309338562191,-1.413086283100024
2024-09-23 06:06:16.275896,42.27,23.399636,-0.016342405757651293,0.019452293288574063,1.0136566395424191,0.3630834878716618,-1.207451731943339,-1.413086283100024
2024-09-23 06:06:16.286959,42.27,23.399687,-0.015183792627064338,0.019452293288574063,1.0136566395424191,0.3630834878716618,-1.207451731943339,-1.4655692620050162
2024-09-23 06:06:16.330526,42.27,23.399776,-0.015183792627064338,0.019208359305161096,1.0140835084438808,0.3368419984191656,-1.1724439050000162,-1.4174980532728136
2024-09-23 06:06:16.374007,42.21,23.399776,-0.012439653414105056,0.0173180429578192,1.0105467474545664,0.3368419984191656,-1.1724439050000162,-1.4174980532728136
2024-09-23 06:06:16.384991,42.21,23.399776,-0.012439653414105056,0.0173180429578192,1.0105467474545664,0.3193667930966243,-1.1768557818945498,-1.4568603408124299
2024-09-23 06:06:16.429093,42.21,23.399827,-0.016098470255261652,0.02134260963591596,1.0162178529511898,0.3456082558686845,-1.0980740039605648,-1.4568603408124299
2024-09-23 06:06:16.471864,42.21,23.399878,-0.014634963569291141,0.02134260963591596,1.0162178529511898,0.3456082558686845,-1.0980740039605648,-1.2993542012427002
2024-09-23 06:06:16.483261,42.21,23.399878,-0.014634963569291141,0.02134260963591596,1.0134127283436565,0.2843590461946093,-1.0980740039605648,-1.2993542012427002
2024-09-23 06:06:16.525945,42.21,23.399928,-0.01341539238571027,0.017744852619190586,1.0098759673543418,0.2843590461946093,-0.9668666634198279,-1.3868447936475277
2024-09-23 06:06:16.569353,42.21,23.399928,-0.01341539238571027,0.017744852619190586,1.0098759673543418,0.3149550229238346,-1.2512256829340012,-1.3518370734259486
2024-09-23 06:06:16.585263,42.21,23.399979,-0.014269113479890346,0.02097675802753849,1.0098759673543418,0.3149550229238346,-1.2512256829340012,-1.3518370734259486
2024-09-23 06:06:16.669269,42.21,23.40003,-0.014269113479890346,0.02097675802753849,1.017254451242305,0.37620423259790986,-1.1462025222692638,-1.4306188513599336
2024-09-23 06:06:16.681022,42.21,23.40003,-0.013476350438704184,0.02097675802753849,1.017254451242305,0.37620423259790986,-1.1462025222692638,-1.4306188513599336
2024-09-23 06:06:16.713779,42.21,23.40003,-0.013476350438704184,0.020062078880364497,1.0140835084438808,0.37620423259790986,-1.1462025222692638,-1.4306188513599336
2024-09-23 06:06:16.725636,42.21,23.400117,-0.013476350438704184,0.020062078880364497,1.0140835084438808,0.3674952580444515,-1.1549687530383468,-1.3868447936475277
2024-09-23 06:06:16.768484,42.21,23.400117,-0.01823272210499319,0.018476656088406155,1.014022554947817,0.29306802074806765,-1.0805987452771515,-1.3868447936475277
2024-09-23 06:06:16.780045,42.21,23.400117,-0.01823272210499319,0.018476656088406155,1.014022554947817,0.29306802074806765,-1.0805987452771515,-1.3562488435987383
2024-09-23 06:06:16.812888,42.21,23.400168,-0.014939857124674697,0.021098777423940302,1.014022554947817,0.29306802074806765,-1.0805987452771515,-1.3562488435987383
2024-09-23 06:06:16.824962,42.21,23.400168,-0.014939857124674697,0.021098777423940302,1.0168886330514144,0.29306802074806765,-1.0805987452771515,-1.3562488435987383
2024-09-23 06:06:16.857244,42.21,23.400168,-0.014939857124674697,0.021098777423940302,1.0168886330514144,0.3193667930966243,-1.0805987452771515,-1.3562488435987383
2024-09-23 06:06:16.868262,42.21,23.400219,-0.017439959063807027,0.02262324216290473,1.0168886330514144,0.3193667930966243,-1.0893650827679784,-1.2905878637518733
2024-09-23 06:06:16.910256,42.21,23.400219,-0.017439959063807027,0.02262324216290473,1.0112784810508548,0.2143435924112331,-1.0937195433642715,-1.2905878637518733
2024-09-23 06:06:16.921740,42.21,23.400313,-0.014939857124674697,0.02262324216290473,1.0112784810508548,0.2143435924112331,-1.0937195433642715,-1.496222521630302
2024-09-23 06:06:17.005693,42.21,23.400313,-0.014939857124674697,0.019025483627202678,1.0135347325502915,0.2143435924112331,-1.0937195433642715,-1.496222521630302
2024-09-23 06:06:17.017451,42.21,23.400313,-0.014939857124674697,0.019025483627202678,1.0135347325502915,0.31060053564710544,-1.0543573625463993,-1.496222521630302
2024-09-23 06:06:17.060389,42.21,23.400364,-0.013232416455291218,0.019025483627202678,1.0135347325502915,0.31060053564710544,-1.0543573625463993,-1.3518370734259486
2024-09-23 06:06:17.103428,42.21,23.400364,-0.013232416455291218,0.019574312684975875,1.0118883076550156,0.31060053564710544,-1.0543573625463993,-1.3518370734259486
2024-09-23 06:06:17.114567,42.21,23.400415,-0.013232416455291218,0.019574312684975875,1.0118883076550156,0.3149550229238346,-1.0805987452771515,-1.3868447936475277
2024-09-23 06:06:17.156860,42.21,23.400415,-0.012317737308117227,0.02152558556633501,1.0145103773453428,0.3411964856958948,-1.0805987452771515,-1.3868447936475277
2024-09-23 06:06:17.169397,42.21,23.400415,-0.012317737308117227,0.02152558556633501,1.0145103773453428,0.3411964856958948,-1.0718325145080685,-1.4437395427253097
2024-09-23 06:06:17.202862,42.21,23.400508,-0.015000815177668611,0.02012303845233509,1.0145103773453428,0.3411964856958948,-1.0718325145080685,-1.4437395427253097
2024-09-23 06:06:17.214579,42.21,23.400508,-0.015000815177668611,0.02012303845233509,1.0143274196426437,0.3411964856958948,-1.0718325145080685,-1.4437395427253097
2024-09-23 06:06:17.256811,42.21,23.400559,-0.014208053655459124,0.019574312684975875,1.0143274196426437,0.37184974532118065,-1.0893650827679784,-1.518109550486505
2024-09-23 06:06:17.299718,42.21,23.400559,-0.014208053655459124,0.019574312684975875,1.0111565740587272,0.2581175834225491,-1.0893650827679784,-1.518109550486505
2024-09-23 06:06:17.352572,42.21,23.400655,-0.01378124399408774,0.017379001010813116,1.0111565740587272,0.2581175834225491,-1.15932321363464,-1.3649578715130686
2024-09-23 06:06:17.364483,42.21,23.400655,-0.01378124399408774,0.017379001010813116,1.0151811574455674,0.2581175834225491,-1.15932321363464,-1.3649578715130686
2024-09-23 06:06:17.396176,41.72,23.400655,-0.01378124399408774,0.017379001010813116,1.0151811574455674,0.2537058132497594,-1.1462025222692638,-1.3649578715130686
2024-09-23 06:06:17.407645,41.72,23.400752,-0.012073802565215924,0.0187205915907958,1.0151811574455674,0.2537058132497594,-1.1462025222692638,-1.3999655917346479
2024-09-23 06:06:17.450354,41.72,23.400752,-0.012073802565215924,0.0187205915907958,1.0138396944596255,0.39373674749694765,-1.1768557818945498,-1.3999655917346479
2024-09-23 06:06:17.493757,41.72,23.400803,-0.012073802565215924,0.0187205915907958,1.0138396944596255,0.39373674749694765,-1.1768557818945498,-1.404320052330941
2024-09-23 06:06:17.504746,41.72,23.400803,-0.014574005516297226,0.019818144896951533,1.0140835084438808,0.3499627431454137,-1.1768557818945498,-1.404320052330941
2024-09-23 06:06:17.546688,41.72,23.400898,-0.013720285941093825,0.021586543619328925,1.0140835084438808,0.3499627431454137,-1.2205724233087152,-1.474335492774099
2024-09-23 06:06:17.558814,41.72,23.400898,-0.013720285941093825,0.021586543619328925,1.01231507934197,0.3499627431454137,-1.2205724233087152,-1.474335492774099
2024-09-23 06:06:17.591357,41.72,23.400898,-0.013720285941093825,0.021586543619328925,1.01231507934197,0.3630834878716618,-1.238104991568625,-1.474335492774099
2024-09-23 06:06:17.602433,41.72,23.400995,-0.01481783924724956,0.020001120827370582,1.01231507934197,0.3630834878716618,-1.238104991568625,-1.3387163820605725
2024-09-23 06:06:17.644932,41.72,23.400995,-0.01481783924724956,0.020001120827370582,1.010668654446694,0.3499627431454137,-1.0674780539117754,-1.3780785628784449
2024-09-23 06:06:17.656538,41.72,23.401046,-0.012317737308117227,0.020001120827370582,1.010668654446694,0.3499627431454137,-1.0674780539117754,-1.3780785628784449
2024-09-23 06:06:17.688809,41.72,23.401046,-0.012317737308117227,0.019696228790963704,1.010668654446694,0.3499627431454137,-1.0674780539117754,-1.3780785628784449
2024-09-23 06:06:17.700464,41.72,23.401141,-0.012317737308117227,0.019696228790963704,1.0132908213515286,0.29306802074806765,-1.1418479549512268,-1.4524485706396402
2024-09-23 06:06:17.742693,41.72,23.401141,-0.01408613603049462,0.020062078880364497,1.0132298678554648,0.29747979092085736,-1.1987427040290088,-1.4524485706396402
