Ayaan's Suite
Timestamp,Sample Rate (Hz),Time,Ax,Ay,Az,Gx,Gy,Gz
2024-09-23 14:08:16.283805,0,26.742524,-0.0033329230534799477,-0.023181236725942318,0.09695331012558621,32.08287849390507,-96.25519929585457,80.21211738781929
2024-09-23 14:08:16.316103,0,26.742524,-0.0033329230534799477,-0.023230986250042305,0.09695331012558621,32.08287849390507,-96.25519929585457,80.21211738781929
2024-09-23 14:08:16.327695,0,26.742524,-0.0033329230534799477,-0.023230986250042305,0.0966050877605131,36.09446859390736,-96.25519929585457,80.21211738781929
2024-09-23 14:08:16.370298,0,26.742613,-0.003979606107712764,-0.02362894446842532,0.0966050877605131,36.09446859390736,-96.25519929585457,84.22370748782159
2024-09-23 14:08:16.382135,0,26.742613,-0.003979606107712764,-0.02362894446842532,0.09665483728461309,32.08287849390507,-96.25519929585457,84.22370748782159
2024-09-23 14:08:16.414820,0,26.742613,-0.003979606107712764,-0.02362894446842532,0.09665483728461309,32.08287849390507,-104.27510100388527,84.22370748782159
2024-09-23 14:08:16.426323,0,26.742665,-0.0033329230534799477,-0.02293251340906919,0.09759999317981902,32.08287849390507,-104.27510100388527,80.21211738781929
2024-09-23 14:08:16.469721,0,26.742715,-0.0037308827908396356,-0.02293251340906919,0.09759999317981902,44.11764879391193,-92.24360919585227,76.200527287817
2024-09-23 14:08:16.481449,0,26.742715,-0.0037308827908396356,-0.02352945757203875,0.09759999317981902,44.11764879391193,-92.24360919585227,76.200527287817
2024-09-23 14:08:16.513770,0,26.742715,-0.0037308827908396356,-0.02352945757203875,0.0970030596496862,40.106058693909645,-92.24360919585227,76.200527287817
2024-09-23 14:08:16.526198,0,26.742766,-0.0028852147413806935,-0.02352945757203875,0.0970030596496862,40.106058693909645,-96.25519929585457,76.200527287817
2024-09-23 14:08:16.569169,0,26.742816,-0.0028852147413806935,-0.02303200030545576,0.09745075675933246,28.07457030097246,-100.26678939585686,76.200527287817
2024-09-23 14:08:16.612130,0,26.742816,-0.002785727465249955,-0.02313149783467906,0.0973015264147526,28.07457030097246,-100.26678939585686,76.200527287817
2024-09-23 14:08:16.623914,0,26.742816,-0.002785727465249955,-0.02313149783467906,0.0973015264147526,44.11764879391193,-100.26678939585686,76.200527287817
2024-09-23 14:08:16.667105,0,26.742906,-0.0033329230534799477,-0.023728432883788564,0.09750050628343246,44.11764879391193,-96.25519929585457,76.200527287817
2024-09-23 14:08:16.710135,0,26.742957,-0.0033329230534799477,-0.023728432883788564,0.09750050628343246,44.11764879391193,-96.25519929585457,80.21211738781929
2024-09-23 14:08:16.721395,0,26.742957,-0.003482159473966507,-0.023479709566915436,0.0966050877605131,40.106058693909645,-96.25519929585457,80.21211738781929
2024-09-23 14:08:16.764769,0,26.742957,-0.003482159473966507,-0.023479709566915436,0.0966050877605131,40.106058693909645,-96.25519929585457,80.21211738781929
2024-09-23 14:08:16.807722,0,26.743008,-0.0031836870127375577,-0.023479709566915436,0.0966050877605131,40.106058693909645,-96.25519929585457,76.200527287817
2024-09-23 14:08:16.818934,0,26.743008,-0.0031836870127375577,-0.023827930413011865,0.09720203344245934,36.09446859390736,-96.25519929585457,76.200527287817
2024-09-23 14:08:16.861409,0,26.743059,-0.0029847020175114316,-0.022982261414192504,0.09720203344245934,36.09446859390736,-96.25519929585457,80.21211738781929
2024-09-23 14:08:16.903557,0,26.743059,-0.0029847020175114316,-0.022982261414192504,0.09720203344245934,32.08287849390507,-100.26678939585686,80.21211738781929
2024-09-23 14:08:16.915705,0,26.743109,-0.0029847020175114316,-0.023479709566915436,0.09720203344245934,32.08287849390507,-100.26678939585686,84.22370748782159
2024-09-23 14:08:16.959303,0,26.743198,-0.0031339382481259063,-0.023479709566915436,0.09680407370509965,32.08287849390507,-96.25519929585457,84.22370748782159
2024-09-23 14:08:17.002652,0,26.743198,-0.0031339382481259063,-0.023230986250042305,0.09670458680871308,36.09446859390736,-96.25519929585457,84.22370748782159
2024-09-23 14:08:17.013804,0,26.743249,-0.0031339382481259063,-0.023230986250042305,0.09670458680871308,36.09446859390736,-104.27510100388527,80.21211738781929
2024-09-23 14:08:17.056590,0,26.743249,-0.0033329230534799477,-0.02338022115155219,0.09759999317981902,40.106058693909645,-92.24360919585227,80.21211738781929
2024-09-23 14:08:17.099836,0,26.743345,-0.0029349636958644295,-0.023280723622328886,0.09759999317981902,40.106058693909645,-92.24360919585227,80.21211738781929
2024-09-23 14:08:17.111244,0,26.743345,-0.0029349636958644295,-0.023280723622328886,0.09740101331113918,12.031489246711136,-100.26678939585686,80.21211738781929
2024-09-23 14:08:17.153865,0,26.743396,-0.0034324103296106863,-0.023280723622328886,0.0970030596496862,28.07457030097246,-100.26678939585686,80.21211738781929
2024-09-23 14:08:17.196391,0,26.743396,-0.0034324103296106863,-0.023280723622328886,0.0970030596496862,28.07457030097246,-104.27510100388527,76.200527287817
2024-09-23 14:08:17.208166,0,26.743447,-0.0035816467500972456,-0.023330473146428877,0.09720203344245934,28.07457030097246,-104.27510100388527,76.200527287817
2024-09-23 14:08:17.251335,0,26.743497,-0.0035816467500972456,-0.02263404056809607,0.09720203344245934,32.08287849390507,-104.27510100388527,72.1922225099802
2024-09-23 14:08:17.295032,41.05,26.743497,-0.0035816467500972456,-0.02263404056809607,0.0973015264147526,36.09446859390736,-100.26678939585686,72.1922225099802
2024-09-23 14:08:17.306381,41.05,26.743548,-0.0035816467500972456,-0.02263404056809607,0.0973015264147526,36.09446859390736,-100.26678939585686,84.22370748782159
2024-09-23 14:08:17.349298,41.05,26.743548,-0.0031836870127375577,-0.023230986250042305,0.09720203344245934,24.06297849342227,-96.25519929585457,84.22370748782159
2024-09-23 14:08:17.392128,41.05,26.743637,-0.003382661564999035,-0.023230986250042305,0.09720203344245934,24.06297849342227,-96.25519929585457,80.21211738781929
2024-09-23 14:08:17.403855,41.05,26.743637,-0.003382661564999035,-0.022733528983459317,0.09655535038822652,36.09446859390736,-96.25519929585457,80.21211738781929
2024-09-23 14:08:17.446731,41.05,26.743688,-0.003631395514708897,-0.02313149783467906,0.09725178296655933,36.09446859390736,-96.25519929585457,84.22370748782159
2024-09-23 14:08:17.489829,41.05,26.743688,-0.003631395514708897,-0.02313149783467906,0.09725178296655933,36.09446859390736,-96.25519929585457,84.22370748782159
2024-09-23 14:08:17.501306,41.05,26.743739,-0.003631395514708897,-0.023181236725942318,0.09725178296655933,36.09446859390736,-96.25519929585457,84.22370748782159
2024-09-23 14:08:17.544105,41.05,26.74379,-0.0034324103296106863,-0.023181236725942318,0.09705279702197278,36.09446859390736,-92.24360919585227,80.21211738781929
2024-09-23 14:08:17.587851,41.05,26.74379,-0.0034324103296106863,-0.022833026512682618,0.09705279702197278,32.08287849390507,-92.24360919585227,80.21211738781929
2024-09-23 14:08:17.598846,41.05,26.743841,-0.0034324103296106863,-0.022833026512682618,0.09705279702197278,32.08287849390507,-96.25519929585457,76.200527287817
2024-09-23 14:08:17.641807,41.05,26.743841,-0.0035318979854855937,-0.02263404056809607,0.09675432418099966,64.16903547978401,-100.26678939585686,72.1922225099802
2024-09-23 14:08:17.684136,41.05,26.74393,-0.0033329230534799477,-0.02397715620066169,0.09675432418099966,64.16903547978401,-100.26678939585686,72.1922225099802
2024-09-23 14:08:17.697446,41.05,26.74393,-0.0033329230534799477,-0.02397715620066169,0.0973512698629459,40.106058693909645,-96.25519929585457,72.1922225099802
2024-09-23 14:08:17.730280,41.05,26.74393,-0.0033329230534799477,-0.02397715620066169,0.0973512698629459,40.106058693909645,-96.25519929585457,76.200527287817
2024-09-23 14:08:17.741786,41.05,26.743981,-0.0033329230534799477,-0.02338022115155219,0.0973512698629459,32.08287849390507,-96.25519929585457,76.200527287817
2024-09-23 14:08:17.784433,41.05,26.744032,-0.0033329230534799477,-0.02338022115155219,0.0973512698629459,32.08287849390507,-92.24360919585227,84.22370748782159
2024-09-23 14:08:17.837464,41.05,26.744032,-0.0032831742888682963,-0.023181236725942318,0.0970030596496862,32.08287849390507,-100.26678939585686,80.21211738781929
2024-09-23 14:08:17.881564,41.05,26.744082,-0.003482159473966507,-0.02313149783467906,0.09750050628343246,32.08287849390507,-100.26678939585686,80.21211738781929
2024-09-23 14:08:17.893340,41.05,26.744082,-0.003482159473966507,-0.02313149783467906,0.09750050628343246,40.106058693909645,-92.24360919585227,80.21211738781929
2024-09-23 14:08:17.924885,41.05,26.744082,-0.003482159473966507,-0.02313149783467906,0.09750050628343246,40.106058693909645,-92.24360919585227,84.22370748782159
2024-09-23 14:08:17.936035,41.05,26.744133,-0.0033329230534799477,-0.02367869399252531,0.09695331012558621,36.09446859390736,-92.24360919585227,84.22370748782159
2024-09-23 14:08:17.978583,41.05,26.744222,-0.003631395514708897,-0.02367869399252531,0.09695331012558621,36.09446859390736,-92.24360919585227,84.22370748782159
2024-09-23 14:08:17.989792,41.05,26.744222,-0.003631395514708897,-0.023181236725942318,0.09720203344245934,36.09446859390736,-92.24360919585227,84.22370748782159
2024-09-23 14:08:18.022061,41.05,26.744222,-0.003631395514708897,-0.023181236725942318,0.09720203344245934,32.08287849390507,-92.24360919585227,84.22370748782159
2024-09-23 14:08:18.033547,41.05,26.744273,-0.0035816467500972456,-0.023280723622328886,0.09720203344245934,32.08287849390507,-92.24360919585227,80.21211738781929
2024-09-23 14:08:18.077440,41.05,26.744273,-0.0035816467500972456,-0.023280723622328886,0.09690356060148622,40.106058693909645,-100.26678939585686,80.21211738781929
2024-09-23 14:08:18.089694,41.05,26.744323,-0.003233425524256645,-0.023280723622328886,0.09690356060148622,40.106058693909645,-100.26678939585686,80.21211738781929
2024-09-23 14:08:18.122240,41.05,26.744323,-0.003233425524256645,-0.023579196463302005,0.09779897304849887,40.106058693909645,-100.26678939585686,80.21211738781929
2024-09-23 14:08:18.134174,41.05,26.744417,-0.003233425524256645,-0.023579196463302005,0.09779897304849887,40.106058693909645,-100.26678939585686,84.22370748782159
2024-09-23 14:08:18.176693,41.05,26.744417,-0.0035318979854855937,-0.02313149783467906,0.09670458680871308,64.16903547978401,-96.25519929585457,84.22370748782159
2024-09-23 14:08:18.219052,41.05,26.744468,-0.0035816467500972456,-0.02313149783467906,0.09670458680871308,64.16903547978401,-96.25519929585457,84.22370748782159
2024-09-23 14:08:18.230626,41.05,26.744468,-0.0035816467500972456,-0.022982261414192504,0.09715228999426605,40.106058693909645,-92.24360919585227,84.22370748782159
2024-09-23 14:08:18.273373,41.05,26.744519,-0.0033329230534799477,-0.02313149783467906,0.0973015264147526,40.106058693909645,-92.24360919585227,84.22370748782159
2024-09-23 14:08:18.285418,41.05,26.744519,-0.0033329230534799477,-0.02313149783467906,0.0973015264147526,36.09446859390736,-92.24360919585227,84.22370748782159
2024-09-23 14:08:18.316998,41.56,26.744519,-0.0033329230534799477,-0.02313149783467906,0.0973015264147526,36.09446859390736,-96.25519929585457,88.23529758782387
2024-09-23 14:08:18.328215,41.56,26.74457,-0.0032831742888682963,-0.02308174982955575,0.0973015264147526,36.09446859390736,-96.25519929585457,88.23529758782387
2024-09-23 14:08:18.371844,41.56,26.74462,-0.0031339382481259063,-0.02308174982955575,0.0973015264147526,32.08287849390507,-96.25519929585457,84.22370748782159
2024-09-23 14:08:18.414545,41.56,26.74462,-0.0031339382481259063,-0.02338022115155219,0.09710254654607277,32.08287849390507,-96.25519929585457,84.22370748782159
2024-09-23 14:08:18.426310,41.56,26.744671,-0.0031339382481259063,-0.02338022115155219,0.09710254654607277,28.07457030097246,-96.25519929585457,76.200527287817
2024-09-23 14:08:18.468425,41.56,26.744671,-0.003233425524256645,-0.023230986250042305,0.0970030596496862,48.12595698684454,-96.25519929585457,76.200527287817
2024-09-23 14:08:18.481149,41.56,26.744671,-0.003233425524256645,-0.023230986250042305,0.0970030596496862,48.12595698684454,-96.25519929585457,76.200527287817
2024-09-23 14:08:18.513019,41.56,26.744758,-0.0035816467500972456,-0.023230986250042305,0.0970030596496862,48.12595698684454,-96.25519929585457,76.200527287817
2024-09-23 14:08:18.524203,41.56,26.744758,-0.0035816467500972456,-0.02313149783467906,0.0973512698629459,36.09446859390736,-96.25519929585457,76.200527287817
2024-09-23 14:08:18.566666,41.56,26.74481,-0.003631395514708897,-0.02293251340906919,0.0973015264147526,40.106058693909645,-96.25519929585457,80.21211738781929
2024-09-23 14:08:18.608845,41.56,26.74481,-0.003631395514708897,-0.02293251340906919,0.0973015264147526,40.106058693909645,-96.25519929585457,88.23529758782387
2024-09-23 14:08:18.620708,41.56,26.74486,-0.0034324103296106863,-0.02338022115155219,0.09755024973162574,40.106058693909645,-96.25519929585457,88.23529758782387
2024-09-23 14:08:18.663193,41.56,26.744911,-0.003482159473966507,-0.02338022115155219,0.09755024973162574,52.137550501942634,-96.25519929585457,80.21211738781929
2024-09-23 14:08:18.674932,41.56,26.744911,-0.003482159473966507,-0.023330473146428877,0.09755024973162574,52.137550501942634,-96.25519929585457,80.21211738781929
2024-09-23 14:08:18.707099,41.56,26.744911,-0.003482159473966507,-0.023330473146428877,0.0973015264147526,40.106058693909645,-96.25519929585457,80.21211738781929
2024-09-23 14:08:18.718192,41.56,26.744962,-0.0037308827908396356,-0.023330473146428877,0.0973015264147526,40.106058693909645,-92.24360919585227,80.21211738781929
2024-09-23 14:08:18.761050,41.56,26.744962,-0.0037308827908396356,-0.02313149783467906,0.09725178296655933,28.07457030097246,-92.24360919585227,84.22370748782159
2024-09-23 14:08:18.773127,41.56,26.745051,-0.0037308827908396356,-0.02313149783467906,0.09725178296655933,28.07457030097246,-92.24360919585227,84.22370748782159
2024-09-23 14:08:18.805283,41.56,26.745051,-0.0038303700669703737,-0.023181236725942318,0.09725178296655933,28.07457030097246,-92.24360919585227,84.22370748782159
2024-09-23 14:08:18.816854,41.56,26.745051,-0.0038303700669703737,-0.023181236725942318,0.09725178296655933,32.08287849390507,-92.24360919585227,84.22370748782159
2024-09-23 14:08:18.859445,41.56,26.745102,-0.003631395514708897,-0.02352945757203875,0.09690356060148622,36.09446859390736,-92.24360919585227,80.21211738781929
2024-09-23 14:08:18.902099,41.56,26.745102,-0.003631395514708897,-0.02352945757203875,0.09690356060148622,36.09446859390736,-96.25519929585457,80.21211738781929
2024-09-23 14:08:18.914021,41.56,26.745153,-0.0033329230534799477,-0.022833026512682618,0.09710254654607277,36.09446859390736,-96.25519929585457,80.21211738781929
2024-09-23 14:08:18.955926,41.56,26.745204,-0.0034324103296106863,-0.022833026512682618,0.09710254654607277,32.08287849390507,-96.25519929585457,80.21211738781929
2024-09-23 14:08:18.967971,41.56,26.745204,-0.0034324103296106863,-0.022982261414192504,0.09710254654607277,32.08287849390507,-96.25519929585457,80.21211738781929
2024-09-23 14:08:19.001254,41.56,26.745204,-0.0034324103296106863,-0.022982261414192504,0.09690356060148622,36.09446859390736,-100.26678939585686,80.21211738781929
2024-09-23 14:08:19.012810,41.56,26.745254,-0.003382661564999035,-0.022982261414192504,0.09690356060148622,36.09446859390736,-100.26678939585686,84.22370748782159
2024-09-23 14:08:19.055660,41.56,26.745305,-0.003382661564999035,-0.023181236725942318,0.09680407370509965,40.106058693909645,-100.26678939585686,80.21211738781929
2024-09-23 14:08:19.098343,41.56,26.745305,-0.0031836870127375577,-0.023230986250042305,0.09655535038822652,40.106058693909645,-100.26678939585686,80.21211738781929
2024-09-23 14:08:19.110281,41.56,26.745305,-0.0031836870127375577,-0.023230986250042305,0.09655535038822652,32.08287849390507,-100.26678939585686,80.21211738781929
2024-09-23 14:08:19.143973,41.56,26.745392,-0.0031836870127375577,-0.023230986250042305,0.09655535038822652,32.08287849390507,-100.26678939585686,80.21211738781929
2024-09-23 14:08:19.155561,41.56,26.745392,-0.0034324103296106863,-0.0228827638849692,0.09710254654607277,20.05138839341998,-104.27510100388527,80.21211738781929
2024-09-23 14:08:19.197674,41.56,26.745444,-0.0034324103296106863,-0.023230986250042305,0.09710254654607277,20.05138839341998,-104.27510100388527,84.22370748782159
2024-09-23 14:08:19.209592,41.56,26.745444,-0.0034324103296106863,-0.023230986250042305,0.0973512698629459,8.019899146708847,-104.27510100388527,84.22370748782159
2024-09-23 14:08:19.242187,41.56,26.745444,-0.0034324103296106863,-0.023230986250042305,0.0973512698629459,8.019899146708847,-100.26678939585686,84.22370748782159
2024-09-23 14:08:19.253381,41.56,26.745494,-0.0038303700669703737,-0.023280723622328886,0.09759999317981902,8.019899146708847,-100.26678939585686,84.22370748782159
2024-09-23 14:08:19.348180,41.93,26.745545,-0.003979606107712764,-0.02313149783467906,0.09759999317981902,32.08287849390507,-100.26678939585686,80.21211738781929
2024-09-23 14:08:19.390993,41.93,26.745545,-0.003979606107712764,-0.02313149783467906,0.09755024973162574,44.11764879391193,-100.26678939585686,80.21211738781929
2024-09-23 14:08:19.402403,41.93,26.745596,-0.0028354659767690416,-0.02313149783467906,0.09755024973162574,44.11764879391193,-100.26678939585686,84.22370748782159
2024-09-23 14:08:19.445419,41.93,26.745596,-0.0028354659767690416,-0.023230986250042305,0.09695331012558621,40.106058693909645,-104.27510100388527,76.200527287817
2024-09-23 14:08:19.487301,41.93,26.745684,-0.0029349636958644295,-0.023230986250042305,0.09695331012558621,40.106058693909645,-104.27510100388527,76.200527287817
2024-09-23 14:08:19.499506,41.93,26.745684,-0.0029349636958644295,-0.02293251340906919,0.0973015264147526,32.08287849390507,-108.28669110388756,76.200527287817
2024-09-23 14:08:19.542034,41.93,26.745736,-0.003482159473966507,-0.023280723622328886,0.09720203344245934,32.08287849390507,-108.28669110388756,84.22370748782159
2024-09-23 14:08:19.554238,41.93,26.745736,-0.003482159473966507,-0.023280723622328886,0.09720203344245934,40.106058693909645,-108.28669110388756,84.22370748782159
2024-09-23 14:08:19.585816,41.93,26.745832,-0.003482159473966507,-0.023280723622328886,0.09720203344245934,40.106058693909645,-96.25519929585457,76.200527287817
2024-09-23 14:08:19.596918,41.93,26.745832,-0.003631395514708897,-0.02352945757203875,0.09725178296655933,40.106058693909645,-96.25519929585457,76.200527287817
2024-09-23 14:08:19.640380,41.93,26.745883,-0.003382661564999035,-0.023728432883788564,0.09725178296655933,40.106058693909645,-92.24360919585227,76.200527287817
2024-09-23 14:08:19.682737,41.93,26.745883,-0.003382661564999035,-0.023728432883788564,0.09759999317981902,28.07457030097246,-96.25519929585457,76.200527287817
2024-09-23 14:08:19.694030,41.93,26.745933,-0.0030344509719951677,-0.023728432883788564,0.09759999317981902,28.07457030097246,-96.25519929585457,80.21211738781929
2024-09-23 14:08:19.736534,41.93,26.746026,-0.0030344509719951677,-0.023230986250042305,0.09695331012558621,40.106058693909645,-100.26678939585686,80.21211738781929
2024-09-23 14:08:19.780581,41.93,26.746026,-0.0035816467500972456,-0.023181236725942318,0.09745075675933246,40.106058693909645,-100.26678939585686,80.21211738781929
2024-09-23 14:08:19.791840,41.93,26.746026,-0.0035816467500972456,-0.023181236725942318,0.09745075675933246,44.11764879391193,-96.25519929585457,80.21211738781929
2024-09-23 14:08:19.833718,41.93,26.746077,-0.003233425524256645,-0.02362894446842532,0.09740101331113918,44.11764879391193,-96.25519929585457,80.21211738781929
2024-09-23 14:08:19.876325,41.93,26.746128,-0.003233425524256645,-0.02362894446842532,0.09740101331113918,44.11764879391193,-96.25519929585457,84.22370748782159
2024-09-23 14:08:19.888323,41.93,26.746128,-0.003482159473966507,-0.023429960042815445,0.09710254654607277,40.106058693909645,-96.25519929585457,84.22370748782159
2024-09-23 14:08:19.930695,41.93,26.746179,-0.0028354659767690416,-0.023479709566915436,0.09710254654607277,40.106058693909645,-96.25519929585457,76.200527287817
2024-09-23 14:08:19.944445,41.93,26.746179,-0.0028354659767690416,-0.023479709566915436,0.09640611396773996,40.106058693909645,-96.25519929585457,76.200527287817
2024-09-23 14:08:19.976239,41.93,26.746179,-0.0028354659767690416,-0.023479709566915436,0.09640611396773996,28.07457030097246,-96.25519929585457,80.21211738781929
2024-09-23 14:08:19.987592,41.93,26.746229,-0.003382661564999035,-0.022833026512682618,0.09640611396773996,28.07457030097246,-96.25519929585457,80.21211738781929
2024-09-23 14:08:20.031478,41.93,26.74628,-0.0038303700669703737,-0.022833026512682618,0.09750050628343246,28.07457030097246,-100.26678939585686,80.21211738781929
2024-09-23 14:08:20.074117,41.93,26.74628,-0.0038303700669703737,-0.023877669304275123,0.09759999317981902,48.12595698684454,-100.26678939585686,80.21211738781929
2024-09-23 14:08:20.085944,41.93,26.746367,-0.0038303700669703737,-0.023877669304275123,0.09759999317981902,48.12595698684454,-96.25519929585457,80.21211738781929
2024-09-23 14:08:20.128782,41.93,26.746367,-0.0035318979854855937,-0.02303200030545576,0.09715228999426605,40.106058693909645,-96.25519929585457,84.22370748782159
2024-09-23 14:08:20.173461,41.93,26.746418,-0.003233425524256645,-0.023728432883788564,0.09740101331113918,40.106058693909645,-96.25519929585457,84.22370748782159
2024-09-23 14:08:20.186301,41.93,26.746418,-0.003233425524256645,-0.023728432883788564,0.09740101331113918,32.08287849390507,-100.26678939585686,84.22370748782159
2024-09-23 14:08:20.220560,41.93,26.746469,-0.0034324103296106863,-0.023728432883788564,0.09740101331113918,32.08287849390507,-100.26678939585686,80.21211738781929
2024-09-23 14:08:20.232121,41.93,26.746469,-0.0034324103296106863,-0.022733528983459317,0.09740101331113918,36.09446859390736,-100.26678939585686,80.21211738781929
2024-09-23 14:08:20.264612,41.93,26.746469,-0.0034324103296106863,-0.022733528983459317,0.09740101331113918,36.09446859390736,-96.25519929585457,80.21211738781929
2024-09-23 14:08:20.276323,41.93,26.74652,-0.0036811340262279837,-0.02313149783467906,0.09675432418099966,36.09446859390736,-96.25519929585457,68.18063240997792
2024-09-23 14:08:20.318729,41.93,26.74652,-0.0036811340262279837,-0.02313149783467906,0.09675432418099966,32.08287849390507,-104.27510100388527,76.200527287817
2024-09-23 14:08:20.330513,41.93,26.74657,-0.0029349636958644295,-0.02303200030545576,0.09675432418099966,32.08287849390507,-104.27510100388527,76.200527287817
2024-09-23 14:08:20.362423,42.05,26.74657,-0.0029349636958644295,-0.02303200030545576,0.09705279702197278,32.08287849390507,-104.27510100388527,76.200527287817
2024-09-23 14:08:20.374757,42.05,26.746621,-0.0033329230534799477,-0.02303200030545576,0.09705279702197278,32.08287849390507,-100.26678939585686,84.22370748782159
2024-09-23 14:08:20.417370,42.05,26.746621,-0.0033329230534799477,-0.02303200030545576,0.09710254654607277,36.09446859390736,-108.28669110388756,76.200527287817
2024-09-23 14:08:20.429057,42.05,26.746708,-0.0033329230534799477,-0.02303200030545576,0.09710254654607277,36.09446859390736,-108.28669110388756,76.200527287817
2024-09-23 14:08:20.461621,42.05,26.746708,-0.003382661564999035,-0.02303200030545576,0.09710254654607277,36.09446859390736,-108.28669110388756,76.200527287817
2024-09-23 14:08:20.473254,42.05,26.746708,-0.003382661564999035,-0.02303200030545576,0.09695331012558621,40.106058693909645,-104.27510100388527,80.21211738781929
2024-09-23 14:08:20.557394,42.05,26.74676,-0.003382661564999035,-0.02303200030545576,0.09695331012558621,40.106058693909645,-104.27510100388527,80.21211738781929
2024-09-23 14:08:20.569130,42.05,26.74676,-0.003929857343101113,-0.02313149783467906,0.09685382322919964,36.09446859390736,-100.26678939585686,80.21211738781929
2024-09-23 14:08:20.611415,42.05,26.74681,-0.0035318979854855937,-0.02313149783467906,0.09685382322919964,36.09446859390736,-100.26678939585686,80.21211738781929
2024-09-23 14:08:20.623188,42.05,26.74681,-0.0035318979854855937,-0.023230986250042305,0.0976994861521123,44.11764879391193,-100.26678939585686,80.21211738781929
2024-09-23 14:08:20.656014,42.05,26.74681,-0.0035318979854855937,-0.023230986250042305,0.0976994861521123,44.11764879391193,-100.26678939585686,80.21211738781929
2024-09-23 14:08:20.667221,42.05,26.746861,-0.003482159473966507,-0.023330473146428877,0.09690356060148622,44.11764879391193,-100.26678939585686,80.21211738781929
2024-09-23 14:08:20.710944,42.05,26.746912,-0.0033329230534799477,-0.023330473146428877,0.09690356060148622,40.106058693909645,-96.25519929585457,80.21211738781929
2024-09-23 14:08:20.722653,42.05,26.746912,-0.0033329230534799477,-0.02308174982955575,0.09690356060148622,40.106058693909645,-96.25519929585457,80.21211738781929
2024-09-23 14:08:20.756491,42.05,26.746912,-0.0033329230534799477,-0.02308174982955575,0.0973015264147526,32.08287849390507,-100.26678939585686,80.21211738781929
2024-09-23 14:08:20.768036,42.05,26.746962,-0.0035318979854855937,-0.02308174982955575,0.0973015264147526,32.08287849390507,-100.26678939585686,84.22370748782159
2024-09-23 14:08:20.810378,42.05,26.747098,-0.0035318979854855937,-0.02338022115155219,0.09720203344245934,28.07457030097246,-104.27510100388527,80.21211738781929
2024-09-23 14:08:20.852250,42.05,26.747098,-0.0030841997366068195,-0.023429960042815445,0.09720203344245934,28.07457030097246,-104.27510100388527,80.21211738781929
2024-09-23 14:08:20.863439,42.05,26.747098,-0.0030841997366068195,-0.023429960042815445,0.0970030596496862,32.08287849390507,-100.26678939585686,80.21211738781929
2024-09-23 14:08:20.906788,42.05,26.74715,-0.0032831742888682963,-0.023280723622328886,0.09755024973162574,32.08287849390507,-92.24360919585227,80.21211738781929
2024-09-23 14:08:20.948990,42.05,26.7472,-0.0032831742888682963,-0.023280723622328886,0.09755024973162574,32.08287849390507,-92.24360919585227,76.200527287817
2024-09-23 14:08:20.960499,42.05,26.7472,-0.0037308827908396356,-0.02367869399252531,0.0966050877605131,40.106058693909645,-92.24360919585227,76.200527287817
2024-09-23 14:08:21.003942,42.05,26.7472,-0.0037308827908396356,-0.02367869399252531,0.0966050877605131,40.106058693909645,-108.28669110388756,76.200527287817
2024-09-23 14:08:21.046614,42.05,26.7472,-0.0037308827908396356,-0.02367869399252531,0.0966050877605131,40.106058693909645,-108.28669110388756,72.1922225099802
2024-09-23 14:08:21.058530,42.05,26.747251,-0.0028354659767690416,-0.023230986250042305,0.0973512698629459,40.106058693909645,-108.28669110388756,72.1922225099802
2024-09-23 14:08:21.100729,42.05,26.747302,-0.0035816467500972456,-0.023330473146428877,0.0973512698629459,40.106058693909645,-100.26678939585686,76.200527287817
2024-09-23 14:08:21.112945,42.05,26.747302,-0.0035816467500972456,-0.023330473146428877,0.09690356060148622,40.106058693909645,-100.26678939585686,76.200527287817
2024-09-23 14:08:21.146673,42.05,26.747302,-0.0035816467500972456,-0.023330473146428877,0.09690356060148622,40.106058693909645,-92.24360919585227,80.21211738781929
2024-09-23 14:08:21.157865,42.05,26.747352,-0.0035816467500972456,-0.023181236725942318,0.09690356060148622,40.106058693909645,-92.24360919585227,80.21211738781929
2024-09-23 14:08:21.201418,42.05,26.747439,-0.0035816467500972456,-0.023181236725942318,0.09685382322919964,32.08287849390507,-96.25519929585457,80.21211738781929
2024-09-23 14:08:21.244320,42.05,26.747439,-0.0035816467500972456,-0.022733528983459317,0.09650560086412653,32.08287849390507,-100.26678939585686,80.21211738781929
2024-09-23 14:08:21.256078,42.05,26.747537,-0.0035816467500972456,-0.022733528983459317,0.09650560086412653,32.08287849390507,-100.26678939585686,80.21211738781929
2024-09-23 14:08:21.289231,42.05,26.747537,-0.0029349636958644295,-0.022733528983459317,0.09650560086412653,32.08287849390507,-100.26678939585686,80.21211738781929
2024-09-23 14:08:21.300217,42.05,26.747537,-0.0029349636958644295,-0.022982261414192504,0.09710254654607277,28.07457030097246,-96.25519929585457,80.21211738781929
2024-09-23 14:08:21.395155,41.77,26.747588,-0.003780631555451287,-0.02313149783467906,0.09710254654607277,44.11764879391193,-92.24360919585227,80.21211738781929
2024-09-23 14:08:21.438352,41.77,26.747639,-0.003233425524256645,-0.02313149783467906,0.09710254654607277,44.11764879391193,-92.24360919585227,76.200527287817
2024-09-23 14:08:21.449747,41.77,26.747639,-0.003233425524256645,-0.023280723622328886,0.09705279702197278,40.106058693909645,-92.24360919585227,76.200527287817
2024-09-23 14:08:21.494056,41.77,26.74769,-0.0031836870127375577,-0.023280723622328886,0.09710254654607277,40.106058693909645,-92.24360919585227,80.21211738781929
2024-09-23 14:08:21.536011,41.77,26.74769,-0.0031836870127375577,-0.023280723622328886,0.09710254654607277,40.106058693909645,-92.24360919585227,84.22370748782159
2024-09-23 14:08:21.547754,41.77,26.74774,-0.003631395514708897,-0.023479709566915436,0.09710254654607277,40.106058693909645,-92.24360919585227,84.22370748782159
2024-09-23 14:08:21.591412,41.77,26.747791,-0.003979606107712764,-0.023479709566915436,0.09670458680871308,36.09446859390736,-100.26678939585686,76.200527287817
2024-09-23 14:08:21.633466,41.77,26.747791,-0.003979606107712764,-0.02278327698858263,0.09650560086412653,36.09446859390736,-100.26678939585686,76.200527287817
2024-09-23 14:08:21.644536,41.77,26.747927,-0.003979606107712764,-0.02278327698858263,0.09650560086412653,36.09446859390736,-96.25519929585457,80.21211738781929
2024-09-23 14:08:21.688005,41.77,26.747927,-0.0031339382481259063,-0.02308174982955575,0.0976994861521123,32.08287849390507,-96.25519929585457,80.21211738781929
2024-09-23 14:08:21.730435,41.77,26.747978,-0.0030344509719951677,-0.023728432883788564,0.0976994861521123,32.08287849390507,-96.25519929585457,80.21211738781929
2024-09-23 14:08:21.741649,41.77,26.747978,-0.0030344509719951677,-0.023728432883788564,0.0970030596496862,36.09446859390736,-100.26678939585686,80.21211738781929
2024-09-23 14:08:21.783204,41.77,26.748029,-0.003482159473966507,-0.02303200030545576,0.09720203344245934,28.07457030097246,-100.26678939585686,80.21211738781929
2024-09-23 14:08:21.826873,41.77,26.748029,-0.003482159473966507,-0.02303200030545576,0.09720203344245934,28.07457030097246,-104.27510100388527,76.200527287817
2024-09-23 14:08:21.838465,41.77,26.74808,-0.0033329230534799477,-0.02268379009219606,0.0973512698629459,28.07457030097246,-104.27510100388527,76.200527287817
2024-09-23 14:08:21.880068,41.77,26.748131,-0.003780631555451287,-0.02268379009219606,0.0973512698629459,12.031489246711136,-100.26678939585686,80.21211738781929
2024-09-23 14:08:21.891591,41.77,26.748131,-0.003780631555451287,-0.02303200030545576,0.0973512698629459,12.031489246711136,-100.26678939585686,80.21211738781929
2024-09-23 14:08:21.924178,41.77,26.748131,-0.003780631555451287,-0.02303200030545576,0.09640611396773996,12.031489246711136,-100.26678939585686,80.21211738781929
2024-09-23 14:08:21.935573,41.77,26.748181,-0.0031836870127375577,-0.02303200030545576,0.09640611396773996,12.031489246711136,-92.24360919585227,84.22370748782159
2024-09-23 14:08:21.977979,41.77,26.748181,-0.0031836870127375577,-0.0228827638849692,0.09740101331113918,36.09446859390736,-96.25519929585457,84.22370748782159
2024-09-23 14:08:21.990109,41.77,26.748268,-0.0031836870127375577,-0.0228827638849692,0.09740101331113918,36.09446859390736,-96.25519929585457,84.22370748782159
2024-09-23 14:08:22.022066,41.77,26.748268,-0.0038303700669703737,-0.023579196463302005,0.09740101331113918,36.09446859390736,-96.25519929585457,84.22370748782159
2024-09-23 14:08:22.034249,41.77,26.748268,-0.0038303700669703737,-0.023579196463302005,0.09715228999426605,40.106058693909645,-92.24360919585227,88.23529758782387
2024-09-23 14:08:22.077826,41.77,26.74832,-0.0032831742888682963,-0.023429960042815445,0.09715228999426605,40.106058693909645,-100.26678939585686,88.23529758782387
2024-09-23 14:08:22.121378,41.77,26.74837,-0.0034324103296106863,-0.023429960042815445,0.09715228999426605,40.106058693909645,-100.26678939585686,84.22370748782159
2024-09-23 14:08:22.132633,41.77,26.74837,-0.0034324103296106863,-0.02303200030545576,0.09725178296655933,40.106058693909645,-100.26678939585686,84.22370748782159
2024-09-23 14:08:22.176124,41.77,26.748421,-0.0028852147413806935,-0.023330473146428877,0.09725178296655933,40.106058693909645,-104.27510100388527,80.21211738781929
2024-09-23 14:08:22.218073,41.77,26.748421,-0.0028852147413806935,-0.023330473146428877,0.09725178296655933,36.09446859390736,-100.26678939585686,80.21211738781929
2024-09-23 14:08:22.230068,41.77,26.748472,-0.0033329230534799477,-0.02338022115155219,0.09725178296655933,36.09446859390736,-100.26678939585686,80.21211738781929
2024-09-23 14:08:22.272841,41.77,26.748522,-0.003780631555451287,-0.02338022115155219,0.09720203344245934,36.09446859390736,-100.26678939585686,84.22370748782159
2024-09-23 14:08:22.316319,41.77,26.748522,-0.003780631555451287,-0.02303200030545576,0.09715228999426605,36.09446859390736,-100.26678939585686,84.22370748782159
2024-09-23 14:08:22.327514,41.77,26.748609,-0.003780631555451287,-0.02303200030545576,0.09715228999426605,36.09446859390736,-96.25519929585457,80.21211738781929
2024-09-23 14:08:22.411128,41.37,26.748609,-0.0035318979854855937,-0.023579196463302005,0.09715228999426605,36.09446859390736,-96.25519929585457,80.21211738781929
2024-09-23 14:08:22.423124,41.37,26.748609,-0.0035318979854855937,-0.023579196463302005,0.09745075675933246,40.106058693909645,-100.26678939585686,76.200527287817
2024-09-23 14:08:22.465899,41.37,26.748661,-0.0034324103296106863,-0.023778180888911878,0.09665483728461309,40.106058693909645,-100.26678939585686,76.200527287817
2024-09-23 14:08:22.477789,41.37,26.748661,-0.0034324103296106863,-0.023778180888911878,0.09665483728461309,40.106058693909645,-100.26678939585686,76.200527287817
2024-09-23 14:08:22.509186,41.37,26.748711,-0.0034324103296106863,-0.023778180888911878,0.09665483728461309,40.106058693909645,-100.26678939585686,80.21211738781929
2024-09-23 14:08:22.520679,41.37,26.748711,-0.0028354659767690416,-0.02293251340906919,0.0970030596496862,32.08287849390507,-100.26678939585686,80.21211738781929
2024-09-23 14:08:22.564357,41.37,26.748762,-0.003482159473966507,-0.02278327698858263,0.09720203344245934,32.08287849390507,-100.26678939585686,76.200527287817
2024-09-23 14:08:22.606474,41.37,26.748762,-0.003482159473966507,-0.02278327698858263,0.09720203344245934,32.08287849390507,-104.27510100388527,76.200527287817
2024-09-23 14:08:22.618043,41.37,26.748813,-0.003233425524256645,-0.02308174982955575,0.09720203344245934,32.08287849390507,-104.27510100388527,84.22370748782159
2024-09-23 14:08:22.660310,41.37,26.748904,-0.003233425524256645,-0.02308174982955575,0.09715228999426605,40.106058693909645,-104.27510100388527,76.200527287817
2024-09-23 14:08:22.672594,41.37,26.748904,-0.0033329230534799477,-0.02308174982955575,0.09715228999426605,40.106058693909645,-104.27510100388527,76.200527287817
2024-09-23 14:08:22.706161,41.37,26.748904,-0.0033329230534799477,-0.02293251340906919,0.09799795899308542,28.07457030097246,-104.27510100388527,76.200527287817
2024-09-23 14:08:22.717389,41.37,26.748999,-0.0033329230534799477,-0.02293251340906919,0.09799795899308542,28.07457030097246,-96.25519929585457,84.22370748782159
2024-09-23 14:08:22.759767,41.37,26.748999,-0.0033329230534799477,-0.023579196463302005,0.09710254654607277,32.08287849390507,-100.26678939585686,84.22370748782159
2024-09-23 14:08:22.803419,41.37,26.749051,-0.0029349636958644295,-0.02313149783467906,0.09710254654607277,32.08287849390507,-100.26678939585686,84.22370748782159
2024-09-23 14:08:22.814528,41.37,26.749051,-0.0029349636958644295,-0.02313149783467906,0.09784872257259886,48.12595698684454,-92.24360919585227,84.22370748782159
2024-09-23 14:08:22.857890,41.37,26.749101,-0.0035318979854855937,-0.023280723622328886,0.09675432418099966,44.11764879391193,-92.24360919585227,84.22370748782159
2024-09-23 14:08:22.900242,41.37,26.749152,-0.0035318979854855937,-0.023280723622328886,0.09675432418099966,44.11764879391193,-92.24360919585227,80.21211738781929
2024-09-23 14:08:22.911332,41.37,26.749152,-0.003929857343101113,-0.02278327698858263,0.09725178296655933,44.11764879391193,-92.24360919585227,80.21211738781929
2024-09-23 14:08:22.954888,41.37,26.749203,-0.0032831742888682963,-0.023877669304275123,0.09725178296655933,28.07457030097246,-96.25519929585457,84.22370748782159
2024-09-23 14:08:22.996896,41.37,26.749203,-0.0032831742888682963,-0.023877669304275123,0.09680407370509965,32.08287849390507,-96.25519929585457,84.22370748782159
2024-09-23 14:08:23.007933,41.37,26.749253,-0.0033329230534799477,-0.023877669304275123,0.09680407370509965,32.08287849390507,-100.26678939585686,80.21211738781929
2024-09-23 14:08:23.050801,41.37,26.749253,-0.0033329230534799477,-0.02338022115155219,0.09740101331113918,40.106058693909645,-96.25519929585457,80.21211738781929
2024-09-23 14:08:23.062465,41.37,26.749341,-0.0033329230534799477,-0.02338022115155219,0.09740101331113918,40.106058693909645,-96.25519929585457,80.21211738781929
2024-09-23 14:08:23.094647,41.37,26.749341,-0.003382661564999035,-0.023280723622328886,0.09740101331113918,40.106058693909645,-96.25519929585457,80.21211738781929
2024-09-23 14:08:23.105826,41.37,26.749341,-0.003382661564999035,-0.023280723622328886,0.09750050628343246,28.07457030097246,-100.26678939585686,80.21211738781929
2024-09-23 14:08:23.148678,41.37,26.749392,-0.0029847020175114316,-0.02352945757203875,0.09600815423038027,36.09446859390736,-96.25519929585457,80.21211738781929
2024-09-23 14:08:23.190878,41.37,26.749392,-0.0029847020175114316,-0.02352945757203875,0.09600815423038027,36.09446859390736,-96.25519929585457,76.200527287817
2024-09-23 14:08:23.202864,41.37,26.749443,-0.0035816467500972456,-0.023280723622328886,0.0973015264147526,36.09446859390736,-96.25519929585457,76.200527287817
2024-09-23 14:08:23.245689,41.37,26.749494,-0.0030841997366068195,-0.023181236725942318,0.0973015264147526,36.09446859390736,-100.26678939585686,84.22370748782159
2024-09-23 14:08:23.257697,41.37,26.749494,-0.0030841997366068195,-0.023181236725942318,0.09715228999426605,36.09446859390736,-100.26678939585686,84.22370748782159
2024-09-23 14:08:23.289630,41.37,26.749494,-0.0030841997366068195,-0.023181236725942318,0.09715228999426605,32.08287849390507,-104.27510100388527,84.22370748782159
2024-09-23 14:08:23.300660,41.37,26.749544,-0.003482159473966507,-0.023579196463302005,0.09715228999426605,32.08287849390507,-104.27510100388527,84.22370748782159
2024-09-23 14:08:23.343364,41.37,26.749595,-0.003482159473966507,-0.023579196463302005,0.0973015264147526,36.09446859390736,-100.26678939585686,84.22370748782159
2024-09-23 14:08:23.355068,41.37,26.749595,-0.0025369937054121774,-0.023579196463302005,0.0973015264147526,36.09446859390736,-100.26678939585686,84.22370748782159
2024-09-23 14:08:23.386515,41.37,26.749595,-0.0025369937054121774,-0.023181236725942318,0.09665483728461309,36.09446859390736,-100.26678939585686,84.22370748782159
2024-09-23 14:08:23.397684,41.37,26.749595,-0.0025369937054121774,-0.023181236725942318,0.09665483728461309,48.12595698684454,-92.24360919585227,80.21211738781929
2024-09-23 14:08:23.439332,41.71,26.749682,-0.0032831742888682963,-0.02338022115155219,0.09715228999426605,48.12595698684454,-92.24360919585227,80.21211738781929
2024-09-23 14:08:23.452460,41.71,26.749682,-0.0032831742888682963,-0.02338022115155219,0.09715228999426605,32.08287849390507,-100.26678939585686,80.21211738781929
2024-09-23 14:08:23.484288,41.71,26.749733,-0.0032831742888682963,-0.02338022115155219,0.09715228999426605,32.08287849390507,-100.26678939585686,84.22370748782159
2024-09-23 14:08:23.495661,41.71,26.749733,-0.0037308827908396356,-0.023429960042815445,0.0973015264147526,20.05138839341998,-100.26678939585686,84.22370748782159
2024-09-23 14:08:23.538119,41.71,26.749784,-0.002785727465249955,-0.023429960042815445,0.0973015264147526,20.05138839341998,-96.25519929585457,80.21211738781929
2024-09-23 14:08:23.550241,41.71,26.749784,-0.002785727465249955,-0.023429960042815445,0.0973512698629459,20.05138839341998,-96.25519929585457,80.21211738781929
2024-09-23 14:08:23.583118,41.71,26.749784,-0.002785727465249955,-0.023429960042815445,0.0973512698629459,36.09446859390736,-92.24360919585227,80.21211738781929
2024-09-23 14:08:23.595234,41.71,26.749835,-0.0034324103296106863,-0.02352945757203875,0.0973512698629459,36.09446859390736,-92.24360919585227,84.22370748782159
2024-09-23 14:08:23.637711,41.71,26.749885,-0.0029349636958644295,-0.02352945757203875,0.0966050877605131,44.11764879391193,-92.24360919585227,80.21211738781929
2024-09-23 14:08:23.680212,41.71,26.749885,-0.0029349636958644295,-0.02362894446842532,0.09715228999426605,32.08287849390507,-92.24360919585227,80.21211738781929
2024-09-23 14:08:23.691540,41.71,26.749974,-0.0029349636958644295,-0.02362894446842532,0.09715228999426605,32.08287849390507,-96.25519929585457,76.200527287817
2024-09-23 14:08:23.733955,41.71,26.749974,-0.0030841997366068195,-0.02338022115155219,0.09715228999426605,32.08287849390507,-100.26678939585686,80.21211738781929
2024-09-23 14:08:23.776323,41.71,26.750026,-0.0029847020175114316,-0.02338022115155219,0.09715228999426605,32.08287849390507,-100.26678939585686,80.21211738781929
2024-09-23 14:08:23.788215,41.71,26.750026,-0.0029847020175114316,-0.023778180888911878,0.09750050628343246,36.09446859390736,-96.25519929585457,80.21211738781929
2024-09-23 14:08:23.872808,41.71,26.750026,-0.0029847020175114316,-0.023778180888911878,0.09750050628343246,36.09446859390736,-96.25519929585457,84.22370748782159
2024-09-23 14:08:23.884741,41.71,26.750076,-0.003382661564999035,-0.02338022115155219,0.09750050628343246,36.09446859390736,-96.25519929585457,84.22370748782159
2024-09-23 14:08:23.928000,41.71,26.750127,-0.003382661564999035,-0.02338022115155219,0.09710254654607277,48.12595698684454,-88.23529758782387,80.21211738781929
2024-09-23 14:08:23.940244,41.71,26.750127,-0.003382661564999035,-0.02338022115155219,0.09710254654607277,48.12595698684454,-88.23529758782387,80.21211738781929
2024-09-23 14:08:23.973893,41.71,26.750127,-0.003382661564999035,-0.022982261414192504,0.09675432418099966,48.12595698684454,-88.23529758782387,80.21211738781929
2024-09-23 14:08:23.985110,41.71,26.750178,-0.003382661564999035,-0.022982261414192504,0.09675432418099966,48.12595698684454,-88.23529758782387,80.21211738781929
2024-09-23 14:08:24.027660,41.71,26.750178,-0.0027359787006383035,-0.02313149783467906,0.09695331012558621,24.06297849342227,-96.25519929585457,80.21211738781929
2024-09-23 14:08:24.070357,41.71,26.750228,-0.003382661564999035,-0.02293251340906919,0.09695331012558621,24.06297849342227,-96.25519929585457,80.21211738781929
2024-09-23 14:08:24.081755,41.71,26.750228,-0.003382661564999035,-0.02293251340906919,0.0970030596496862,32.08287849390507,-92.24360919585227,80.21211738781929
2024-09-23 14:08:24.125212,41.71,26.750315,-0.0029847020175114316,-0.022982261414192504,0.09784872257259886,36.09446859390736,-92.24360919585227,84.22370748782159
2024-09-23 14:08:24.168658,41.71,26.750415,-0.0029847020175114316,-0.022982261414192504,0.09784872257259886,36.09446859390736,-100.26678939585686,76.200527287817
2024-09-23 14:08:24.180053,41.71,26.750415,-0.003482159473966507,-0.02303200030545576,0.09670458680871308,36.09446859390736,-100.26678939585686,76.200527287817
2024-09-23 14:08:24.223890,41.71,26.750465,-0.0037308827908396356,-0.02308174982955575,0.09670458680871308,32.08287849390507,-96.25519929585457,80.21211738781929
2024-09-23 14:08:24.266107,41.71,26.750465,-0.0037308827908396356,-0.02308174982955575,0.09750050628343246,40.106058693909645,-96.25519929585457,80.21211738781929
2024-09-23 14:08:24.277598,41.71,26.750516,-0.0033329230534799477,-0.02308174982955575,0.09750050628343246,40.106058693909645,-96.25519929585457,80.21211738781929
2024-09-23 14:08:24.321134,41.71,26.750608,-0.0033329230534799477,-0.023429960042815445,0.09710254654607277,28.07457030097246,-108.28669110388756,76.200527287817
2024-09-23 14:08:24.364179,41.71,26.750608,-0.0028852147413806935,-0.022833026512682618,0.09695331012558621,28.07457030097246,-108.28669110388756,76.200527287817
2024-09-23 14:08:24.375623,41.71,26.750608,-0.0028852147413806935,-0.022833026512682618,0.09695331012558621,32.08287849390507,-96.25519929585457,80.21211738781929
2024-09-23 14:08:24.418231,41.71,26.75066,-0.0032831742888682963,-0.022833026512682618,0.09695331012558621,32.08287849390507,-96.25519929585457,80.21211738781929
2024-09-23 14:08:24.460650,41.52,26.75066,-0.0032831742888682963,-0.02278327698858263,0.0973015264147526,40.106058693909645,-96.25519929585457,80.21211738781929
2024-09-23 14:08:24.472362,41.52,26.75071,-0.0032831742888682963,-0.02278327698858263,0.0973015264147526,40.106058693909645,-92.24360919585227,84.22370748782159
2024-09-23 14:08:24.515371,41.52,26.75071,-0.0031836870127375577,-0.02362894446842532,0.09710254654607277,44.11764879391193,-100.26678939585686,84.22370748782159
2024-09-23 14:08:24.558742,41.52,26.750761,-0.003631395514708897,-0.023827930413011865,0.09710254654607277,44.11764879391193,-100.26678939585686,84.22370748782159
2024-09-23 14:08:24.569859,41.52,26.750761,-0.003631395514708897,-0.023827930413011865,0.09740101331113918,40.106058693909645,-100.26678939585686,84.22370748782159
2024-09-23 14:08:24.613132,41.52,26.750812,-0.0030344509719951677,-0.02362894446842532,0.09690356060148622,24.06297849342227,-100.26678939585686,84.22370748782159
2024-09-23 14:08:24.655017,41.52,26.750862,-0.0030344509719951677,-0.02362894446842532,0.09690356060148622,24.06297849342227,-100.26678939585686,80.21211738781929
2024-09-23 14:08:24.666253,41.52,26.750862,-0.0029847020175114316,-0.02352945757203875,0.0970030596496862,24.06297849342227,-100.26678939585686,80.21211738781929
2024-09-23 14:08:24.709472,41.52,26.750951,-0.0031339382481259063,-0.0228827638849692,0.0970030596496862,36.09446859390736,-100.26678939585686,76.200527287817
2024-09-23 14:08:24.753751,41.52,26.750951,-0.0031339382481259063,-0.0228827638849692,0.09779897304849887,40.106058693909645,-100.26678939585686,76.200527287817
2024-09-23 14:08:24.765688,41.52,26.751002,-0.0036811340262279837,-0.0228827638849692,0.09779897304849887,40.106058693909645,-100.26678939585686,76.200527287817
2024-09-23 14:08:24.808724,41.52,26.751096,-0.0036811340262279837,-0.02308174982955575,0.0970030596496862,36.09446859390736,-96.25519929585457,84.22370748782159
2024-09-23 14:08:24.850385,41.52,26.751096,-0.0034324103296106863,-0.023728432883788564,0.09685382322919964,36.09446859390736,-96.25519929585457,84.22370748782159
2024-09-23 14:08:24.861715,41.52,26.751096,-0.0034324103296106863,-0.023728432883788564,0.09685382322919964,28.07457030097246,-104.27510100388527,88.23529758782387
2024-09-23 14:08:24.904295,41.52,26.751147,-0.003382661564999035,-0.023230986250042305,0.09695331012558621,28.07457030097246,-104.27510100388527,88.23529758782387
2024-09-23 14:08:24.949022,41.52,26.751198,-0.003631395514708897,-0.022982261414192504,0.09695331012558621,28.07457030097246,-104.27510100388527,72.1922225099802
2024-09-23 14:08:24.960610,41.52,26.751198,-0.003631395514708897,-0.022982261414192504,0.09715228999426605,32.08287849390507,-104.27510100388527,72.1922225099802
2024-09-23 14:08:24.992982,41.52,26.751198,-0.003631395514708897,-0.022982261414192504,0.09715228999426605,32.08287849390507,-104.27510100388527,72.1922225099802
2024-09-23 14:08:25.004232,41.52,26.751248,-0.0032831742888682963,-0.023280723622328886,0.09685382322919964,32.08287849390507,-104.27510100388527,80.21211738781929
2024-09-23 14:08:25.045970,41.52,26.751248,-0.0032831742888682963,-0.023280723622328886,0.09685382322919964,36.09446859390736,-96.25519929585457,84.22370748782159
2024-09-23 14:08:25.057452,41.52,26.751299,-0.0030344509719951677,-0.02362894446842532,0.09685382322919964,36.09446859390736,-96.25519929585457,84.22370748782159
2024-09-23 14:08:25.100040,41.52,26.75135,-0.0036811340262279837,-0.02362894446842532,0.09640611396773996,32.08287849390507,-96.25519929585457,80.21211738781929
2024-09-23 14:08:25.143342,41.52,26.75135,-0.0036811340262279837,-0.023479709566915436,0.09720203344245934,32.08287849390507,-96.25519929585457,80.21211738781929
2024-09-23 14:08:25.154956,41.52,26.751437,-0.0036811340262279837,-0.023479709566915436,0.09720203344245934,32.08287849390507,-104.27510100388527,76.200527287817
2024-09-23 14:08:25.197404,41.52,26.751437,-0.0036811340262279837,-0.023330473146428877,0.0973512698629459,40.106058693909645,-100.26678939585686,84.22370748782159
2024-09-23 14:08:25.240635,41.52,26.751488,-0.0036811340262279837,-0.02278327698858263,0.0973512698629459,40.106058693909645,-100.26678939585686,84.22370748782159
2024-09-23 14:08:25.252101,41.52,26.751488,-0.0036811340262279837,-0.02278327698858263,0.09690356060148622,40.106058693909645,-100.26678939585686,84.22370748782159
2024-09-23 14:08:25.296204,41.52,26.751539,-0.003382661564999035,-0.023280723622328886,0.09665483728461309,44.11764879391193,-100.26678939585686,76.200527287817
2024-09-23 14:08:25.339148,41.52,26.75159,-0.003382661564999035,-0.023280723622328886,0.09665483728461309,44.11764879391193,-96.25519929585457,84.22370748782159
2024-09-23 14:08:25.350640,41.52,26.75159,-0.003631395514708897,-0.02313149783467906,0.09725178296655933,44.11764879391193,-96.25519929585457,84.22370748782159
2024-09-23 14:08:25.384336,41.52,26.75159,-0.003631395514708897,-0.02313149783467906,0.09725178296655933,36.09446859390736,-96.25519929585457,84.22370748782159
2024-09-23 14:08:25.395950,41.52,26.75164,-0.0029847020175114316,-0.02293251340906919,0.09725178296655933,36.09446859390736,-96.25519929585457,72.1922225099802
2024-09-23 14:08:25.490284,41.22,26.751691,-0.0030344509719951677,-0.02293251340906919,0.0970030596496862,28.07457030097246,-100.26678939585686,68.18063240997792
2024-09-23 14:08:25.533702,41.22,26.751691,-0.0030344509719951677,-0.023728432883788564,0.09750050628343246,32.08287849390507,-100.26678939585686,68.18063240997792
2024-09-23 14:08:25.545796,41.22,26.751691,-0.0030344509719951677,-0.023728432883788564,0.09750050628343246,32.08287849390507,-100.26678939585686,76.200527287817
2024-09-23 14:08:25.578111,41.22,26.751778,-0.0030344509719951677,-0.023728432883788564,0.09750050628343246,32.08287849390507,-100.26678939585686,76.200527287817
2024-09-23 14:08:25.590139,41.22,26.751778,-0.0032831742888682963,-0.02313149783467906,0.09715228999426605,36.09446859390736,-96.25519929585457,76.200527287817
2024-09-23 14:08:25.632398,41.22,26.75183,-0.0035318979854855937,-0.02313149783467906,0.09715228999426605,36.09446859390736,-96.25519929585457,76.200527287817
2024-09-23 14:08:25.643684,41.22,26.75183,-0.0035318979854855937,-0.02313149783467906,0.09695331012558621,44.11764879391193,-96.25519929585457,76.200527287817
2024-09-23 14:08:25.676749,41.22,26.75183,-0.0035318979854855937,-0.02313149783467906,0.09695331012558621,44.11764879391193,-96.25519929585457,76.200527287817
2024-09-23 14:08:25.688214,41.22,26.75188,-0.0029349636958644295,-0.02263404056809607,0.0973015264147526,44.11764879391193,-96.25519929585457,88.23529758782387
2024-09-23 14:08:25.730329,41.22,26.751975,-0.0029349636958644295,-0.02263404056809607,0.0973015264147526,24.06297849342227,-100.26678939585686,84.22370748782159
2024-09-23 14:08:25.742240,41.22,26.751975,-0.0029847020175114316,-0.023280723622328886,0.0973015264147526,24.06297849342227,-100.26678939585686,84.22370748782159
2024-09-23 14:08:25.774871,41.22,26.751975,-0.0029847020175114316,-0.023280723622328886,0.09759999317981902,24.06297849342227,-100.26678939585686,84.22370748782159
2024-09-23 14:08:25.786336,41.22,26.752026,-0.0035318979854855937,-0.023280723622328886,0.09759999317981902,40.106058693909645,-100.26678939585686,80.21211738781929
2024-09-23 14:08:25.828786,41.22,26.752026,-0.0035318979854855937,-0.02313149783467906,0.0970030596496862,40.106058693909645,-100.26678939585686,80.21211738781929
2024-09-23 14:08:25.871004,41.22,26.752026,-0.0035318979854855937,-0.02313149783467906,0.0970030596496862,36.09446859390736,-100.26678939585686,80.21211738781929
2024-09-23 14:08:25.882453,41.22,26.752119,-0.0035318979854855937,-0.023479709566915436,0.0970030596496862,36.09446859390736,-100.26678939585686,76.200527287817
2024-09-23 14:08:25.925124,41.22,26.752119,-0.0035318979854855937,-0.023479709566915436,0.09710254654607277,36.09446859390736,-96.25519929585457,76.200527287817
2024-09-23 14:08:25.936206,41.22,26.752171,-0.0033329230534799477,-0.023479709566915436,0.09710254654607277,36.09446859390736,-96.25519929585457,76.200527287817
2024-09-23 14:08:25.968100,41.22,26.752171,-0.0033329230534799477,-0.023479709566915436,0.09710254654607277,36.09446859390736,-96.25519929585457,76.200527287817
2024-09-23 14:08:25.979935,41.22,26.752221,-0.0033329230534799477,-0.023479709566915436,0.09720203344245934,36.09446859390736,-100.26678939585686,80.21211738781929
2024-09-23 14:08:26.023697,41.22,26.752221,-0.0031339382481259063,-0.024026904205785005,0.09725178296655933,36.09446859390736,-100.26678939585686,80.21211738781929
2024-09-23 14:08:26.035380,41.22,26.752221,-0.0031339382481259063,-0.024026904205785005,0.09725178296655933,36.09446859390736,-100.26678939585686,76.200527287817
2024-09-23 14:08:26.067968,41.22,26.752272,-0.003233425524256645,-0.024026904205785005,0.09725178296655933,36.09446859390736,-100.26678939585686,76.200527287817
2024-09-23 14:08:26.079307,41.22,26.752272,-0.003233425524256645,-0.022833026512682618,0.09720203344245934,32.08287849390507,-104.27510100388527,76.200527287817
2024-09-23 14:08:26.121797,41.22,26.752364,-0.0031339382481259063,-0.02313149783467906,0.09685382322919964,32.08287849390507,-104.27510100388527,76.200527287817
2024-09-23 14:08:26.134006,41.22,26.752364,-0.0031339382481259063,-0.02313149783467906,0.09685382322919964,32.08287849390507,-104.27510100388527,76.200527287817
2024-09-23 14:08:26.167191,41.22,26.752415,-0.0031339382481259063,-0.02313149783467906,0.09685382322919964,32.08287849390507,-92.24360919585227,80.21211738781929
2024-09-23 14:08:26.178314,41.22,26.752415,-0.0028354659767690416,-0.02338022115155219,0.09640611396773996,32.08287849390507,-92.24360919585227,80.21211738781929
2024-09-23 14:08:26.221256,41.22,26.752466,-0.003631395514708897,-0.02313149783467906,0.09640611396773996,36.09446859390736,-92.24360919585227,72.1922225099802
2024-09-23 14:08:26.264056,41.22,26.752466,-0.003631395514708897,-0.02313149783467906,0.09725178296655933,40.106058693909645,-96.25519929585457,72.1922225099802
2024-09-23 14:08:26.275717,41.22,26.752517,-0.0034324103296106863,-0.02313149783467906,0.09725178296655933,40.106058693909645,-96.25519929585457,76.200527287817
2024-09-23 14:08:26.319774,41.22,26.752607,-0.0034324103296106863,-0.023280723622328886,0.09690356060148622,28.07457030097246,-96.25519929585457,80.21211738781929
2024-09-23 14:08:26.361779,41.22,26.752607,-0.0038801188315820256,-0.022982261414192504,0.09675432418099966,28.07457030097246,-96.25519929585457,80.21211738781929
2024-09-23 14:08:26.372915,41.22,26.752607,-0.0038801188315820256,-0.022982261414192504,0.09675432418099966,28.07457030097246,-100.26678939585686,80.21211738781929
2024-09-23 14:08:26.416262,41.22,26.752658,-0.0032831742888682963,-0.02313149783467906,0.09685382322919964,40.106058693909645,-96.25519929585457,80.21211738781929
2024-09-23 14:08:26.458569,41.22,26.752709,-0.003382661564999035,-0.02313149783467906,0.09685382322919964,40.106058693909645,-96.25519929585457,76.200527287817
2024-09-23 14:08:26.511358,41.41,26.752709,-0.003382661564999035,-0.0228827638849692,0.09745075675933246,32.08287849390507,-96.25519929585457,76.200527287817
2024-09-23 14:08:26.522756,41.41,26.75276,-0.003382661564999035,-0.0228827638849692,0.09745075675933246,32.08287849390507,-96.25519929585457,84.22370748782159
2024-09-23 14:08:26.555385,41.41,26.75276,-0.0034324103296106863,-0.02303200030545576,0.09745075675933246,32.08287849390507,-96.25519929585457,84.22370748782159
2024-09-23 14:08:26.566853,41.41,26.75276,-0.0034324103296106863,-0.02303200030545576,0.09710254654607277,28.07457030097246,-96.25519929585457,84.22370748782159
2024-09-23 14:08:26.608602,41.41,26.75281,-0.0028354659767690416,-0.02303200030545576,0.09710254654607277,28.07457030097246,-96.25519929585457,80.21211738781929
2024-09-23 14:08:26.619717,41.41,26.75281,-0.0028354659767690416,-0.02367869399252531,0.09710254654607277,28.07457030097246,-96.25519929585457,80.21211738781929
2024-09-23 14:08:26.652270,41.41,26.75281,-0.0028354659767690416,-0.02367869399252531,0.09710254654607277,32.08287849390507,-96.25519929585457,80.21211738781929
2024-09-23 14:08:26.663222,41.41,26.752861,-0.0031836870127375577,-0.02308174982955575,0.09710254654607277,32.08287849390507,-96.25519929585457,84.22370748782159
2024-09-23 14:08:26.706278,41.41,26.752948,-0.0031836870127375577,-0.02308174982955575,0.0973015264147526,36.09446859390736,-96.25519929585457,80.21211738781929
2024-09-23 14:08:26.717855,41.41,26.752948,-0.0035816467500972456,-0.02308174982955575,0.0973015264147526,36.09446859390736,-96.25519929585457,80.21211738781929
2024-09-23 14:08:26.750385,41.41,26.752948,-0.0035816467500972456,-0.023330473146428877,0.09705279702197278,36.09446859390736,-96.25519929585457,80.21211738781929
2024-09-23 14:08:26.762090,41.41,26.753,-0.0035816467500972456,-0.023330473146428877,0.09705279702197278,40.106058693909645,-92.24360919585227,80.21211738781929
2024-09-23 14:08:26.805339,41.41,26.753,-0.003382661564999035,-0.02338022115155219,0.09745075675933246,40.106058693909645,-96.25519929585457,80.21211738781929
2024-09-23 14:08:26.817213,41.41,26.753,-0.003382661564999035,-0.02338022115155219,0.09745075675933246,40.106058693909645,-96.25519929585457,80.21211738781929
2024-09-23 14:08:26.850460,41.41,26.753095,-0.0034324103296106863,-0.023827930413011865,0.09745075675933246,40.106058693909645,-96.25519929585457,80.21211738781929
2024-09-23 14:08:26.861875,41.41,26.753095,-0.0034324103296106863,-0.023827930413011865,0.0973512698629459,36.09446859390736,-96.25519929585457,80.21211738781929
2024-09-23 14:08:26.894324,41.41,26.753095,-0.0034324103296106863,-0.023827930413011865,0.0973512698629459,36.09446859390736,-96.25519929585457,76.200527287817
2024-09-23 14:08:26.905240,41.41,26.753146,-0.0033329230534799477,-0.022833026512682618,0.0973015264147526,36.09446859390736,-96.25519929585457,76.200527287817
2024-09-23 14:08:26.948702,41.41,26.753197,-0.003382661564999035,-0.022833026512682618,0.0973015264147526,36.09446859390736,-96.25519929585457,80.21211738781929
2024-09-23 14:08:26.961481,41.41,26.753197,-0.003382661564999035,-0.02308174982955575,0.09695331012558621,36.09446859390736,-96.25519929585457,80.21211738781929
2024-09-23 14:08:26.994059,41.41,26.753197,-0.003382661564999035,-0.02308174982955575,0.09695331012558621,40.106058693909645,-92.24360919585227,80.21211738781929
2024-09-23 14:08:27.005429,41.41,26.753248,-0.0034324103296106863,-0.02303200030545576,0.09695331012558621,40.106058693909645,-92.24360919585227,80.21211738781929
2024-09-23 14:08:27.048069,41.41,26.753298,-0.0034324103296106863,-0.02303200030545576,0.09705279702197278,36.09446859390736,-100.26678939585686,80.21211738781929
2024-09-23 14:08:27.060051,41.41,26.753298,-0.0033329230534799477,-0.02303200030545576,0.09705279702197278,36.09446859390736,-100.26678939585686,80.21211738781929
2024-09-23 14:08:27.091551,41.41,26.753298,-0.0033329230534799477,-0.023429960042815445,0.0973512698629459,36.09446859390736,-100.26678939585686,80.21211738781929
2024-09-23 14:08:27.102761,41.41,26.753387,-0.0033329230534799477,-0.023429960042815445,0.0973512698629459,28.07457030097246,-96.25519929585457,84.22370748782159
2024-09-23 14:08:27.146247,41.41,26.753387,-0.0029847020175114316,-0.02268379009219606,0.09755024973162574,32.08287849390507,-100.26678939585686,84.22370748782159
2024-09-23 14:08:27.189339,41.41,26.753438,-0.0028852147413806935,-0.02268379009219606,0.09755024973162574,32.08287849390507,-100.26678939585686,84.22370748782159
2024-09-23 14:08:27.200830,41.41,26.753438,-0.0028852147413806935,-0.023330473146428877,0.09635636444363997,32.08287849390507,-88.23529758782387,84.22370748782159
2024-09-23 14:08:27.243605,41.41,26.753489,-0.0026862297461545674,-0.02338022115155219,0.0973512698629459,32.08287849390507,-88.23529758782387,84.22370748782159
2024-09-23 14:08:27.256267,41.41,26.753489,-0.0026862297461545674,-0.02338022115155219,0.0973512698629459,28.07457030097246,-88.23529758782387,84.22370748782159
2024-09-23 14:08:27.288343,41.41,26.75354,-0.0026862297461545674,-0.02338022115155219,0.0973512698629459,28.07457030097246,-96.25519929585457,80.21211738781929
2024-09-23 14:08:27.299841,41.41,26.75354,-0.0037308827908396356,-0.023280723622328886,0.09720203344245934,28.07457030097246,-96.25519929585457,80.21211738781929
2024-09-23 14:08:27.342605,41.41,26.753591,-0.0031339382481259063,-0.023330473146428877,0.09720203344245934,36.09446859390736,-92.24360919585227,80.21211738781929
2024-09-23 14:08:27.385456,41.41,26.753591,-0.0031339382481259063,-0.023330473146428877,0.09665483728461309,36.09446859390736,-96.25519929585457,80.21211738781929
2024-09-23 14:08:27.397807,41.41,26.753642,-0.0030841997366068195,-0.023330473146428877,0.09665483728461309,36.09446859390736,-96.25519929585457,80.21211738781929
2024-09-23 14:08:27.440906,41.41,26.753728,-0.0030841997366068195,-0.023181236725942318,0.09715228999426605,44.11764879391193,-96.25519929585457,84.22370748782159
2024-09-23 14:08:27.482863,41.41,26.753728,-0.0037308827908396356,-0.022833026512682618,0.09685382322919964,44.11764879391193,-96.25519929585457,84.22370748782159
2024-09-23 14:08:27.493931,41.41,26.753728,-0.0037308827908396356,-0.022833026512682618,0.09685382322919964,40.106058693909645,-92.24360919585227,80.21211738781929
2024-09-23 14:08:27.536678,41.98,26.75378,-0.0031339382481259063,-0.023728432883788564,0.0973015264147526,32.08287849390507,-96.25519929585457,80.21211738781929
2024-09-23 14:08:27.578520,41.98,26.75383,-0.0031339382481259063,-0.023728432883788564,0.0973015264147526,32.08287849390507,-96.25519929585457,76.200527287817
2024-09-23 14:08:27.589728,41.98,26.75383,-0.002636491424507565,-0.02303200030545576,0.09675432418099966,40.106058693909645,-96.25519929585457,76.200527287817
2024-09-23 14:08:27.633361,41.98,26.753881,-0.003382661564999035,-0.022982261414192504,0.09675432418099966,40.106058693909645,-104.27510100388527,76.200527287817
2024-09-23 14:08:27.645576,41.98,26.753881,-0.003382661564999035,-0.022982261414192504,0.09680407370509965,40.106058693909645,-104.27510100388527,76.200527287817
2024-09-23 14:08:27.678195,41.98,26.753881,-0.003382661564999035,-0.022982261414192504,0.09680407370509965,32.08287849390507,-108.28669110388756,80.21211738781929
2024-09-23 14:08:27.690062,41.98,26.753932,-0.003233425524256645,-0.023330473146428877,0.09680407370509965,32.08287849390507,-108.28669110388756,80.21211738781929
2024-09-23 14:08:27.732696,41.98,26.753982,-0.003233425524256645,-0.023330473146428877,0.0976994861521123,24.06297849342227,-92.24360919585227,80.21211738781929
2024-09-23 14:08:27.775338,41.98,26.753982,-0.003233425524256645,-0.023181236725942318,0.0973015264147526,36.09446859390736,-92.24360919585227,80.21211738781929
2024-09-23 14:08:27.786636,41.98,26.754069,-0.003233425524256645,-0.023181236725942318,0.0973015264147526,36.09446859390736,-96.25519929585457,80.21211738781929
2024-09-23 14:08:27.828857,41.98,26.754069,-0.0030841997366068195,-0.023728432883788564,0.09655535038822652,32.08287849390507,-96.25519929585457,88.23529758782387
2024-09-23 14:08:27.871489,41.98,26.754121,-0.0032831742888682963,-0.023728432883788564,0.09655535038822652,32.08287849390507,-96.25519929585457,88.23529758782387
2024-09-23 14:08:27.883153,41.98,26.754121,-0.0032831742888682963,-0.023429960042815445,0.09690356060148622,28.07457030097246,-104.27510100388527,88.23529758782387
2024-09-23 14:08:27.927381,41.98,26.754171,-0.003233425524256645,-0.02338022115155219,0.0973512698629459,32.08287849390507,-104.27510100388527,80.21211738781929
2024-09-23 14:08:27.969572,41.98,26.754171,-0.003233425524256645,-0.02338022115155219,0.0973512698629459,32.08287849390507,-96.25519929585457,88.23529758782387
2024-09-23 14:08:27.980738,41.98,26.754222,-0.003482159473966507,-0.02313149783467906,0.09695331012558621,32.08287849390507,-96.25519929585457,88.23529758782387
2024-09-23 14:08:28.023801,41.98,26.754273,-0.0030841997366068195,-0.0228827638849692,0.09695331012558621,32.08287849390507,-100.26678939585686,84.22370748782159
2024-09-23 14:08:28.066759,41.98,26.754273,-0.0030841997366068195,-0.0228827638849692,0.09740101331113918,28.07457030097246,-100.26678939585686,84.22370748782159
2024-09-23 14:08:28.078630,41.98,26.754324,-0.0036811340262279837,-0.0228827638849692,0.09740101331113918,28.07457030097246,-92.24360919585227,80.21211738781929
2024-09-23 14:08:28.122611,41.98,26.754411,-0.0036811340262279837,-0.023330473146428877,0.09740101331113918,36.09446859390736,-96.25519929585457,80.21211738781929
2024-09-23 14:08:28.165135,41.98,26.754411,-0.0032831742888682963,-0.023330473146428877,0.09670458680871308,36.09446859390736,-96.25519929585457,80.21211738781929
2024-09-23 14:08:28.176556,41.98,26.754411,-0.0032831742888682963,-0.023330473146428877,0.09670458680871308,48.12595698684454,-92.24360919585227,80.21211738781929
2024-09-23 14:08:28.220165,41.98,26.754462,-0.0031836870127375577,-0.022833026512682618,0.09710254654607277,40.106058693909645,-104.27510100388527,80.21211738781929
2024-09-23 14:08:28.263330,41.98,26.754513,-0.0027359787006383035,-0.022833026512682618,0.09710254654607277,40.106058693909645,-104.27510100388527,80.21211738781929
2024-09-23 14:08:28.274841,41.98,26.754513,-0.0027359787006383035,-0.02338022115155219,0.09685382322919964,44.11764879391193,-104.27510100388527,80.21211738781929
2024-09-23 14:08:28.318644,41.98,26.754563,-0.0034324103296106863,-0.02338022115155219,0.09690356060148622,44.11764879391193,-100.26678939585686,80.21211738781929
2024-09-23 14:08:28.361019,41.98,26.754614,-0.0034324103296106863,-0.02338022115155219,0.09690356060148622,36.09446859390736,-112.29828120388984,76.200527287817
2024-09-23 14:08:28.372695,41.98,26.754614,-0.0030841997366068195,-0.023728432883788564,0.09690356060148622,36.09446859390736,-112.29828120388984,76.200527287817
2024-09-23 14:08:28.415651,41.98,26.754665,-0.004079093383843503,-0.023728432883788564,0.0970030596496862,36.09446859390736,-104.27510100388527,76.200527287817
2024-09-23 14:08:28.458339,41.98,26.754665,-0.004079093383843503,-0.02303200030545576,0.09705279702197278,40.106058693909645,-104.27510100388527,76.200527287817
2024-09-23 14:08:28.469780,41.98,26.754752,-0.004079093383843503,-0.02303200030545576,0.09705279702197278,40.106058693909645,-100.26678939585686,80.21211738781929
2024-09-23 14:08:28.512404,41.98,26.754752,-0.003979606107712764,-0.023728432883788564,0.0970030596496862,28.07457030097246,-100.26678939585686,84.22370748782159
2024-09-23 14:08:28.554496,41.61,26.754803,-0.0035816467500972456,-0.023728432883788564,0.0970030596496862,28.07457030097246,-100.26678939585686,84.22370748782159
2024-09-23 14:08:28.566603,41.61,26.754803,-0.0035816467500972456,-0.0228827638849692,0.09740101331113918,32.08287849390507,-96.25519929585457,84.22370748782159
2024-09-23 14:08:28.610520,41.61,26.754854,-0.003482159473966507,-0.023579196463302005,0.09705279702197278,32.08287849390507,-96.25519929585457,84.22370748782159
2024-09-23 14:08:28.653267,41.61,26.754905,-0.003482159473966507,-0.023579196463302005,0.09705279702197278,32.08287849390507,-100.26678939585686,84.22370748782159
2024-09-23 14:08:28.664580,41.61,26.754905,-0.0036811340262279837,-0.023330473146428877,0.09675432418099966,32.08287849390507,-100.26678939585686,84.22370748782159
2024-09-23 14:08:28.707809,41.61,26.754955,-0.002785727465249955,-0.02293251340906919,0.09675432418099966,40.106058693909645,-100.26678939585686,80.21211738781929
2024-09-23 14:08:28.750730,41.61,26.754955,-0.002785727465249955,-0.02293251340906919,0.098047696365372,28.07457030097246,-92.24360919585227,80.21211738781929
2024-09-23 14:08:28.762541,41.61,26.755006,-0.0031339382481259063,-0.02293251340906919,0.098047696365372,28.07457030097246,-92.24360919585227,80.21211738781929
2024-09-23 14:08:28.805022,41.61,26.755093,-0.0031339382481259063,-0.02308174982955575,0.09710254654607277,36.09446859390736,-96.25519929585457,76.200527287817
2024-09-23 14:08:28.848111,41.61,26.755093,-0.0030841997366068195,-0.023579196463302005,0.09745075675933246,36.09446859390736,-96.25519929585457,76.200527287817
2024-09-23 14:08:28.859707,41.61,26.755093,-0.0030841997366068195,-0.023579196463302005,0.09745075675933246,40.106058693909645,-100.26678939585686,80.21211738781929
2024-09-23 14:08:28.902380,41.61,26.755145,-0.0031836870127375577,-0.023330473146428877,0.09774922960030558,32.08287849390507,-100.26678939585686,80.21211738781929
2024-09-23 14:08:28.945792,41.61,26.755195,-0.0037308827908396356,-0.023330473146428877,0.09774922960030558,32.08287849390507,-100.26678939585686,80.21211738781929
2024-09-23 14:08:28.957570,41.61,26.755195,-0.0037308827908396356,-0.023330473146428877,0.09764974270391902,40.106058693909645,-100.26678939585686,80.21211738781929
2024-09-23 14:08:28.993044,41.61,26.755195,-0.0037308827908396356,-0.023330473146428877,0.09764974270391902,40.106058693909645,-100.26678939585686,76.200527287817
2024-09-23 14:08:29.004418,41.61,26.755246,-0.0034324103296106863,-0.023330473146428877,0.09715228999426605,40.106058693909645,-100.26678939585686,76.200527287817
2024-09-23 14:08:29.047384,41.61,26.755297,-0.0033329230534799477,-0.02278327698858263,0.09715228999426605,36.09446859390736,-92.24360919585227,80.21211738781929
2024-09-23 14:08:29.090490,41.61,26.755297,-0.0033329230534799477,-0.02278327698858263,0.0966050877605131,32.08287849390507,-92.24360919585227,80.21211738781929
2024-09-23 14:08:29.102545,41.61,26.755347,-0.0030841997366068195,-0.02278327698858263,0.0966050877605131,32.08287849390507,-100.26678939585686,80.21211738781929
2024-09-23 14:08:29.144299,41.61,26.755347,-0.0030841997366068195,-0.02338022115155219,0.09690356060148622,32.08287849390507,-88.23529758782387,80.21211738781929
2024-09-23 14:08:29.156302,41.61,26.755434,-0.0030841997366068195,-0.02338022115155219,0.09690356060148622,32.08287849390507,-88.23529758782387,80.21211738781929
2024-09-23 14:08:29.188741,41.61,26.755434,-0.0032831742888682963,-0.02313149783467906,0.09690356060148622,32.08287849390507,-88.23529758782387,80.21211738781929
2024-09-23 14:08:29.200581,41.61,26.755434,-0.0032831742888682963,-0.02313149783467906,0.09685382322919964,32.08287849390507,-96.25519929585457,80.21211738781929
2024-09-23 14:08:29.243540,41.61,26.755486,-0.0033329230534799477,-0.02338022115155219,0.0976994861521123,40.106058693909645,-104.27510100388527,80.21211738781929
2024-09-23 14:08:29.337126,41.61,26.755536,-0.0026862297461545674,-0.02338022115155219,0.0976994861521123,40.106058693909645,-104.27510100388527,80.21211738781929
2024-09-23 14:08:29.348890,41.61,26.755536,-0.0026862297461545674,-0.02303200030545576,0.09690356060148622,32.08287849390507,-104.27510100388527,80.21211738781929
2024-09-23 14:08:29.380692,41.61,26.755536,-0.0026862297461545674,-0.02303200030545576,0.09690356060148622,32.08287849390507,-100.26678939585686,80.21211738781929
2024-09-23 14:08:29.392070,41.61,26.755587,-0.0035318979854855937,-0.023230986250042305,0.09690356060148622,32.08287849390507,-100.26678939585686,84.22370748782159
2024-09-23 14:08:29.435156,41.61,26.755638,-0.0035318979854855937,-0.023230986250042305,0.09690356060148622,24.06297849342227,-100.26678939585686,84.22370748782159
2024-09-23 14:08:29.446901,41.61,26.755638,-0.0028852147413806935,-0.023181236725942318,0.09690356060148622,24.06297849342227,-100.26678939585686,84.22370748782159
2024-09-23 14:08:29.479434,41.61,26.755638,-0.0028852147413806935,-0.023181236725942318,0.09715228999426605,24.06297849342227,-100.26678939585686,84.22370748782159
2024-09-23 14:08:29.490653,41.61,26.755688,-0.0029847020175114316,-0.023181236725942318,0.09715228999426605,32.08287849390507,-96.25519929585457,80.21211738781929
2024-09-23 14:08:29.533311,41.61,26.755688,-0.0029847020175114316,-0.0228827638849692,0.0973015264147526,32.08287849390507,-96.25519929585457,84.22370748782159
2024-09-23 14:08:29.545413,41.61,26.755776,-0.0029847020175114316,-0.0228827638849692,0.0973015264147526,32.08287849390507,-96.25519929585457,84.22370748782159
2024-09-23 14:08:29.577334,41.45,26.755776,-0.003482159473966507,-0.02367869399252531,0.0973015264147526,32.08287849390507,-96.25519929585457,84.22370748782159
2024-09-23 14:08:29.589127,41.45,26.755776,-0.003482159473966507,-0.02367869399252531,0.09670458680871308,40.106058693909645,-100.26678939585686,80.21211738781929
2024-09-23 14:08:29.632106,41.45,26.755874,-0.003382661564999035,-0.023181236725942318,0.09695331012558621,36.09446859390736,-100.26678939585686,80.21211738781929
2024-09-23 14:08:29.644287,41.45,26.755874,-0.003382661564999035,-0.023181236725942318,0.09695331012558621,36.09446859390736,-100.26678939585686,80.21211738781929
2024-09-23 14:08:29.676795,41.45,26.755925,-0.0038303700669703737,-0.023181236725942318,0.09695331012558621,36.09446859390736,-100.26678939585686,76.200527287817
2024-09-23 14:08:29.688473,41.45,26.755925,-0.0038303700669703737,-0.022833026512682618,0.09705279702197278,36.09446859390736,-100.26678939585686,76.200527287817
2024-09-23 14:08:29.732884,41.45,26.755976,-0.0033329230534799477,-0.0224350561424862,0.09750050628343246,36.09446859390736,-100.26678939585686,76.200527287817
2024-09-23 14:08:29.775327,41.45,26.756026,-0.0033329230534799477,-0.0224350561424862,0.09750050628343246,36.09446859390736,-96.25519929585457,80.21211738781929
2024-09-23 14:08:29.787004,41.45,26.756026,-0.0030841997366068195,-0.023877669304275123,0.09750050628343246,36.09446859390736,-96.25519929585457,80.21211738781929
2024-09-23 14:08:29.821253,41.45,26.756026,-0.0030841997366068195,-0.023877669304275123,0.09715228999426605,36.09446859390736,-96.25519929585457,80.21211738781929
2024-09-23 14:08:29.832908,41.45,26.756077,-0.0030344509719951677,-0.023877669304275123,0.09715228999426605,36.09446859390736,-88.23529758782387,80.21211738781929
2024-09-23 14:08:29.875369,41.45,26.756077,-0.0030344509719951677,-0.023181236725942318,0.09710254654607277,36.09446859390736,-100.26678939585686,80.21211738781929
2024-09-23 14:08:29.887448,41.45,26.756166,-0.0030344509719951677,-0.023181236725942318,0.09710254654607277,36.09446859390736,-100.26678939585686,80.21211738781929
2024-09-23 14:08:29.919128,41.45,26.756166,-0.0033329230534799477,-0.023330473146428877,0.09710254654607277,36.09446859390736,-100.26678939585686,80.21211738781929
2024-09-23 14:08:29.930209,41.45,26.756166,-0.0033329230534799477,-0.023330473146428877,0.09715228999426605,36.09446859390736,-92.24360919585227,80.21211738781929
2024-09-23 14:08:29.973213,41.45,26.756217,-0.0035816467500972456,-0.023579196463302005,0.09745075675933246,32.08287849390507,-92.24360919585227,80.21211738781929
2024-09-23 14:08:29.984866,41.45,26.756217,-0.0035816467500972456,-0.023579196463302005,0.09745075675933246,32.08287849390507,-96.25519929585457,80.21211738781929
2024-09-23 14:08:30.016235,41.45,26.756268,-0.0035816467500972456,-0.023579196463302005,0.09745075675933246,32.08287849390507,-96.25519929585457,80.21211738781929
2024-09-23 14:08:30.027811,41.45,26.756268,-0.0028354659767690416,-0.023479709566915436,0.09725178296655933,28.07457030097246,-96.25519929585457,80.21211738781929
2024-09-23 14:08:30.070231,41.45,26.756318,-0.0030841997366068195,-0.022982261414192504,0.09725178296655933,28.07457030097246,-100.26678939585686,80.21211738781929
2024-09-23 14:08:30.082488,41.45,26.756318,-0.0030841997366068195,-0.022982261414192504,0.09705279702197278,28.07457030097246,-100.26678939585686,80.21211738781929
2024-09-23 14:08:30.115986,41.45,26.756318,-0.0030841997366068195,-0.022982261414192504,0.09705279702197278,40.106058693909645,-96.25519929585457,76.200527287817
2024-09-23 14:08:30.127578,41.45,26.756369,-0.0032831742888682963,-0.02268379009219606,0.09705279702197278,40.106058693909645,-96.25519929585457,76.200527287817
2024-09-23 14:08:30.170007,41.45,26.75642,-0.0031836870127375577,-0.02268379009219606,0.09650560086412653,36.09446859390736,-96.25519929585457,72.1922225099802
2024-09-23 14:08:30.212743,41.45,26.75642,-0.0031836870127375577,-0.02313149783467906,0.09665483728461309,36.09446859390736,-96.25519929585457,72.1922225099802
2024-09-23 14:08:30.224345,41.45,26.756507,-0.0031836870127375577,-0.02313149783467906,0.09665483728461309,36.09446859390736,-96.25519929585457,84.22370748782159
2024-09-23 14:08:30.266970,41.45,26.756507,-0.0031339382481259063,-0.02313149783467906,0.09740101331113918,36.09446859390736,-100.26678939585686,84.22370748782159
2024-09-23 14:08:30.278431,41.45,26.756507,-0.0031339382481259063,-0.02313149783467906,0.09740101331113918,36.09446859390736,-100.26678939585686,80.21211738781929
2024-09-23 14:08:30.311088,41.45,26.756558,-0.0034324103296106863,-0.02338022115155219,0.09740101331113918,36.09446859390736,-100.26678939585686,80.21211738781929
2024-09-23 14:08:30.322166,41.45,26.756558,-0.0034324103296106863,-0.02338022115155219,0.09764974270391902,40.106058693909645,-100.26678939585686,80.21211738781929
2024-09-23 14:08:30.365765,41.45,26.756609,-0.003233425524256645,-0.02397715620066169,0.0966050877605131,32.08287849390507,-100.26678939585686,84.22370748782159
2024-09-23 14:08:30.407947,41.45,26.75666,-0.003233425524256645,-0.02397715620066169,0.0966050877605131,32.08287849390507,-96.25519929585457,76.200527287817
2024-09-23 14:08:30.418798,41.45,26.75666,-0.003482159473966507,-0.023429960042815445,0.09715228999426605,32.08287849390507,-96.25519929585457,76.200527287817
2024-09-23 14:08:30.461320,41.45,26.75666,-0.003482159473966507,-0.023429960042815445,0.09715228999426605,28.07457030097246,-92.24360919585227,80.21211738781929
2024-09-23 14:08:30.505960,41.45,26.75671,-0.0034324103296106863,-0.02278327698858263,0.09715228999426605,28.07457030097246,-92.24360919585227,80.21211738781929
2024-09-23 14:08:30.517381,41.45,26.75671,-0.0034324103296106863,-0.02278327698858263,0.0976994861521123,32.08287849390507,-96.25519929585457,80.21211738781929
2024-09-23 14:08:30.559916,41.45,26.756761,-0.0034324103296106863,-0.023429960042815445,0.09690356060148622,32.08287849390507,-96.25519929585457,88.23529758782387
2024-09-23 14:08:30.602063,41.6,26.756761,-0.0034324103296106863,-0.023429960042815445,0.09690356060148622,32.08287849390507,-100.26678939585686,76.200527287817
2024-09-23 14:08:30.614088,41.6,26.756848,-0.0037308827908396356,-0.02308174982955575,0.09710254654607277,32.08287849390507,-100.26678939585686,76.200527287817
2024-09-23 14:08:30.657754,41.6,26.7569,-0.003382661564999035,-0.02278327698858263,0.09710254654607277,32.08287849390507,-96.25519929585457,76.200527287817
2024-09-23 14:08:30.700268,41.6,26.7569,-0.003382661564999035,-0.02278327698858263,0.0970030596496862,32.08287849390507,-92.24360919585227,76.200527287817
2024-09-23 14:08:30.711349,41.6,26.75695,-0.0028852147413806935,-0.02278327698858263,0.0970030596496862,32.08287849390507,-92.24360919585227,84.22370748782159
2024-09-23 14:08:30.754210,41.6,26.757043,-0.0028852147413806935,-0.02367869399252531,0.09764974270391902,40.106058693909645,-100.26678939585686,72.1922225099802
2024-09-23 14:08:30.796577,41.6,26.757043,-0.003929857343101113,-0.02308174982955575,0.09764974270391902,40.106058693909645,-100.26678939585686,72.1922225099802
2024-09-23 14:08:30.808368,41.6,26.757043,-0.003929857343101113,-0.02308174982955575,0.0973015264147526,40.106058693909645,-96.25519929585457,76.200527287817
2024-09-23 14:08:30.850873,41.6,26.757095,-0.003233425524256645,-0.02308174982955575,0.0973015264147526,40.106058693909645,-96.25519929585457,76.200527287817
2024-09-23 14:08:30.894821,41.6,26.757095,-0.003233425524256645,-0.0228827638849692,0.09695331012558621,40.106058693909645,-96.25519929585457,76.200527287817
2024-09-23 14:08:30.906179,41.6,26.757145,-0.003233425524256645,-0.0228827638849692,0.09695331012558621,40.106058693909645,-96.25519929585457,80.21211738781929
2024-09-23 14:08:30.948009,41.6,26.757145,-0.0035816467500972456,-0.022733528983459317,0.0970030596496862,36.09446859390736,-104.27510100388527,80.21211738781929
2024-09-23 14:08:30.960145,41.6,26.757145,-0.0035816467500972456,-0.022733528983459317,0.0970030596496862,36.09446859390736,-104.27510100388527,76.200527287817
2024-09-23 14:08:30.992772,41.6,26.757196,-0.003631395514708897,-0.022733528983459317,0.0970030596496862,36.09446859390736,-104.27510100388527,76.200527287817
2024-09-23 14:08:31.004468,41.6,26.757196,-0.003631395514708897,-0.02278327698858263,0.09655535038822652,32.08287849390507,-92.24360919585227,76.200527287817
2024-09-23 14:08:31.047522,41.6,26.757247,-0.0031836870127375577,-0.02367869399252531,0.09740101331113918,40.106058693909645,-92.24360919585227,88.23529758782387
2024-09-23 14:08:31.091264,41.6,26.757297,-0.0031836870127375577,-0.02367869399252531,0.09740101331113918,40.106058693909645,-100.26678939585686,80.21211738781929
2024-09-23 14:08:31.103522,41.6,26.757297,-0.0032831742888682963,-0.02303200030545576,0.09705279702197278,40.106058693909645,-100.26678939585686,80.21211738781929
2024-09-23 14:08:31.135885,41.6,26.757297,-0.0032831742888682963,-0.02303200030545576,0.09705279702197278,44.11764879391193,-100.26678939585686,80.21211738781929
2024-09-23 14:08:31.147452,41.6,26.757387,-0.0030841997366068195,-0.02308174982955575,0.09705279702197278,44.11764879391193,-96.25519929585457,76.200527287817
2024-09-23 14:08:31.189466,41.6,26.757387,-0.0030841997366068195,-0.02308174982955575,0.09740101331113918,48.12595698684454,-100.26678939585686,72.1922225099802
2024-09-23 14:08:31.200882,41.6,26.757437,-0.0029847020175114316,-0.02308174982955575,0.09740101331113918,48.12595698684454,-100.26678939585686,72.1922225099802
2024-09-23 14:08:31.233179,41.6,26.757437,-0.0029847020175114316,-0.023429960042815445,0.09740101331113918,48.12595698684454,-100.26678939585686,72.1922225099802
2024-09-23 14:08:31.244710,41.6,26.757531,-0.0029847020175114316,-0.023429960042815445,0.09685382322919964,36.09446859390736,-92.24360919585227,80.21211738781929
2024-09-23 14:08:31.287780,41.6,26.757531,-0.002785727465249955,-0.02268379009219606,0.09695331012558621,40.106058693909645,-92.24360919585227,80.21211738781929
2024-09-23 14:08:31.299581,41.6,26.757531,-0.002785727465249955,-0.02268379009219606,0.09695331012558621,40.106058693909645,-96.25519929585457,76.200527287817
2024-09-23 14:08:31.332438,41.6,26.757582,-0.002785727465249955,-0.02268379009219606,0.09695331012558621,40.106058693909645,-96.25519929585457,76.200527287817
2024-09-23 14:08:31.344494,41.6,26.757582,-0.0034324103296106863,-0.022982261414192504,0.09705279702197278,36.09446859390736,-96.25519929585457,76.200527287817
2024-09-23 14:08:31.388288,41.6,26.757633,-0.0034324103296106863,-0.023579196463302005,0.0966050877605131,28.07457030097246,-96.25519929585457,80.21211738781929
2024-09-23 14:08:31.430435,41.6,26.757633,-0.0034324103296106863,-0.023579196463302005,0.0966050877605131,28.07457030097246,-100.26678939585686,76.200527287817
2024-09-23 14:08:31.441382,41.6,26.757683,-0.0032831742888682963,-0.02293251340906919,0.09705279702197278,28.07457030097246,-100.26678939585686,76.200527287817
2024-09-23 14:08:31.484239,41.6,26.757683,-0.0032831742888682963,-0.02293251340906919,0.09705279702197278,44.11764879391193,-96.25519929585457,76.200527287817
2024-09-23 14:08:31.526801,41.6,26.757734,-0.0032831742888682963,-0.02293251340906919,0.09705279702197278,44.11764879391193,-96.25519929585457,76.200527287817
2024-09-23 14:08:31.538662,41.6,26.757734,-0.0037308827908396356,-0.02278327698858263,0.09695331012558621,48.12595698684454,-92.24360919585227,76.200527287817
2024-09-23 14:08:31.581768,41.6,26.757785,-0.0029847020175114316,-0.02338022115155219,0.09670458680871308,48.12595698684454,-92.24360919585227,72.1922225099802
2024-09-23 14:08:31.593930,41.6,26.757785,-0.0029847020175114316,-0.02338022115155219,0.09670458680871308,40.106058693909645,-92.24360919585227,72.1922225099802
2024-09-23 14:08:31.627380,41.92,26.757872,-0.0029847020175114316,-0.02338022115155219,0.09670458680871308,40.106058693909645,-96.25519929585457,80.21211738781929
2024-09-23 14:08:31.639373,41.92,26.757872,-0.0036811340262279837,-0.023330473146428877,0.09665483728461309,40.106058693909645,-96.25519929585457,80.21211738781929
2024-09-23 14:08:31.682065,41.92,26.757923,-0.0037308827908396356,-0.02308174982955575,0.09665483728461309,44.11764879391193,-84.22370748782159,88.23529758782387
2024-09-23 14:08:31.725398,41.92,26.757923,-0.0037308827908396356,-0.02308174982955575,0.09665483728461309,36.09446859390736,-92.24360919585227,88.23529758782387
2024-09-23 14:08:31.736940,41.92,26.757974,-0.0029349636958644295,-0.02308174982955575,0.09665483728461309,36.09446859390736,-92.24360919585227,88.23529758782387
2024-09-23 14:08:31.779534,41.92,26.758067,-0.0029349636958644295,-0.023579196463302005,0.09675432418099966,36.09446859390736,-100.26678939585686,88.23529758782387
2024-09-23 14:08:31.821963,41.92,26.758067,-0.003233425524256645,-0.023429960042815445,0.09610764112676684,36.09446859390736,-100.26678939585686,88.23529758782387
2024-09-23 14:08:31.833798,41.92,26.758067,-0.003233425524256645,-0.023429960042815445,0.09610764112676684,40.106058693909645,-96.25519929585457,84.22370748782159
2024-09-23 14:08:31.877204,41.92,26.758118,-0.0031836870127375577,-0.023330473146428877,0.09705279702197278,36.09446859390736,-92.24360919585227,84.22370748782159
2024-09-23 14:08:31.920969,41.92,26.758169,-0.0034324103296106863,-0.023230986250042305,0.09705279702197278,36.09446859390736,-92.24360919585227,80.21211738781929
2024-09-23 14:08:31.932043,41.92,26.758169,-0.0034324103296106863,-0.023230986250042305,0.09745075675933246,36.09446859390736,-92.24360919585227,80.21211738781929
2024-09-23 14:08:31.964178,41.92,26.758169,-0.0034324103296106863,-0.023230986250042305,0.09745075675933246,36.09446859390736,-96.25519929585457,80.21211738781929
2024-09-23 14:08:32.017394,41.92,26.75822,-0.003780631555451287,-0.023230986250042305,0.09745075675933246,36.09446859390736,-96.25519929585457,80.21211738781929
2024-09-23 14:08:32.028814,41.92,26.75822,-0.003780631555451287,-0.023429960042815445,0.0970030596496862,36.09446859390736,-96.25519929585457,80.21211738781929
2024-09-23 14:08:32.071395,41.92,26.75827,-0.0029349636958644295,-0.023778180888911878,0.0970030596496862,36.09446859390736,-100.26678939585686,80.21211738781929
2024-09-23 14:08:32.114461,41.92,26.75827,-0.0029349636958644295,-0.023778180888911878,0.0970030596496862,40.106058693909645,-96.25519929585457,84.22370748782159
2024-09-23 14:08:32.126122,41.92,26.758321,-0.0033329230534799477,-0.023181236725942318,0.0970030596496862,40.106058693909645,-96.25519929585457,84.22370748782159
2024-09-23 14:08:32.169389,41.92,26.758408,-0.003382661564999035,-0.023181236725942318,0.09695331012558621,24.06297849342227,-104.27510100388527,84.22370748782159
2024-09-23 14:08:32.212002,41.92,26.758408,-0.003382661564999035,-0.023230986250042305,0.09745075675933246,32.08287849390507,-104.27510100388527,84.22370748782159
2024-09-23 14:08:32.223949,41.92,26.758459,-0.003382661564999035,-0.023230986250042305,0.09745075675933246,32.08287849390507,-100.26678939585686,76.200527287817
2024-09-23 14:08:32.256447,41.92,26.758459,-0.003482159473966507,-0.023230986250042305,0.09745075675933246,32.08287849390507,-100.26678939585686,76.200527287817
2024-09-23 14:08:32.267777,41.92,26.758459,-0.003482159473966507,-0.022833026512682618,0.09695331012558621,44.11764879391193,-88.23529758782387,80.21211738781929
2024-09-23 14:08:32.310311,41.92,26.758555,-0.003233425524256645,-0.023181236725942318,0.0973512698629459,44.11764879391193,-88.23529758782387,80.21211738781929
2024-09-23 14:08:32.321834,41.92,26.758555,-0.003233425524256645,-0.023181236725942318,0.0973512698629459,40.106058693909645,-96.25519929585457,80.21211738781929
2024-09-23 14:08:32.354629,41.92,26.758555,-0.003233425524256645,-0.023181236725942318,0.0973512698629459,40.106058693909645,-96.25519929585457,76.200527287817
2024-09-23 14:08:32.366051,41.92,26.758606,-0.0030344509719951677,-0.02367869399252531,0.09715228999426605,28.07457030097246,-96.25519929585457,76.200527287817
2024-09-23 14:08:32.407972,41.92,26.758657,-0.0031836870127375577,-0.02367869399252531,0.09715228999426605,28.07457030097246,-84.22370748782159,96.25519929585457
2024-09-23 14:08:32.419137,41.92,26.758657,-0.0031836870127375577,-0.023181236725942318,0.09685382322919964,28.07457030097246,-84.22370748782159,96.25519929585457
2024-09-23 14:08:32.461556,41.92,26.758708,-0.0028354659767690416,-0.023429960042815445,0.09685382322919964,32.08287849390507,-96.25519929585457,84.22370748782159
2024-09-23 14:08:32.504374,41.92,26.758708,-0.0028354659767690416,-0.023429960042815445,0.09670458680871308,36.09446859390736,-100.26678939585686,84.22370748782159
2024-09-23 14:08:32.516927,41.92,26.758758,-0.0035816467500972456,-0.023429960042815445,0.09670458680871308,36.09446859390736,-100.26678939585686,80.21211738781929
2024-09-23 14:08:32.560024,41.92,26.758847,-0.0035816467500972456,-0.02293251340906919,0.09715228999426605,36.09446859390736,-96.25519929585457,80.21211738781929
2024-09-23 14:08:32.601959,41.92,26.758847,-0.003233425524256645,-0.02293251340906919,0.09715228999426605,36.09446859390736,-96.25519929585457,80.21211738781929
2024-09-23 14:08:32.656106,41.97,26.758899,-0.003233425524256645,-0.022982261414192504,0.09630662707135339,36.09446859390736,-100.26678939585686,84.22370748782159
2024-09-23 14:08:32.698451,41.97,26.758899,-0.0030841997366068195,-0.023230986250042305,0.09630662707135339,36.09446859390736,-100.26678939585686,84.22370748782159
2024-09-23 14:08:32.710039,41.97,26.758899,-0.0030841997366068195,-0.023230986250042305,0.09670458680871308,32.08287849390507,-96.25519929585457,84.22370748782159
2024-09-23 14:08:32.752777,41.97,26.758949,-0.0035816467500972456,-0.023280723622328886,0.09755024973162574,40.106058693909645,-96.25519929585457,84.22370748782159
2024-09-23 14:08:32.795326,41.97,26.758949,-0.0035816467500972456,-0.023280723622328886,0.09755024973162574,40.106058693909645,-96.25519929585457,84.22370748782159
2024-09-23 14:08:32.806322,41.97,26.759,-0.003233425524256645,-0.02303200030545576,0.09725178296655933,40.106058693909645,-96.25519929585457,76.200527287817
2024-09-23 14:08:32.849661,41.97,26.759051,-0.0032831742888682963,-0.02303200030545576,0.09725178296655933,28.07457030097246,-104.27510100388527,80.21211738781929
2024-09-23 14:08:32.861943,41.97,26.759051,-0.0032831742888682963,-0.02308174982955575,0.09725178296655933,28.07457030097246,-104.27510100388527,80.21211738781929
2024-09-23 14:08:32.896144,41.97,26.759051,-0.0032831742888682963,-0.02308174982955575,0.0973015264147526,24.06297849342227,-96.25519929585457,80.21211738781929
2024-09-23 14:08:32.907968,41.97,26.759142,-0.0035318979854855937,-0.02308174982955575,0.0973015264147526,24.06297849342227,-96.25519929585457,84.22370748782159
2024-09-23 14:08:32.939620,41.97,26.759142,-0.0035318979854855937,-0.023479709566915436,0.0973015264147526,24.06297849342227,-96.25519929585457,84.22370748782159
2024-09-23 14:08:32.950936,41.97,26.759192,-0.0035318979854855937,-0.023479709566915436,0.09705279702197278,36.09446859390736,-104.27510100388527,80.21211738781929
2024-09-23 14:08:32.993615,41.97,26.759192,-0.003780631555451287,-0.023280723622328886,0.09774922960030558,28.07457030097246,-104.27510100388527,80.21211738781929
2024-09-23 14:08:33.005604,41.97,26.759192,-0.003780631555451287,-0.023280723622328886,0.09774922960030558,28.07457030097246,-100.26678939585686,76.200527287817
2024-09-23 14:08:33.037370,41.97,26.759286,-0.003780631555451287,-0.023280723622328886,0.09774922960030558,28.07457030097246,-100.26678939585686,76.200527287817
2024-09-23 14:08:33.049415,41.97,26.759286,-0.0031836870127375577,-0.02313149783467906,0.09695331012558621,32.08287849390507,-100.26678939585686,76.200527287817
2024-09-23 14:08:33.092173,41.97,26.759338,-0.003233425524256645,-0.023579196463302005,0.09695331012558621,32.08287849390507,-100.26678939585686,80.21211738781929
2024-09-23 14:08:33.105065,41.97,26.759338,-0.003233425524256645,-0.023579196463302005,0.09690356060148622,36.09446859390736,-100.26678939585686,80.21211738781929
2024-09-23 14:08:33.138234,41.97,26.759388,-0.003233425524256645,-0.023579196463302005,0.09690356060148622,36.09446859390736,-92.24360919585227,80.21211738781929
2024-09-23 14:08:33.190886,41.97,26.759388,-0.003382661564999035,-0.02313149783467906,0.0973015264147526,36.09446859390736,-96.25519929585457,80.21211738781929
2024-09-23 14:08:33.202687,41.97,26.759388,-0.003382661564999035,-0.02313149783467906,0.0973015264147526,36.09446859390736,-96.25519929585457,76.200527287817
2024-09-23 14:08:33.237059,41.97,26.759439,-0.0034324103296106863,-0.02313149783467906,0.0973015264147526,36.09446859390736,-96.25519929585457,76.200527287817
2024-09-23 14:08:33.248481,41.97,26.759439,-0.0034324103296106863,-0.02313149783467906,0.09740101331113918,40.106058693909645,-92.24360919585227,76.200527287817
2024-09-23 14:08:33.280980,41.97,26.759439,-0.0034324103296106863,-0.02313149783467906,0.09740101331113918,40.106058693909645,-92.24360919585227,80.21211738781929
2024-09-23 14:08:33.292282,41.97,26.75949,-0.0034324103296106863,-0.022733528983459317,0.09720203344245934,36.09446859390736,-92.24360919585227,80.21211738781929
2024-09-23 14:08:33.335058,41.97,26.759578,-0.003382661564999035,-0.022733528983459317,0.09720203344245934,36.09446859390736,-96.25519929585457,80.21211738781929
2024-09-23 14:08:33.346449,41.97,26.759578,-0.003382661564999035,-0.023330473146428877,0.09705279702197278,36.09446859390736,-96.25519929585457,80.21211738781929
2024-09-23 14:08:33.379872,41.97,26.759578,-0.003382661564999035,-0.023330473146428877,0.09705279702197278,36.09446859390736,-92.24360919585227,80.21211738781929
2024-09-23 14:08:33.392469,41.97,26.75963,-0.003780631555451287,-0.023479709566915436,0.09705279702197278,36.09446859390736,-92.24360919585227,84.22370748782159
2024-09-23 14:08:33.434958,41.97,26.75968,-0.003382661564999035,-0.023479709566915436,0.09755024973162574,36.09446859390736,-104.27510100388527,76.200527287817
2024-09-23 14:08:33.477180,41.97,26.75968,-0.003382661564999035,-0.02303200030545576,0.09680407370509965,36.09446859390736,-104.27510100388527,76.200527287817
2024-09-23 14:08:33.488933,41.97,26.759773,-0.003382661564999035,-0.02303200030545576,0.09680407370509965,36.09446859390736,-92.24360919585227,84.22370748782159
2024-09-23 14:08:33.531940,41.97,26.759773,-0.0027359787006383035,-0.023230986250042305,0.09725178296655933,32.08287849390507,-96.25519929585457,76.200527287817
2024-09-23 14:08:33.574578,41.97,26.759825,-0.0027359787006383035,-0.023230986250042305,0.09725178296655933,32.08287849390507,-96.25519929585457,76.200527287817
2024-09-23 14:08:33.586475,41.97,26.759825,-0.0033329230534799477,-0.02338022115155219,0.09710254654607277,32.08287849390507,-100.26678939585686,76.200527287817
2024-09-23 14:08:33.629216,41.97,26.759875,-0.0038303700669703737,-0.023181236725942318,0.0970030596496862,32.08287849390507,-100.26678939585686,76.200527287817
2024-09-23 14:08:33.641444,41.97,26.759875,-0.0038303700669703737,-0.023181236725942318,0.0970030596496862,32.08287849390507,-100.26678939585686,76.200527287817
2024-09-23 14:08:33.673878,42.02,26.759926,-0.0038303700669703737,-0.023181236725942318,0.0970030596496862,32.08287849390507,-92.24360919585227,80.21211738781929
2024-09-23 14:08:33.684913,42.02,26.759926,-0.0036811340262279837,-0.02313149783467906,0.09675432418099966,32.08287849390507,-92.24360919585227,80.21211738781929
2024-09-23 14:08:33.768169,42.02,26.759926,-0.0036811340262279837,-0.02313149783467906,0.09675432418099966,32.08287849390507,-92.24360919585227,80.21211738781929
2024-09-23 14:08:33.780367,42.02,26.759977,-0.0029349636958644295,-0.023579196463302005,0.09675432418099966,32.08287849390507,-100.26678939585686,84.22370748782159
2024-09-23 14:08:33.822576,42.02,26.759977,-0.0029349636958644295,-0.023579196463302005,0.09685382322919964,28.07457030097246,-100.26678939585686,80.21211738781929
2024-09-23 14:08:33.833593,42.02,26.760028,-0.003780631555451287,-0.023579196463302005,0.09685382322919964,28.07457030097246,-100.26678939585686,80.21211738781929
2024-09-23 14:08:33.866651,42.02,26.760028,-0.003780631555451287,-0.022982261414192504,0.09685382322919964,28.07457030097246,-100.26678939585686,80.21211738781929
2024-09-23 14:08:33.878167,42.02,26.760114,-0.003780631555451287,-0.022982261414192504,0.09710254654607277,48.12595698684454,-96.25519929585457,84.22370748782159
2024-09-23 14:08:33.922346,42.02,26.760114,-0.0029847020175114316,-0.023778180888911878,0.09720203344245934,40.106058693909645,-96.25519929585457,84.22370748782159
2024-09-23 14:08:33.934212,42.02,26.760114,-0.0029847020175114316,-0.023778180888911878,0.09720203344245934,40.106058693909645,-96.25519929585457,80.21211738781929
2024-09-23 14:08:33.967145,42.02,26.760166,-0.0029349636958644295,-0.023330473146428877,0.09720203344245934,40.106058693909645,-96.25519929585457,80.21211738781929
2024-09-23 14:08:33.978956,42.02,26.760166,-0.0029349636958644295,-0.023330473146428877,0.09764974270391902,40.106058693909645,-92.24360919585227,80.21211738781929
2024-09-23 14:08:34.022504,42.02,26.760262,-0.0033329230534799477,-0.023181236725942318,0.0976994861521123,40.106058693909645,-92.24360919585227,72.1922225099802
2024-09-23 14:08:34.065978,42.02,26.760313,-0.003382661564999035,-0.023181236725942318,0.0976994861521123,40.106058693909645,-108.28669110388756,72.1922225099802
2024-09-23 14:08:34.077119,42.02,26.760313,-0.003382661564999035,-0.02293251340906919,0.09725178296655933,40.106058693909645,-108.28669110388756,72.1922225099802
2024-09-23 14:08:34.109294,42.02,26.760313,-0.003382661564999035,-0.02293251340906919,0.09725178296655933,36.09446859390736,-108.28669110388756,72.1922225099802
2024-09-23 14:08:34.121061,42.02,26.760363,-0.0032831742888682963,-0.022484804147609512,0.09725178296655933,36.09446859390736,-108.28669110388756,76.200527287817
2024-09-23 14:08:34.163722,42.02,26.760363,-0.0032831742888682963,-0.022484804147609512,0.09745075675933246,28.07457030097246,-100.26678939585686,76.200527287817
2024-09-23 14:08:34.216112,42.02,26.760414,-0.0033329230534799477,-0.02303200030545576,0.0970030596496862,32.08287849390507,-100.26678939585686,80.21211738781929
2024-09-23 14:08:34.259547,42.02,26.760504,-0.0033329230534799477,-0.02303200030545576,0.0970030596496862,32.08287849390507,-100.26678939585686,76.200527287817
2024-09-23 14:08:34.270904,42.02,26.760504,-0.0033329230534799477,-0.02268379009219606,0.09695331012558621,32.08287849390507,-100.26678939585686,76.200527287817
2024-09-23 14:08:34.313900,42.02,26.760556,-0.0034324103296106863,-0.02293251340906919,0.09695331012558621,32.08287849390507,-104.27510100388527,76.200527287817
2024-09-23 14:08:34.357270,42.02,26.760556,-0.0034324103296106863,-0.02293251340906919,0.09720203344245934,32.08287849390507,-96.25519929585457,76.200527287817
2024-09-23 14:08:34.368586,42.02,26.760607,-0.003382661564999035,-0.02293251340906919,0.09720203344245934,32.08287849390507,-96.25519929585457,80.21211738781929
2024-09-23 14:08:34.411963,42.02,26.760658,-0.003382661564999035,-0.023280723622328886,0.09725178296655933,36.09446859390736,-100.26678939585686,84.22370748782159
2024-09-23 14:08:34.454862,42.02,26.760658,-0.002636491424507565,-0.02338022115155219,0.0976994861521123,36.09446859390736,-100.26678939585686,84.22370748782159
2024-09-23 14:08:34.466178,42.02,26.760658,-0.002636491424507565,-0.02338022115155219,0.0976994861521123,36.09446859390736,-100.26678939585686,84.22370748782159
2024-09-23 14:08:34.508925,42.02,26.760749,-0.0028354659767690416,-0.023181236725942318,0.09665483728461309,36.09446859390736,-92.24360919585227,84.22370748782159
2024-09-23 14:08:34.603147,42.02,26.7608,-0.0036811340262279837,-0.023778180888911878,0.09665483728461309,36.09446859390736,-92.24360919585227,80.21211738781929
2024-09-23 14:08:34.617957,42.02,26.7608,-0.0036811340262279837,-0.023778180888911878,0.09710254654607277,36.09446859390736,-92.24360919585227,80.21211738781929
2024-09-23 14:08:34.651425,42.02,26.760851,-0.0032831742888682963,-0.023778180888911878,0.09710254654607277,36.09446859390736,-100.26678939585686,80.21211738781929
2024-09-23 14:08:34.663336,42.02,26.760851,-0.0032831742888682963,-0.02313149783467906,0.0973512698629459,36.09446859390736,-100.26678939585686,80.21211738781929
2024-09-23 14:08:34.695911,41.91,26.760851,-0.0032831742888682963,-0.02313149783467906,0.0973512698629459,28.07457030097246,-104.27510100388527,80.21211738781929
2024-09-23 14:08:34.707370,41.91,26.760902,-0.0036811340262279837,-0.02367869399252531,0.0973512698629459,28.07457030097246,-104.27510100388527,80.21211738781929
2024-09-23 14:08:34.749898,41.91,26.760902,-0.0036811340262279837,-0.02367869399252531,0.09710254654607277,28.07457030097246,-104.27510100388527,80.21211738781929
2024-09-23 14:08:34.792797,41.91,26.760902,-0.0036811340262279837,-0.02367869399252531,0.09710254654607277,28.07457030097246,-104.27510100388527,80.21211738781929
2024-09-23 14:08:34.804638,41.91,26.760952,-0.003382661564999035,-0.023280723622328886,0.09710254654607277,28.07457030097246,-104.27510100388527,84.22370748782159
2024-09-23 14:08:34.847862,41.91,26.761041,-0.003382661564999035,-0.023280723622328886,0.09710254654607277,36.09446859390736,-92.24360919585227,72.1922225099802
2024-09-23 14:08:34.860020,41.91,26.761041,-0.0034324103296106863,-0.023280723622328886,0.09710254654607277,36.09446859390736,-92.24360919585227,72.1922225099802
2024-09-23 14:08:34.892923,41.91,26.761041,-0.0034324103296106863,-0.022484804147609512,0.09685382322919964,32.08287849390507,-92.24360919585227,72.1922225099802
2024-09-23 14:08:34.904444,41.91,26.761139,-0.0034324103296106863,-0.022484804147609512,0.09685382322919964,32.08287849390507,-104.27510100388527,80.21211738781929
2024-09-23 14:08:34.946350,41.91,26.761139,-0.0029847020175114316,-0.022982261414192504,0.09745075675933246,32.08287849390507,-96.25519929585457,80.21211738781929
2024-09-23 14:08:34.989761,41.91,26.76119,-0.003631395514708897,-0.022982261414192504,0.09745075675933246,32.08287849390507,-96.25519929585457,80.21211738781929
2024-09-23 14:08:35.001941,41.91,26.76119,-0.003631395514708897,-0.02367869399252531,0.09685382322919964,36.09446859390736,-96.25519929585457,80.21211738781929
2024-09-23 14:08:35.045770,41.91,26.761285,-0.003482159473966507,-0.02293251340906919,0.09665483728461309,32.08287849390507,-96.25519929585457,80.21211738781929
2024-09-23 14:08:35.088410,41.91,26.761285,-0.003482159473966507,-0.02293251340906919,0.09665483728461309,32.08287849390507,-104.27510100388527,84.22370748782159
2024-09-23 14:08:35.142090,41.91,26.761337,-0.0029847020175114316,-0.023728432883788564,0.0962568775472534,36.09446859390736,-104.27510100388527,84.22370748782159
2024-09-23 14:08:35.185873,41.91,26.761387,-0.003979606107712764,-0.023728432883788564,0.0962568775472534,36.09446859390736,-104.27510100388527,84.22370748782159
2024-09-23 14:08:35.197394,41.91,26.761387,-0.003979606107712764,-0.02338022115155219,0.09675432418099966,32.08287849390507,-104.27510100388527,84.22370748782159
2024-09-23 14:08:35.239818,41.91,26.761438,-0.0029847020175114316,-0.023230986250042305,0.0973015264147526,32.08287849390507,-96.25519929585457,80.21211738781929
2024-09-23 14:08:35.282385,41.91,26.761438,-0.0029847020175114316,-0.023230986250042305,0.0973015264147526,32.08287849390507,-96.25519929585457,80.21211738781929
2024-09-23 14:08:35.336904,41.91,26.761528,-0.0030841997366068195,-0.02313149783467906,0.0973015264147526,32.08287849390507,-96.25519929585457,76.200527287817
2024-09-23 14:08:35.379378,41.91,26.761528,-0.0030841997366068195,-0.02313149783467906,0.09740101331113918,36.09446859390736,-96.25519929585457,76.200527287817
2024-09-23 14:08:35.390421,41.91,26.761579,-0.003482159473966507,-0.02313149783467906,0.09740101331113918,36.09446859390736,-96.25519929585457,80.21211738781929
2024-09-23 14:08:35.434316,41.91,26.761579,-0.003482159473966507,-0.02303200030545576,0.09725178296655933,40.106058693909645,-100.26678939585686,76.200527287817
2024-09-23 14:08:35.445794,41.91,26.761674,-0.003482159473966507,-0.02303200030545576,0.09725178296655933,40.106058693909645,-100.26678939585686,76.200527287817
2024-09-23 14:08:35.478302,41.91,26.761674,-0.0034324103296106863,-0.023280723622328886,0.09715228999426605,40.106058693909645,-100.26678939585686,76.200527287817
2024-09-23 14:08:35.489772,41.91,26.761674,-0.0034324103296106863,-0.023280723622328886,0.09715228999426605,40.106058693909645,-96.25519929585457,80.21211738781929
2024-09-23 14:08:35.532383,41.91,26.761726,-0.003233425524256645,-0.023579196463302005,0.0970030596496862,32.08287849390507,-100.26678939585686,80.21211738781929
2024-09-23 14:08:35.575489,41.91,26.761821,-0.003233425524256645,-0.023579196463302005,0.0970030596496862,32.08287849390507,-100.26678939585686,80.21211738781929
2024-09-23 14:08:35.587545,41.91,26.761821,-0.0035816467500972456,-0.023280723622328886,0.09680407370509965,28.07457030097246,-100.26678939585686,80.21211738781929
2024-09-23 14:08:35.630048,41.91,26.761873,-0.003631395514708897,-0.02303200030545576,0.09710254654607277,28.07457030097246,-100.26678939585686,84.22370748782159
2024-09-23 14:08:35.673182,41.91,26.761873,-0.003631395514708897,-0.02303200030545576,0.09710254654607277,36.09446859390736,-92.24360919585227,80.21211738781929
2024-09-23 14:08:35.684493,41.91,26.761923,-0.0033329230534799477,-0.023181236725942318,0.09710254654607277,36.09446859390736,-92.24360919585227,80.21211738781929
2024-09-23 14:08:35.727416,41.91,26.761974,-0.0029847020175114316,-0.023181236725942318,0.09725178296655933,44.11764879391193,-104.27510100388527,76.200527287817
2024-09-23 14:08:35.769250,41.91,26.761974,-0.0029847020175114316,-0.023230986250042305,0.09675432418099966,44.11764879391193,-104.27510100388527,76.200527287817
2024-09-23 14:08:35.780534,41.91,26.762064,-0.0029847020175114316,-0.023230986250042305,0.09675432418099966,32.08287849390507,-100.26678939585686,76.200527287817
2024-09-23 14:08:35.824356,41.91,26.762064,-0.0037308827908396356,-0.023280723622328886,0.0976994861521123,36.09446859390736,-100.26678939585686,76.200527287817
2024-09-23 14:08:35.836377,41.91,26.762064,-0.0037308827908396356,-0.023280723622328886,0.0976994861521123,36.09446859390736,-100.26678939585686,80.21211738781929
2024-09-23 14:08:35.868350,41.91,26.762116,-0.0029847020175114316,-0.023230986250042305,0.0976994861521123,36.09446859390736,-100.26678939585686,80.21211738781929
2024-09-23 14:08:35.880028,41.91,26.762116,-0.0029847020175114316,-0.023230986250042305,0.09720203344245934,40.106058693909645,-100.26678939585686,80.21211738781929
2024-09-23 14:08:35.924387,41.91,26.762167,-0.0037308827908396356,-0.02293251340906919,0.09725178296655933,36.09446859390736,-100.26678939585686,80.21211738781929
2024-09-23 14:08:35.966869,41.91,26.762217,-0.0029349636958644295,-0.02293251340906919,0.09725178296655933,36.09446859390736,-100.26678939585686,80.21211738781929
2024-09-23 14:08:35.978453,41.91,26.762217,-0.0029349636958644295,-0.022982261414192504,0.09720203344245934,36.09446859390736,-100.26678939585686,80.21211738781929
2024-09-23 14:08:36.010758,41.91,26.762217,-0.0029349636958644295,-0.022982261414192504,0.09720203344245934,32.08287849390507,-100.26678939585686,80.21211738781929
2024-09-23 14:08:36.022641,41.91,26.762268,-0.003233425524256645,-0.02303200030545576,0.09720203344245934,32.08287849390507,-104.27510100388527,80.21211738781929
2024-09-23 14:08:36.064836,41.91,26.762268,-0.003233425524256645,-0.02303200030545576,0.09695331012558621,40.106058693909645,-100.26678939585686,84.22370748782159
2024-09-23 14:08:36.076960,41.91,26.762319,-0.003929857343101113,-0.02303200030545576,0.09695331012558621,40.106058693909645,-100.26678939585686,84.22370748782159
2024-09-23 14:08:36.110146,41.91,26.762319,-0.003929857343101113,-0.023181236725942318,0.09675432418099966,40.106058693909645,-100.26678939585686,84.22370748782159
2024-09-23 14:08:36.121735,41.91,26.762319,-0.003929857343101113,-0.023181236725942318,0.09675432418099966,36.09446859390736,-100.26678939585686,80.21211738781929
2024-09-23 14:08:36.164179,41.91,26.762406,-0.0031339382481259063,-0.023429960042815445,0.09750050628343246,32.08287849390507,-100.26678939585686,80.21211738781929
2024-09-23 14:08:36.176249,41.91,26.762406,-0.0031339382481259063,-0.023429960042815445,0.09750050628343246,32.08287849390507,-100.26678939585686,80.21211738781929
2024-09-23 14:08:36.210015,41.91,26.762457,-0.0035318979854855937,-0.023429960042815445,0.09750050628343246,32.08287849390507,-100.26678939585686,80.21211738781929
2024-09-23 14:08:36.221657,41.91,26.762457,-0.0035318979854855937,-0.02293251340906919,0.0970030596496862,36.09446859390736,-100.26678939585686,80.21211738781929
2024-09-23 14:08:36.264581,41.91,26.762508,-0.0035816467500972456,-0.023181236725942318,0.09685382322919964,36.09446859390736,-92.24360919585227,84.22370748782159
2024-09-23 14:08:36.306381,41.91,26.762508,-0.0035816467500972456,-0.023181236725942318,0.09685382322919964,32.08287849390507,-92.24360919585227,80.21211738781929
2024-09-23 14:08:36.317965,41.91,26.762559,-0.003382661564999035,-0.02338022115155219,0.09685382322919964,32.08287849390507,-92.24360919585227,80.21211738781929
2024-09-23 14:08:36.361064,41.91,26.76261,-0.0032831742888682963,-0.02338022115155219,0.09685382322919964,32.08287849390507,-96.25519929585457,80.21211738781929
2024-09-23 14:08:36.403545,41.91,26.76261,-0.0032831742888682963,-0.02338022115155219,0.09685382322919964,32.08287849390507,-96.25519929585457,80.21211738781929
2024-09-23 14:08:36.456134,41.91,26.762698,-0.0032831742888682963,-0.02338022115155219,0.09690356060148622,40.106058693909645,-100.26678939585686,76.200527287817
2024-09-23 14:08:36.468191,41.91,26.762698,-0.0032831742888682963,-0.02338022115155219,0.09690356060148622,40.106058693909645,-100.26678939585686,76.200527287817
2024-09-23 14:08:36.500031,41.91,26.762698,-0.0032831742888682963,-0.02303200030545576,0.0973512698629459,40.106058693909645,-100.26678939585686,76.200527287817
2024-09-23 14:08:36.511669,41.91,26.76275,-0.0032831742888682963,-0.02303200030545576,0.0973512698629459,28.07457030097246,-100.26678939585686,84.22370748782159
2024-09-23 14:08:36.554416,41.91,26.76275,-0.002636491424507565,-0.02278327698858263,0.09670458680871308,32.08287849390507,-100.26678939585686,84.22370748782159
2024-09-23 14:08:36.566115,41.91,26.76275,-0.002636491424507565,-0.02278327698858263,0.09670458680871308,32.08287849390507,-100.26678939585686,80.21211738781929
2024-09-23 14:08:36.599576,41.91,26.7628,-0.0033329230534799477,-0.023181236725942318,0.09670458680871308,32.08287849390507,-100.26678939585686,80.21211738781929
2024-09-23 14:08:36.611145,41.91,26.7628,-0.0033329230534799477,-0.023181236725942318,0.09740101331113918,44.11764879391193,-100.26678939585686,80.21211738781929
2024-09-23 14:08:36.653549,41.91,26.762851,-0.0034324103296106863,-0.022833026512682618,0.09755024973162574,32.08287849390507,-100.26678939585686,84.22370748782159
2024-09-23 14:08:36.696148,41.91,26.762944,-0.0034324103296106863,-0.022833026512682618,0.09755024973162574,32.08287849390507,-92.24360919585227,84.22370748782159
2024-09-23 14:08:36.707962,41.91,26.762944,-0.0033329230534799477,-0.02303200030545576,0.09755024973162574,32.08287849390507,-92.24360919585227,84.22370748782159
2024-09-23 14:08:36.751180,41.9,26.762994,-0.003780631555451287,-0.02303200030545576,0.09685382322919964,32.08287849390507,-108.28669110388756,80.21211738781929
2024-09-23 14:08:36.794323,41.9,26.762994,-0.003780631555451287,-0.022982261414192504,0.09665483728461309,36.09446859390736,-108.28669110388756,80.21211738781929
2024-09-23 14:08:36.806116,41.9,26.763045,-0.003780631555451287,-0.022982261414192504,0.09665483728461309,36.09446859390736,-100.26678939585686,76.200527287817
2024-09-23 14:08:36.849843,41.9,26.763045,-0.0033329230534799477,-0.023181236725942318,0.09705279702197278,32.08287849390507,-100.26678939585686,84.22370748782159
2024-09-23 14:08:36.943015,41.9,26.763137,-0.0037308827908396356,-0.023181236725942318,0.09705279702197278,32.08287849390507,-100.26678939585686,84.22370748782159
2024-09-23 14:08:36.986277,41.9,26.763137,-0.0037308827908396356,-0.02397715620066169,0.09705279702197278,32.08287849390507,-100.26678939585686,84.22370748782159
2024-09-23 14:08:36.997947,41.9,26.763188,-0.0037308827908396356,-0.02397715620066169,0.09740101331113918,28.07457030097246,-100.26678939585686,80.21211738781929
2024-09-23 14:08:37.039883,41.9,26.763188,-0.0031836870127375577,-0.023429960042815445,0.09710254654607277,32.08287849390507,-100.26678939585686,80.21211738781929
2024-09-23 14:08:37.050909,41.9,26.763188,-0.0031836870127375577,-0.023429960042815445,0.09710254654607277,32.08287849390507,-96.25519929585457,80.21211738781929
2024-09-23 14:08:37.084850,41.9,26.763239,-0.0031836870127375577,-0.023429960042815445,0.09710254654607277,32.08287849390507,-96.25519929585457,80.21211738781929
2024-09-23 14:08:37.096726,41.9,26.763239,-0.003233425524256645,-0.02293251340906919,0.09690356060148622,28.07457030097246,-96.25519929585457,80.21211738781929
2024-09-23 14:08:37.139459,41.9,26.76329,-0.0034324103296106863,-0.02293251340906919,0.09705279702197278,28.07457030097246,-96.25519929585457,84.22370748782159
2024-09-23 14:08:37.182847,41.9,26.76329,-0.0034324103296106863,-0.02293251340906919,0.09705279702197278,36.09446859390736,-88.23529758782387,84.22370748782159
2024-09-23 14:08:37.194143,41.9,26.763341,-0.003482159473966507,-0.02367869399252531,0.09705279702197278,36.09446859390736,-88.23529758782387,80.21211738781929
2024-09-23 14:08:37.236499,41.9,26.76348,-0.003482159473966507,-0.02367869399252531,0.09715228999426605,32.08287849390507,-100.26678939585686,76.200527287817
2024-09-23 14:08:37.248362,41.9,26.76348,-0.0032831742888682963,-0.02367869399252531,0.09715228999426605,32.08287849390507,-100.26678939585686,76.200527287817
2024-09-23 14:08:37.280783,41.9,26.76348,-0.0032831742888682963,-0.02362894446842532,0.09740101331113918,32.08287849390507,-100.26678939585686,76.200527287817
2024-09-23 14:08:37.292047,41.9,26.763531,-0.0032831742888682963,-0.02362894446842532,0.09740101331113918,32.08287849390507,-100.26678939585686,80.21211738781929
2024-09-23 14:08:37.335452,41.9,26.763531,-0.003631395514708897,-0.022982261414192504,0.09695331012558621,36.09446859390736,-96.25519929585457,76.200527287817
2024-09-23 14:08:37.377780,41.9,26.763624,-0.0034324103296106863,-0.022982261414192504,0.09695331012558621,36.09446859390736,-96.25519929585457,76.200527287817
2024-09-23 14:08:37.388798,41.9,26.763624,-0.0034324103296106863,-0.02352945757203875,0.09715228999426605,40.106058693909645,-104.27510100388527,76.200527287817
2024-09-23 14:08:37.430723,41.9,26.763677,-0.0032831742888682963,-0.02367869399252531,0.09715228999426605,40.106058693909645,-104.27510100388527,72.1922225099802
2024-09-23 14:08:37.442095,41.9,26.763677,-0.0032831742888682963,-0.02367869399252531,0.09740101331113918,44.11764879391193,-104.27510100388527,72.1922225099802
2024-09-23 14:08:37.474120,41.9,26.763677,-0.0032831742888682963,-0.02367869399252531,0.09740101331113918,44.11764879391193,-104.27510100388527,72.1922225099802
2024-09-23 14:08:37.485749,41.9,26.763727,-0.0034324103296106863,-0.02352945757203875,0.09725178296655933,44.11764879391193,-104.27510100388527,76.200527287817
2024-09-23 14:08:37.527902,41.9,26.763778,-0.0034324103296106863,-0.02352945757203875,0.09725178296655933,44.11764879391193,-104.27510100388527,80.21211738781929
2024-09-23 14:08:37.539330,41.9,26.763778,-0.0036811340262279837,-0.02293251340906919,0.09725178296655933,44.11764879391193,-104.27510100388527,80.21211738781929
2024-09-23 14:08:37.573177,41.9,26.763778,-0.0036811340262279837,-0.02293251340906919,0.09755024973162574,36.09446859390736,-104.27510100388527,80.21211738781929
2024-09-23 14:08:37.585032,41.9,26.763829,-0.0034324103296106863,-0.02293251340906919,0.09755024973162574,36.09446859390736,-100.26678939585686,76.200527287817
2024-09-23 14:08:37.628379,41.9,26.763917,-0.0034324103296106863,-0.022982261414192504,0.09655535038822652,32.08287849390507,-100.26678939585686,80.21211738781929
2024-09-23 14:08:37.671928,41.9,26.763917,-0.0034324103296106863,-0.023280723622328886,0.09720203344245934,32.08287849390507,-100.26678939585686,80.21211738781929
2024-09-23 14:08:37.683176,41.9,26.763917,-0.0034324103296106863,-0.023280723622328886,0.09720203344245934,44.11764879391193,-100.26678939585686,84.22370748782159
2024-09-23 14:08:37.726325,41.9,26.763968,-0.003382661564999035,-0.02313149783467906,0.09705279702197278,36.09446859390736,-96.25519929585457,84.22370748782159
2024-09-23 14:08:37.769156,41.24,26.764019,-0.0028852147413806935,-0.02313149783467906,0.09705279702197278,36.09446859390736,-96.25519929585457,84.22370748782159
2024-09-23 14:08:37.780816,41.24,26.764019,-0.0028852147413806935,-0.023230986250042305,0.09680407370509965,36.09446859390736,-96.25519929585457,84.22370748782159
2024-09-23 14:08:37.823754,41.24,26.76407,-0.0031836870127375577,-0.02303200030545576,0.09774922960030558,36.09446859390736,-92.24360919585227,80.21211738781929
2024-09-23 14:08:37.866298,41.24,26.76407,-0.0031836870127375577,-0.02303200030545576,0.09774922960030558,44.11764879391193,-100.26678939585686,76.200527287817
2024-09-23 14:08:37.877433,41.24,26.76412,-0.003382661564999035,-0.023181236725942318,0.09774922960030558,44.11764879391193,-100.26678939585686,76.200527287817
2024-09-23 14:08:37.919994,41.24,26.764171,-0.003382661564999035,-0.023181236725942318,0.09680407370509965,40.106058693909645,-100.26678939585686,84.22370748782159
2024-09-23 14:08:37.964401,41.24,26.764171,-0.003382661564999035,-0.023230986250042305,0.09675432418099966,36.09446859390736,-100.26678939585686,84.22370748782159
2024-09-23 14:08:37.976220,41.24,26.764171,-0.003382661564999035,-0.023230986250042305,0.09675432418099966,36.09446859390736,-100.26678939585686,84.22370748782159
2024-09-23 14:08:38.018391,41.24,26.764258,-0.003631395514708897,-0.02303200030545576,0.09705279702197278,32.08287849390507,-100.26678939585686,80.21211738781929
2024-09-23 14:08:38.062494,41.24,26.76431,-0.003631395514708897,-0.02303200030545576,0.09705279702197278,32.08287849390507,-96.25519929585457,88.23529758782387
2024-09-23 14:08:38.074407,41.24,26.76431,-0.0030344509719951677,-0.023280723622328886,0.09705279702197278,32.08287849390507,-96.25519929585457,88.23529758782387
2024-09-23 14:08:38.106649,41.24,26.76431,-0.0030344509719951677,-0.023280723622328886,0.09705279702197278,40.106058693909645,-96.25519929585457,88.23529758782387
