Ayaan's Suite
Timestamp,Sample Rate (Hz),Time,Ax,Ay,Az,Gx,Gy,Gz
2024-09-23 06:40:13.213054,0,0.038589,0.0005969341946851222,0.006068901943990335,0.0998385212593973,44.11764879391193,-92.24360919585227,72.1922225099802
2024-09-23 06:40:13.224209,0,0.038589,0.0008954064660419869,0.006566359210573326,0.1001867436244704,40.106058693909645,-92.24360919585227,72.1922225099802
2024-09-23 06:40:13.267975,0,0.004534,0.000845657606494293,0.006616097342348244,0.09988827078349728,40.106058693909645,-92.24360919585227,76.200527287817
2024-09-23 06:40:13.281762,4.99,0.004534,0.000845657606494293,0.006616097342348244,0.09988827078349728,24.06297849342227,-92.24360919585227,76.200527287817
2024-09-23 06:40:13.313968,4.99,0.004534,0.000845657606494293,0.006616097342348244,0.09988827078349728,24.06297849342227,-96.25519929585457,80.21211738781929
2024-09-23 06:40:13.326418,4.99,0.004584,0.0004974468710863627,0.006267886749344378,0.10038572956905695,24.06297849342227,-96.25519929585457,80.21211738781929
2024-09-23 06:40:13.361263,4.99,0.004584,0.0004974468710863627,0.006267886749344378,0.10038572956905695,20.05138839341998,-92.24360919585227,76.200527287817
2024-09-23 06:40:13.373224,4.99,0.004635,0.0006964318663124887,0.006616097342348244,0.10038572956905695,20.05138839341998,-92.24360919585227,76.200527287817
2024-09-23 06:40:13.407874,4.99,0.004635,0.0006964318663124887,0.006616097342348244,0.10043546694134353,20.05138839341998,-92.24360919585227,76.200527287817
2024-09-23 06:40:13.420816,4.99,0.004686,0.0006964318663124887,0.006616097342348244,0.10043546694134353,48.12595698684454,-96.25519929585457,72.1922225099802
2024-09-23 06:40:13.464161,4.99,0.004736,0.0006964318663124887,0.006019163432471249,0.10103241262328977,52.137550501942634,-96.25519929585457,72.1922225099802
2024-09-23 06:40:13.509181,4.99,0.004736,0.0005471957306340564,0.006168399473213639,0.10068419025821666,40.106058693909645,-96.25519929585457,72.1922225099802
2024-09-23 06:40:13.520790,4.99,0.004736,0.0005471957306340564,0.006168399473213639,0.10068419025821666,40.106058693909645,-92.24360919585227,76.200527287817
2024-09-23 06:40:13.553045,4.99,0.004787,0.0005471957306340564,0.006168399473213639,0.10068419025821666,40.106058693909645,-92.24360919585227,76.200527287817
2024-09-23 06:40:13.564520,4.99,0.004787,0.0007959191899112484,0.006367374025475115,0.10028623052085697,40.106058693909645,-100.26678939585686,76.200527287817
2024-09-23 06:40:13.607231,4.99,0.004838,0.0007461703303635545,0.006367374025475115,0.10023649314857039,40.106058693909645,-100.26678939585686,60.15744537978172
2024-09-23 06:40:13.618676,4.99,0.004838,0.0007461703303635545,0.006367374025475115,0.10023649314857039,28.07457030097246,-100.26678939585686,60.15744537978172
2024-09-23 06:40:13.661529,4.99,0.004889,0.0004974468710863627,0.006516610445961675,0.10003750720398384,28.07457030097246,-96.25519929585457,76.200527287817
2024-09-23 06:40:13.704552,4.99,0.00494,0.0004974468710863627,0.006516610445961675,0.10003750720398384,40.106058693909645,-96.25519929585457,76.200527287817
2024-09-23 06:40:13.715819,4.99,0.00494,0.0006964318663124887,0.006317625260863464,0.10003750720398384,40.106058693909645,-96.25519929585457,76.200527287817
2024-09-23 06:40:13.748472,4.99,0.00494,0.0006964318663124887,0.006317625260863464,0.10043546694134353,48.12595698684454,-96.25519929585457,76.200527287817
2024-09-23 06:40:13.760177,4.99,0.00499,0.0005471957306340564,0.006317625260863464,0.10043546694134353,48.12595698684454,-96.25519929585457,72.1922225099802
2024-09-23 06:40:13.802186,4.99,0.00499,0.0005471957306340564,0.006168399473213639,0.10008725672808383,36.09446859390736,-92.24360919585227,72.1922225099802
2024-09-23 06:40:13.813420,4.99,0.005041,0.0005471957306340564,0.006168399473213639,0.10008725672808383,36.09446859390736,-92.24360919585227,72.1922225099802
2024-09-23 06:40:13.845890,4.99,0.005041,0.00029846189959424716,0.006218137984732725,0.10008725672808383,36.09446859390736,-92.24360919585227,72.1922225099802
2024-09-23 06:40:13.857356,4.99,0.005041,0.00029846189959424716,0.006218137984732725,0.10003750720398384,32.08287849390507,-100.26678939585686,72.1922225099802
2024-09-23 06:40:13.898877,4.99,0.005093,0.0006466830067647949,0.006516610445961675,0.10048521646544352,32.08287849390507,-100.26678939585686,72.1922225099802
2024-09-23 06:40:13.910727,4.99,0.005093,0.0006466830067647949,0.006516610445961675,0.10048521646544352,32.08287849390507,-100.26678939585686,72.1922225099802
2024-09-23 06:40:13.943676,4.99,0.005093,0.0006466830067647949,0.006516610445961675,0.10048521646544352,32.08287849390507,-92.24360919585227,72.1922225099802
2024-09-23 06:40:13.954726,4.99,0.005143,0.00044769805900669,0.006168399473213639,0.09968928483891074,32.08287849390507,-92.24360919585227,72.1922225099802
2024-09-23 06:40:13.996805,4.99,0.005194,0.0007461703303635545,0.006267886749344378,0.09968928483891074,52.137550501942634,-96.25519929585457,72.1922225099802
2024-09-23 06:40:14.049580,4.99,0.005245,0.0005471957306340564,0.006267886749344378,0.1001867436244704,52.137550501942634,-92.24360919585227,72.1922225099802
2024-09-23 06:40:14.092703,4.99,0.005245,0.0005471957306340564,0.006765333762834803,0.09988827078349728,32.08287849390507,-96.25519929585457,72.1922225099802
2024-09-23 06:40:14.104749,4.99,0.005296,0.0005471957306340564,0.006765333762834803,0.09988827078349728,32.08287849390507,-96.25519929585457,76.200527287817
2024-09-23 06:40:14.146559,4.99,0.005296,0.0012436275969465451,0.006417122790086768,0.10003750720398384,32.08287849390507,-96.25519929585457,68.18063240997792
2024-09-23 06:40:14.187924,4.99,0.005346,0.0004974468710863627,0.006317625260863464,0.10003750720398384,32.08287849390507,-96.25519929585457,68.18063240997792
2024-09-23 06:40:14.200270,4.99,0.005346,0.0004974468710863627,0.006317625260863464,0.10033598004495696,40.106058693909645,-92.24360919585227,68.18063240997792
2024-09-23 06:40:14.241867,4.99,0.005397,0.0006964318663124887,0.006317625260863464,0.10033598004495696,40.106058693909645,-92.24360919585227,72.1922225099802
2024-09-23 06:40:14.283106,23.97,0.005397,0.0006964318663124887,0.006715595631059885,0.10033598004495696,40.106058693909645,-92.24360919585227,72.1922225099802
2024-09-23 06:40:14.294668,23.97,0.005448,0.0006964318663124887,0.006715595631059885,0.10008725672808383,48.12595698684454,-96.25519929585457,68.18063240997792
2024-09-23 06:40:14.337240,23.97,0.005448,0.000845657606494293,0.006815082527446455,0.10068419025821666,36.09446859390736,-96.25519929585457,68.18063240997792
2024-09-23 06:40:14.348617,23.97,0.005448,0.000845657606494293,0.006815082527446455,0.10068419025821666,36.09446859390736,-96.25519929585457,80.21211738781929
2024-09-23 06:40:14.390289,23.97,0.005498,0.00034821073540793035,0.006019163432471249,0.10048521646544352,36.09446859390736,-96.25519929585457,80.21211738781929
2024-09-23 06:40:14.432043,23.97,0.005549,0.00024872343554318134,0.006019163432471249,0.10048521646544352,36.09446859390736,-96.25519929585457,76.200527287817
2024-09-23 06:40:14.443157,23.97,0.005549,0.00024872343554318134,0.006765333762834803,0.10023649314857039,24.06297849342227,-96.25519929585457,76.200527287817
2024-09-23 06:40:14.484620,23.97,0.005626,0.0006466830067647949,0.006218137984732725,0.09993802030759727,24.06297849342227,-92.24360919585227,72.1922225099802
2024-09-23 06:40:14.537615,23.97,0.005678,9.948729986474904e-05,0.006267886749344378,0.09993802030759727,40.106058693909645,-88.23529758782387,72.1922225099802
2024-09-23 06:40:14.580599,23.97,0.005728,9.948729986474904e-05,0.006267886749344378,0.1001867436244704,48.12595698684454,-96.25519929585457,72.1922225099802
2024-09-23 06:40:14.592561,23.97,0.005728,0.0004974468710863627,0.006267886749344378,0.1001867436244704,48.12595698684454,-96.25519929585457,72.1922225099802
2024-09-23 06:40:14.634982,23.97,0.005821,0.0004974468710863627,0.0069145701833213625,0.09968928483891074,48.12595698684454,-84.22370748782159,72.1922225099802
2024-09-23 06:40:14.727710,23.97,0.005821,0.0004974468710863627,0.006466861681350023,0.09968928483891074,48.12595698684454,-84.22370748782159,72.1922225099802
2024-09-23 06:40:14.780470,23.97,0.005821,0.0004974468710863627,0.006466861681350023,0.10023649314857039,48.12595698684454,-84.22370748782159,72.1922225099802
2024-09-23 06:40:14.822339,23.97,0.005821,0.0004974468710863627,0.006466861681350023,0.10023649314857039,36.09446859390736,-84.22370748782159,76.200527287817
2024-09-23 06:40:14.833617,23.97,0.005873,0.0007461703303635545,0.006218137984732725,0.10023649314857039,36.09446859390736,-84.22370748782159,76.200527287817
2024-09-23 06:40:14.875464,23.97,0.005923,0.0005471957306340564,0.006218137984732725,0.10038572956905695,44.11764879391193,-92.24360919585227,72.1922225099802
2024-09-23 06:40:14.918662,23.97,0.005923,0.0005471957306340564,0.005969414667859598,0.10008725672808383,44.11764879391193,-92.24360919585227,72.1922225099802
2024-09-23 06:40:14.929699,23.97,0.005974,0.0005471957306340564,0.005969414667859598,0.10008725672808383,44.11764879391193,-88.23529758782387,72.1922225099802
2024-09-23 06:40:14.971966,23.97,0.005974,0.0005471957306340564,0.006168399473213639,0.09968928483891074,36.09446859390736,-92.24360919585227,76.200527287817
2024-09-23 06:40:15.014283,23.97,0.006025,0.0005471957306340564,0.006168399473213639,0.09968928483891074,36.09446859390736,-92.24360919585227,76.200527287817
2024-09-23 06:40:15.025421,23.97,0.006025,0.0006964318663124887,0.006516610445961675,0.10028623052085697,60.15744537978172,-88.23529758782387,76.200527287817
2024-09-23 06:40:15.067656,23.97,0.006212,0.0003979595949556242,0.006665846106959895,0.10028623052085697,60.15744537978172,-88.23529758782387,76.200527287817
2024-09-23 06:40:15.079761,23.97,0.006212,0.0003979595949556242,0.006665846106959895,0.10038572956905695,44.11764879391193,-88.23529758782387,76.200527287817
2024-09-23 06:40:15.122630,23.97,0.006263,0.0005969341946851222,0.006168399473213639,0.10048521646544352,44.11764879391193,-88.23529758782387,68.18063240997792
2024-09-23 06:40:15.164589,23.97,0.006263,0.0005969341946851222,0.006168399473213639,0.10048521646544352,32.08287849390507,-96.25519929585457,76.200527287817
2024-09-23 06:40:15.175752,23.97,0.006314,0.0006466830067647949,0.005770429482761387,0.10048521646544352,32.08287849390507,-96.25519929585457,76.200527287817
2024-09-23 06:40:15.217791,23.97,0.006365,0.0005471957306340564,0.005770429482761387,0.1001867436244704,32.08287849390507,-92.24360919585227,72.1922225099802
2024-09-23 06:40:15.260234,23.97,0.006365,0.0005471957306340564,0.006367374025475115,0.10023649314857039,32.08287849390507,-92.24360919585227,72.1922225099802
2024-09-23 06:40:15.271192,23.97,0.006455,0.0005471957306340564,0.006367374025475115,0.10023649314857039,48.12595698684454,-92.24360919585227,72.1922225099802
2024-09-23 06:40:15.313132,28.28,0.006455,0.00034821073540793035,0.006367374025475115,0.10048521646544352,40.106058693909645,-88.23529758782387,72.1922225099802
2024-09-23 06:40:15.365231,28.28,0.006506,0.000845657606494293,0.006417122790086768,0.10043546694134353,32.08287849390507,-96.25519929585457,72.1922225099802
2024-09-23 06:40:15.408013,28.28,0.006557,0.00024872343554318134,0.006417122790086768,0.10043546694134353,32.08287849390507,-96.25519929585457,72.1922225099802
2024-09-23 06:40:15.419670,28.28,0.006557,0.00024872343554318134,0.005969414667859598,0.10048521646544352,32.08287849390507,-96.25519929585457,72.1922225099802
2024-09-23 06:40:15.460958,28.28,0.006608,0.0007461703303635545,0.006665846106959895,0.09998775767988385,32.08287849390507,-96.25519929585457,76.200527287817
2024-09-23 06:40:15.502924,28.28,0.006608,0.0007461703303635545,0.006665846106959895,0.09998775767988385,44.11764879391193,-96.25519929585457,76.200527287817
2024-09-23 06:40:15.514254,28.28,0.006658,0.0005969341946851222,0.006317625260863464,0.09998775767988385,44.11764879391193,-96.25519929585457,76.200527287817
2024-09-23 06:40:15.556349,28.28,0.006658,0.0005969341946851222,0.006317625260863464,0.10028623052085697,48.12595698684454,-96.25519929585457,80.21211738781929
2024-09-23 06:40:15.568235,28.28,0.006709,0.0004974468710863627,0.006317625260863464,0.10028623052085697,48.12595698684454,-96.25519929585457,80.21211738781929
2024-09-23 06:40:15.600840,28.28,0.006709,0.0004974468710863627,0.006815082527446455,0.10028623052085697,48.12595698684454,-96.25519929585457,80.21211738781929
2024-09-23 06:40:15.612559,28.28,0.006796,0.0004974468710863627,0.006815082527446455,0.10003750720398384,16.039798293417693,-100.26678939585686,72.1922225099802
2024-09-23 06:40:15.656859,28.28,0.006796,0.00034821073540793035,0.006516610445961675,0.10068419025821666,40.106058693909645,-96.25519929585457,72.1922225099802
2024-09-23 06:40:15.669385,28.28,0.006796,0.00034821073540793035,0.006516610445961675,0.10068419025821666,40.106058693909645,-96.25519929585457,72.1922225099802
2024-09-23 06:40:15.702677,28.28,0.006848,0.0006466830067647949,0.006715595631059885,0.10068419025821666,40.106058693909645,-96.25519929585457,72.1922225099802
2024-09-23 06:40:15.713794,28.28,0.006848,0.0006466830067647949,0.006715595631059885,0.1005349538377301,48.12595698684454,-92.24360919585227,72.1922225099802
2024-09-23 06:40:15.746680,28.28,0.006848,0.0006466830067647949,0.006715595631059885,0.1005349538377301,48.12595698684454,-92.24360919585227,76.200527287817
2024-09-23 06:40:15.757810,28.28,0.006898,0.00034821073540793035,0.005770429482761387,0.10043546694134353,48.12595698684454,-92.24360919585227,76.200527287817
2024-09-23 06:40:15.799910,28.28,0.006949,0.0009948937421727254,0.005770429482761387,0.10043546694134353,48.12595698684454,-92.24360919585227,76.200527287817
2024-09-23 06:40:15.811728,28.28,0.006949,0.0009948937421727254,0.006118650708601988,0.10068419025821666,48.12595698684454,-92.24360919585227,76.200527287817
2024-09-23 06:40:15.843854,28.28,0.006949,0.0009948937421727254,0.006118650708601988,0.10068419025821666,32.08287849390507,-92.24360919585227,76.200527287817
2024-09-23 06:40:15.856083,28.28,0.007,0.0008954064660419869,0.006118650708601988,0.10068419025821666,32.08287849390507,-96.25519929585457,72.1922225099802
2024-09-23 06:40:15.898649,28.28,0.007,0.0008954064660419869,0.005869927391728859,0.10058470336183009,24.06297849342227,-92.24360919585227,72.1922225099802
2024-09-23 06:40:15.910184,28.28,0.007,0.0008954064660419869,0.005869927391728859,0.10058470336183009,24.06297849342227,-92.24360919585227,68.18063240997792
2024-09-23 06:40:15.941638,28.28,0.00705,0.0008954064660419869,0.005869927391728859,0.10058470336183009,24.06297849342227,-92.24360919585227,68.18063240997792
2024-09-23 06:40:16.046529,28.28,0.00705,0.0007959191899112484,0.006118650708601988,0.0998385212593973,40.106058693909645,-92.24360919585227,68.18063240997792
2024-09-23 06:40:16.059495,28.28,0.00705,0.0007959191899112484,0.006118650708601988,0.0998385212593973,40.106058693909645,-88.23529758782387,72.1922225099802
2024-09-23 06:40:16.092919,28.28,0.007137,0.00044769805900669,0.006267886749344378,0.0998385212593973,40.106058693909645,-88.23529758782387,72.1922225099802
2024-09-23 06:40:16.105118,28.28,0.007137,0.00044769805900669,0.006267886749344378,0.10028623052085697,40.106058693909645,-92.24360919585227,72.1922225099802
2024-09-23 06:40:16.137982,28.28,0.007137,0.00044769805900669,0.006267886749344378,0.10028623052085697,40.106058693909645,-92.24360919585227,80.21211738781929
2024-09-23 06:40:16.149965,28.28,0.007189,0.00034821073540793035,0.006367374025475115,0.1001867436244704,32.08287849390507,-92.24360919585227,80.21211738781929
2024-09-23 06:40:16.192191,28.28,0.00724,0.00029846189959424716,0.006616097342348244,0.09993802030759727,32.08287849390507,-96.25519929585457,76.200527287817
2024-09-23 06:40:16.276073,28.28,0.007291,0.0004974468710863627,0.006616097342348244,0.09993802030759727,36.09446859390736,-88.23529758782387,72.1922225099802
2024-09-23 06:40:16.288815,28.28,0.007291,0.0004974468710863627,0.006367374025475115,0.09993802030759727,36.09446859390736,-88.23529758782387,72.1922225099802
2024-09-23 06:40:16.320651,31.38,0.007291,0.0004974468710863627,0.006367374025475115,0.10023649314857039,52.137550501942634,-88.23529758782387,72.1922225099802
2024-09-23 06:40:16.332239,31.38,0.007433,0.0005471957306340564,0.006367374025475115,0.10023649314857039,52.137550501942634,-92.24360919585227,72.1922225099802
2024-09-23 06:40:16.375976,31.38,0.007527,0.0005471957306340564,0.006815082527446455,0.10048521646544352,24.06297849342227,-96.25519929585457,68.18063240997792
2024-09-23 06:40:16.418310,31.38,0.007527,0.00044769805900669,0.006068901943990335,0.10033598004495696,24.06297849342227,-96.25519929585457,68.18063240997792
2024-09-23 06:40:16.431414,31.38,0.007527,0.00044769805900669,0.006068901943990335,0.10033598004495696,32.08287849390507,-100.26678939585686,76.200527287817
2024-09-23 06:40:16.474675,31.38,0.007579,0.0009948937421727254,0.006068901943990335,0.1001867436244704,48.12595698684454,-92.24360919585227,76.200527287817
2024-09-23 06:40:16.568391,31.38,0.007661,0.00044769805900669,0.006516610445961675,0.1001867436244704,48.12595698684454,-92.24360919585227,72.1922225099802
2024-09-23 06:40:16.580469,31.38,0.007661,0.00044769805900669,0.006516610445961675,0.1001867436244704,40.106058693909645,-92.24360919585227,72.1922225099802
2024-09-23 06:40:16.612793,31.38,0.007661,0.00044769805900669,0.006516610445961675,0.1001867436244704,40.106058693909645,-100.26678939585686,76.200527287817
2024-09-23 06:40:16.624115,31.38,0.007712,0.00044769805900669,0.006168399473213639,0.10033598004495696,40.106058693909645,-100.26678939585686,76.200527287817
2024-09-23 06:40:16.666488,31.38,0.007763,0.0006964318663124887,0.006168399473213639,0.10033598004495696,32.08287849390507,-100.26678939585686,76.200527287817
2024-09-23 06:40:16.678644,31.38,0.007763,0.0006964318663124887,0.006168399473213639,0.10033598004495696,32.08287849390507,-100.26678939585686,76.200527287817
2024-09-23 06:40:16.711199,31.38,0.007763,0.0006964318663124887,0.006168399473213639,0.10003750720398384,36.09446859390736,-96.25519929585457,76.200527287817
2024-09-23 06:40:16.722356,31.38,0.007813,0.00034821073540793035,0.006168399473213639,0.10003750720398384,36.09446859390736,-96.25519929585457,68.18063240997792
2024-09-23 06:40:16.764717,31.38,0.007813,0.00034821073540793035,0.006118650708601988,0.10013699410037041,52.137550501942634,-88.23529758782387,72.1922225099802
2024-09-23 06:40:16.776664,31.38,0.007904,0.00034821073540793035,0.006118650708601988,0.10013699410037041,52.137550501942634,-88.23529758782387,72.1922225099802
2024-09-23 06:40:16.808428,31.38,0.007904,0.0008954064660419869,0.006168399473213639,0.10048521646544352,52.137550501942634,-88.23529758782387,72.1922225099802
2024-09-23 06:40:16.819785,31.38,0.007904,0.0008954064660419869,0.006168399473213639,0.10048521646544352,28.07457030097246,-104.27510100388527,76.200527287817
2024-09-23 06:40:16.862353,31.38,0.008002,0.0007959191899112484,0.006566359210573326,0.10023649314857039,28.07457030097246,-104.27510100388527,76.200527287817
2024-09-23 06:40:16.874049,31.38,0.008002,0.0007959191899112484,0.006566359210573326,0.10023649314857039,28.07457030097246,-100.26678939585686,76.200527287817
2024-09-23 06:40:16.906247,31.38,0.008053,0.0007959191899112484,0.006566359210573326,0.10023649314857039,28.07457030097246,-100.26678939585686,68.18063240997792
2024-09-23 06:40:16.917376,31.38,0.008053,0.0008954064660419869,0.005919665523503777,0.1001867436244704,40.106058693909645,-100.26678939585686,68.18063240997792
2024-09-23 06:40:16.960534,31.38,0.008104,9.948729986474904e-05,0.005969414667859598,0.10038572956905695,40.106058693909645,-92.24360919585227,68.18063240997792
2024-09-23 06:40:17.003468,31.38,0.008104,9.948729986474904e-05,0.005969414667859598,0.10038572956905695,48.12595698684454,-92.24360919585227,76.200527287817
2024-09-23 06:40:17.014642,31.38,0.008154,0.00044769805900669,0.006267886749344378,0.10038572956905695,48.12595698684454,-92.24360919585227,76.200527287817
2024-09-23 06:40:17.056351,31.38,0.008205,0.00044769805900669,0.006267886749344378,0.09998775767988385,32.08287849390507,-88.23529758782387,72.1922225099802
2024-09-23 06:40:17.068562,31.38,0.008205,0.0004974468710863627,0.006267886749344378,0.09998775767988385,32.08287849390507,-88.23529758782387,72.1922225099802
2024-09-23 06:40:17.100512,31.38,0.008205,0.0004974468710863627,0.006168399473213639,0.0998385212593973,32.08287849390507,-88.23529758782387,72.1922225099802
2024-09-23 06:40:17.111507,31.38,0.008294,0.0004974468710863627,0.006168399473213639,0.0998385212593973,28.07457030097246,-96.25519929585457,72.1922225099802
2024-09-23 06:40:17.154500,31.38,0.008294,0.0005471957306340564,0.006566359210573326,0.10028623052085697,36.09446859390736,-96.25519929585457,72.1922225099802
2024-09-23 06:40:17.198266,31.38,0.008345,0.0006466830067647949,0.005919665523503777,0.10028623052085697,36.09446859390736,-96.25519929585457,72.1922225099802
2024-09-23 06:40:17.209620,31.38,0.008345,0.0006466830067647949,0.005919665523503777,0.10078368930641664,48.12595698684454,-88.23529758782387,72.1922225099802
2024-09-23 06:40:17.251623,31.38,0.008396,0.000845657606494293,0.006616097342348244,0.10063445288593008,48.12595698684454,-88.23529758782387,68.18063240997792
2024-09-23 06:40:17.263183,31.38,0.008396,0.000845657606494293,0.006616097342348244,0.10063445288593008,44.11764879391193,-88.23529758782387,68.18063240997792
2024-09-23 06:40:17.295193,31.38,0.008396,0.000845657606494293,0.006616097342348244,0.10063445288593008,44.11764879391193,-84.22370748782159,72.1922225099802
2024-09-23 06:40:17.306459,31.38,0.008447,0.0007461703303635545,0.006665846106959895,0.09993802030759727,44.11764879391193,-84.22370748782159,72.1922225099802
2024-09-23 06:40:17.350129,33.65,0.008498,0.0007461703303635545,0.006665846106959895,0.09993802030759727,28.07457030097246,-88.23529758782387,72.1922225099802
2024-09-23 06:40:17.362546,33.65,0.008498,0.00034821073540793035,0.006417122790086768,0.09993802030759727,28.07457030097246,-88.23529758782387,72.1922225099802
2024-09-23 06:40:17.395460,33.65,0.008498,0.00034821073540793035,0.006417122790086768,0.10028623052085697,40.106058693909645,-84.22370748782159,72.1922225099802
2024-09-23 06:40:17.406960,33.65,0.008548,0.0007959191899112484,0.006417122790086768,0.10028623052085697,40.106058693909645,-84.22370748782159,80.21211738781929
2024-09-23 06:40:17.438804,33.65,0.008548,0.0007959191899112484,0.006019163432471249,0.10028623052085697,40.106058693909645,-84.22370748782159,80.21211738781929
2024-09-23 06:40:17.450499,33.65,0.008635,0.0007959191899112484,0.006019163432471249,0.09963954746662415,52.137550501942634,-92.24360919585227,72.1922225099802
2024-09-23 06:40:17.493052,33.65,0.008635,0.0009948937421727254,0.006616097342348244,0.10013699410037041,52.137550501942634,-92.24360919585227,72.1922225099802
2024-09-23 06:40:17.504746,33.65,0.008635,0.0009948937421727254,0.006616097342348244,0.10013699410037041,44.11764879391193,-96.25519929585457,72.1922225099802
2024-09-23 06:40:17.536185,33.65,0.008686,0.0009948937421727254,0.006616097342348244,0.10013699410037041,44.11764879391193,-96.25519929585457,72.1922225099802
2024-09-23 06:40:17.549821,33.65,0.008686,0.0005471957306340564,0.006566359210573326,0.10003750720398384,32.08287849390507,-88.23529758782387,72.1922225099802
2024-09-23 06:40:17.591723,33.65,0.008737,0.00014922575204880957,0.006267886749344378,0.10008725672808383,32.08287849390507,-88.23529758782387,72.1922225099802
2024-09-23 06:40:17.603404,33.65,0.008737,0.00014922575204880957,0.006267886749344378,0.10008725672808383,32.08287849390507,-88.23529758782387,72.1922225099802
2024-09-23 06:40:17.636111,33.65,0.008737,0.00014922575204880957,0.006267886749344378,0.10008725672808383,32.08287849390507,-88.23529758782387,80.21211738781929
2024-09-23 06:40:17.647423,33.65,0.008788,0.0007959191899112484,0.005869927391728859,0.09998775767988385,32.08287849390507,-88.23529758782387,80.21211738781929
2024-09-23 06:40:17.691004,33.65,0.008838,0.0006964318663124887,0.006616097342348244,0.09998775767988385,44.11764879391193,-88.23529758782387,80.21211738781929
2024-09-23 06:40:17.733265,33.65,0.008838,0.0006964318663124887,0.006616097342348244,0.0998385212593973,76.200527287817,-88.23529758782387,80.21211738781929
2024-09-23 06:40:17.744785,33.65,0.008889,0.000845657606494293,0.006616097342348244,0.0998385212593973,76.200527287817,-92.24360919585227,76.200527287817
2024-09-23 06:40:17.787112,33.65,0.008889,0.000845657606494293,0.006168399473213639,0.1005349538377301,36.09446859390736,-88.23529758782387,72.1922225099802
2024-09-23 06:40:17.799852,33.65,0.008976,0.000845657606494293,0.006168399473213639,0.1005349538377301,36.09446859390736,-88.23529758782387,72.1922225099802
2024-09-23 06:40:17.832732,33.65,0.008976,0.00034821073540793035,0.006616097342348244,0.1001867436244704,36.09446859390736,-88.23529758782387,72.1922225099802
2024-09-23 06:40:17.843977,33.65,0.008976,0.00034821073540793035,0.006616097342348244,0.1001867436244704,36.09446859390736,-92.24360919585227,68.18063240997792
2024-09-23 06:40:17.887204,33.65,0.009028,0.0011441298778511575,0.006317625260863464,0.10058470336183009,52.137550501942634,-96.25519929585457,68.18063240997792
2024-09-23 06:40:17.929067,33.65,0.009079,0.0011441298778511575,0.006317625260863464,0.10058470336183009,52.137550501942634,-96.25519929585457,80.21211738781929
2024-09-23 06:40:17.940738,33.65,0.009079,0.0001989745997294981,0.006168399473213639,0.09968928483891074,56.14914060194492,-96.25519929585457,80.21211738781929
2024-09-23 06:40:17.984330,33.65,0.009129,0.0006466830067647949,0.005621193442018997,0.10003750720398384,56.14914060194492,-96.25519929585457,72.1922225099802
2024-09-23 06:40:18.026626,33.65,0.009129,0.0006466830067647949,0.005621193442018997,0.10003750720398384,48.12595698684454,-96.25519929585457,72.1922225099802
2024-09-23 06:40:18.037828,33.65,0.00918,0.0004974468710863627,0.006168399473213639,0.10003750720398384,48.12595698684454,-96.25519929585457,76.200527287817
2024-09-23 06:40:18.081077,33.65,0.009231,0.0008954064660419869,0.006168399473213639,0.10003750720398384,36.09446859390736,-96.25519929585457,72.1922225099802
2024-09-23 06:40:18.123778,33.65,0.009231,0.0008954064660419869,0.006168399473213639,0.10013699410037041,36.09446859390736,-96.25519929585457,72.1922225099802
2024-09-23 06:40:18.135491,33.65,0.009317,0.0008954064660419869,0.006168399473213639,0.10013699410037041,48.12595698684454,-92.24360919585227,72.1922225099802
2024-09-23 06:40:18.178600,33.65,0.009317,0.0001989745997294981,0.006019163432471249,0.10028623052085697,52.137550501942634,-84.22370748782159,76.200527287817
2024-09-23 06:40:18.222412,33.65,0.009369,0.00034821073540793035,0.005820178247373038,0.10028623052085697,52.137550501942634,-84.22370748782159,76.200527287817
2024-09-23 06:40:18.233801,33.65,0.009369,0.00034821073540793035,0.005820178247373038,0.10028623052085697,48.12595698684454,-96.25519929585457,76.200527287817
2024-09-23 06:40:18.276591,33.65,0.00942,0.0006964318663124887,0.006218137984732725,0.1005349538377301,28.07457030097246,-96.25519929585457,76.200527287817
2024-09-23 06:40:18.320165,33.65,0.00947,0.0006964318663124887,0.006218137984732725,0.1005349538377301,28.07457030097246,-96.25519929585457,72.1922225099802
2024-09-23 06:40:18.332948,33.65,0.00947,0.0004974468710863627,0.006019163432471249,0.10033598004495696,28.07457030097246,-96.25519929585457,72.1922225099802
2024-09-23 06:40:18.366206,35.26,0.00947,0.0004974468710863627,0.006019163432471249,0.10033598004495696,32.08287849390507,-96.25519929585457,72.1922225099802
2024-09-23 06:40:18.377713,35.26,0.009521,0.00044769805900669,0.006417122790086768,0.10033598004495696,32.08287849390507,-100.26678939585686,72.1922225099802
2024-09-23 06:40:18.420409,35.26,0.009521,0.00044769805900669,0.006417122790086768,0.10038572956905695,40.106058693909645,-92.24360919585227,76.200527287817
2024-09-23 06:40:18.432317,35.26,0.009572,0.0009948937421727254,0.006417122790086768,0.10038572956905695,40.106058693909645,-92.24360919585227,76.200527287817
2024-09-23 06:40:18.465765,35.26,0.009572,0.0009948937421727254,0.006317625260863464,0.09963954746662415,40.106058693909645,-92.24360919585227,76.200527287817
2024-09-23 06:40:18.477307,35.26,0.009659,0.0009948937421727254,0.006317625260863464,0.09963954746662415,36.09446859390736,-84.22370748782159,76.200527287817
2024-09-23 06:40:18.519596,35.26,0.009659,0.0005471957306340564,0.006765333762834803,0.10078368930641664,28.07457030097246,-100.26678939585686,76.200527287817
2024-09-23 06:40:18.531307,35.26,0.009659,0.0005471957306340564,0.006765333762834803,0.10078368930641664,28.07457030097246,-100.26678939585686,76.200527287817
2024-09-23 06:40:18.564011,35.26,0.00971,0.0006466830067647949,0.006665846106959895,0.10078368930641664,28.07457030097246,-100.26678939585686,76.200527287817
2024-09-23 06:40:18.576139,35.26,0.00971,0.0006466830067647949,0.006665846106959895,0.10013699410037041,36.09446859390736,-96.25519929585457,76.200527287817
2024-09-23 06:40:18.609886,35.26,0.00971,0.0006466830067647949,0.006665846106959895,0.10013699410037041,36.09446859390736,-96.25519929585457,72.1922225099802
2024-09-23 06:40:18.621308,35.26,0.009761,0.0006964318663124887,0.006267886749344378,0.10043546694134353,52.137550501942634,-96.25519929585457,72.1922225099802
2024-09-23 06:40:18.664290,35.26,0.009812,0.000845657606494293,0.006417122790086768,0.10043546694134353,52.137550501942634,-92.24360919585227,68.18063240997792
2024-09-23 06:40:18.676107,35.26,0.009812,0.000845657606494293,0.006417122790086768,0.10083342667870322,52.137550501942634,-92.24360919585227,68.18063240997792
2024-09-23 06:40:18.709286,35.26,0.009812,0.000845657606494293,0.006417122790086768,0.10083342667870322,52.137550501942634,-92.24360919585227,68.18063240997792
2024-09-23 06:40:18.721214,35.26,0.009862,0.0005969341946851222,0.006267886749344378,0.10083342667870322,52.137550501942634,-92.24360919585227,72.1922225099802
2024-09-23 06:40:18.763330,35.26,0.009913,0.0007959191899112484,0.006267886749344378,0.09993802030759727,44.11764879391193,-92.24360919585227,76.200527287817
2024-09-23 06:40:18.805967,35.26,0.009913,0.0007959191899112484,0.005770429482761387,0.10043546694134353,44.11764879391193,-92.24360919585227,76.200527287817
2024-09-23 06:40:18.817936,35.26,0.01,0.0007959191899112484,0.005770429482761387,0.10043546694134353,28.07457030097246,-92.24360919585227,76.200527287817
2024-09-23 06:40:18.861013,35.26,0.01,0.0009451553255896806,0.006466861681350023,0.0998385212593973,44.11764879391193,-92.24360919585227,80.21211738781929
2024-09-23 06:40:18.903523,35.26,0.010052,0.0005969341946851222,0.006466861681350023,0.0998385212593973,44.11764879391193,-92.24360919585227,80.21211738781929
2024-09-23 06:40:18.915182,35.26,0.010052,0.0005969341946851222,0.006168399473213639,0.09968928483891074,40.106058693909645,-88.23529758782387,80.21211738781929
2024-09-23 06:40:18.958977,35.26,0.010102,0.0006466830067647949,0.006317625260863464,0.1005349538377301,40.106058693909645,-88.23529758782387,80.21211738781929
2024-09-23 06:40:19.002595,35.26,0.010153,0.0006466830067647949,0.006317625260863464,0.1005349538377301,40.106058693909645,-92.24360919585227,76.200527287817
2024-09-23 06:40:19.013910,35.26,0.010153,0.00029846189959424716,0.006068901943990335,0.09939082414975102,40.106058693909645,-92.24360919585227,76.200527287817
2024-09-23 06:40:19.055829,35.26,0.010203,0.0007959191899112484,0.005919665523503777,0.09939082414975102,36.09446859390736,-96.25519929585457,72.1922225099802
2024-09-23 06:40:19.098647,35.26,0.010203,0.0007959191899112484,0.005919665523503777,0.10013699410037041,36.09446859390736,-96.25519929585457,72.1922225099802
2024-09-23 06:40:19.110275,35.26,0.010254,0.00044769805900669,0.005919665523503777,0.10013699410037041,36.09446859390736,-100.26678939585686,76.200527287817
2024-09-23 06:40:19.153136,35.26,0.010341,0.00044769805900669,0.006516610445961675,0.09968928483891074,52.137550501942634,-92.24360919585227,76.200527287817
2024-09-23 06:40:19.196082,35.26,0.010341,0.00029846189959424716,0.006218137984732725,0.09968928483891074,52.137550501942634,-92.24360919585227,76.200527287817
2024-09-23 06:40:19.207850,35.26,0.010341,0.00029846189959424716,0.006218137984732725,0.10043546694134353,40.106058693909645,-92.24360919585227,76.200527287817
2024-09-23 06:40:19.251124,35.26,0.010393,0.00029846189959424716,0.006317625260863464,0.10023649314857039,32.08287849390507,-92.24360919585227,76.200527287817
2024-09-23 06:40:19.262715,35.26,0.010393,0.00029846189959424716,0.006317625260863464,0.10023649314857039,32.08287849390507,-96.25519929585457,76.200527287817
2024-09-23 06:40:19.294983,35.26,0.010443,0.0009948937421727254,0.006317625260863464,0.10023649314857039,32.08287849390507,-96.25519929585457,80.21211738781929
2024-09-23 06:40:19.306626,35.26,0.010443,0.0009948937421727254,0.006168399473213639,0.09998775767988385,40.106058693909645,-96.25519929585457,80.21211738781929
2024-09-23 06:40:19.349683,35.26,0.010494,0.001442602149208022,0.006616097342348244,0.10033598004495696,40.106058693909645,-92.24360919585227,72.1922225099802
2024-09-23 06:40:19.443316,36.06,0.010545,0.001442602149208022,0.006616097342348244,0.10033598004495696,48.12595698684454,-100.26678939585686,80.21211738781929
2024-09-23 06:40:19.454748,36.06,0.010545,0.0008954064660419869,0.005969414667859598,0.10033598004495696,48.12595698684454,-100.26678939585686,80.21211738781929
2024-09-23 06:40:19.486460,36.06,0.010545,0.0008954064660419869,0.005969414667859598,0.10003750720398384,48.12595698684454,-100.26678939585686,80.21211738781929
2024-09-23 06:40:19.497365,36.06,0.010595,0.00044769805900669,0.005969414667859598,0.10003750720398384,52.137550501942634,-92.24360919585227,72.1922225099802
2024-09-23 06:40:19.540887,36.06,0.010595,0.00044769805900669,0.006566359210573326,0.10033598004495696,32.08287849390507,-88.23529758782387,72.1922225099802
2024-09-23 06:40:19.553429,36.06,0.010682,0.00044769805900669,0.006566359210573326,0.10033598004495696,32.08287849390507,-88.23529758782387,72.1922225099802
2024-09-23 06:40:19.586351,36.06,0.010682,0.0009451553255896806,0.006566359210573326,0.10033598004495696,32.08287849390507,-88.23529758782387,72.1922225099802
2024-09-23 06:40:19.598227,36.06,0.010682,0.0009451553255896806,0.006218137984732725,0.10023649314857039,32.08287849390507,-92.24360919585227,76.200527287817
2024-09-23 06:40:19.640719,36.06,0.010734,0.0009451553255896806,0.006218137984732725,0.10023649314857039,32.08287849390507,-92.24360919585227,76.200527287817
2024-09-23 06:40:19.682983,36.06,0.010734,0.0005969341946851222,0.006218137984732725,0.10023649314857039,32.08287849390507,-92.24360919585227,76.200527287817
2024-09-23 06:40:19.694524,36.06,0.010734,0.0005969341946851222,0.006516610445961675,0.10033598004495696,84.22370748782159,-88.23529758782387,72.1922225099802
2024-09-23 06:40:19.737341,36.06,0.01083,0.0006466830067647949,0.006118650708601988,0.09993802030759727,48.12595698684454,-88.23529758782387,72.1922225099802
2024-09-23 06:40:19.749398,36.06,0.01083,0.0006466830067647949,0.006118650708601988,0.09993802030759727,48.12595698684454,-88.23529758782387,72.1922225099802
2024-09-23 06:40:19.781361,36.06,0.010881,0.0006466830067647949,0.006118650708601988,0.09993802030759727,48.12595698684454,-88.23529758782387,76.200527287817
2024-09-23 06:40:19.792532,36.06,0.010881,0.0006466830067647949,0.006218137984732725,0.10008725672808383,32.08287849390507,-88.23529758782387,76.200527287817
2024-09-23 06:40:19.836876,36.06,0.010932,0.0005969341946851222,0.006118650708601988,0.1005349538377301,32.08287849390507,-100.26678939585686,72.1922225099802
2024-09-23 06:40:19.879736,36.06,0.010932,0.0005969341946851222,0.006118650708601988,0.1005349538377301,48.12595698684454,-92.24360919585227,76.200527287817
2024-09-23 06:40:19.891010,36.06,0.010982,0.00014922575204880957,0.006168399473213639,0.1005349538377301,48.12595698684454,-92.24360919585227,76.200527287817
2024-09-23 06:40:19.933079,36.06,0.011075,0.00014922575204880957,0.006168399473213639,0.09993802030759727,44.11764879391193,-96.25519929585457,76.200527287817
2024-09-23 06:40:19.945952,36.06,0.011075,0.0005471957306340564,0.006168399473213639,0.09993802030759727,44.11764879391193,-96.25519929585457,76.200527287817
2024-09-23 06:40:19.977737,36.06,0.011075,0.0005471957306340564,0.006168399473213639,0.09993802030759727,24.06297849342227,-96.25519929585457,76.200527287817
2024-09-23 06:40:19.988892,36.06,0.01117,0.0005471957306340564,0.006168399473213639,0.09993802030759727,24.06297849342227,-96.25519929585457,72.1922225099802
2024-09-23 06:40:20.031298,36.06,0.01117,0.0005969341946851222,0.006267886749344378,0.09993802030759727,36.09446859390736,-100.26678939585686,72.1922225099802
2024-09-23 06:40:20.073916,36.06,0.011222,0.0007461703303635545,0.006267886749344378,0.09993802030759727,36.09446859390736,-100.26678939585686,72.1922225099802
2024-09-23 06:40:20.085563,36.06,0.011222,0.0007461703303635545,0.006267886749344378,0.09958979794252416,44.11764879391193,-96.25519929585457,72.1922225099802
2024-09-23 06:40:20.128794,36.06,0.011272,0.000845657606494293,0.006019163432471249,0.10023649314857039,44.11764879391193,-96.25519929585457,76.200527287817
2024-09-23 06:40:20.171451,36.06,0.011272,0.000845657606494293,0.006019163432471249,0.10023649314857039,44.11764879391193,-88.23529758782387,72.1922225099802
2024-09-23 06:40:20.183365,36.06,0.011323,0.0007959191899112484,0.006267886749344378,0.09949031104613759,44.11764879391193,-88.23529758782387,72.1922225099802
2024-09-23 06:40:20.226259,36.06,0.011373,0.00044769805900669,0.006118650708601988,0.09949031104613759,36.09446859390736,-88.23529758782387,72.1922225099802
2024-09-23 06:40:20.268703,36.06,0.011373,0.00044769805900669,0.006118650708601988,0.09949031104613759,36.09446859390736,-88.23529758782387,72.1922225099802
2024-09-23 06:40:20.279769,36.06,0.011424,0.0011938787373988514,0.006118650708601988,0.09949031104613759,36.09446859390736,-96.25519929585457,76.200527287817
2024-09-23 06:40:20.322984,36.06,0.011511,0.0011938787373988514,0.005919665523503777,0.09978878388711071,60.15744537978172,-92.24360919585227,72.1922225099802
2024-09-23 06:40:20.366120,36.06,0.011511,0.0005969341946851222,0.006466861681350023,0.09978878388711071,60.15744537978172,-92.24360919585227,72.1922225099802
2024-09-23 06:40:20.377281,36.06,0.011511,0.0005969341946851222,0.006466861681350023,0.10048521646544352,52.137550501942634,-100.26678939585686,76.200527287817
2024-09-23 06:40:20.419797,36.06,0.011563,0.0005969341946851222,0.006168399473213639,0.10058470336183009,40.106058693909645,-100.26678939585686,76.200527287817
2024-09-23 06:40:20.432227,36.06,0.011563,0.0005969341946851222,0.006168399473213639,0.10058470336183009,40.106058693909645,-96.25519929585457,76.200527287817
2024-09-23 06:40:20.465771,37.05,0.011613,0.00034821073540793035,0.006168399473213639,0.10058470336183009,40.106058693909645,-96.25519929585457,72.1922225099802
2024-09-23 06:40:20.476812,37.05,0.011613,0.00034821073540793035,0.006218137984732725,0.10003750720398384,36.09446859390736,-96.25519929585457,72.1922225099802
2024-09-23 06:40:20.518825,37.05,0.011664,0.001044642601720419,0.006566359210573326,0.1001867436244704,36.09446859390736,-108.28669110388756,72.1922225099802
2024-09-23 06:40:20.560916,37.05,0.011664,0.001044642601720419,0.006566359210573326,0.1001867436244704,44.11764879391193,-104.27510100388527,72.1922225099802
2024-09-23 06:40:20.572695,37.05,0.011715,0.001044642601720419,0.006417122790086768,0.1001867436244704,44.11764879391193,-104.27510100388527,68.18063240997792
2024-09-23 06:40:20.614780,37.05,0.011765,0.001044642601720419,0.006417122790086768,0.10003750720398384,52.137550501942634,-96.25519929585457,72.1922225099802
2024-09-23 06:40:20.626523,37.05,0.011765,0.0006964318663124887,0.006417122790086768,0.10003750720398384,52.137550501942634,-96.25519929585457,72.1922225099802
2024-09-23 06:40:20.658643,37.05,0.011765,0.0006964318663124887,0.005919665523503777,0.10038572956905695,52.137550501942634,-96.25519929585457,72.1922225099802
2024-09-23 06:40:20.670005,37.05,0.011852,0.0006964318663124887,0.005919665523503777,0.10038572956905695,36.09446859390736,-92.24360919585227,64.16903547978401
2024-09-23 06:40:20.713204,37.05,0.011852,0.0007959191899112484,0.006417122790086768,0.10083342667870322,40.106058693909645,-96.25519929585457,64.16903547978401
2024-09-23 06:40:20.724625,37.05,0.011852,0.0007959191899112484,0.006417122790086768,0.10083342667870322,40.106058693909645,-96.25519929585457,68.18063240997792
2024-09-23 06:40:20.757054,37.05,0.011905,0.000845657606494293,0.006019163432471249,0.10083342667870322,40.106058693909645,-96.25519929585457,68.18063240997792
2024-09-23 06:40:20.768755,37.05,0.011905,0.000845657606494293,0.006019163432471249,0.10023649314857039,36.09446859390736,-100.26678939585686,68.18063240997792
2024-09-23 06:40:20.811125,37.05,0.011955,0.0005969341946851222,0.006367374025475115,0.10063445288593008,48.12595698684454,-100.26678939585686,76.200527287817
2024-09-23 06:40:20.856447,37.05,0.012006,0.0005969341946851222,0.006367374025475115,0.10063445288593008,48.12595698684454,-88.23529758782387,76.200527287817
2024-09-23 06:40:20.867933,37.05,0.012006,0.00044769805900669,0.006466861681350023,0.10033598004495696,48.12595698684454,-88.23529758782387,76.200527287817
2024-09-23 06:40:20.900463,37.05,0.012006,0.00044769805900669,0.006466861681350023,0.10033598004495696,44.11764879391193,-88.23529758782387,76.200527287817
2024-09-23 06:40:20.911724,37.05,0.012057,0.0009948937421727254,0.006068901943990335,0.10033598004495696,44.11764879391193,-88.23529758782387,72.1922225099802
2024-09-23 06:40:20.955164,37.05,0.012107,0.0009948937421727254,0.006068901943990335,0.1001867436244704,40.106058693909645,-88.23529758782387,68.18063240997792
2024-09-23 06:40:20.967106,37.05,0.012107,0.0006964318663124887,0.006068901943990335,0.1001867436244704,40.106058693909645,-88.23529758782387,68.18063240997792
2024-09-23 06:40:20.998832,37.05,0.012107,0.0006964318663124887,0.006367374025475115,0.1001867436244704,40.106058693909645,-88.23529758782387,68.18063240997792
2024-09-23 06:40:21.010703,37.05,0.012194,0.0006964318663124887,0.006367374025475115,0.10058470336183009,28.07457030097246,-92.24360919585227,76.200527287817
2024-09-23 06:40:21.053118,37.05,0.012194,0.0003979595949556242,0.005869927391728859,0.10013699410037041,56.14914060194492,-92.24360919585227,76.200527287817
2024-09-23 06:40:21.065241,37.05,0.012194,0.0003979595949556242,0.005869927391728859,0.10013699410037041,56.14914060194492,-92.24360919585227,76.200527287817
2024-09-23 06:40:21.097084,37.05,0.012245,0.0006964318663124887,0.005869927391728859,0.10013699410037041,56.14914060194492,-92.24360919585227,76.200527287817
2024-09-23 06:40:21.109755,37.05,0.012245,0.0006964318663124887,0.006218137984732725,0.10063445288593008,48.12595698684454,-88.23529758782387,76.200527287817
2024-09-23 06:40:21.152884,37.05,0.012296,0.0006964318663124887,0.006118650708601988,0.10023649314857039,40.106058693909645,-88.23529758782387,72.1922225099802
2024-09-23 06:40:21.195236,37.05,0.012296,0.0006964318663124887,0.006118650708601988,0.10023649314857039,40.106058693909645,-88.23529758782387,72.1922225099802
2024-09-23 06:40:21.207539,37.05,0.012347,0.000845657606494293,0.005919665523503777,0.09993802030759727,40.106058693909645,-88.23529758782387,72.1922225099802
2024-09-23 06:40:21.251061,37.05,0.012397,0.0003979595949556242,0.005969414667859598,0.09993802030759727,32.08287849390507,-100.26678939585686,72.1922225099802
2024-09-23 06:40:21.293486,37.05,0.012397,0.0003979595949556242,0.005969414667859598,0.09998775767988385,36.09446859390736,-92.24360919585227,72.1922225099802
2024-09-23 06:40:21.304924,37.05,0.012448,0.0008954064660419869,0.005969414667859598,0.09998775767988385,36.09446859390736,-92.24360919585227,72.1922225099802
2024-09-23 06:40:21.348468,37.05,0.012535,0.0008954064660419869,0.006118650708601988,0.10043546694134353,44.11764879391193,-92.24360919585227,80.21211738781929
2024-09-23 06:40:21.392091,37.05,0.012535,0.0003979595949556242,0.006218137984732725,0.10013699410037041,44.11764879391193,-92.24360919585227,80.21211738781929
2024-09-23 06:40:21.403682,37.05,0.012535,0.0003979595949556242,0.006218137984732725,0.10013699410037041,32.08287849390507,-88.23529758782387,76.200527287817
2024-09-23 06:40:21.447072,37.05,0.012587,0.0009948937421727254,0.006516610445961675,0.10003750720398384,28.07457030097246,-88.23529758782387,76.200527287817
2024-09-23 06:40:21.489920,37.71,0.012637,-9.948729986474904e-05,0.006118650708601988,0.10003750720398384,28.07457030097246,-88.23529758782387,76.200527287817
2024-09-23 06:40:21.501375,37.71,0.012637,-9.948729986474904e-05,0.006118650708601988,0.10008725672808383,36.09446859390736,-88.23529758782387,76.200527287817
2024-09-23 06:40:21.543550,37.71,0.012688,0.0006466830067647949,0.006068901943990335,0.09993802030759727,36.09446859390736,-96.25519929585457,72.1922225099802
2024-09-23 06:40:21.586096,37.71,0.012688,0.0006466830067647949,0.006068901943990335,0.09993802030759727,44.11764879391193,-96.25519929585457,76.200527287817
2024-09-23 06:40:21.597853,37.71,0.012739,0.001044642601720419,0.006317625260863464,0.09993802030759727,44.11764879391193,-96.25519929585457,76.200527287817
2024-09-23 06:40:21.640848,37.71,0.012789,0.0008954064660419869,0.006317625260863464,0.10083342667870322,44.11764879391193,-92.24360919585227,72.1922225099802
2024-09-23 06:40:21.684515,37.71,0.012789,0.0008954064660419869,0.006019163432471249,0.1001867436244704,28.07457030097246,-92.24360919585227,72.1922225099802
2024-09-23 06:40:21.695691,37.71,0.012876,0.0008954064660419869,0.006019163432471249,0.1001867436244704,28.07457030097246,-96.25519929585457,76.200527287817
2024-09-23 06:40:21.738909,37.71,0.012876,0.0007461703303635545,0.006267886749344378,0.09988827078349728,36.09446859390736,-96.25519929585457,72.1922225099802
2024-09-23 06:40:21.782272,37.71,0.012928,0.0006466830067647949,0.006267886749344378,0.09988827078349728,36.09446859390736,-96.25519929585457,72.1922225099802
2024-09-23 06:40:21.794217,37.71,0.012928,0.0006466830067647949,0.006267886749344378,0.10038572956905695,52.137550501942634,-92.24360919585227,72.1922225099802
2024-09-23 06:40:21.837307,37.71,0.012978,0.0010943914612681128,0.006317625260863464,0.10063445288593008,48.12595698684454,-92.24360919585227,76.200527287817
2024-09-23 06:40:21.880277,37.71,0.013029,0.0004974468710863627,0.006317625260863464,0.10063445288593008,48.12595698684454,-88.23529758782387,76.200527287817
2024-09-23 06:40:21.891833,37.71,0.013029,0.0004974468710863627,0.006168399473213639,0.10043546694134353,48.12595698684454,-88.23529758782387,76.200527287817
2024-09-23 06:40:21.923680,37.71,0.013029,0.0004974468710863627,0.006168399473213639,0.10043546694134353,32.08287849390507,-88.23529758782387,76.200527287817
2024-09-23 06:40:21.935598,37.71,0.01308,0.0009451553255896806,0.006118650708601988,0.10043546694134353,32.08287849390507,-92.24360919585227,84.22370748782159
2024-09-23 06:40:21.977432,37.71,0.01308,0.0009451553255896806,0.006118650708601988,0.10043546694134353,32.08287849390507,-100.26678939585686,72.1922225099802
2024-09-23 06:40:21.989725,37.71,0.01313,0.0007959191899112484,0.006118650708601988,0.10043546694134353,32.08287849390507,-100.26678939585686,72.1922225099802
2024-09-23 06:40:22.024316,37.71,0.01313,0.0007959191899112484,0.006118650708601988,0.09993802030759727,52.137550501942634,-100.26678939585686,72.1922225099802
2024-09-23 06:40:22.035630,37.71,0.013217,0.0007959191899112484,0.006118650708601988,0.09993802030759727,52.137550501942634,-92.24360919585227,72.1922225099802
2024-09-23 06:40:22.078543,37.71,0.013217,0.0007461703303635545,0.006267886749344378,0.10008725672808383,56.14914060194492,-92.24360919585227,76.200527287817
2024-09-23 06:40:22.121619,37.71,0.013269,0.0011441298778511575,0.006267886749344378,0.10008725672808383,56.14914060194492,-92.24360919585227,76.200527287817
2024-09-23 06:40:22.133485,37.71,0.013269,0.0011441298778511575,0.006267886749344378,0.10008725672808383,32.08287849390507,-92.24360919585227,76.200527287817
2024-09-23 06:40:22.176302,37.71,0.01332,0.0005471957306340564,0.006168399473213639,0.10028623052085697,24.06297849342227,-92.24360919585227,76.200527287817
2024-09-23 06:40:22.218765,37.71,0.01332,0.0005471957306340564,0.006168399473213639,0.10028623052085697,24.06297849342227,-92.24360919585227,76.200527287817
2024-09-23 06:40:22.229888,37.71,0.01337,0.0007461703303635545,0.005471957401276607,0.09973903436301072,24.06297849342227,-92.24360919585227,76.200527287817
2024-09-23 06:40:22.273163,37.71,0.013421,0.0005969341946851222,0.005471957401276607,0.09973903436301072,36.09446859390736,-96.25519929585457,76.200527287817
2024-09-23 06:40:22.284966,37.71,0.013421,0.0005969341946851222,0.006019163432471249,0.09973903436301072,36.09446859390736,-96.25519929585457,76.200527287817
2024-09-23 06:40:22.317596,37.71,0.013421,0.0005969341946851222,0.006019163432471249,0.10058470336183009,52.137550501942634,-88.23529758782387,76.200527287817
2024-09-23 06:40:22.329610,37.71,0.013472,0.0005969341946851222,0.006019163432471249,0.10058470336183009,52.137550501942634,-88.23529758782387,80.21211738781929
2024-09-23 06:40:22.372937,37.71,0.013559,0.0005969341946851222,0.005969414667859598,0.10038572956905695,24.06297849342227,-100.26678939585686,72.1922225099802
2024-09-23 06:40:22.415370,37.71,0.013559,0.00029846189959424716,0.006118650708601988,0.10038572956905695,24.06297849342227,-100.26678939585686,72.1922225099802
2024-09-23 06:40:22.427253,37.71,0.013559,0.00029846189959424716,0.006118650708601988,0.10028623052085697,12.031489246711136,-100.26678939585686,76.200527287817
2024-09-23 06:40:22.471442,37.71,0.01361,0.0006964318663124887,0.006616097342348244,0.10048521646544352,20.05138839341998,-88.23529758782387,76.200527287817
2024-09-23 06:40:22.513943,38.04,0.013661,0.0006964318663124887,0.006317625260863464,0.10048521646544352,20.05138839341998,-88.23529758782387,80.21211738781929
2024-09-23 06:40:22.525577,38.04,0.013661,0.0006964318663124887,0.006317625260863464,0.0998385212593973,44.11764879391193,-88.23529758782387,80.21211738781929
2024-09-23 06:40:22.558066,38.04,0.013661,0.0006964318663124887,0.006317625260863464,0.0998385212593973,44.11764879391193,-96.25519929585457,80.21211738781929
2024-09-23 06:40:22.570523,38.04,0.013712,0.0003979595949556242,0.006019163432471249,0.10043546694134353,44.11764879391193,-96.25519929585457,68.18063240997792
2024-09-23 06:40:22.614141,38.04,0.013762,0.0007461703303635545,0.005621193442018997,0.10043546694134353,48.12595698684454,-84.22370748782159,72.1922225099802
2024-09-23 06:40:22.658403,38.04,0.013762,0.0007461703303635545,0.005621193442018997,0.0998385212593973,44.11764879391193,-84.22370748782159,72.1922225099802
2024-09-23 06:40:22.669776,38.04,0.013813,0.0004974468710863627,0.005621193442018997,0.0998385212593973,44.11764879391193,-92.24360919585227,72.1922225099802
2024-09-23 06:40:22.711852,38.04,0.013813,0.0004974468710863627,0.006118650708601988,0.10073393978231665,32.08287849390507,-96.25519929585457,76.200527287817
2024-09-23 06:40:22.723725,38.04,0.0139,0.0004974468710863627,0.006118650708601988,0.10073393978231665,32.08287849390507,-96.25519929585457,76.200527287817
2024-09-23 06:40:22.756718,38.04,0.0139,0.0007959191899112484,0.005820178247373038,0.10073393978231665,32.08287849390507,-96.25519929585457,76.200527287817
2024-09-23 06:40:22.768579,38.04,0.0139,0.0007959191899112484,0.005820178247373038,0.09988827078349728,52.137550501942634,-96.25519929585457,76.200527287817
2024-09-23 06:40:22.810824,38.04,0.013952,0.00014922575204880957,0.005919665523503777,0.10003750720398384,52.137550501942634,-96.25519929585457,76.200527287817
2024-09-23 06:40:22.854055,38.04,0.013952,0.00014922575204880957,0.005919665523503777,0.10003750720398384,52.137550501942634,-92.24360919585227,76.200527287817
2024-09-23 06:40:22.865794,38.04,0.014002,0.00044769805900669,0.006516610445961675,0.10003750720398384,52.137550501942634,-92.24360919585227,76.200527287817
2024-09-23 06:40:22.909311,38.04,0.014053,0.0006466830067647949,0.006516610445961675,0.09993802030759727,32.08287849390507,-92.24360919585227,72.1922225099802
2024-09-23 06:40:22.952905,38.04,0.014053,0.0006466830067647949,0.006068901943990335,0.10028623052085697,24.06297849342227,-92.24360919585227,72.1922225099802
2024-09-23 06:40:22.964563,38.04,0.014104,0.0006466830067647949,0.006068901943990335,0.10028623052085697,24.06297849342227,-92.24360919585227,72.1922225099802
2024-09-23 06:40:22.997825,38.04,0.014104,0.0009451553255896806,0.006068901943990335,0.10028623052085697,24.06297849342227,-92.24360919585227,72.1922225099802
2024-09-23 06:40:23.008938,38.04,0.014104,0.0009451553255896806,0.005969414667859598,0.09973903436301072,48.12595698684454,-92.24360919585227,76.200527287817
2024-09-23 06:40:23.051869,38.04,0.014193,0.0007959191899112484,0.006068901943990335,0.1001867436244704,40.106058693909645,-92.24360919585227,76.200527287817
2024-09-23 06:40:23.063561,38.04,0.014193,0.0007959191899112484,0.006068901943990335,0.1001867436244704,40.106058693909645,-88.23529758782387,76.200527287817
2024-09-23 06:40:23.096258,38.04,0.014193,0.0007959191899112484,0.006068901943990335,0.1001867436244704,40.106058693909645,-88.23529758782387,76.200527287817
2024-09-23 06:40:23.108461,38.04,0.014244,0.0005471957306340564,0.006864831292058106,0.1001867436244704,36.09446859390736,-88.23529758782387,76.200527287817
2024-09-23 06:40:23.151105,38.04,0.014295,0.0005969341946851222,0.006466861681350023,0.09993802030759727,36.09446859390736,-92.24360919585227,72.1922225099802
2024-09-23 06:40:23.193281,38.04,0.014295,0.0005969341946851222,0.006466861681350023,0.09993802030759727,28.07457030097246,-92.24360919585227,72.1922225099802
2024-09-23 06:40:23.205050,38.04,0.014346,0.0008954064660419869,0.006367374025475115,0.09993802030759727,28.07457030097246,-92.24360919585227,76.200527287817
2024-09-23 06:40:23.248421,38.04,0.014396,0.0007461703303635545,0.006367374025475115,0.1009329257269032,32.08287849390507,-96.25519929585457,76.200527287817
2024-09-23 06:40:23.290975,38.04,0.014396,0.0007461703303635545,0.006417122790086768,0.09998775767988385,32.08287849390507,-96.25519929585457,76.200527287817
2024-09-23 06:40:23.302813,38.04,0.014485,0.0007461703303635545,0.006417122790086768,0.09998775767988385,36.09446859390736,-96.25519929585457,72.1922225099802
2024-09-23 06:40:23.344615,38.04,0.014485,0.00034821073540793035,0.006417122790086768,0.10083342667870322,32.08287849390507,-96.25519929585457,72.1922225099802
2024-09-23 06:40:23.356802,38.04,0.014485,0.00034821073540793035,0.006417122790086768,0.10083342667870322,32.08287849390507,-96.25519929585457,76.200527287817
2024-09-23 06:40:23.388644,38.04,0.014537,0.0005969341946851222,0.006417122790086768,0.10083342667870322,32.08287849390507,-96.25519929585457,76.200527287817
2024-09-23 06:40:23.400342,38.04,0.014537,0.0005969341946851222,0.006267886749344378,0.10098266309918978,28.07457030097246,-96.25519929585457,76.200527287817
2024-09-23 06:40:23.442084,38.04,0.014587,0.00044769805900669,0.006267886749344378,0.10003750720398384,28.07457030097246,-96.25519929585457,76.200527287817
2024-09-23 06:40:23.453977,38.04,0.014587,0.00044769805900669,0.006267886749344378,0.10003750720398384,36.09446859390736,-96.25519929585457,76.200527287817
2024-09-23 06:40:23.538622,41.74,0.014638,0.0009948937421727254,0.006267886749344378,0.10003750720398384,36.09446859390736,-96.25519929585457,72.1922225099802
2024-09-23 06:40:23.549772,41.74,0.014638,0.0009948937421727254,0.005869927391728859,0.0998385212593973,36.09446859390736,-96.25519929585457,72.1922225099802
2024-09-23 06:40:23.581782,41.74,0.014638,0.0009948937421727254,0.005869927391728859,0.0998385212593973,40.106058693909645,-96.25519929585457,72.1922225099802
2024-09-23 06:40:23.593964,41.74,0.014689,0.0008954064660419869,0.006068901943990335,0.0998385212593973,40.106058693909645,-92.24360919585227,72.1922225099802
2024-09-23 06:40:23.636581,41.74,0.014739,0.0008954064660419869,0.006068901943990335,0.09993802030759727,40.106058693909645,-92.24360919585227,72.1922225099802
2024-09-23 06:40:23.648317,41.74,0.014739,0.0006466830067647949,0.006068901943990335,0.09993802030759727,40.106058693909645,-92.24360919585227,72.1922225099802
2024-09-23 06:40:23.680497,41.74,0.014739,0.0006466830067647949,0.006068901943990335,0.09993802030759727,40.106058693909645,-92.24360919585227,72.1922225099802
2024-09-23 06:40:23.692124,41.74,0.014826,0.0006466830067647949,0.006068901943990335,0.0998385212593973,32.08287849390507,-96.25519929585457,72.1922225099802
2024-09-23 06:40:23.735719,41.74,0.014826,0.0005471957306340564,0.006068901943990335,0.1001867436244704,52.137550501942634,-92.24360919585227,80.21211738781929
2024-09-23 06:40:23.778199,41.74,0.014924,0.000845657606494293,0.006068901943990335,0.1001867436244704,52.137550501942634,-92.24360919585227,80.21211738781929
2024-09-23 06:40:23.789438,41.74,0.014924,0.000845657606494293,0.006417122790086768,0.1001867436244704,44.11764879391193,-88.23529758782387,80.21211738781929
2024-09-23 06:40:23.832848,41.74,0.014976,0.000845657606494293,0.006616097342348244,0.10003750720398384,44.11764879391193,-88.23529758782387,84.22370748782159
2024-09-23 06:40:23.845620,41.74,0.014976,0.000845657606494293,0.006616097342348244,0.10003750720398384,36.09446859390736,-88.23529758782387,84.22370748782159
2024-09-23 06:40:23.878816,41.74,0.015026,0.000845657606494293,0.006616097342348244,0.10003750720398384,36.09446859390736,-100.26678939585686,76.200527287817
2024-09-23 06:40:23.890709,41.74,0.015026,0.0007959191899112484,0.006168399473213639,0.10083342667870322,36.09446859390736,-100.26678939585686,76.200527287817
2024-09-23 06:40:23.922965,41.74,0.015026,0.0007959191899112484,0.006168399473213639,0.10083342667870322,36.09446859390736,-100.26678939585686,76.200527287817
2024-09-23 06:40:23.934030,41.74,0.015077,0.0003979595949556242,0.006019163432471249,0.10083342667870322,36.09446859390736,-100.26678939585686,76.200527287817
2024-09-23 06:40:23.977120,41.74,0.015077,0.0003979595949556242,0.006019163432471249,0.10003750720398384,36.09446859390736,-96.25519929585457,72.1922225099802
2024-09-23 06:40:23.988777,41.74,0.015128,0.0007461703303635545,0.006019163432471249,0.10003750720398384,36.09446859390736,-96.25519929585457,72.1922225099802
2024-09-23 06:40:24.021944,41.74,0.015128,0.0007461703303635545,0.006218137984732725,0.10008725672808383,36.09446859390736,-96.25519929585457,72.1922225099802
2024-09-23 06:40:24.033835,41.74,0.015216,0.0007461703303635545,0.006218137984732725,0.10008725672808383,44.11764879391193,-96.25519929585457,76.200527287817
2024-09-23 06:40:24.075561,41.74,0.015216,0.0007461703303635545,0.005869927391728859,0.09993802030759727,36.09446859390736,-92.24360919585227,76.200527287817
2024-09-23 06:40:24.087735,41.74,0.015216,0.0007461703303635545,0.005869927391728859,0.09993802030759727,36.09446859390736,-92.24360919585227,72.1922225099802
2024-09-23 06:40:24.120419,41.74,0.015268,0.0007959191899112484,0.006218137984732725,0.09993802030759727,36.09446859390736,-92.24360919585227,72.1922225099802
2024-09-23 06:40:24.131664,41.74,0.015268,0.0007959191899112484,0.006218137984732725,0.09993802030759727,24.06297849342227,-96.25519929585457,72.1922225099802
2024-09-23 06:40:24.173381,41.74,0.015319,0.0006964318663124887,0.006218137984732725,0.1005349538377301,24.06297849342227,-96.25519929585457,72.1922225099802
2024-09-23 06:40:24.185160,41.74,0.015319,0.0006964318663124887,0.006218137984732725,0.1005349538377301,48.12595698684454,-96.25519929585457,72.1922225099802
2024-09-23 06:40:24.217308,41.74,0.015319,0.0006964318663124887,0.006218137984732725,0.1005349538377301,48.12595698684454,-92.24360919585227,72.1922225099802
2024-09-23 06:40:24.228892,41.74,0.015369,0.0003979595949556242,0.005919665523503777,0.1005349538377301,48.12595698684454,-92.24360919585227,72.1922225099802
2024-09-23 06:40:24.271070,41.74,0.01542,0.0010943914612681128,0.005919665523503777,0.1005349538377301,60.15744537978172,-96.25519929585457,72.1922225099802
2024-09-23 06:40:24.283437,41.74,0.01542,0.0010943914612681128,0.006218137984732725,0.1005349538377301,60.15744537978172,-96.25519929585457,72.1922225099802
2024-09-23 06:40:24.316822,41.74,0.01542,0.0010943914612681128,0.006218137984732725,0.10043546694134353,44.11764879391193,-92.24360919585227,72.1922225099802
2024-09-23 06:40:24.329947,41.74,0.01547,0.0001989745997294981,0.006218137984732725,0.10043546694134353,44.11764879391193,-92.24360919585227,72.1922225099802
2024-09-23 06:40:24.361554,41.74,0.01547,0.0001989745997294981,0.006218137984732725,0.10043546694134353,44.11764879391193,-92.24360919585227,72.1922225099802
2024-09-23 06:40:24.373549,41.74,0.015558,0.0001989745997294981,0.006218137984732725,0.09993802030759727,28.07457030097246,-92.24360919585227,76.200527287817
2024-09-23 06:40:24.415400,41.74,0.015558,0.0009948937421727254,0.006267886749344378,0.10003750720398384,36.09446859390736,-92.24360919585227,76.200527287817
2024-09-23 06:40:24.426859,41.74,0.015558,0.0009948937421727254,0.006267886749344378,0.10003750720398384,36.09446859390736,-92.24360919585227,76.200527287817
2024-09-23 06:40:24.459161,41.74,0.015609,0.0009948937421727254,0.006267886749344378,0.10003750720398384,36.09446859390736,-92.24360919585227,76.200527287817
2024-09-23 06:40:24.470480,41.74,0.015609,0.0007959191899112484,0.006168399473213639,0.10013699410037041,48.12595698684454,-100.26678939585686,76.200527287817
2024-09-23 06:40:24.513124,41.74,0.01566,0.000845657606494293,0.006168399473213639,0.10013699410037041,48.12595698684454,-100.26678939585686,76.200527287817
2024-09-23 06:40:24.525930,41.74,0.01566,0.000845657606494293,0.006168399473213639,0.10013699410037041,48.12595698684454,-100.26678939585686,76.200527287817
2024-09-23 06:40:24.558834,42.25,0.01566,0.000845657606494293,0.006168399473213639,0.10013699410037041,48.12595698684454,-96.25519929585457,68.18063240997792
2024-09-23 06:40:24.571130,42.25,0.01571,0.0009451553255896806,0.006367374025475115,0.10008725672808383,48.12595698684454,-96.25519929585457,68.18063240997792
2024-09-23 06:40:24.614037,42.25,0.015761,0.0003979595949556242,0.006118650708601988,0.10008725672808383,32.08287849390507,-88.23529758782387,76.200527287817
2024-09-23 06:40:24.656082,42.25,0.015761,0.0003979595949556242,0.006118650708601988,0.10023649314857039,32.08287849390507,-88.23529758782387,76.200527287817
2024-09-23 06:40:24.667174,42.25,0.015812,0.0008954064660419869,0.006118650708601988,0.10023649314857039,32.08287849390507,-96.25519929585457,76.200527287817
2024-09-23 06:40:24.710131,42.25,0.015812,0.0008954064660419869,0.005820178247373038,0.10033598004495696,48.12595698684454,-100.26678939585686,64.16903547978401
2024-09-23 06:40:24.722187,42.25,0.015899,0.0008954064660419869,0.005820178247373038,0.10033598004495696,48.12595698684454,-100.26678939585686,64.16903547978401
2024-09-23 06:40:24.754830,42.25,0.015899,0.0006466830067647949,0.006168399473213639,0.10003750720398384,48.12595698684454,-100.26678939585686,64.16903547978401
2024-09-23 06:40:24.765874,42.25,0.015899,0.0006466830067647949,0.006168399473213639,0.10003750720398384,44.11764879391193,-92.24360919585227,72.1922225099802
2024-09-23 06:40:24.807660,42.25,0.015951,0.0004974468710863627,0.006168399473213639,0.1001867436244704,32.08287849390507,-92.24360919585227,72.1922225099802
2024-09-23 06:40:24.819727,42.25,0.015951,0.0004974468710863627,0.006168399473213639,0.1001867436244704,32.08287849390507,-88.23529758782387,72.1922225099802
2024-09-23 06:40:24.852584,42.25,0.016002,0.0004974468710863627,0.006168399473213639,0.1001867436244704,32.08287849390507,-88.23529758782387,64.16903547978401
2024-09-23 06:40:24.864259,42.25,0.016002,0.001044642601720419,0.005820178247373038,0.10033598004495696,28.07457030097246,-88.23529758782387,64.16903547978401
2024-09-23 06:40:24.907078,42.25,0.016052,0.0008954064660419869,0.006367374025475115,0.10028623052085697,28.07457030097246,-92.24360919585227,72.1922225099802
2024-09-23 06:40:24.949977,42.25,0.016052,0.0008954064660419869,0.006367374025475115,0.10028623052085697,40.106058693909645,-96.25519929585457,72.1922225099802
2024-09-23 06:40:24.961325,42.25,0.016103,0.0010943914612681128,0.006068901943990335,0.10028623052085697,40.106058693909645,-96.25519929585457,72.1922225099802
2024-09-23 06:40:25.004510,42.25,0.016154,0.0013928637326249774,0.006068901943990335,0.0998385212593973,48.12595698684454,-92.24360919585227,76.200527287817
2024-09-23 06:40:25.048280,42.25,0.016154,0.0013928637326249774,0.006267886749344378,0.10008725672808383,32.08287849390507,-92.24360919585227,76.200527287817
2024-09-23 06:40:25.059648,42.25,0.01624,0.0013928637326249774,0.006267886749344378,0.10008725672808383,32.08287849390507,-100.26678939585686,76.200527287817
2024-09-23 06:40:25.102475,42.25,0.01624,0.0007461703303635545,0.006367374025475115,0.10013699410037041,40.106058693909645,-96.25519929585457,76.200527287817
2024-09-23 06:40:25.145724,42.25,0.016292,0.0012933660135295898,0.005621193442018997,0.10013699410037041,40.106058693909645,-96.25519929585457,76.200527287817
2024-09-23 06:40:25.157706,42.25,0.016292,0.0012933660135295898,0.005621193442018997,0.10058470336183009,60.15744537978172,-92.24360919585227,76.200527287817
2024-09-23 06:40:25.200340,42.25,0.016342,0.00044769805900669,0.006665846106959895,0.09978878388711071,48.12595698684454,-92.24360919585227,72.1922225099802
2024-09-23 06:40:25.243527,42.25,0.016393,0.00014922575204880957,0.006665846106959895,0.09978878388711071,48.12595698684454,-88.23529758782387,72.1922225099802
2024-09-23 06:40:25.255236,42.25,0.016393,0.00014922575204880957,0.006118650708601988,0.1001867436244704,48.12595698684454,-88.23529758782387,72.1922225099802
2024-09-23 06:40:25.298282,42.25,0.016444,0.0003979595949556242,0.006466861681350023,0.1001867436244704,40.106058693909645,-88.23529758782387,76.200527287817
2024-09-23 06:40:25.340880,42.25,0.016444,0.0003979595949556242,0.006466861681350023,0.10033598004495696,16.039798293417693,-96.25519929585457,76.200527287817
2024-09-23 06:40:25.352759,42.25,0.016494,0.0009451553255896806,0.006466861681350023,0.10033598004495696,16.039798293417693,-96.25519929585457,80.21211738781929
2024-09-23 06:40:25.385927,42.25,0.016494,0.0009451553255896806,0.005521706165888258,0.10033598004495696,16.039798293417693,-96.25519929585457,80.21211738781929
2024-09-23 06:40:25.397814,42.25,0.016581,0.0009451553255896806,0.005521706165888258,0.10003750720398384,28.07457030097246,-100.26678939585686,76.200527287817
2024-09-23 06:40:25.440251,42.25,0.016581,0.0010943914612681128,0.006118650708601988,0.09993802030759727,68.18063240997792,-88.23529758782387,76.200527287817
2024-09-23 06:40:25.452514,42.25,0.016581,0.0010943914612681128,0.006118650708601988,0.09993802030759727,68.18063240997792,-88.23529758782387,64.16903547978401
2024-09-23 06:40:25.484598,42.25,0.016633,0.001044642601720419,0.006118650708601988,0.09993802030759727,68.18063240997792,-88.23529758782387,64.16903547978401
2024-09-23 06:40:25.496353,42.25,0.016633,0.001044642601720419,0.005919665523503777,0.10003750720398384,52.137550501942634,-80.21211738781929,64.16903547978401
2024-09-23 06:40:25.539441,42.25,0.016683,0.0009451553255896806,0.006019163432471249,0.10058470336183009,40.106058693909645,-80.21211738781929,68.18063240997792
2024-09-23 06:40:25.582335,42.76,0.016683,0.0009451553255896806,0.006019163432471249,0.10058470336183009,40.106058693909645,-92.24360919585227,76.200527287817
2024-09-23 06:40:25.593781,42.76,0.016734,0.000845657606494293,0.005969414667859598,0.10008725672808383,40.106058693909645,-92.24360919585227,76.200527287817
2024-09-23 06:40:25.635970,42.76,0.016785,0.0012933660135295898,0.005969414667859598,0.10008725672808383,28.07457030097246,-92.24360919585227,76.200527287817
2024-09-23 06:40:25.648345,42.76,0.016785,0.0012933660135295898,0.006665846106959895,0.10008725672808383,28.07457030097246,-92.24360919585227,76.200527287817
2024-09-23 06:40:25.679707,42.76,0.016785,0.0012933660135295898,0.006665846106959895,0.10033598004495696,36.09446859390736,-92.24360919585227,76.200527287817
2024-09-23 06:40:25.691173,42.76,0.016835,0.00044769805900669,0.006665846106959895,0.10033598004495696,36.09446859390736,-92.24360919585227,72.1922225099802
2024-09-23 06:40:25.734968,42.76,0.016923,0.00044769805900669,0.005969414667859598,0.10013699410037041,44.11764879391193,-92.24360919585227,72.1922225099802
2024-09-23 06:40:25.778935,42.76,0.016923,0.00029846189959424716,0.006019163432471249,0.10013699410037041,44.11764879391193,-92.24360919585227,72.1922225099802
2024-09-23 06:40:25.790632,42.76,0.016923,0.00029846189959424716,0.006019163432471249,0.10003750720398384,36.09446859390736,-96.25519929585457,72.1922225099802
2024-09-23 06:40:25.833819,42.76,0.016974,0.0008954064660419869,0.005770429482761387,0.10003750720398384,52.137550501942634,-96.25519929585457,72.1922225099802
2024-09-23 06:40:25.879393,42.76,0.017025,0.00034821073540793035,0.006665846106959895,0.10003750720398384,52.137550501942634,-96.25519929585457,72.1922225099802
2024-09-23 06:40:25.891189,42.76,0.017025,0.00034821073540793035,0.006665846106959895,0.0998385212593973,44.11764879391193,-96.25519929585457,72.1922225099802
2024-09-23 06:40:25.924508,42.76,0.017075,0.00034821073540793035,0.006665846106959895,0.0998385212593973,44.11764879391193,-100.26678939585686,68.18063240997792
2024-09-23 06:40:25.935959,42.76,0.017075,0.0005471957306340564,0.006068901943990335,0.10028623052085697,44.11764879391193,-100.26678939585686,68.18063240997792
2024-09-23 06:40:25.979621,42.76,0.017126,0.00029846189959424716,0.0057206909712423,0.10028623052085697,4.008308192932605,-104.27510100388527,72.1922225099802
2024-09-23 06:40:26.022318,42.76,0.017126,0.00029846189959424716,0.0057206909712423,0.10033598004495696,16.039798293417693,-96.25519929585457,72.1922225099802
2024-09-23 06:40:26.033393,42.76,0.017177,0.0006964318663124887,0.0057206909712423,0.10033598004495696,16.039798293417693,-96.25519929585457,68.18063240997792
2024-09-23 06:40:26.075872,42.76,0.017264,0.0006964318663124887,0.006765333762834803,0.10023649314857039,32.08287849390507,-100.26678939585686,72.1922225099802
2024-09-23 06:40:26.119120,42.76,0.017264,0.0007959191899112484,0.006466861681350023,0.10023649314857039,32.08287849390507,-100.26678939585686,72.1922225099802
2024-09-23 06:40:26.130754,42.76,0.017264,0.0007959191899112484,0.006466861681350023,0.09978878388711071,40.106058693909645,-96.25519929585457,76.200527287817
2024-09-23 06:40:26.173325,42.76,0.017315,0.0007959191899112484,0.005820178247373038,0.09954006057023758,52.137550501942634,-100.26678939585686,76.200527287817
2024-09-23 06:40:26.215856,42.76,0.017366,0.0007959191899112484,0.005820178247373038,0.09954006057023758,52.137550501942634,-100.26678939585686,72.1922225099802
2024-09-23 06:40:26.227709,42.76,0.017366,0.0007959191899112484,0.006616097342348244,0.10033598004495696,40.106058693909645,-100.26678939585686,72.1922225099802
2024-09-23 06:40:26.271453,42.76,0.017417,0.0007461703303635545,0.006317625260863464,0.10023649314857039,40.106058693909645,-100.26678939585686,72.1922225099802
2024-09-23 06:40:26.313281,42.76,0.017417,0.0007461703303635545,0.006317625260863464,0.10023649314857039,20.05138839341998,-92.24360919585227,72.1922225099802
2024-09-23 06:40:26.324968,42.76,0.017467,0.0016415871444341481,0.006815082527446455,0.10023649314857039,20.05138839341998,-92.24360919585227,76.200527287817
2024-09-23 06:40:26.367530,42.76,0.017518,0.0016415871444341481,0.006815082527446455,0.10048521646544352,24.06297849342227,-92.24360919585227,80.21211738781929
2024-09-23 06:40:26.379232,42.76,0.017518,0.0005471957306340564,0.006815082527446455,0.10048521646544352,24.06297849342227,-92.24360919585227,80.21211738781929
2024-09-23 06:40:26.410866,42.76,0.017518,0.0005471957306340564,0.005969414667859598,0.09998775767988385,24.06297849342227,-92.24360919585227,80.21211738781929
2024-09-23 06:40:26.422421,42.76,0.017605,0.0005471957306340564,0.005969414667859598,0.09998775767988385,44.11764879391193,-100.26678939585686,72.1922225099802
2024-09-23 06:40:26.464966,42.76,0.017605,0.0005969341946851222,0.006516610445961675,0.10013699410037041,44.11764879391193,-100.26678939585686,72.1922225099802
2024-09-23 06:40:26.478227,42.76,0.017605,0.0005969341946851222,0.006516610445961675,0.10013699410037041,44.11764879391193,-92.24360919585227,72.1922225099802
2024-09-23 06:40:26.509910,42.76,0.017657,0.001044642601720419,0.006267886749344378,0.10013699410037041,44.11764879391193,-92.24360919585227,72.1922225099802
2024-09-23 06:40:26.521442,42.76,0.017657,0.001044642601720419,0.006267886749344378,0.10008725672808383,32.08287849390507,-88.23529758782387,72.1922225099802
2024-09-23 06:40:26.564658,42.76,0.017707,0.0008954064660419869,0.006417122790086768,0.10043546694134353,32.08287849390507,-88.23529758782387,76.200527287817
2024-09-23 06:40:26.607539,42.88,0.017758,0.0008954064660419869,0.006417122790086768,0.10043546694134353,32.08287849390507,-92.24360919585227,72.1922225099802
2024-09-23 06:40:26.619140,42.88,0.017758,0.00014922575204880957,0.006118650708601988,0.0998385212593973,32.08287849390507,-92.24360919585227,72.1922225099802
2024-09-23 06:40:26.662166,42.88,0.017809,0.0007461703303635545,0.006168399473213639,0.0998385212593973,44.11764879391193,-96.25519929585457,76.200527287817
2024-09-23 06:40:26.705583,42.88,0.017809,0.0007461703303635545,0.006168399473213639,0.10083342667870322,56.14914060194492,-92.24360919585227,76.200527287817
2024-09-23 06:40:26.716849,42.88,0.017859,0.0007461703303635545,0.006168399473213639,0.10083342667870322,56.14914060194492,-92.24360919585227,76.200527287817
2024-09-23 06:40:26.759684,42.88,0.017946,0.0007461703303635545,0.006665846106959895,0.10063445288593008,32.08287849390507,-104.27510100388527,72.1922225099802
2024-09-23 06:40:26.803140,42.88,0.017946,0.0004974468710863627,0.006317625260863464,0.1005349538377301,32.08287849390507,-104.27510100388527,72.1922225099802
2024-09-23 06:40:26.815481,42.88,0.017946,0.0004974468710863627,0.006317625260863464,0.1005349538377301,28.07457030097246,-92.24360919585227,72.1922225099802
2024-09-23 06:40:26.847573,42.88,0.017998,0.0004974468710863627,0.006317625260863464,0.1005349538377301,28.07457030097246,-92.24360919585227,72.1922225099802
2024-09-23 06:40:26.859673,42.88,0.017998,0.0007461703303635545,0.006317625260863464,0.1005349538377301,28.07457030097246,-92.24360919585227,72.1922225099802
2024-09-23 06:40:26.901791,42.88,0.017998,0.0007461703303635545,0.005919665523503777,0.09988827078349728,40.106058693909645,-92.24360919585227,72.1922225099802
2024-09-23 06:40:26.913395,42.88,0.018048,0.0007461703303635545,0.005919665523503777,0.09988827078349728,40.106058693909645,-88.23529758782387,76.200527287817
2024-09-23 06:40:26.945379,42.88,0.018048,0.0004974468710863627,0.005919665523503777,0.09988827078349728,40.106058693909645,-88.23529758782387,76.200527287817
2024-09-23 06:40:26.956714,42.88,0.018048,0.0004974468710863627,0.005919665523503777,0.10038572956905695,44.11764879391193,-104.27510100388527,72.1922225099802
2024-09-23 06:40:27.000713,42.88,0.018099,0.0007959191899112484,0.006267886749344378,0.10048521646544352,40.106058693909645,-104.27510100388527,72.1922225099802
2024-09-23 06:40:27.013381,42.88,0.018099,0.0007959191899112484,0.006267886749344378,0.10048521646544352,40.106058693909645,-96.25519929585457,72.1922225099802
2024-09-23 06:40:27.045805,42.88,0.01815,0.0007959191899112484,0.006267886749344378,0.10048521646544352,40.106058693909645,-96.25519929585457,72.1922225099802
2024-09-23 06:40:27.057558,42.88,0.01815,0.000845657606494293,0.006566359210573326,0.10038572956905695,24.06297849342227,-96.25519929585457,72.1922225099802
2024-09-23 06:40:27.100994,42.88,0.0182,0.00024872343554318134,0.006267886749344378,0.09978878388711071,24.06297849342227,-96.25519929585457,72.1922225099802
2024-09-23 06:40:27.142946,42.88,0.0182,0.00024872343554318134,0.006267886749344378,0.09978878388711071,52.137550501942634,-96.25519929585457,72.1922225099802
2024-09-23 06:40:27.154700,42.88,0.01829,0.00044769805900669,0.006218137984732725,0.09978878388711071,52.137550501942634,-96.25519929585457,72.1922225099802
2024-09-23 06:40:27.197257,42.88,0.018341,0.001044642601720419,0.006218137984732725,0.10038572956905695,28.07457030097246,-96.25519929585457,72.1922225099802
2024-09-23 06:40:27.239837,42.88,0.018341,0.001044642601720419,0.005621193442018997,0.10003750720398384,28.07457030097246,-96.25519929585457,72.1922225099802
2024-09-23 06:40:27.251011,42.88,0.018434,0.001044642601720419,0.005621193442018997,0.10003750720398384,-108.28669110388756,-108.28669110388756,80.21211738781929
2024-09-23 06:40:27.293331,42.88,0.018434,0.0005471957306340564,0.00542221888975752,0.0998385212593973,-184.49049688367845,-112.29828120388984,80.21211738781929
2024-09-23 06:40:27.305213,42.88,0.018434,0.0005471957306340564,0.00542221888975752,0.0998385212593973,-184.49049688367845,-112.29828120388984,84.22370748782159
2024-09-23 06:40:27.338020,42.88,0.018485,0.0007959191899112484,0.00542221888975752,0.0998385212593973,-184.49049688367845,-112.29828120388984,84.22370748782159
2024-09-23 06:40:27.349313,42.88,0.018485,0.0007959191899112484,0.005372470125145868,0.10073393978231665,-168.44741497564317,-116.30987130389214,84.22370748782159
2024-09-23 06:40:27.392389,42.88,0.018536,0.0006466830067647949,0.006367374025475115,0.0998385212593973,-360.9610920593262,-116.30987130389214,76.200527287817
2024-09-23 06:40:27.434627,42.88,0.018536,0.0006466830067647949,0.006367374025475115,0.0998385212593973,-360.9610920593262,-244.65123441581727,-68.18063240997792
2024-09-23 06:40:27.446165,42.88,0.018587,0.0010943914612681128,0.0045765506504264935,0.10033598004495696,-360.9610920593262,-244.65123441581727,-68.18063240997792
2024-09-23 06:40:27.489428,42.88,0.018637,0.0017908233750486228,0.0031339382481259063,0.10033598004495696,-1026.7374618793488,-296.7920702399254,-136.36126481995584
2024-09-23 06:40:27.532604,42.88,0.018637,0.0017908233750486228,0.0031339382481259063,0.10157960878113602,-621.6586868751526,-296.7920702399254,-136.36126481995584
2024-09-23 06:40:27.544168,42.88,0.018688,0.0012436275969465451,0.0031339382481259063,0.10157960878113602,-621.6586868751526,-244.65123441581727,-4.008308192932605
2024-09-23 06:40:27.588248,42.88,0.018775,0.0012436275969465451,0.0020395466919217514,0.1005349538377301,-473.2626654155731,-172.45900507564545,20.05138839341998
2024-09-23 06:40:27.631485,42.91,0.018775,0.0012933660135295898,0.0006964318663124887,0.09963954746662415,-473.2626654155731,-172.45900507564545,20.05138839341998
2024-09-23 06:40:27.643527,42.91,0.018775,0.0012933660135295898,0.0006964318663124887,0.09963954746662415,-1074.8667076034546,-164.43582487564086,-132.3529532119274
2024-09-23 06:40:27.685857,42.91,0.018827,0.0017908233750486228,-0.0016415871444341481,0.1009329257269032,-1010.6976584632873,-252.67441461582183,-132.3529532119274
2024-09-23 06:40:27.728433,42.91,0.018877,0.0018903106511793612,-0.0016415871444341481,0.1009329257269032,-1010.6976584632873,-252.67441461582183,32.08287849390507
2024-09-23 06:40:27.739634,42.91,0.018877,0.0018903106511793612,-0.0025369937054121774,0.10003750720398384,-364.9726821593285,-252.67441461582183,32.08287849390507
2024-09-23 06:40:27.782119,42.91,0.018928,0.001044642601720419,-0.0035816467500972456,0.10167909567752258,-364.9726821593285,-84.22370748782159,32.08287849390507
2024-09-23 06:40:27.824907,42.91,0.018928,0.001044642601720419,-0.0035816467500972456,0.10167909567752258,-132.3529532119274,-60.15744537978172,32.08287849390507
2024-09-23 06:40:27.836504,42.91,0.018979,0.0015918383798224967,-0.003233425524256645,0.10167909567752258,-132.3529532119274,-60.15744537978172,56.14914060194492
2024-09-23 06:40:27.879449,42.91,0.019029,0.0015420998683034098,-0.003233425524256645,0.10023649314857039,28.07457030097246,-92.24360919585227,76.200527287817
2024-09-23 06:40:27.922137,42.91,0.019029,0.0015420998683034098,-0.0035318979854855937,0.10048521646544352,28.07457030097246,-92.24360919585227,76.200527287817
2024-09-23 06:40:27.933659,42.91,0.019116,0.0015420998683034098,-0.0035318979854855937,0.10048521646544352,32.08287849390507,-92.24360919585227,68.18063240997792
2024-09-23 06:40:27.976302,42.91,0.019116,0.0017410744205648867,-0.0029847020175114316,0.09949031104613759,20.05138839341998,-88.23529758782387,68.18063240997792
2024-09-23 06:40:27.988105,42.91,0.019116,0.0017410744205648867,-0.0029847020175114316,0.09949031104613759,20.05138839341998,-88.23529758782387,72.1922225099802
2024-09-23 06:40:28.020843,42.91,0.019168,0.0019400594157910128,-0.0029847020175114316,0.09949031104613759,20.05138839341998,-88.23529758782387,72.1922225099802
2024-09-23 06:40:28.032937,42.91,0.019168,0.0019400594157910128,-0.0031339382481259063,0.10033598004495696,36.09446859390736,-92.24360919585227,72.1922225099802
2024-09-23 06:40:28.075541,42.91,0.019219,0.0020892956464054874,-0.003382661564999035,0.09973903436301072,32.08287849390507,-92.24360919585227,80.21211738781929
2024-09-23 06:40:28.119722,42.91,0.019269,0.0020892956464054874,-0.003382661564999035,0.09973903436301072,32.08287849390507,-88.23529758782387,76.200527287817
2024-09-23 06:40:28.130693,42.91,0.019269,0.0013928637326249774,-0.0029847020175114316,0.10038572956905695,32.08287849390507,-88.23529758782387,76.200527287817
2024-09-23 06:40:28.173359,42.91,0.01932,0.0017908233750486228,-0.0024872551938930902,0.10038572956905695,36.09446859390736,-84.22370748782159,76.200527287817
2024-09-23 06:40:28.215928,42.91,0.01932,0.0017908233750486228,-0.0024872551938930902,0.10033598004495696,36.09446859390736,-92.24360919585227,76.200527287817
2024-09-23 06:40:28.227867,42.91,0.019371,0.0022385316871478774,-0.0024872551938930902,0.10033598004495696,36.09446859390736,-92.24360919585227,76.200527287817
2024-09-23 06:40:28.270728,42.91,0.019458,0.0022385316871478774,-0.0030841997366068195,0.10028623052085697,44.11764879391193,-96.25519929585457,72.1922225099802
2024-09-23 06:40:28.313465,42.91,0.019458,0.0015420998683034098,-0.0030841997366068195,0.09988827078349728,44.11764879391193,-96.25519929585457,72.1922225099802
2024-09-23 06:40:28.325188,42.91,0.019458,0.0015420998683034098,-0.0030841997366068195,0.09988827078349728,36.09446859390736,-88.23529758782387,76.200527287817
2024-09-23 06:40:28.368562,42.91,0.019509,0.0013431148730772837,-0.003233425524256645,0.09998775767988385,40.106058693909645,-88.23529758782387,76.200527287817
2024-09-23 06:40:28.380342,42.91,0.019509,0.0013431148730772837,-0.003233425524256645,0.09998775767988385,40.106058693909645,-92.24360919585227,76.200527287817
2024-09-23 06:40:28.412462,42.91,0.01956,0.002139034157924574,-0.003233425524256645,0.09998775767988385,40.106058693909645,-92.24360919585227,80.21211738781929
2024-09-23 06:40:28.424169,42.91,0.01956,0.002139034157924574,-0.0028852147413806935,0.10013699410037041,36.09446859390736,-92.24360919585227,80.21211738781929
2024-09-23 06:40:28.456425,42.91,0.01956,0.002139034157924574,-0.0028852147413806935,0.10013699410037041,36.09446859390736,-92.24360919585227,80.21211738781929
2024-09-23 06:40:28.469081,42.91,0.019611,0.0017410744205648867,-0.0028852147413806935,0.10048521646544352,36.09446859390736,-92.24360919585227,72.1922225099802
2024-09-23 06:40:28.511513,42.91,0.019661,0.0018405616966956251,-0.0028852147413806935,0.10048521646544352,44.11764879391193,-88.23529758782387,72.1922225099802
2024-09-23 06:40:28.523317,42.91,0.019661,0.0018405616966956251,-0.0030841997366068195,0.10048521646544352,44.11764879391193,-88.23529758782387,72.1922225099802
2024-09-23 06:40:28.558223,42.91,0.019661,0.0018405616966956251,-0.0030841997366068195,0.10038572956905695,40.106058693909645,-88.23529758782387,72.1922225099802
2024-09-23 06:40:28.569601,42.91,0.019712,0.0016415871444341481,-0.0030841997366068195,0.10038572956905695,40.106058693909645,-96.25519929585457,72.1922225099802
2024-09-23 06:40:28.612067,42.91,0.019799,0.0016415871444341481,-0.0031836870127375577,0.10028623052085697,36.09446859390736,-96.25519929585457,80.21211738781929
2024-09-23 06:40:28.655964,42.77,0.019799,0.0012436275969465451,-0.0031836870127375577,0.10008725672808383,36.09446859390736,-96.25519929585457,80.21211738781929
2024-09-23 06:40:28.667359,42.77,0.019799,0.0012436275969465451,-0.0031836870127375577,0.10008725672808383,36.09446859390736,-88.23529758782387,72.1922225099802
2024-09-23 06:40:28.710784,42.77,0.01985,0.0019400594157910128,-0.002437506429281439,0.10088317620280321,40.106058693909645,-96.25519929585457,72.1922225099802
2024-09-23 06:40:28.752884,42.77,0.019901,0.0017908233750486228,-0.002437506429281439,0.10088317620280321,40.106058693909645,-96.25519929585457,72.1922225099802
2024-09-23 06:40:28.764460,42.77,0.019901,0.0017908233750486228,-0.0024872551938930902,0.10028623052085697,48.12595698684454,-96.25519929585457,72.1922225099802
2024-09-23 06:40:28.806479,42.77,0.019952,0.0014923510087557158,-0.0035318979854855937,0.1005349538377301,48.12595698684454,-96.25519929585457,60.15744537978172
2024-09-23 06:40:28.849449,42.77,0.019952,0.0014923510087557158,-0.0035318979854855937,0.1005349538377301,40.106058693909645,-92.24360919585227,60.15744537978172
2024-09-23 06:40:28.860647,42.77,0.020002,0.0017908233750486228,-0.0028354659767690416,0.1005349538377301,40.106058693909645,-92.24360919585227,72.1922225099802
2024-09-23 06:40:28.902662,42.77,0.020053,0.0017908233750486228,-0.0028354659767690416,0.1005349538377301,36.09446859390736,-96.25519929585457,80.21211738781929
2024-09-23 06:40:28.914240,42.77,0.020053,0.0018405616966956251,-0.0028354659767690416,0.1005349538377301,36.09446859390736,-96.25519929585457,80.21211738781929
2024-09-23 06:40:28.946148,42.77,0.020053,0.0018405616966956251,-0.003233425524256645,0.0998385212593973,36.09446859390736,-96.25519929585457,80.21211738781929
2024-09-23 06:40:28.957182,42.77,0.02014,0.0018405616966956251,-0.003233425524256645,0.0998385212593973,44.11764879391193,-96.25519929585457,76.200527287817
2024-09-23 06:40:28.999476,42.77,0.02014,0.0013928637326249774,-0.0027359787006383035,0.10008725672808383,44.11764879391193,-96.25519929585457,76.200527287817
2024-09-23 06:40:29.011316,42.77,0.02014,0.0013928637326249774,-0.0027359787006383035,0.10008725672808383,44.11764879391193,-96.25519929585457,72.1922225099802
2024-09-23 06:40:29.043568,42.77,0.020192,0.0014923510087557158,-0.0027359787006383035,0.10008725672808383,44.11764879391193,-96.25519929585457,72.1922225099802
2024-09-23 06:40:29.057334,42.77,0.020192,0.0014923510087557158,-0.0032831742888682963,0.1001867436244704,40.106058693909645,-96.25519929585457,72.1922225099802
2024-09-23 06:40:29.099983,42.77,0.020243,0.0017410744205648867,-0.003233425524256645,0.10048521646544352,44.11764879391193,-96.25519929585457,76.200527287817
2024-09-23 06:40:29.143234,42.77,0.020293,0.0017410744205648867,-0.003233425524256645,0.10048521646544352,44.11764879391193,-96.25519929585457,76.200527287817
2024-09-23 06:40:29.154739,42.77,0.020293,0.0018405616966956251,-0.0031836870127375577,0.09988827078349728,44.11764879391193,-96.25519929585457,76.200527287817
2024-09-23 06:40:29.197476,42.77,0.020345,0.0019897979273100995,-0.0024872551938930902,0.09988827078349728,36.09446859390736,-92.24360919585227,76.200527287817
2024-09-23 06:40:29.240737,42.77,0.020345,0.0019897979273100995,-0.0024872551938930902,0.10048521646544352,40.106058693909645,-92.24360919585227,76.200527287817
2024-09-23 06:40:29.252063,42.77,0.020395,0.0015918383798224967,-0.0024872551938930902,0.10048521646544352,40.106058693909645,-92.24360919585227,76.200527287817
2024-09-23 06:40:29.295248,42.77,0.020395,0.0015918383798224967,-0.0020892956464054874,0.10038572956905695,40.106058693909645,-92.24360919585227,72.1922225099802
2024-09-23 06:40:29.306885,42.77,0.020481,0.0015918383798224967,-0.0020892956464054874,0.10038572956905695,40.106058693909645,-92.24360919585227,72.1922225099802
2024-09-23 06:40:29.339003,42.77,0.020481,0.0014923510087557158,-0.0027359787006383035,0.10063445288593008,36.09446859390736,-92.24360919585227,72.1922225099802
2024-09-23 06:40:29.350545,42.77,0.020481,0.0014923510087557158,-0.0027359787006383035,0.10063445288593008,36.09446859390736,-80.21211738781929,76.200527287817
2024-09-23 06:40:29.382527,42.77,0.020533,0.0014923510087557158,-0.0027359787006383035,0.10063445288593008,36.09446859390736,-80.21211738781929,76.200527287817
2024-09-23 06:40:29.393469,42.77,0.020533,0.0015918383798224967,-0.0034324103296106863,0.10023649314857039,36.09446859390736,-88.23529758782387,76.200527287817
2024-09-23 06:40:29.435985,42.77,0.020584,0.0015420998683034098,-0.0034324103296106863,0.10023649314857039,36.09446859390736,-88.23529758782387,76.200527287817
2024-09-23 06:40:29.448349,42.77,0.020584,0.0015420998683034098,-0.002785727465249955,0.10073393978231665,40.106058693909645,-88.23529758782387,76.200527287817
2024-09-23 06:40:29.480546,42.77,0.020584,0.0015420998683034098,-0.002785727465249955,0.10073393978231665,40.106058693909645,-96.25519929585457,76.200527287817
2024-09-23 06:40:29.492661,42.77,0.020634,0.0017410744205648867,-0.002288270198666964,0.10008725672808383,40.106058693909645,-96.25519929585457,72.1922225099802
2024-09-23 06:40:29.535693,42.77,0.020685,0.0016415871444341481,-0.002288270198666964,0.10008725672808383,40.106058693909645,-88.23529758782387,84.22370748782159
2024-09-23 06:40:29.547503,42.77,0.020685,0.0016415871444341481,-0.002785727465249955,0.10008725672808383,40.106058693909645,-88.23529758782387,84.22370748782159
2024-09-23 06:40:29.579972,42.77,0.020685,0.0016415871444341481,-0.002785727465249955,0.09988827078349728,40.106058693909645,-88.23529758782387,84.22370748782159
2024-09-23 06:40:29.591003,42.77,0.020736,0.0018405616966956251,-0.002785727465249955,0.09988827078349728,48.12595698684454,-92.24360919585227,80.21211738781929
2024-09-23 06:40:29.633412,42.77,0.020736,0.0018405616966956251,-0.0031339382481259063,0.1005349538377301,44.11764879391193,-92.24360919585227,68.18063240997792
2024-09-23 06:40:29.645249,42.77,0.020823,0.0018405616966956251,-0.0031339382481259063,0.1005349538377301,44.11764879391193,-92.24360919585227,68.18063240997792
2024-09-23 06:40:29.678009,43.19,0.020823,0.0021887829225362256,-0.0030344509719951677,0.1005349538377301,44.11764879391193,-92.24360919585227,68.18063240997792
2024-09-23 06:40:29.689658,43.19,0.020823,0.0021887829225362256,-0.0030344509719951677,0.1001867436244704,36.09446859390736,-92.24360919585227,80.21211738781929
2024-09-23 06:40:29.732581,43.19,0.020874,0.0022385316871478774,-0.002636491424507565,0.1005349538377301,44.11764879391193,-92.24360919585227,80.21211738781929
2024-09-23 06:40:29.745008,43.19,0.020874,0.0022385316871478774,-0.002636491424507565,0.1005349538377301,44.11764879391193,-92.24360919585227,80.21211738781929
2024-09-23 06:40:29.777164,43.19,0.020925,0.0023380189632786156,-0.002636491424507565,0.1005349538377301,44.11764879391193,-92.24360919585227,76.200527287817
2024-09-23 06:40:29.788507,43.19,0.020925,0.0023380189632786156,-0.0031339382481259063,0.10043546694134353,44.11764879391193,-92.24360919585227,76.200527287817
2024-09-23 06:40:29.831466,43.19,0.020976,0.0015918383798224967,-0.0031339382481259063,0.09998775767988385,44.11764879391193,-88.23529758782387,72.1922225099802
2024-09-23 06:40:29.874457,43.19,0.020976,0.0015918383798224967,-0.0031339382481259063,0.09998775767988385,36.09446859390736,-92.24360919585227,72.1922225099802
2024-09-23 06:40:29.885703,43.19,0.021026,0.0018903106511793612,-0.0024872551938930902,0.09998775767988385,36.09446859390736,-92.24360919585227,72.1922225099802
2024-09-23 06:40:29.928563,43.19,0.021077,0.002139034157924574,-0.0024872551938930902,0.10023649314857039,36.09446859390736,-88.23529758782387,72.1922225099802
2024-09-23 06:40:29.972390,43.19,0.021077,0.002139034157924574,-0.0031836870127375577,0.10023649314857039,44.11764879391193,-88.23529758782387,72.1922225099802
2024-09-23 06:40:29.983433,43.19,0.021164,0.002139034157924574,-0.0031836870127375577,0.10023649314857039,44.11764879391193,-92.24360919585227,72.1922225099802
2024-09-23 06:40:30.025404,43.19,0.021164,0.0020892956464054874,-0.003233425524256645,0.10023649314857039,32.08287849390507,-96.25519929585457,84.22370748782159
2024-09-23 06:40:30.068429,43.19,0.021215,0.0017410744205648867,-0.0031836870127375577,0.10023649314857039,32.08287849390507,-96.25519929585457,84.22370748782159
2024-09-23 06:40:30.079881,43.19,0.021215,0.0017410744205648867,-0.0031836870127375577,0.10118164904377633,20.05138839341998,-92.24360919585227,84.22370748782159
2024-09-23 06:40:30.122253,43.19,0.021266,0.0018903106511793612,-0.0030841997366068195,0.09993802030759727,44.11764879391193,-92.24360919585227,76.200527287817
2024-09-23 06:40:30.164770,43.19,0.021266,0.0018903106511793612,-0.0030841997366068195,0.09993802030759727,44.11764879391193,-96.25519929585457,72.1922225099802
2024-09-23 06:40:30.176674,43.19,0.021317,0.0021887829225362256,-0.0030841997366068195,0.10068419025821666,44.11764879391193,-96.25519929585457,72.1922225099802
2024-09-23 06:40:30.220262,43.19,0.021367,0.0017410744205648867,-0.0032831742888682963,0.10068419025821666,56.14914060194492,-92.24360919585227,68.18063240997792
2024-09-23 06:40:30.262381,43.19,0.021367,0.0017410744205648867,-0.0032831742888682963,0.0998385212593973,4.008308192932605,-92.24360919585227,68.18063240997792
2024-09-23 06:40:30.274155,43.19,0.021418,0.0017908233750486228,-0.0032831742888682963,0.0998385212593973,4.008308192932605,-92.24360919585227,80.21211738781929
2024-09-23 06:40:30.316114,43.19,0.021418,0.0017908233750486228,-0.0029349636958644295,0.10033598004495696,36.09446859390736,-96.25519929585457,80.21211738781929
2024-09-23 06:40:30.329030,43.19,0.021505,0.0017908233750486228,-0.0029349636958644295,0.10033598004495696,36.09446859390736,-96.25519929585457,72.1922225099802
2024-09-23 06:40:30.361681,43.19,0.021505,0.0016415871444341481,-0.002586742470023829,0.10033598004495696,36.09446859390736,-96.25519929585457,72.1922225099802
2024-09-23 06:40:30.373422,43.19,0.021505,0.0016415871444341481,-0.002586742470023829,0.1001867436244704,36.09446859390736,-92.24360919585227,80.21211738781929
2024-09-23 06:40:30.416249,43.19,0.021557,0.0019400594157910128,-0.0026862297461545674,0.10058470336183009,40.106058693909645,-96.25519929585457,80.21211738781929
2024-09-23 06:40:30.459010,43.19,0.021607,0.0019400594157910128,-0.0026862297461545674,0.10058470336183009,40.106058693909645,-96.25519929585457,80.21211738781929
2024-09-23 06:40:30.471148,43.19,0.021607,0.002437506429281439,-0.002636491424507565,0.09988827078349728,40.106058693909645,-96.25519929585457,80.21211738781929
2024-09-23 06:40:30.514811,43.19,0.021658,0.0020395466919217514,-0.002785727465249955,0.10038572956905695,40.106058693909645,-92.24360919585227,72.1922225099802
2024-09-23 06:40:30.558241,43.19,0.021709,0.0020395466919217514,-0.002785727465249955,0.10038572956905695,40.106058693909645,-92.24360919585227,76.200527287817
2024-09-23 06:40:30.570258,43.19,0.021709,0.0019400594157910128,-0.0022385316871478774,0.10038572956905695,40.106058693909645,-92.24360919585227,76.200527287817
2024-09-23 06:40:30.603005,43.19,0.021709,0.0019400594157910128,-0.0022385316871478774,0.09998775767988385,36.09446859390736,-92.24360919585227,76.200527287817
2024-09-23 06:40:30.614707,43.19,0.021709,0.0019400594157910128,-0.0022385316871478774,0.09998775767988385,36.09446859390736,-88.23529758782387,76.200527287817
2024-09-23 06:40:30.657225,43.19,0.021759,0.0018903106511793612,-0.0034324103296106863,0.09998775767988385,36.09446859390736,-88.23529758782387,72.1922225099802
2024-09-23 06:40:30.700742,42.89,0.021759,0.0018903106511793612,-0.0034324103296106863,0.10317145988238817,36.09446859390736,-88.23529758782387,72.1922225099802
2024-09-23 06:40:30.712955,42.89,0.021847,0.001442602149208022,-0.0034324103296106863,0.10317145988238817,124.32977301192284,-112.29828120388984,52.137550501942634
2024-09-23 06:40:30.755727,42.89,0.021847,0.001442602149208022,-0.0028354659767690416,0.09725178296655933,8.019899146708847,-72.1922225099802,76.200527287817
2024-09-23 06:40:30.768416,42.89,0.021898,0.001442602149208022,-0.0028354659767690416,0.09725178296655933,8.019899146708847,-72.1922225099802,76.200527287817
2024-09-23 06:40:30.800039,42.89,0.021898,0.0,-0.0028354659767690416,0.11884117466715619,8.019899146708847,-72.1922225099802,76.200527287817
2024-09-23 06:40:30.811091,42.89,0.021898,0.0,-0.0028354659767690416,0.11884117466715619,-232.61974260778427,-24.06297849342227,80.21211738781929
2024-09-23 06:40:30.853364,42.89,0.021949,0.000845657606494293,-0.0013431148730772837,0.10098266309918978,64.16903547978401,-88.23529758782387,80.21211738781929
2024-09-23 06:40:30.896095,42.89,0.021999,0.000845657606494293,-0.0013431148730772837,0.10098266309918978,64.16903547978401,-88.23529758782387,76.200527287817
2024-09-23 06:40:30.907985,42.89,0.021999,0.0007461703303635545,-0.002288270198666964,0.09894311488829136,36.09446859390736,-88.23529758782387,76.200527287817
2024-09-23 06:40:30.949667,42.89,0.022092,0.0015420998683034098,-0.0028354659767690416,0.09894311488829136,36.09446859390736,-84.22370748782159,72.1922225099802
2024-09-23 06:40:30.961749,42.89,0.022092,0.0015420998683034098,-0.0028354659767690416,0.10212680493898225,36.09446859390736,-84.22370748782159,72.1922225099802
