Ayaan's Suite
Timestamp,Sample Rate (Hz),Time,Ax,Ay,Az,Gx,Gy,Gz
2024-09-23 12:54:15.453213,0,22.301572,-0.0030841997366068195,-0.023230986250042305,0.09720203344245934,36.09446859390736,-100.26678939585686,76.200527287817
2024-09-23 12:54:15.485763,0,22.301572,-0.0030841997366068195,-0.023230986250042305,0.09720203344245934,32.08287849390507,-100.26678939585686,76.200527287817
2024-09-23 12:54:15.496784,0,22.301623,-0.0034324103296106863,-0.023330473146428877,0.09720203344245934,32.08287849390507,-100.26678939585686,80.21211738781929
2024-09-23 12:54:15.539718,0,22.301674,-0.0034324103296106863,-0.023330473146428877,0.09665483728461309,40.106058693909645,-108.28669110388756,72.1922225099802
2024-09-23 12:54:15.551360,0,22.301674,-0.0033329230534799477,-0.023330473146428877,0.09665483728461309,40.106058693909645,-108.28669110388756,72.1922225099802
2024-09-23 12:54:15.584355,0,22.301674,-0.0033329230534799477,-0.02338022115155219,0.09715228999426605,40.106058693909645,-108.28669110388756,72.1922225099802
2024-09-23 12:54:15.595306,0,22.301674,-0.0033329230534799477,-0.02338022115155219,0.09715228999426605,32.08287849390507,-100.26678939585686,80.21211738781929
2024-09-23 12:54:15.638187,0,22.301761,-0.003631395514708897,-0.02313149783467906,0.09695331012558621,40.106058693909645,-100.26678939585686,80.21211738781929
2024-09-23 12:54:15.650212,0,22.301761,-0.003631395514708897,-0.02313149783467906,0.09695331012558621,40.106058693909645,-92.24360919585227,80.21211738781929
2024-09-23 12:54:15.683438,0,22.301812,-0.0031836870127375577,-0.02313149783467906,0.09695331012558621,40.106058693909645,-92.24360919585227,80.21211738781929
2024-09-23 12:54:15.695147,0,22.301812,-0.0031836870127375577,-0.023280723622328886,0.09725178296655933,40.106058693909645,-92.24360919585227,80.21211738781929
2024-09-23 12:54:15.737366,0,22.301863,-0.0030344509719951677,-0.02338022115155219,0.09745075675933246,40.106058693909645,-100.26678939585686,76.200527287817
2024-09-23 12:54:15.779726,0,22.301863,-0.0030344509719951677,-0.02338022115155219,0.09745075675933246,44.11764879391193,-96.25519929585457,76.200527287817
2024-09-23 12:54:15.792031,0,22.301914,-0.002636491424507565,-0.023479709566915436,0.09745075675933246,44.11764879391193,-96.25519929585457,80.21211738781929
2024-09-23 12:54:15.835289,0,22.301964,-0.0030344509719951677,-0.023479709566915436,0.09755024973162574,32.08287849390507,-96.25519929585457,84.22370748782159
2024-09-23 12:54:15.878345,0,22.301964,-0.0030344509719951677,-0.022833026512682618,0.09745075675933246,32.08287849390507,-96.25519929585457,84.22370748782159
2024-09-23 12:54:15.889414,0,22.302053,-0.0030344509719951677,-0.022833026512682618,0.09745075675933246,32.08287849390507,-100.26678939585686,76.200527287817
2024-09-23 12:54:15.932680,0,22.302053,-0.0030344509719951677,-0.02362894446842532,0.0966050877605131,40.106058693909645,-96.25519929585457,76.200527287817
2024-09-23 12:54:15.975019,0,22.302105,-0.0034324103296106863,-0.02303200030545576,0.0966050877605131,40.106058693909645,-96.25519929585457,76.200527287817
2024-09-23 12:54:15.986409,0,22.302105,-0.0034324103296106863,-0.02303200030545576,0.0973512698629459,36.09446859390736,-100.26678939585686,76.200527287817
2024-09-23 12:54:16.029646,0,22.302155,-0.0031339382481259063,-0.0228827638849692,0.09740101331113918,28.07457030097246,-100.26678939585686,80.21211738781929
2024-09-23 12:54:16.073893,0,22.302206,-0.0031339382481259063,-0.0228827638849692,0.09740101331113918,28.07457030097246,-100.26678939585686,84.22370748782159
2024-09-23 12:54:16.085220,0,22.302206,-0.0029349636958644295,-0.02338022115155219,0.0976994861521123,28.07457030097246,-100.26678939585686,84.22370748782159
2024-09-23 12:54:16.128462,0,22.302257,-0.0033329230534799477,-0.023479709566915436,0.0976994861521123,32.08287849390507,-100.26678939585686,80.21211738781929
2024-09-23 12:54:16.170683,0,22.302257,-0.0033329230534799477,-0.023479709566915436,0.0973512698629459,36.09446859390736,-96.25519929585457,80.21211738781929
2024-09-23 12:54:16.223757,0,22.302307,-0.0030344509719951677,-0.023280723622328886,0.0973512698629459,36.09446859390736,-96.25519929585457,76.200527287817
2024-09-23 12:54:16.236693,0,22.302307,-0.0030344509719951677,-0.023280723622328886,0.09745075675933246,32.08287849390507,-96.25519929585457,76.200527287817
2024-09-23 12:54:16.269699,0,22.302394,-0.0030344509719951677,-0.023280723622328886,0.09745075675933246,32.08287849390507,-100.26678939585686,84.22370748782159
2024-09-23 12:54:16.280755,0,22.302394,-0.0035816467500972456,-0.02278327698858263,0.09685382322919964,32.08287849390507,-100.26678939585686,84.22370748782159
2024-09-23 12:54:16.313623,0,22.302394,-0.0035816467500972456,-0.02278327698858263,0.09685382322919964,36.09446859390736,-100.26678939585686,84.22370748782159
2024-09-23 12:54:16.325549,0,22.302446,-0.0030841997366068195,-0.023280723622328886,0.09685382322919964,36.09446859390736,-92.24360919585227,84.22370748782159
2024-09-23 12:54:16.368484,0,22.302446,-0.0030841997366068195,-0.023280723622328886,0.09675432418099966,40.106058693909645,-88.23529758782387,84.22370748782159
2024-09-23 12:54:16.381656,0,22.302497,-0.003482159473966507,-0.023280723622328886,0.09675432418099966,40.106058693909645,-88.23529758782387,84.22370748782159
2024-09-23 12:54:16.413947,0,22.302497,-0.003482159473966507,-0.023728432883788564,0.09715228999426605,40.106058693909645,-88.23529758782387,84.22370748782159
2024-09-23 12:54:16.425344,0,22.302589,-0.003482159473966507,-0.023728432883788564,0.09715228999426605,40.106058693909645,-88.23529758782387,88.23529758782387
2024-09-23 12:54:16.468712,42.85,22.302589,-0.0032831742888682963,-0.02338022115155219,0.09635636444363997,40.106058693909645,-92.24360919585227,84.22370748782159
2024-09-23 12:54:16.512032,42.85,22.302642,-0.0029847020175114316,-0.02303200030545576,0.09635636444363997,40.106058693909645,-92.24360919585227,84.22370748782159
2024-09-23 12:54:16.523645,42.85,22.302642,-0.0029847020175114316,-0.02303200030545576,0.0973512698629459,40.106058693909645,-100.26678939585686,84.22370748782159
2024-09-23 12:54:16.568036,42.85,22.302692,-0.003382661564999035,-0.023280723622328886,0.09745075675933246,36.09446859390736,-100.26678939585686,76.200527287817
2024-09-23 12:54:16.610673,42.85,22.302743,-0.0033329230534799477,-0.023280723622328886,0.09745075675933246,36.09446859390736,-104.27510100388527,76.200527287817
2024-09-23 12:54:16.621770,42.85,22.302743,-0.0033329230534799477,-0.023330473146428877,0.09725178296655933,36.09446859390736,-104.27510100388527,76.200527287817
2024-09-23 12:54:16.665114,42.85,22.302794,-0.0033329230534799477,-0.02338022115155219,0.09725178296655933,40.106058693909645,-92.24360919585227,84.22370748782159
2024-09-23 12:54:16.707914,42.85,22.302794,-0.0033329230534799477,-0.02338022115155219,0.09685382322919964,40.106058693909645,-96.25519929585457,76.200527287817
2024-09-23 12:54:16.719543,42.85,22.302844,-0.0035318979854855937,-0.02338022115155219,0.09685382322919964,40.106058693909645,-96.25519929585457,76.200527287817
2024-09-23 12:54:16.751735,42.85,22.302844,-0.0035318979854855937,-0.023280723622328886,0.09685382322919964,40.106058693909645,-96.25519929585457,76.200527287817
2024-09-23 12:54:16.765957,42.85,22.302931,-0.0035318979854855937,-0.023280723622328886,0.09705279702197278,32.08287849390507,-96.25519929585457,80.21211738781929
2024-09-23 12:54:16.849449,42.85,22.302931,-0.003382661564999035,-0.023280723622328886,0.09705279702197278,32.08287849390507,-96.25519929585457,80.21211738781929
2024-09-23 12:54:16.860905,42.85,22.302931,-0.003382661564999035,-0.023330473146428877,0.09655535038822652,32.08287849390507,-96.25519929585457,76.200527287817
2024-09-23 12:54:16.904023,42.85,22.302982,-0.003631395514708897,-0.023330473146428877,0.09675432418099966,32.08287849390507,-96.25519929585457,76.200527287817
2024-09-23 12:54:16.915854,42.85,22.302982,-0.003631395514708897,-0.023330473146428877,0.09675432418099966,32.08287849390507,-100.26678939585686,76.200527287817
2024-09-23 12:54:16.947436,42.85,22.302982,-0.003631395514708897,-0.023330473146428877,0.09675432418099966,32.08287849390507,-100.26678939585686,80.21211738781929
2024-09-23 12:54:16.959576,42.85,22.303033,-0.003482159473966507,-0.02313149783467906,0.09680407370509965,32.08287849390507,-100.26678939585686,80.21211738781929
2024-09-23 12:54:17.002443,42.85,22.303084,-0.003382661564999035,-0.022982261414192504,0.09680407370509965,32.08287849390507,-92.24360919585227,76.200527287817
2024-09-23 12:54:17.014451,42.85,22.303084,-0.003382661564999035,-0.022982261414192504,0.09705279702197278,32.08287849390507,-92.24360919585227,76.200527287817
2024-09-23 12:54:17.046838,42.85,22.303084,-0.003382661564999035,-0.022982261414192504,0.09705279702197278,32.08287849390507,-92.24360919585227,76.200527287817
2024-09-23 12:54:17.058417,42.85,22.303134,-0.0033329230534799477,-0.023230986250042305,0.09705279702197278,32.08287849390507,-96.25519929585457,84.22370748782159
2024-09-23 12:54:17.101311,42.85,22.303134,-0.0033329230534799477,-0.023230986250042305,0.09720203344245934,36.09446859390736,-92.24360919585227,88.23529758782387
2024-09-23 12:54:17.113891,42.85,22.303226,-0.0028852147413806935,-0.023230986250042305,0.09720203344245934,36.09446859390736,-92.24360919585227,88.23529758782387
2024-09-23 12:54:17.146812,42.85,22.303226,-0.0028852147413806935,-0.02338022115155219,0.0973015264147526,36.09446859390736,-96.25519929585457,88.23529758782387
2024-09-23 12:54:17.158572,42.85,22.303321,-0.0028852147413806935,-0.02338022115155219,0.0973015264147526,36.09446859390736,-96.25519929585457,84.22370748782159
2024-09-23 12:54:17.190860,42.85,22.303321,-0.003780631555451287,-0.02338022115155219,0.0973015264147526,36.09446859390736,-96.25519929585457,84.22370748782159
2024-09-23 12:54:17.202200,42.85,22.303321,-0.003780631555451287,-0.022484804147609512,0.09690356060148622,36.09446859390736,-100.26678939585686,80.21211738781929
2024-09-23 12:54:17.244897,42.85,22.303373,-0.003780631555451287,-0.023330473146428877,0.0970030596496862,36.09446859390736,-100.26678939585686,80.21211738781929
2024-09-23 12:54:17.256839,42.85,22.303373,-0.003780631555451287,-0.023330473146428877,0.0970030596496862,28.07457030097246,-96.25519929585457,80.21211738781929
2024-09-23 12:54:17.290467,42.85,22.303423,-0.003780631555451287,-0.023330473146428877,0.0970030596496862,28.07457030097246,-96.25519929585457,76.200527287817
2024-09-23 12:54:17.301733,42.85,22.303423,-0.003382661564999035,-0.023280723622328886,0.09640611396773996,36.09446859390736,-96.25519929585457,76.200527287817
2024-09-23 12:54:17.343523,42.85,22.303474,-0.003382661564999035,-0.022733528983459317,0.09640611396773996,36.09446859390736,-104.27510100388527,80.21211738781929
2024-09-23 12:54:17.354930,42.85,22.303474,-0.003382661564999035,-0.022733528983459317,0.09705279702197278,36.09446859390736,-104.27510100388527,80.21211738781929
2024-09-23 12:54:17.387897,42.85,22.303474,-0.003382661564999035,-0.022733528983459317,0.09705279702197278,36.09446859390736,-104.27510100388527,80.21211738781929
2024-09-23 12:54:17.398954,42.85,22.303525,-0.003780631555451287,-0.02367869399252531,0.09705279702197278,36.09446859390736,-104.27510100388527,76.200527287817
2024-09-23 12:54:17.441152,42.85,22.303525,-0.003780631555451287,-0.02367869399252531,0.09670458680871308,36.09446859390736,-104.27510100388527,76.200527287817
2024-09-23 12:54:17.483330,43.11,22.303525,-0.003780631555451287,-0.02367869399252531,0.09670458680871308,32.08287849390507,-104.27510100388527,76.200527287817
2024-09-23 12:54:17.494795,43.11,22.303575,-0.0035816467500972456,-0.023429960042815445,0.09670458680871308,32.08287849390507,-96.25519929585457,76.200527287817
2024-09-23 12:54:17.537670,43.11,22.303575,-0.0035816467500972456,-0.023429960042815445,0.09710254654607277,44.11764879391193,-96.25519929585457,80.21211738781929
2024-09-23 12:54:17.549622,43.11,22.303662,-0.0035816467500972456,-0.023429960042815445,0.09710254654607277,44.11764879391193,-96.25519929585457,80.21211738781929
2024-09-23 12:54:17.583179,43.11,22.303662,-0.0035816467500972456,-0.02352945757203875,0.09710254654607277,44.11764879391193,-96.25519929585457,80.21211738781929
2024-09-23 12:54:17.595071,43.11,22.303713,-0.0035816467500972456,-0.02352945757203875,0.09740101331113918,40.106058693909645,-104.27510100388527,76.200527287817
2024-09-23 12:54:17.638248,43.11,22.303713,-0.0029349636958644295,-0.023479709566915436,0.09680407370509965,36.09446859390736,-104.27510100388527,76.200527287817
2024-09-23 12:54:17.650156,43.11,22.303713,-0.0029349636958644295,-0.023479709566915436,0.09680407370509965,36.09446859390736,-104.27510100388527,76.200527287817
2024-09-23 12:54:17.682465,43.11,22.303764,-0.0035816467500972456,-0.023479709566915436,0.09680407370509965,36.09446859390736,-104.27510100388527,76.200527287817
2024-09-23 12:54:17.693771,43.11,22.303764,-0.0035816467500972456,-0.023181236725942318,0.09715228999426605,40.106058693909645,-100.26678939585686,76.200527287817
2024-09-23 12:54:17.736110,43.11,22.303858,-0.003631395514708897,-0.02303200030545576,0.0970030596496862,40.106058693909645,-100.26678939585686,76.200527287817
2024-09-23 12:54:17.779116,43.11,22.303909,-0.003631395514708897,-0.02303200030545576,0.0970030596496862,40.106058693909645,-96.25519929585457,80.21211738781929
2024-09-23 12:54:17.790137,43.11,22.303909,-0.0032831742888682963,-0.02362894446842532,0.09675432418099966,40.106058693909645,-96.25519929585457,80.21211738781929
2024-09-23 12:54:17.832686,43.11,22.30396,-0.0028354659767690416,-0.02268379009219606,0.09675432418099966,44.11764879391193,-96.25519929585457,84.22370748782159
2024-09-23 12:54:17.874797,43.11,22.30396,-0.0028354659767690416,-0.02268379009219606,0.09725178296655933,36.09446859390736,-96.25519929585457,84.22370748782159
2024-09-23 12:54:17.886620,43.11,22.30401,-0.0031339382481259063,-0.02268379009219606,0.09725178296655933,36.09446859390736,-96.25519929585457,84.22370748782159
2024-09-23 12:54:17.930116,43.11,22.30401,-0.0031339382481259063,-0.023479709566915436,0.09740101331113918,32.08287849390507,-104.27510100388527,76.200527287817
2024-09-23 12:54:17.942230,43.11,22.304101,-0.0031339382481259063,-0.023479709566915436,0.09740101331113918,32.08287849390507,-104.27510100388527,76.200527287817
2024-09-23 12:54:17.974189,43.11,22.304101,-0.0031339382481259063,-0.02308174982955575,0.09695331012558621,32.08287849390507,-104.27510100388527,76.200527287817
2024-09-23 12:54:17.985154,43.11,22.304101,-0.0031339382481259063,-0.02308174982955575,0.09695331012558621,44.11764879391193,-100.26678939585686,72.1922225099802
2024-09-23 12:54:18.028226,43.11,22.304152,-0.002636491424507565,-0.02313149783467906,0.0970030596496862,40.106058693909645,-92.24360919585227,72.1922225099802
2024-09-23 12:54:18.069983,43.11,22.304203,-0.002636491424507565,-0.02313149783467906,0.0970030596496862,40.106058693909645,-92.24360919585227,80.21211738781929
2024-09-23 12:54:18.081439,43.11,22.304203,-0.0032831742888682963,-0.022733528983459317,0.09725178296655933,32.08287849390507,-92.24360919585227,80.21211738781929
2024-09-23 12:54:18.123447,43.11,22.304254,-0.0035318979854855937,-0.023778180888911878,0.09725178296655933,32.08287849390507,-88.23529758782387,84.22370748782159
2024-09-23 12:54:18.135430,43.11,22.304254,-0.0035318979854855937,-0.023778180888911878,0.09665483728461309,32.08287849390507,-88.23529758782387,84.22370748782159
2024-09-23 12:54:18.167771,43.11,22.304254,-0.0035318979854855937,-0.023778180888911878,0.09665483728461309,36.09446859390736,-92.24360919585227,84.22370748782159
2024-09-23 12:54:18.179469,43.11,22.304304,-0.003631395514708897,-0.023181236725942318,0.09665483728461309,36.09446859390736,-92.24360919585227,80.21211738781929
2024-09-23 12:54:18.222392,43.11,22.304355,-0.0033329230534799477,-0.023181236725942318,0.0973512698629459,40.106058693909645,-96.25519929585457,80.21211738781929
2024-09-23 12:54:18.264578,43.11,22.304355,-0.0033329230534799477,-0.02313149783467906,0.0973512698629459,40.106058693909645,-96.25519929585457,80.21211738781929
2024-09-23 12:54:18.276522,43.11,22.304442,-0.0033329230534799477,-0.02313149783467906,0.0973512698629459,36.09446859390736,-104.27510100388527,76.200527287817
2024-09-23 12:54:18.319352,43.11,22.304442,-0.0037308827908396356,-0.023429960042815445,0.09670458680871308,28.07457030097246,-104.27510100388527,76.200527287817
2024-09-23 12:54:18.331251,43.11,22.304442,-0.0037308827908396356,-0.023429960042815445,0.09670458680871308,28.07457030097246,-104.27510100388527,76.200527287817
2024-09-23 12:54:18.364154,43.11,22.304494,-0.003631395514708897,-0.023330473146428877,0.09670458680871308,28.07457030097246,-104.27510100388527,76.200527287817
2024-09-23 12:54:18.375875,43.11,22.304494,-0.003631395514708897,-0.023330473146428877,0.0970030596496862,40.106058693909645,-92.24360919585227,76.200527287817
2024-09-23 12:54:18.418995,43.11,22.304544,-0.0035318979854855937,-0.023280723622328886,0.0970030596496862,36.09446859390736,-92.24360919585227,80.21211738781929
2024-09-23 12:54:18.461920,43.11,22.304595,-0.0035318979854855937,-0.023280723622328886,0.0970030596496862,36.09446859390736,-96.25519929585457,84.22370748782159
2024-09-23 12:54:18.473752,43.11,22.304595,-0.0036811340262279837,-0.023230986250042305,0.0970030596496862,36.09446859390736,-96.25519929585457,84.22370748782159
2024-09-23 12:54:18.516169,43.26,22.304645,-0.0029349636958644295,-0.02352945757203875,0.0970030596496862,36.09446859390736,-96.25519929585457,80.21211738781929
2024-09-23 12:54:18.559387,43.26,22.304645,-0.0029349636958644295,-0.02352945757203875,0.09715228999426605,36.09446859390736,-96.25519929585457,80.21211738781929
2024-09-23 12:54:18.570926,43.26,22.304696,-0.0031339382481259063,-0.02352945757203875,0.09715228999426605,36.09446859390736,-96.25519929585457,80.21211738781929
2024-09-23 12:54:18.613721,43.26,22.304783,-0.0031339382481259063,-0.02352945757203875,0.09690356060148622,44.11764879391193,-108.28669110388756,76.200527287817
2024-09-23 12:54:18.656255,43.26,22.304783,-0.0034324103296106863,-0.023778180888911878,0.09705279702197278,44.11764879391193,-108.28669110388756,76.200527287817
2024-09-23 12:54:18.667500,43.26,22.304783,-0.0034324103296106863,-0.023778180888911878,0.09705279702197278,40.106058693909645,-96.25519929585457,84.22370748782159
2024-09-23 12:54:18.710019,43.26,22.304835,-0.0033329230534799477,-0.02367869399252531,0.09695331012558621,36.09446859390736,-96.25519929585457,84.22370748782159
2024-09-23 12:54:18.721686,43.26,22.304835,-0.0033329230534799477,-0.02367869399252531,0.09695331012558621,36.09446859390736,-100.26678939585686,84.22370748782159
2024-09-23 12:54:18.754029,43.26,22.304885,-0.0032831742888682963,-0.02367869399252531,0.09695331012558621,36.09446859390736,-100.26678939585686,80.21211738781929
2024-09-23 12:54:18.765886,43.26,22.304885,-0.0032831742888682963,-0.023479709566915436,0.0970030596496862,32.08287849390507,-100.26678939585686,80.21211738781929
2024-09-23 12:54:18.809900,43.26,22.304936,-0.002785727465249955,-0.02313149783467906,0.0970030596496862,32.08287849390507,-104.27510100388527,80.21211738781929
2024-09-23 12:54:18.851645,43.26,22.304936,-0.002785727465249955,-0.02313149783467906,0.0970030596496862,40.106058693909645,-96.25519929585457,84.22370748782159
2024-09-23 12:54:18.863368,43.26,22.304987,-0.0034324103296106863,-0.02338022115155219,0.0970030596496862,40.106058693909645,-96.25519929585457,84.22370748782159
2024-09-23 12:54:18.906400,43.26,22.305037,-0.0029847020175114316,-0.02338022115155219,0.0973015264147526,36.09446859390736,-104.27510100388527,84.22370748782159
2024-09-23 12:54:18.949375,43.26,22.305037,-0.0029847020175114316,-0.022733528983459317,0.09755024973162574,36.09446859390736,-104.27510100388527,84.22370748782159
2024-09-23 12:54:18.960834,43.26,22.305124,-0.0029847020175114316,-0.022733528983459317,0.09755024973162574,32.08287849390507,-92.24360919585227,80.21211738781929
2024-09-23 12:54:19.003882,43.26,22.305124,-0.003631395514708897,-0.023429960042815445,0.0966050877605131,40.106058693909645,-104.27510100388527,84.22370748782159
2024-09-23 12:54:19.045556,43.26,22.305176,-0.003382661564999035,-0.023429960042815445,0.0966050877605131,40.106058693909645,-104.27510100388527,84.22370748782159
2024-09-23 12:54:19.058182,43.26,22.305176,-0.003382661564999035,-0.02338022115155219,0.09715228999426605,40.106058693909645,-108.28669110388756,84.22370748782159
2024-09-23 12:54:19.101052,43.26,22.305227,-0.0035816467500972456,-0.023230986250042305,0.09720203344245934,36.09446859390736,-108.28669110388756,80.21211738781929
2024-09-23 12:54:19.143220,43.26,22.305227,-0.0035816467500972456,-0.023230986250042305,0.09720203344245934,36.09446859390736,-96.25519929585457,80.21211738781929
2024-09-23 12:54:19.154981,43.26,22.305277,-0.003631395514708897,-0.02367869399252531,0.09720203344245934,36.09446859390736,-96.25519929585457,80.21211738781929
2024-09-23 12:54:19.198993,43.26,22.305328,-0.0029349636958644295,-0.023280723622328886,0.09720203344245934,52.137550501942634,-100.26678939585686,80.21211738781929
2024-09-23 12:54:19.242089,43.26,22.305328,-0.0029349636958644295,-0.023280723622328886,0.09680407370509965,40.106058693909645,-100.26678939585686,80.21211738781929
2024-09-23 12:54:19.253690,43.26,22.305379,-0.0032831742888682963,-0.023280723622328886,0.09680407370509965,40.106058693909645,-100.26678939585686,80.21211738781929
2024-09-23 12:54:19.296626,43.26,22.305379,-0.0032831742888682963,-0.02352945757203875,0.09670458680871308,36.09446859390736,-100.26678939585686,80.21211738781929
2024-09-23 12:54:19.339429,43.26,22.305466,-0.0032831742888682963,-0.02352945757203875,0.09670458680871308,36.09446859390736,-104.27510100388527,76.200527287817
2024-09-23 12:54:19.350886,43.26,22.305466,-0.0034324103296106863,-0.02313149783467906,0.09675432418099966,36.09446859390736,-104.27510100388527,76.200527287817
2024-09-23 12:54:19.394137,43.26,22.305517,-0.003631395514708897,-0.023280723622328886,0.09675432418099966,36.09446859390736,-96.25519929585457,80.21211738781929
2024-09-23 12:54:19.436922,43.26,22.305517,-0.003631395514708897,-0.023280723622328886,0.09685382322919964,32.08287849390507,-104.27510100388527,80.21211738781929
2024-09-23 12:54:19.448686,43.26,22.305568,-0.0031339382481259063,-0.023280723622328886,0.09685382322919964,32.08287849390507,-104.27510100388527,84.22370748782159
2024-09-23 12:54:19.491542,43.26,22.305619,-0.0031339382481259063,-0.02293251340906919,0.09695331012558621,32.08287849390507,-92.24360919585227,84.22370748782159
2024-09-23 12:54:19.534054,42.27,22.305619,-0.0024872551938930902,-0.02313149783467906,0.0970030596496862,32.08287849390507,-92.24360919585227,84.22370748782159
2024-09-23 12:54:19.545151,42.27,22.305619,-0.0024872551938930902,-0.02313149783467906,0.0970030596496862,36.09446859390736,-104.27510100388527,80.21211738781929
2024-09-23 12:54:19.588628,42.27,22.30571,-0.003233425524256645,-0.023728432883788564,0.09695331012558621,32.08287849390507,-92.24360919585227,80.21211738781929
2024-09-23 12:54:19.630521,42.27,22.305762,-0.003233425524256645,-0.023728432883788564,0.09695331012558621,32.08287849390507,-92.24360919585227,80.21211738781929
2024-09-23 12:54:19.641661,42.27,22.305762,-0.003979606107712764,-0.022982261414192504,0.0970030596496862,36.09446859390736,-92.24360919585227,80.21211738781929
2024-09-23 12:54:19.684412,42.27,22.305812,-0.0029847020175114316,-0.023181236725942318,0.0970030596496862,36.09446859390736,-92.24360919585227,84.22370748782159
2024-09-23 12:54:19.696603,42.27,22.305812,-0.0029847020175114316,-0.023181236725942318,0.09695331012558621,36.09446859390736,-92.24360919585227,84.22370748782159
2024-09-23 12:54:19.728449,42.27,22.305812,-0.0029847020175114316,-0.023181236725942318,0.09695331012558621,44.11764879391193,-96.25519929585457,84.22370748782159
2024-09-23 12:54:19.739758,42.27,22.305863,-0.003631395514708897,-0.022982261414192504,0.09695331012558621,44.11764879391193,-96.25519929585457,84.22370748782159
2024-09-23 12:54:19.784410,42.27,22.305914,-0.003631395514708897,-0.022982261414192504,0.09705279702197278,36.09446859390736,-96.25519929585457,84.22370748782159
2024-09-23 12:54:19.795796,42.27,22.305914,-0.0029847020175114316,-0.022982261414192504,0.09705279702197278,36.09446859390736,-96.25519929585457,84.22370748782159
2024-09-23 12:54:19.828207,42.27,22.305914,-0.0029847020175114316,-0.022982261414192504,0.09725178296655933,32.08287849390507,-88.23529758782387,84.22370748782159
2024-09-23 12:54:19.839669,42.27,22.306002,-0.0029847020175114316,-0.022982261414192504,0.09725178296655933,32.08287849390507,-88.23529758782387,84.22370748782159
2024-09-23 12:54:19.871516,42.27,22.306002,-0.0028354659767690416,-0.022982261414192504,0.09725178296655933,32.08287849390507,-88.23529758782387,84.22370748782159
2024-09-23 12:54:19.882770,42.27,22.306002,-0.0028354659767690416,-0.02293251340906919,0.0973015264147526,36.09446859390736,-100.26678939585686,76.200527287817
2024-09-23 12:54:19.925317,42.27,22.306054,-0.003780631555451287,-0.023579196463302005,0.0973015264147526,36.09446859390736,-100.26678939585686,76.200527287817
2024-09-23 12:54:19.937709,42.27,22.306054,-0.003780631555451287,-0.023579196463302005,0.09715228999426605,40.106058693909645,-100.26678939585686,76.200527287817
2024-09-23 12:54:19.969884,42.27,22.306054,-0.003780631555451287,-0.023579196463302005,0.09715228999426605,40.106058693909645,-100.26678939585686,88.23529758782387
2024-09-23 12:54:19.981684,42.27,22.306104,-0.0031339382481259063,-0.02313149783467906,0.09695331012558621,40.106058693909645,-100.26678939585686,88.23529758782387
2024-09-23 12:54:20.024874,42.27,22.306155,-0.0031339382481259063,-0.02313149783467906,0.09695331012558621,36.09446859390736,-92.24360919585227,80.21211738781929
2024-09-23 12:54:20.035805,42.27,22.306155,-0.003482159473966507,-0.023280723622328886,0.09695331012558621,36.09446859390736,-92.24360919585227,80.21211738781929
2024-09-23 12:54:20.067805,42.27,22.306155,-0.003482159473966507,-0.023280723622328886,0.09690356060148622,36.09446859390736,-92.24360919585227,80.21211738781929
2024-09-23 12:54:20.079366,42.27,22.306206,-0.003382661564999035,-0.023280723622328886,0.09690356060148622,32.08287849390507,-92.24360919585227,76.200527287817
2024-09-23 12:54:20.121101,42.27,22.306206,-0.003382661564999035,-0.02278327698858263,0.0973512698629459,36.09446859390736,-100.26678939585686,76.200527287817
2024-09-23 12:54:20.132828,42.27,22.306256,-0.003382661564999035,-0.02278327698858263,0.0973512698629459,36.09446859390736,-100.26678939585686,80.21211738781929
2024-09-23 12:54:20.165123,42.27,22.306256,-0.003780631555451287,-0.02278327698858263,0.0973512698629459,36.09446859390736,-100.26678939585686,80.21211738781929
2024-09-23 12:54:20.176760,42.27,22.306256,-0.003780631555451287,-0.02338022115155219,0.0973015264147526,36.09446859390736,-108.28669110388756,76.200527287817
2024-09-23 12:54:20.219100,42.27,22.306344,-0.0028852147413806935,-0.022833026512682618,0.0973015264147526,36.09446859390736,-108.28669110388756,76.200527287817
2024-09-23 12:54:20.230774,42.27,22.306344,-0.0028852147413806935,-0.022833026512682618,0.0973015264147526,40.106058693909645,-104.27510100388527,76.200527287817
2024-09-23 12:54:20.263294,42.27,22.306344,-0.0028852147413806935,-0.022833026512682618,0.0973015264147526,40.106058693909645,-104.27510100388527,80.21211738781929
2024-09-23 12:54:20.274240,42.27,22.306395,-0.0036811340262279837,-0.023479709566915436,0.09690356060148622,44.11764879391193,-104.27510100388527,80.21211738781929
2024-09-23 12:54:20.316896,42.27,22.306446,-0.0032831742888682963,-0.023429960042815445,0.09690356060148622,44.11764879391193,-104.27510100388527,72.1922225099802
2024-09-23 12:54:20.329238,42.27,22.306446,-0.0032831742888682963,-0.023429960042815445,0.09750050628343246,44.11764879391193,-104.27510100388527,72.1922225099802
2024-09-23 12:54:20.361759,42.27,22.306446,-0.0032831742888682963,-0.023429960042815445,0.09750050628343246,40.106058693909645,-96.25519929585457,72.1922225099802
2024-09-23 12:54:20.372948,42.27,22.306497,-0.0026862297461545674,-0.023280723622328886,0.09750050628343246,40.106058693909645,-96.25519929585457,72.1922225099802
2024-09-23 12:54:20.415758,42.27,22.306497,-0.0026862297461545674,-0.023280723622328886,0.09670458680871308,32.08287849390507,-96.25519929585457,76.200527287817
2024-09-23 12:54:20.427312,42.27,22.306547,-0.0035816467500972456,-0.023280723622328886,0.09670458680871308,32.08287849390507,-96.25519929585457,76.200527287817
2024-09-23 12:54:20.459671,42.27,22.306547,-0.0035816467500972456,-0.023479709566915436,0.09750050628343246,32.08287849390507,-96.25519929585457,76.200527287817
2024-09-23 12:54:20.471387,42.27,22.306636,-0.0035816467500972456,-0.023479709566915436,0.09750050628343246,40.106058693909645,-100.26678939585686,80.21211738781929
2024-09-23 12:54:20.513284,42.27,22.306636,-0.0036811340262279837,-0.02293251340906919,0.09725178296655933,40.106058693909645,-100.26678939585686,80.21211738781929
2024-09-23 12:54:20.525210,42.27,22.306636,-0.0036811340262279837,-0.02293251340906919,0.09725178296655933,40.106058693909645,-100.26678939585686,76.200527287817
2024-09-23 12:54:20.558474,43.58,22.306688,-0.0030841997366068195,-0.023280723622328886,0.09725178296655933,40.106058693909645,-100.26678939585686,76.200527287817
2024-09-23 12:54:20.570101,43.58,22.306688,-0.0030841997366068195,-0.023280723622328886,0.0970030596496862,36.09446859390736,-100.26678939585686,76.200527287817
2024-09-23 12:54:20.612874,43.58,22.306739,-0.0032831742888682963,-0.023280723622328886,0.0970030596496862,36.09446859390736,-100.26678939585686,84.22370748782159
2024-09-23 12:54:20.654681,43.58,22.306739,-0.0032831742888682963,-0.023280723622328886,0.09690356060148622,36.09446859390736,-100.26678939585686,84.22370748782159
2024-09-23 12:54:20.666322,43.58,22.306789,-0.0032831742888682963,-0.023280723622328886,0.09690356060148622,36.09446859390736,-96.25519929585457,84.22370748782159
2024-09-23 12:54:20.709749,43.58,22.306789,-0.0037308827908396356,-0.023181236725942318,0.09670458680871308,36.09446859390736,-96.25519929585457,80.21211738781929
2024-09-23 12:54:20.752109,43.58,22.30684,-0.003631395514708897,-0.023181236725942318,0.09670458680871308,36.09446859390736,-96.25519929585457,80.21211738781929
2024-09-23 12:54:20.763094,43.58,22.30684,-0.003631395514708897,-0.023280723622328886,0.09635636444363997,40.106058693909645,-96.25519929585457,80.21211738781929
2024-09-23 12:54:20.806665,43.58,22.306891,-0.0033329230534799477,-0.02352945757203875,0.0970030596496862,36.09446859390736,-96.25519929585457,80.21211738781929
2024-09-23 12:54:20.848944,43.58,22.306891,-0.0033329230534799477,-0.02352945757203875,0.0970030596496862,36.09446859390736,-96.25519929585457,80.21211738781929
2024-09-23 12:54:20.860605,43.58,22.306977,-0.0035318979854855937,-0.02338022115155219,0.09710254654607277,36.09446859390736,-96.25519929585457,80.21211738781929
2024-09-23 12:54:20.902739,43.58,22.307029,-0.0028852147413806935,-0.02338022115155219,0.09710254654607277,40.106058693909645,-100.26678939585686,76.200527287817
2024-09-23 12:54:20.914814,43.58,22.307029,-0.0028852147413806935,-0.023429960042815445,0.09710254654607277,40.106058693909645,-100.26678939585686,76.200527287817
2024-09-23 12:54:20.946763,43.58,22.307029,-0.0028852147413806935,-0.023429960042815445,0.09695331012558621,36.09446859390736,-100.26678939585686,76.200527287817
2024-09-23 12:54:20.958138,43.58,22.307079,-0.0030344509719951677,-0.023429960042815445,0.09695331012558621,36.09446859390736,-100.26678939585686,80.21211738781929
2024-09-23 12:54:21.000775,43.58,22.307079,-0.0030344509719951677,-0.023429960042815445,0.09750050628343246,36.09446859390736,-104.27510100388527,80.21211738781929
2024-09-23 12:54:21.012780,43.58,22.307172,-0.0030344509719951677,-0.023429960042815445,0.09750050628343246,36.09446859390736,-104.27510100388527,80.21211738781929
2024-09-23 12:54:21.045480,43.58,22.307172,-0.0033329230534799477,-0.023479709566915436,0.09750050628343246,36.09446859390736,-104.27510100388527,80.21211738781929
2024-09-23 12:54:21.057376,43.58,22.307172,-0.0033329230534799477,-0.023479709566915436,0.0966050877605131,32.08287849390507,-100.26678939585686,84.22370748782159
2024-09-23 12:54:21.099225,43.58,22.307224,-0.0031836870127375577,-0.023330473146428877,0.09750050628343246,40.106058693909645,-104.27510100388527,84.22370748782159
2024-09-23 12:54:21.141876,43.58,22.307274,-0.0031836870127375577,-0.023330473146428877,0.09750050628343246,40.106058693909645,-104.27510100388527,80.21211738781929
2024-09-23 12:54:21.153283,43.58,22.307274,-0.0033329230534799477,-0.023479709566915436,0.0970030596496862,40.106058693909645,-104.27510100388527,80.21211738781929
2024-09-23 12:54:21.196396,43.58,22.307274,-0.0033329230534799477,-0.023479709566915436,0.0970030596496862,40.106058693909645,-100.26678939585686,84.22370748782159
2024-09-23 12:54:21.239050,43.58,22.307325,-0.0028852147413806935,-0.023479709566915436,0.0970030596496862,40.106058693909645,-100.26678939585686,84.22370748782159
2024-09-23 12:54:21.250273,43.58,22.307325,-0.0028852147413806935,-0.02338022115155219,0.09759999317981902,40.106058693909645,-92.24360919585227,84.22370748782159
2024-09-23 12:54:21.293442,43.58,22.307376,-0.003382661564999035,-0.023181236725942318,0.09759999317981902,40.106058693909645,-92.24360919585227,88.23529758782387
2024-09-23 12:54:21.305348,43.58,22.307376,-0.003382661564999035,-0.023181236725942318,0.09750050628343246,36.09446859390736,-92.24360919585227,88.23529758782387
2024-09-23 12:54:21.338143,43.58,22.307426,-0.003382661564999035,-0.023181236725942318,0.09750050628343246,36.09446859390736,-96.25519929585457,76.200527287817
2024-09-23 12:54:21.349343,43.58,22.307426,-0.0034324103296106863,-0.023330473146428877,0.09784872257259886,36.09446859390736,-96.25519929585457,76.200527287817
2024-09-23 12:54:21.391583,43.58,22.307513,-0.0032831742888682963,-0.023230986250042305,0.09784872257259886,36.09446859390736,-104.27510100388527,80.21211738781929
2024-09-23 12:54:21.434504,43.58,22.307513,-0.0032831742888682963,-0.023230986250042305,0.09635636444363997,24.06297849342227,-104.27510100388527,80.21211738781929
2024-09-23 12:54:21.445537,43.58,22.307564,-0.0030841997366068195,-0.023230986250042305,0.09635636444363997,24.06297849342227,-92.24360919585227,88.23529758782387
2024-09-23 12:54:21.487451,43.58,22.307564,-0.0030841997366068195,-0.023927417309398437,0.09705279702197278,36.09446859390736,-100.26678939585686,88.23529758782387
2024-09-23 12:54:21.529478,43.58,22.307564,-0.0030841997366068195,-0.023927417309398437,0.09705279702197278,36.09446859390736,-100.26678939585686,84.22370748782159
2024-09-23 12:54:21.546069,43.58,22.30766,-0.0038303700669703737,-0.02313149783467906,0.0970030596496862,48.12595698684454,-100.26678939585686,84.22370748782159
2024-09-23 12:54:21.578743,43.34,22.30766,-0.0038303700669703737,-0.02313149783467906,0.0970030596496862,48.12595698684454,-92.24360919585227,84.22370748782159
2024-09-23 12:54:21.589818,43.34,22.307711,-0.0037308827908396356,-0.02303200030545576,0.09715228999426605,48.12595698684454,-92.24360919585227,84.22370748782159
2024-09-23 12:54:21.631947,43.34,22.307762,-0.0037308827908396356,-0.02303200030545576,0.09715228999426605,32.08287849390507,-88.23529758782387,80.21211738781929
2024-09-23 12:54:21.643282,43.34,22.307762,-0.0031339382481259063,-0.02278327698858263,0.09715228999426605,32.08287849390507,-88.23529758782387,80.21211738781929
2024-09-23 12:54:21.675516,43.34,22.307762,-0.0031339382481259063,-0.02278327698858263,0.09764974270391902,32.08287849390507,-88.23529758782387,80.21211738781929
2024-09-23 12:54:21.687313,43.34,22.307812,-0.0030344509719951677,-0.02278327698858263,0.09764974270391902,32.08287849390507,-96.25519929585457,80.21211738781929
2024-09-23 12:54:21.730150,43.34,22.307812,-0.0030344509719951677,-0.023479709566915436,0.09640611396773996,32.08287849390507,-92.24360919585227,80.21211738781929
2024-09-23 12:54:21.741166,43.34,22.307863,-0.0030344509719951677,-0.023479709566915436,0.09640611396773996,32.08287849390507,-92.24360919585227,72.1922225099802
2024-09-23 12:54:21.773323,43.34,22.307863,-0.0031339382481259063,-0.023479709566915436,0.09640611396773996,32.08287849390507,-92.24360919585227,72.1922225099802
2024-09-23 12:54:21.784630,43.34,22.307863,-0.0031339382481259063,-0.02338022115155219,0.09710254654607277,36.09446859390736,-92.24360919585227,80.21211738781929
2024-09-23 12:54:21.827216,43.34,22.307953,-0.0028354659767690416,-0.022982261414192504,0.09655535038822652,36.09446859390736,-92.24360919585227,80.21211738781929
2024-09-23 12:54:21.838415,43.34,22.307953,-0.0028354659767690416,-0.022982261414192504,0.09655535038822652,36.09446859390736,-92.24360919585227,80.21211738781929
2024-09-23 12:54:21.870270,43.34,22.307953,-0.0028354659767690416,-0.022982261414192504,0.09655535038822652,36.09446859390736,-92.24360919585227,80.21211738781929
2024-09-23 12:54:21.924593,43.34,22.308004,-0.0031339382481259063,-0.023429960042815445,0.0976994861521123,36.09446859390736,-92.24360919585227,80.21211738781929
2024-09-23 12:54:21.936480,43.34,22.308004,-0.0031339382481259063,-0.023429960042815445,0.0976994861521123,36.09446859390736,-92.24360919585227,80.21211738781929
2024-09-23 12:54:21.968379,43.34,22.308004,-0.0031339382481259063,-0.023429960042815445,0.0976994861521123,36.09446859390736,-96.25519929585457,80.21211738781929
2024-09-23 12:54:21.979766,43.34,22.308055,-0.0033329230534799477,-0.0228827638849692,0.09690356060148622,36.09446859390736,-96.25519929585457,80.21211738781929
2024-09-23 12:54:22.022585,43.34,22.308055,-0.0033329230534799477,-0.0228827638849692,0.09690356060148622,36.09446859390736,-92.24360919585227,84.22370748782159
2024-09-23 12:54:22.034065,43.34,22.308105,-0.0031339382481259063,-0.02313149783467906,0.09690356060148622,36.09446859390736,-92.24360919585227,84.22370748782159
2024-09-23 12:54:22.068067,43.34,22.308105,-0.0031339382481259063,-0.02313149783467906,0.0970030596496862,36.09446859390736,-92.24360919585227,84.22370748782159
2024-09-23 12:54:22.079313,43.34,22.308156,-0.0026862297461545674,-0.02313149783467906,0.0970030596496862,36.09446859390736,-96.25519929585457,80.21211738781929
2024-09-23 12:54:22.121277,43.34,22.308156,-0.0026862297461545674,-0.02293251340906919,0.09655535038822652,36.09446859390736,-96.25519929585457,76.200527287817
2024-09-23 12:54:22.133189,43.34,22.308245,-0.0026862297461545674,-0.02293251340906919,0.09655535038822652,36.09446859390736,-96.25519929585457,76.200527287817
2024-09-23 12:54:22.166005,43.34,22.308245,-0.0030344509719951677,-0.02293251340906919,0.09655535038822652,36.09446859390736,-96.25519929585457,76.200527287817
2024-09-23 12:54:22.177676,43.34,22.308245,-0.0030344509719951677,-0.02293251340906919,0.09670458680871308,36.09446859390736,-92.24360919585227,76.200527287817
2024-09-23 12:54:22.220528,43.34,22.308343,-0.0035816467500972456,-0.02268379009219606,0.09640611396773996,36.09446859390736,-96.25519929585457,76.200527287817
2024-09-23 12:54:22.263027,43.34,22.308394,-0.0035816467500972456,-0.02268379009219606,0.09640611396773996,36.09446859390736,-96.25519929585457,80.21211738781929
2024-09-23 12:54:22.274459,43.34,22.308394,-0.0032831742888682963,-0.02338022115155219,0.0973015264147526,36.09446859390736,-96.25519929585457,80.21211738781929
2024-09-23 12:54:22.317602,43.34,22.308445,-0.0035816467500972456,-0.022982261414192504,0.0973015264147526,36.09446859390736,-96.25519929585457,84.22370748782159
2024-09-23 12:54:22.329425,43.34,22.308445,-0.0035816467500972456,-0.022982261414192504,0.09745075675933246,36.09446859390736,-96.25519929585457,84.22370748782159
2024-09-23 12:54:22.361882,43.34,22.308445,-0.0035816467500972456,-0.022982261414192504,0.09745075675933246,40.106058693909645,-100.26678939585686,80.21211738781929
2024-09-23 12:54:22.372804,43.34,22.308495,-0.0030344509719951677,-0.02362894446842532,0.09745075675933246,40.106058693909645,-100.26678939585686,80.21211738781929
2024-09-23 12:54:22.415587,43.34,22.308495,-0.0030344509719951677,-0.02362894446842532,0.09745075675933246,40.106058693909645,-100.26678939585686,80.21211738781929
2024-09-23 12:54:22.457994,43.34,22.308546,-0.0030344509719951677,-0.02362894446842532,0.09745075675933246,40.106058693909645,-100.26678939585686,80.21211738781929
2024-09-23 12:54:22.469947,43.34,22.308546,-0.0035318979854855937,-0.02293251340906919,0.09630662707135339,36.09446859390736,-100.26678939585686,80.21211738781929
2024-09-23 12:54:22.513384,43.34,22.308635,-0.003979606107712764,-0.02313149783467906,0.09774922960030558,36.09446859390736,-96.25519929585457,80.21211738781929
2024-09-23 12:54:22.556434,43.34,22.308635,-0.003979606107712764,-0.02313149783467906,0.09774922960030558,36.09446859390736,-100.26678939585686,72.1922225099802
2024-09-23 12:54:22.567472,43.34,22.308686,-0.003382661564999035,-0.024225890150371555,0.09774922960030558,36.09446859390736,-100.26678939585686,72.1922225099802
2024-09-23 12:54:22.609973,43.52,22.308737,-0.0032831742888682963,-0.024225890150371555,0.09715228999426605,36.09446859390736,-88.23529758782387,76.200527287817
2024-09-23 12:54:22.652330,43.52,22.308737,-0.0032831742888682963,-0.02313149783467906,0.09715228999426605,36.09446859390736,-88.23529758782387,76.200527287817
2024-09-23 12:54:22.664419,43.52,22.308787,-0.0032831742888682963,-0.02313149783467906,0.09750050628343246,36.09446859390736,-96.25519929585457,84.22370748782159
2024-09-23 12:54:22.706562,43.52,22.308787,-0.003482159473966507,-0.02338022115155219,0.0966050877605131,36.09446859390736,-96.25519929585457,84.22370748782159
2024-09-23 12:54:22.718407,43.52,22.308787,-0.003482159473966507,-0.02338022115155219,0.0966050877605131,36.09446859390736,-92.24360919585227,80.21211738781929
2024-09-23 12:54:22.750547,43.52,22.308879,-0.003631395514708897,-0.02338022115155219,0.0966050877605131,36.09446859390736,-92.24360919585227,80.21211738781929
2024-09-23 12:54:22.761815,43.52,22.308879,-0.003631395514708897,-0.023429960042815445,0.09670458680871308,32.08287849390507,-92.24360919585227,80.21211738781929
2024-09-23 12:54:22.804287,43.52,22.30893,-0.0034324103296106863,-0.02352945757203875,0.09759999317981902,32.08287849390507,-92.24360919585227,88.23529758782387
2024-09-23 12:54:22.816672,43.52,22.30893,-0.0034324103296106863,-0.02352945757203875,0.09759999317981902,44.11764879391193,-92.24360919585227,88.23529758782387
2024-09-23 12:54:22.849361,43.52,22.30893,-0.0034324103296106863,-0.02352945757203875,0.09759999317981902,44.11764879391193,-100.26678939585686,80.21211738781929
2024-09-23 12:54:22.861664,43.52,22.308981,-0.0029349636958644295,-0.02367869399252531,0.09715228999426605,44.11764879391193,-100.26678939585686,80.21211738781929
2024-09-23 12:54:22.904159,43.52,22.309032,-0.0033329230534799477,-0.02362894446842532,0.09715228999426605,44.11764879391193,-84.22370748782159,84.22370748782159
2024-09-23 12:54:22.947072,43.52,22.309032,-0.0033329230534799477,-0.02362894446842532,0.0970030596496862,44.11764879391193,-84.22370748782159,84.22370748782159
2024-09-23 12:54:22.958890,43.52,22.309082,-0.0030344509719951677,-0.02362894446842532,0.0970030596496862,44.11764879391193,-92.24360919585227,88.23529758782387
2024-09-23 12:54:23.001389,43.52,22.309171,-0.0030344509719951677,-0.022982261414192504,0.09710254654607277,40.106058693909645,-92.24360919585227,84.22370748782159
2024-09-23 12:54:23.043213,43.52,22.309171,-0.0032831742888682963,-0.022833026512682618,0.09710254654607277,40.106058693909645,-92.24360919585227,84.22370748782159
2024-09-23 12:54:23.054534,43.52,22.309171,-0.0032831742888682963,-0.022833026512682618,0.09675432418099966,40.106058693909645,-92.24360919585227,84.22370748782159
2024-09-23 12:54:23.096718,43.52,22.309222,-0.0032831742888682963,-0.023479709566915436,0.09680407370509965,36.09446859390736,-92.24360919585227,84.22370748782159
2024-09-23 12:54:23.109007,43.52,22.309222,-0.0032831742888682963,-0.023479709566915436,0.09680407370509965,36.09446859390736,-108.28669110388756,84.22370748782159
2024-09-23 12:54:23.140519,43.52,22.309273,-0.0032831742888682963,-0.023479709566915436,0.09680407370509965,36.09446859390736,-108.28669110388756,84.22370748782159
2024-09-23 12:54:23.152455,43.52,22.309273,-0.0032831742888682963,-0.02313149783467906,0.09675432418099966,28.07457030097246,-108.28669110388756,84.22370748782159
2024-09-23 12:54:23.195102,43.52,22.309324,-0.0030841997366068195,-0.023429960042815445,0.0973512698629459,28.07457030097246,-96.25519929585457,80.21211738781929
2024-09-23 12:54:23.238127,43.52,22.309324,-0.0030841997366068195,-0.023429960042815445,0.0973512698629459,40.106058693909645,-96.25519929585457,80.21211738781929
2024-09-23 12:54:23.249569,43.52,22.309374,-0.0031836870127375577,-0.023429960042815445,0.0973512698629459,40.106058693909645,-96.25519929585457,84.22370748782159
2024-09-23 12:54:23.292490,43.52,22.309425,-0.003233425524256645,-0.023429960042815445,0.09725178296655933,40.106058693909645,-96.25519929585457,84.22370748782159
2024-09-23 12:54:23.336992,43.52,22.309425,-0.003233425524256645,-0.02293251340906919,0.0970030596496862,28.07457030097246,-96.25519929585457,84.22370748782159
2024-09-23 12:54:23.348517,43.52,22.309512,-0.003233425524256645,-0.02293251340906919,0.0970030596496862,28.07457030097246,-96.25519929585457,84.22370748782159
2024-09-23 12:54:23.391384,43.52,22.309512,-0.0033329230534799477,-0.023181236725942318,0.09690356060148622,36.09446859390736,-92.24360919585227,80.21211738781929
2024-09-23 12:54:23.434800,43.52,22.309564,-0.0032831742888682963,-0.02352945757203875,0.09690356060148622,36.09446859390736,-92.24360919585227,80.21211738781929
2024-09-23 12:54:23.446353,43.52,22.309564,-0.0032831742888682963,-0.02352945757203875,0.09759999317981902,28.07457030097246,-104.27510100388527,80.21211738781929
2024-09-23 12:54:23.488610,43.52,22.309614,-0.0035816467500972456,-0.023280723622328886,0.09720203344245934,32.08287849390507,-104.27510100388527,72.1922225099802
2024-09-23 12:54:23.530862,43.52,22.309614,-0.0035816467500972456,-0.023280723622328886,0.09720203344245934,32.08287849390507,-104.27510100388527,72.1922225099802
2024-09-23 12:54:23.542163,43.52,22.309665,-0.0029349636958644295,-0.023479709566915436,0.09680407370509965,32.08287849390507,-104.27510100388527,72.1922225099802
2024-09-23 12:54:23.585893,43.52,22.309716,-0.003233425524256645,-0.023479709566915436,0.09680407370509965,40.106058693909645,-108.28669110388756,76.200527287817
2024-09-23 12:54:23.597363,43.52,22.309716,-0.003233425524256645,-0.02308174982955575,0.09680407370509965,40.106058693909645,-108.28669110388756,76.200527287817
2024-09-23 12:54:23.629868,43.35,22.309716,-0.003233425524256645,-0.02308174982955575,0.09655535038822652,44.11764879391193,-100.26678939585686,76.200527287817
2024-09-23 12:54:23.641401,43.35,22.309766,-0.003233425524256645,-0.02308174982955575,0.09655535038822652,44.11764879391193,-100.26678939585686,76.200527287817
2024-09-23 12:54:23.684026,43.35,22.309853,-0.003233425524256645,-0.022833026512682618,0.09695331012558621,32.08287849390507,-100.26678939585686,80.21211738781929
2024-09-23 12:54:23.727127,43.35,22.309853,-0.0030841997366068195,-0.02397715620066169,0.09755024973162574,32.08287849390507,-100.26678939585686,80.21211738781929
2024-09-23 12:54:23.738511,43.35,22.309853,-0.0030841997366068195,-0.02397715620066169,0.09755024973162574,36.09446859390736,-100.26678939585686,80.21211738781929
2024-09-23 12:54:23.781348,43.35,22.309905,-0.0035318979854855937,-0.022982261414192504,0.0973512698629459,36.09446859390736,-100.26678939585686,80.21211738781929
2024-09-23 12:54:23.824398,43.35,22.309956,-0.0031836870127375577,-0.022982261414192504,0.0973512698629459,36.09446859390736,-100.26678939585686,76.200527287817
2024-09-23 12:54:23.836087,43.35,22.309956,-0.0031836870127375577,-0.02313149783467906,0.09759999317981902,36.09446859390736,-100.26678939585686,76.200527287817
2024-09-23 12:54:23.879080,43.35,22.310006,-0.0031339382481259063,-0.02352945757203875,0.09640611396773996,36.09446859390736,-100.26678939585686,76.200527287817
2024-09-23 12:54:23.921473,43.35,22.310006,-0.0031339382481259063,-0.02352945757203875,0.09640611396773996,40.106058693909645,-96.25519929585457,76.200527287817
2024-09-23 12:54:23.932974,43.35,22.310057,-0.0031339382481259063,-0.023429960042815445,0.09640611396773996,40.106058693909645,-96.25519929585457,80.21211738781929
2024-09-23 12:54:23.976240,43.35,22.310108,-0.003631395514708897,-0.023429960042815445,0.09710254654607277,36.09446859390736,-92.24360919585227,84.22370748782159
2024-09-23 12:54:24.018685,43.35,22.310108,-0.003631395514708897,-0.023330473146428877,0.09705279702197278,40.106058693909645,-92.24360919585227,84.22370748782159
2024-09-23 12:54:24.030022,43.35,22.310195,-0.003631395514708897,-0.023330473146428877,0.09705279702197278,40.106058693909645,-92.24360919585227,80.21211738781929
2024-09-23 12:54:24.073147,43.35,22.310195,-0.0031339382481259063,-0.02293251340906919,0.09725178296655933,36.09446859390736,-96.25519929585457,84.22370748782159
2024-09-23 12:54:24.115737,43.35,22.310246,-0.0032831742888682963,-0.02293251340906919,0.09725178296655933,36.09446859390736,-96.25519929585457,84.22370748782159
2024-09-23 12:54:24.127644,43.35,22.310246,-0.0032831742888682963,-0.02352945757203875,0.0973015264147526,44.11764879391193,-104.27510100388527,84.22370748782159
2024-09-23 12:54:24.169395,43.35,22.310297,-0.0032831742888682963,-0.023429960042815445,0.09705279702197278,44.11764879391193,-104.27510100388527,80.21211738781929
2024-09-23 12:54:24.181405,43.35,22.310297,-0.0032831742888682963,-0.023429960042815445,0.09705279702197278,44.11764879391193,-104.27510100388527,80.21211738781929
2024-09-23 12:54:24.214354,43.35,22.310348,-0.0032831742888682963,-0.023429960042815445,0.09705279702197278,44.11764879391193,-100.26678939585686,80.21211738781929
2024-09-23 12:54:24.225669,43.35,22.310348,-0.0029847020175114316,-0.02338022115155219,0.09725178296655933,44.11764879391193,-100.26678939585686,80.21211738781929
2024-09-23 12:54:24.268859,43.35,22.310398,-0.0030841997366068195,-0.023728432883788564,0.09725178296655933,28.07457030097246,-96.25519929585457,80.21211738781929
2024-09-23 12:54:24.311404,43.35,22.310398,-0.0030841997366068195,-0.023728432883788564,0.0973015264147526,40.106058693909645,-96.25519929585457,80.21211738781929
2024-09-23 12:54:24.322712,43.35,22.310449,-0.003482159473966507,-0.023728432883788564,0.0973015264147526,40.106058693909645,-96.25519929585457,80.21211738781929
2024-09-23 12:54:24.366079,43.35,22.310536,-0.003482159473966507,-0.022982261414192504,0.09725178296655933,44.11764879391193,-96.25519929585457,80.21211738781929
2024-09-23 12:54:24.409411,43.35,22.310536,-0.003482159473966507,-0.023778180888911878,0.09720203344245934,44.11764879391193,-96.25519929585457,80.21211738781929
2024-09-23 12:54:24.421262,43.35,22.310536,-0.003482159473966507,-0.023778180888911878,0.09720203344245934,44.11764879391193,-96.25519929585457,80.21211738781929
2024-09-23 12:54:24.464661,43.35,22.310587,-0.0033329230534799477,-0.02278327698858263,0.09655535038822652,36.09446859390736,-96.25519929585457,80.21211738781929
2024-09-23 12:54:24.507390,43.35,22.310638,-0.0031836870127375577,-0.02278327698858263,0.09655535038822652,36.09446859390736,-96.25519929585457,84.22370748782159
2024-09-23 12:54:24.518841,43.35,22.310638,-0.0031836870127375577,-0.023230986250042305,0.0970030596496862,36.09446859390736,-96.25519929585457,84.22370748782159
2024-09-23 12:54:24.561798,43.35,22.310689,-0.0029349636958644295,-0.023479709566915436,0.09715228999426605,36.09446859390736,-104.27510100388527,76.200527287817
2024-09-23 12:54:24.604663,43.35,22.310689,-0.0029349636958644295,-0.023479709566915436,0.09715228999426605,36.09446859390736,-96.25519929585457,80.21211738781929
2024-09-23 12:54:24.616365,43.35,22.310739,-0.003233425524256645,-0.022733528983459317,0.09715228999426605,36.09446859390736,-96.25519929585457,80.21211738781929
2024-09-23 12:54:24.659004,42.96,22.31079,-0.0035318979854855937,-0.022733528983459317,0.0966050877605131,44.11764879391193,-92.24360919585227,76.200527287817
2024-09-23 12:54:24.702185,42.96,22.31079,-0.0035318979854855937,-0.02313149783467906,0.09715228999426605,40.106058693909645,-92.24360919585227,76.200527287817
2024-09-23 12:54:24.713910,42.96,22.310877,-0.0035318979854855937,-0.02313149783467906,0.09715228999426605,40.106058693909645,-96.25519929585457,80.21211738781929
2024-09-23 12:54:24.757179,42.96,22.310877,-0.0034324103296106863,-0.022733528983459317,0.09675432418099966,32.08287849390507,-96.25519929585457,80.21211738781929
2024-09-23 12:54:24.799115,42.96,22.310929,-0.0028852147413806935,-0.02313149783467906,0.09675432418099966,32.08287849390507,-96.25519929585457,80.21211738781929
2024-09-23 12:54:24.810464,42.96,22.310929,-0.0028852147413806935,-0.02313149783467906,0.09725178296655933,40.106058693909645,-100.26678939585686,80.21211738781929
2024-09-23 12:54:24.854319,42.96,22.310979,-0.0033329230534799477,-0.023479709566915436,0.09665483728461309,36.09446859390736,-100.26678939585686,88.23529758782387
2024-09-23 12:54:24.896344,42.96,22.31103,-0.0033329230534799477,-0.023479709566915436,0.09665483728461309,36.09446859390736,-92.24360919585227,80.21211738781929
2024-09-23 12:54:24.908099,42.96,22.31103,-0.003233425524256645,-0.02362894446842532,0.09685382322919964,36.09446859390736,-92.24360919585227,80.21211738781929
2024-09-23 12:54:24.950531,42.96,22.311081,-0.0028852147413806935,-0.022982261414192504,0.09685382322919964,36.09446859390736,-100.26678939585686,80.21211738781929
2024-09-23 12:54:24.994168,42.96,22.311081,-0.0028852147413806935,-0.022982261414192504,0.0973512698629459,40.106058693909645,-96.25519929585457,80.21211738781929
2024-09-23 12:54:25.005145,42.96,22.311132,-0.002785727465249955,-0.022982261414192504,0.0973512698629459,40.106058693909645,-96.25519929585457,84.22370748782159
2024-09-23 12:54:25.047507,42.96,22.311218,-0.002785727465249955,-0.02352945757203875,0.09680407370509965,40.106058693909645,-92.24360919585227,76.200527287817
2024-09-23 12:54:25.090168,42.96,22.311218,-0.003631395514708897,-0.023181236725942318,0.09680407370509965,40.106058693909645,-92.24360919585227,76.200527287817
2024-09-23 12:54:25.102102,42.96,22.311218,-0.003631395514708897,-0.023181236725942318,0.0970030596496862,28.07457030097246,-100.26678939585686,80.21211738781929
2024-09-23 12:54:25.145389,42.96,22.31127,-0.0033329230534799477,-0.023330473146428877,0.09705279702197278,28.07457030097246,-100.26678939585686,80.21211738781929
2024-09-23 12:54:25.158009,42.96,22.31127,-0.0033329230534799477,-0.023330473146428877,0.09705279702197278,32.08287849390507,-96.25519929585457,80.21211738781929
2024-09-23 12:54:25.190575,42.96,22.311321,-0.003233425524256645,-0.023330473146428877,0.09705279702197278,32.08287849390507,-96.25519929585457,84.22370748782159
2024-09-23 12:54:25.203139,42.96,22.311321,-0.003233425524256645,-0.02293251340906919,0.09705279702197278,40.106058693909645,-96.25519929585457,84.22370748782159
2024-09-23 12:54:25.236323,42.96,22.311321,-0.003233425524256645,-0.02293251340906919,0.09705279702197278,40.106058693909645,-92.24360919585227,80.21211738781929
2024-09-23 12:54:25.247699,42.96,22.311371,-0.003482159473966507,-0.02303200030545576,0.0966050877605131,40.106058693909645,-92.24360919585227,80.21211738781929
2024-09-23 12:54:25.289965,42.96,22.311422,-0.0037308827908396356,-0.02303200030545576,0.0966050877605131,36.09446859390736,-92.24360919585227,80.21211738781929
2024-09-23 12:54:25.301800,42.96,22.311422,-0.0037308827908396356,-0.023479709566915436,0.0966050877605131,36.09446859390736,-92.24360919585227,80.21211738781929
2024-09-23 12:54:25.334083,42.96,22.311422,-0.0037308827908396356,-0.023479709566915436,0.09774922960030558,36.09446859390736,-92.24360919585227,80.21211738781929
2024-09-23 12:54:25.345463,42.96,22.311473,-0.0030344509719951677,-0.023479709566915436,0.09774922960030558,36.09446859390736,-100.26678939585686,80.21211738781929
2024-09-23 12:54:25.387789,42.96,22.311473,-0.0030344509719951677,-0.023330473146428877,0.09710254654607277,40.106058693909645,-100.26678939585686,76.200527287817
2024-09-23 12:54:25.399263,42.96,22.31156,-0.0030344509719951677,-0.023330473146428877,0.09710254654607277,40.106058693909645,-100.26678939585686,76.200527287817
2024-09-23 12:54:25.432277,42.96,22.31156,-0.0034324103296106863,-0.023280723622328886,0.09710254654607277,40.106058693909645,-100.26678939585686,76.200527287817
2024-09-23 12:54:25.444199,42.96,22.31156,-0.0034324103296106863,-0.023280723622328886,0.09670458680871308,28.07457030097246,-100.26678939585686,84.22370748782159
2024-09-23 12:54:25.487802,42.96,22.311611,-0.0028354659767690416,-0.02303200030545576,0.09710254654607277,28.07457030097246,-100.26678939585686,84.22370748782159
2024-09-23 12:54:25.531675,42.96,22.311662,-0.0031836870127375577,-0.02303200030545576,0.09710254654607277,28.07457030097246,-100.26678939585686,76.200527287817
2024-09-23 12:54:25.543217,42.96,22.311662,-0.0031836870127375577,-0.023181236725942318,0.09759999317981902,32.08287849390507,-100.26678939585686,76.200527287817
2024-09-23 12:54:25.575692,42.96,22.311662,-0.0031836870127375577,-0.023181236725942318,0.09759999317981902,32.08287849390507,-100.26678939585686,76.200527287817
2024-09-23 12:54:25.587195,42.96,22.311713,-0.0032831742888682963,-0.023181236725942318,0.09725178296655933,32.08287849390507,-100.26678939585686,80.21211738781929
2024-09-23 12:54:25.629977,42.96,22.311763,-0.0032831742888682963,-0.023181236725942318,0.09725178296655933,40.106058693909645,-104.27510100388527,72.1922225099802
2024-09-23 12:54:25.641653,42.96,22.311763,-0.0038303700669703737,-0.023330473146428877,0.09725178296655933,40.106058693909645,-104.27510100388527,72.1922225099802
2024-09-23 12:54:25.673918,43.0,22.311763,-0.0038303700669703737,-0.023330473146428877,0.09745075675933246,40.106058693909645,-104.27510100388527,72.1922225099802
2024-09-23 12:54:25.686128,43.0,22.311814,-0.0029847020175114316,-0.023330473146428877,0.09745075675933246,36.09446859390736,-104.27510100388527,80.21211738781929
2024-09-23 12:54:25.730105,43.0,22.311814,-0.0029847020175114316,-0.02293251340906919,0.09690356060148622,40.106058693909645,-96.25519929585457,84.22370748782159
2024-09-23 12:54:25.741738,43.0,22.311901,-0.0029847020175114316,-0.02293251340906919,0.09690356060148622,40.106058693909645,-96.25519929585457,84.22370748782159
2024-09-23 12:54:25.773209,43.0,22.311901,-0.0035318979854855937,-0.02362894446842532,0.09690356060148622,40.106058693909645,-96.25519929585457,84.22370748782159
2024-09-23 12:54:25.784400,43.0,22.311901,-0.0035318979854855937,-0.02362894446842532,0.09670458680871308,36.09446859390736,-88.23529758782387,84.22370748782159
2024-09-23 12:54:25.827796,43.0,22.311953,-0.0030841997366068195,-0.02303200030545576,0.0973015264147526,40.106058693909645,-92.24360919585227,84.22370748782159
2024-09-23 12:54:25.870126,43.0,22.311953,-0.0030841997366068195,-0.02303200030545576,0.0973015264147526,40.106058693909645,-92.24360919585227,80.21211738781929
2024-09-23 12:54:25.881045,43.0,22.312003,-0.0029847020175114316,-0.023230986250042305,0.09725178296655933,40.106058693909645,-92.24360919585227,80.21211738781929
2024-09-23 12:54:25.924066,43.0,22.312054,-0.0035318979854855937,-0.023230986250042305,0.09725178296655933,40.106058693909645,-96.25519929585457,80.21211738781929
2024-09-23 12:54:25.936248,43.0,22.312054,-0.0035318979854855937,-0.022982261414192504,0.09695331012558621,40.106058693909645,-96.25519929585457,80.21211738781929
2024-09-23 12:54:25.968203,43.0,22.312054,-0.0035318979854855937,-0.022982261414192504,0.09695331012558621,40.106058693909645,-108.28669110388756,80.21211738781929
2024-09-23 12:54:25.979382,43.0,22.312104,-0.0034324103296106863,-0.02313149783467906,0.09695331012558621,40.106058693909645,-108.28669110388756,80.21211738781929
2024-09-23 12:54:26.021556,43.0,22.312155,-0.0034324103296106863,-0.02313149783467906,0.09690356060148622,44.11764879391193,-96.25519929585457,80.21211738781929
2024-09-23 12:54:26.032992,43.0,22.312155,-0.0032831742888682963,-0.02313149783467906,0.09690356060148622,44.11764879391193,-96.25519929585457,80.21211738781929
2024-09-23 12:54:26.065458,43.0,22.312155,-0.0032831742888682963,-0.023429960042815445,0.09675432418099966,44.11764879391193,-96.25519929585457,80.21211738781929
2024-09-23 12:54:26.076655,43.0,22.312242,-0.0032831742888682963,-0.023429960042815445,0.09675432418099966,32.08287849390507,-104.27510100388527,84.22370748782159
2024-09-23 12:54:26.118432,43.0,22.312242,-0.003482159473966507,-0.023330473146428877,0.09665483728461309,32.08287849390507,-104.27510100388527,84.22370748782159
2024-09-23 12:54:26.131324,43.0,22.312242,-0.003482159473966507,-0.023330473146428877,0.09665483728461309,32.08287849390507,-100.26678939585686,84.22370748782159
2024-09-23 12:54:26.163110,43.0,22.312294,-0.003233425524256645,-0.023330473146428877,0.09665483728461309,32.08287849390507,-100.26678939585686,84.22370748782159
2024-09-23 12:54:26.174478,43.0,22.312294,-0.003233425524256645,-0.023280723622328886,0.09695331012558621,36.09446859390736,-96.25519929585457,84.22370748782159
2024-09-23 12:54:26.218804,43.0,22.312344,-0.0034324103296106863,-0.023280723622328886,0.09695331012558621,36.09446859390736,-96.25519929585457,76.200527287817
2024-09-23 12:54:26.261449,43.0,22.312344,-0.0034324103296106863,-0.023479709566915436,0.09715228999426605,40.106058693909645,-96.25519929585457,76.200527287817
2024-09-23 12:54:26.272637,43.0,22.312395,-0.0034324103296106863,-0.023479709566915436,0.09715228999426605,40.106058693909645,-96.25519929585457,80.21211738781929
2024-09-23 12:54:26.315735,43.0,22.312395,-0.0035318979854855937,-0.02352945757203875,0.09705279702197278,28.07457030097246,-96.25519929585457,76.200527287817
2024-09-23 12:54:26.358139,43.0,22.312446,-0.0031836870127375577,-0.02352945757203875,0.09705279702197278,28.07457030097246,-96.25519929585457,76.200527287817
2024-09-23 12:54:26.369296,43.0,22.312446,-0.0031836870127375577,-0.02362894446842532,0.0973015264147526,36.09446859390736,-100.26678939585686,76.200527287817
2024-09-23 12:54:26.411619,43.0,22.312496,-0.0033329230534799477,-0.023280723622328886,0.09690356060148622,36.09446859390736,-100.26678939585686,84.22370748782159
2024-09-23 12:54:26.423851,43.0,22.312496,-0.0033329230534799477,-0.023280723622328886,0.09690356060148622,40.106058693909645,-100.26678939585686,84.22370748782159
2024-09-23 12:54:26.456912,43.0,22.312584,-0.0033329230534799477,-0.023280723622328886,0.09690356060148622,40.106058693909645,-96.25519929585457,76.200527287817
2024-09-23 12:54:26.468543,43.0,22.312584,-0.003780631555451287,-0.023230986250042305,0.09759999317981902,40.106058693909645,-96.25519929585457,76.200527287817
2024-09-23 12:54:26.511147,43.0,22.312635,-0.0030841997366068195,-0.02308174982955575,0.09759999317981902,40.106058693909645,-100.26678939585686,84.22370748782159
2024-09-23 12:54:26.554161,43.0,22.312635,-0.0030841997366068195,-0.02308174982955575,0.09740101331113918,36.09446859390736,-100.26678939585686,84.22370748782159
2024-09-23 12:54:26.565428,43.0,22.312686,-0.003482159473966507,-0.02308174982955575,0.09740101331113918,36.09446859390736,-100.26678939585686,76.200527287817
2024-09-23 12:54:26.608258,43.0,22.312778,-0.003482159473966507,-0.023181236725942318,0.09750050628343246,36.09446859390736,-100.26678939585686,72.1922225099802
2024-09-23 12:54:26.650629,43.0,22.312778,-0.003233425524256645,-0.023280723622328886,0.09750050628343246,36.09446859390736,-100.26678939585686,72.1922225099802
2024-09-23 12:54:26.662594,43.0,22.312778,-0.003233425524256645,-0.023280723622328886,0.09725178296655933,36.09446859390736,-92.24360919585227,76.200527287817
2024-09-23 12:54:26.707261,43.17,22.31283,-0.0036811340262279837,-0.023579196463302005,0.09745075675933246,36.09446859390736,-88.23529758782387,76.200527287817
2024-09-23 12:54:26.749842,43.17,22.312881,-0.003233425524256645,-0.023579196463302005,0.09745075675933246,36.09446859390736,-88.23529758782387,80.21211738781929
2024-09-23 12:54:26.761666,43.17,22.312881,-0.003233425524256645,-0.02352945757203875,0.09725178296655933,36.09446859390736,-88.23529758782387,80.21211738781929
2024-09-23 12:54:26.803881,43.17,22.312931,-0.0033329230534799477,-0.02303200030545576,0.0973015264147526,36.09446859390736,-92.24360919585227,84.22370748782159
2024-09-23 12:54:26.846179,43.17,22.312931,-0.0033329230534799477,-0.02303200030545576,0.0973015264147526,36.09446859390736,-100.26678939585686,84.22370748782159
2024-09-23 12:54:26.857573,43.17,22.312982,-0.0034324103296106863,-0.02303200030545576,0.0973015264147526,36.09446859390736,-100.26678939585686,84.22370748782159
2024-09-23 12:54:26.899685,43.17,22.312982,-0.0034324103296106863,-0.023330473146428877,0.0973512698629459,36.09446859390736,-96.25519929585457,84.22370748782159
2024-09-23 12:54:26.911484,43.17,22.313033,-0.0034324103296106863,-0.023330473146428877,0.0973512698629459,36.09446859390736,-96.25519929585457,84.22370748782159
2024-09-23 12:54:26.944998,43.17,22.313033,-0.0035318979854855937,-0.02313149783467906,0.09655535038822652,36.09446859390736,-96.25519929585457,84.22370748782159
2024-09-23 12:54:26.956538,43.17,22.313033,-0.0035318979854855937,-0.02313149783467906,0.09655535038822652,36.09446859390736,-96.25519929585457,80.21211738781929
2024-09-23 12:54:26.990590,43.17,22.31312,-0.0035318979854855937,-0.02313149783467906,0.09655535038822652,36.09446859390736,-96.25519929585457,80.21211738781929
2024-09-23 12:54:27.001916,43.17,22.31312,-0.0038303700669703737,-0.023479709566915436,0.09695331012558621,36.09446859390736,-100.26678939585686,80.21211738781929
2024-09-23 12:54:27.043665,43.17,22.313171,-0.0031836870127375577,-0.023330473146428877,0.09695331012558621,36.09446859390736,-100.26678939585686,80.21211738781929
2024-09-23 12:54:27.055213,43.17,22.313171,-0.0031836870127375577,-0.023330473146428877,0.09750050628343246,24.06297849342227,-100.26678939585686,80.21211738781929
2024-09-23 12:54:27.086766,43.17,22.313171,-0.0031836870127375577,-0.023330473146428877,0.09750050628343246,24.06297849342227,-96.25519929585457,80.21211738781929
2024-09-23 12:54:27.097893,43.17,22.313222,-0.0031339382481259063,-0.022833026512682618,0.09759999317981902,24.06297849342227,-96.25519929585457,84.22370748782159
2024-09-23 12:54:27.142172,43.17,22.313273,-0.0029847020175114316,-0.022833026512682618,0.09759999317981902,40.106058693909645,-100.26678939585686,80.21211738781929
2024-09-23 12:54:27.153821,43.17,22.313273,-0.0029847020175114316,-0.023927417309398437,0.09759999317981902,40.106058693909645,-100.26678939585686,80.21211738781929
2024-09-23 12:54:27.186595,43.17,22.313273,-0.0029847020175114316,-0.023927417309398437,0.09740101331113918,40.106058693909645,-100.26678939585686,80.21211738781929
2024-09-23 12:54:27.197841,43.17,22.313323,-0.003631395514708897,-0.023927417309398437,0.09740101331113918,40.106058693909645,-100.26678939585686,76.200527287817
2024-09-23 12:54:27.239979,43.17,22.313323,-0.003631395514708897,-0.023579196463302005,0.09750050628343246,36.09446859390736,-92.24360919585227,80.21211738781929
2024-09-23 12:54:27.251712,43.17,22.313412,-0.003631395514708897,-0.023579196463302005,0.09750050628343246,36.09446859390736,-92.24360919585227,80.21211738781929
2024-09-23 12:54:27.284189,43.17,22.313412,-0.003482159473966507,-0.023280723622328886,0.09750050628343246,36.09446859390736,-92.24360919585227,80.21211738781929
2024-09-23 12:54:27.296344,43.17,22.313412,-0.003482159473966507,-0.023280723622328886,0.09759999317981902,40.106058693909645,-100.26678939585686,80.21211738781929
2024-09-23 12:54:27.340018,43.17,22.313464,-0.0035318979854855937,-0.023330473146428877,0.0973512698629459,40.106058693909645,-92.24360919585227,80.21211738781929
2024-09-23 12:54:27.382823,43.17,22.313514,-0.0035318979854855937,-0.023330473146428877,0.0973512698629459,40.106058693909645,-92.24360919585227,76.200527287817
2024-09-23 12:54:27.394384,43.17,22.313514,-0.0038801188315820256,-0.023330473146428877,0.09814718933766527,32.08287849390507,-92.24360919585227,76.200527287817
2024-09-23 12:54:27.437812,43.17,22.313565,-0.0030841997366068195,-0.022982261414192504,0.09685382322919964,32.08287849390507,-96.25519929585457,84.22370748782159
2024-09-23 12:54:27.480549,43.17,22.313565,-0.0030841997366068195,-0.022982261414192504,0.09685382322919964,40.106058693909645,-100.26678939585686,80.21211738781929
2024-09-23 12:54:27.492422,43.17,22.313616,-0.0037308827908396356,-0.023429960042815445,0.09685382322919964,40.106058693909645,-100.26678939585686,80.21211738781929
2024-09-23 12:54:27.534242,43.17,22.313666,-0.0035816467500972456,-0.023429960042815445,0.09725178296655933,36.09446859390736,-104.27510100388527,76.200527287817
2024-09-23 12:54:27.577973,43.17,22.313666,-0.0035816467500972456,-0.02308174982955575,0.09759999317981902,32.08287849390507,-104.27510100388527,76.200527287817
2024-09-23 12:54:27.589726,43.17,22.313753,-0.0035816467500972456,-0.02308174982955575,0.09759999317981902,32.08287849390507,-100.26678939585686,80.21211738781929
2024-09-23 12:54:27.633273,43.17,22.313753,-0.003382661564999035,-0.023280723622328886,0.09690356060148622,44.11764879391193,-92.24360919585227,76.200527287817
2024-09-23 12:54:27.675750,43.17,22.313805,-0.002785727465249955,-0.023280723622328886,0.09690356060148622,44.11764879391193,-92.24360919585227,76.200527287817
2024-09-23 12:54:27.687422,43.17,22.313805,-0.002785727465249955,-0.023280723622328886,0.09725178296655933,36.09446859390736,-92.24360919585227,76.200527287817
2024-09-23 12:54:27.730264,43.13,22.313856,-0.0030841997366068195,-0.02367869399252531,0.09690356060148622,36.09446859390736,-92.24360919585227,80.21211738781929
2024-09-23 12:54:27.773035,43.13,22.313907,-0.0030841997366068195,-0.02367869399252531,0.09690356060148622,36.09446859390736,-96.25519929585457,76.200527287817
2024-09-23 12:54:27.784836,43.13,22.313907,-0.0030841997366068195,-0.023330473146428877,0.0973512698629459,36.09446859390736,-96.25519929585457,76.200527287817
2024-09-23 12:54:27.827689,43.13,22.313957,-0.0029847020175114316,-0.02367869399252531,0.0973512698629459,36.09446859390736,-100.26678939585686,84.22370748782159
2024-09-23 12:54:27.870907,43.13,22.313957,-0.0029847020175114316,-0.02367869399252531,0.09710254654607277,52.137550501942634,-100.26678939585686,84.22370748782159
2024-09-23 12:54:27.882588,43.13,22.314008,-0.0035816467500972456,-0.02367869399252531,0.09710254654607277,52.137550501942634,-100.26678939585686,76.200527287817
2024-09-23 12:54:27.925922,43.13,22.314095,-0.0035816467500972456,-0.023479709566915436,0.09710254654607277,28.07457030097246,-100.26678939585686,80.21211738781929
2024-09-23 12:54:27.969567,43.13,22.314095,-0.003482159473966507,-0.02362894446842532,0.0973512698629459,32.08287849390507,-100.26678939585686,80.21211738781929
2024-09-23 12:54:27.981035,43.13,22.314095,-0.003482159473966507,-0.02362894446842532,0.0973512698629459,32.08287849390507,-92.24360919585227,76.200527287817
2024-09-23 12:54:28.012889,43.13,22.314146,-0.003482159473966507,-0.02362894446842532,0.0973512698629459,32.08287849390507,-92.24360919585227,76.200527287817
2024-09-23 12:54:28.024648,43.13,22.314146,-0.0031836870127375577,-0.0228827638849692,0.09720203344245934,36.09446859390736,-100.26678939585686,76.200527287817
2024-09-23 12:54:28.066955,43.13,22.314197,-0.004128842528199323,-0.0228827638849692,0.09720203344245934,36.09446859390736,-100.26678939585686,80.21211738781929
2024-09-23 12:54:28.078628,43.13,22.314197,-0.004128842528199323,-0.02293251340906919,0.09670458680871308,32.08287849390507,-100.26678939585686,80.21211738781929
2024-09-23 12:54:28.114987,43.13,22.314197,-0.004128842528199323,-0.02293251340906919,0.09670458680871308,32.08287849390507,-104.27510100388527,80.21211738781929
2024-09-23 12:54:28.126643,43.13,22.314248,-0.0029847020175114316,-0.023230986250042305,0.09725178296655933,32.08287849390507,-104.27510100388527,80.21211738781929
2024-09-23 12:54:28.169126,43.13,22.314298,-0.0032831742888682963,-0.023230986250042305,0.09725178296655933,32.08287849390507,-100.26678939585686,80.21211738781929
2024-09-23 12:54:28.212059,43.13,22.314298,-0.0032831742888682963,-0.023230986250042305,0.09725178296655933,40.106058693909645,-108.28669110388756,80.21211738781929
2024-09-23 12:54:28.223501,43.13,22.314349,-0.0031836870127375577,-0.023230986250042305,0.09725178296655933,40.106058693909645,-108.28669110388756,76.200527287817
2024-09-23 12:54:28.265908,43.13,22.314436,-0.0031836870127375577,-0.023429960042815445,0.09715228999426605,36.09446859390736,-96.25519929585457,84.22370748782159
2024-09-23 12:54:28.308071,43.13,22.314436,-0.0028852147413806935,-0.023479709566915436,0.09715228999426605,36.09446859390736,-96.25519929585457,84.22370748782159
2024-09-23 12:54:28.320618,43.13,22.314436,-0.0028852147413806935,-0.023479709566915436,0.09720203344245934,40.106058693909645,-100.26678939585686,80.21211738781929
2024-09-23 12:54:28.364739,43.13,22.314487,-0.0029349636958644295,-0.02362894446842532,0.0970030596496862,36.09446859390736,-96.25519929585457,80.21211738781929
2024-09-23 12:54:28.407860,43.13,22.314538,-0.0030344509719951677,-0.023728432883788564,0.0970030596496862,36.09446859390736,-96.25519929585457,88.23529758782387
2024-09-23 12:54:28.419362,43.13,22.314538,-0.0030344509719951677,-0.023728432883788564,0.09715228999426605,36.09446859390736,-96.25519929585457,88.23529758782387
2024-09-23 12:54:28.452188,43.13,22.314538,-0.0030344509719951677,-0.023728432883788564,0.09715228999426605,36.09446859390736,-100.26678939585686,88.23529758782387
2024-09-23 12:54:28.464308,43.13,22.314589,-0.003482159473966507,-0.023280723622328886,0.09755024973162574,36.09446859390736,-100.26678939585686,80.21211738781929
2024-09-23 12:54:28.506337,43.13,22.314639,-0.003482159473966507,-0.023280723622328886,0.09755024973162574,36.09446859390736,-96.25519929585457,80.21211738781929
2024-09-23 12:54:28.518176,43.13,22.314639,-0.0034324103296106863,-0.023429960042815445,0.09755024973162574,36.09446859390736,-96.25519929585457,80.21211738781929
2024-09-23 12:54:28.551224,43.13,22.314639,-0.0034324103296106863,-0.023429960042815445,0.09665483728461309,36.09446859390736,-96.25519929585457,80.21211738781929
2024-09-23 12:54:28.563269,43.13,22.31469,-0.003382661564999035,-0.023429960042815445,0.09665483728461309,36.09446859390736,-96.25519929585457,80.21211738781929
2024-09-23 12:54:28.606616,43.13,22.31469,-0.003382661564999035,-0.023330473146428877,0.09715228999426605,40.106058693909645,-92.24360919585227,84.22370748782159
2024-09-23 12:54:28.618081,43.13,22.314777,-0.003382661564999035,-0.023330473146428877,0.09715228999426605,40.106058693909645,-92.24360919585227,84.22370748782159
2024-09-23 12:54:28.651203,43.13,22.314777,-0.0030344509719951677,-0.023181236725942318,0.09675432418099966,40.106058693909645,-92.24360919585227,84.22370748782159
2024-09-23 12:54:28.662381,43.13,22.314777,-0.0030344509719951677,-0.023181236725942318,0.09675432418099966,32.08287849390507,-96.25519929585457,80.21211738781929
2024-09-23 12:54:28.706040,43.13,22.314829,-0.0029847020175114316,-0.02352945757203875,0.09755024973162574,32.08287849390507,-100.26678939585686,80.21211738781929
2024-09-23 12:54:28.748587,43.0,22.314879,-0.0029349636958644295,-0.02352945757203875,0.09755024973162574,32.08287849390507,-100.26678939585686,80.21211738781929
2024-09-23 12:54:28.759744,43.0,22.314879,-0.0029349636958644295,-0.02367869399252531,0.09755024973162574,40.106058693909645,-100.26678939585686,80.21211738781929
2024-09-23 12:54:28.802725,43.0,22.31493,-0.0031339382481259063,-0.023230986250042305,0.09690356060148622,40.106058693909645,-100.26678939585686,76.200527287817
2024-09-23 12:54:28.845948,43.0,22.31493,-0.0031339382481259063,-0.023230986250042305,0.09690356060148622,32.08287849390507,-96.25519929585457,84.22370748782159
2024-09-23 12:54:28.857714,43.0,22.314981,-0.003382661564999035,-0.022982261414192504,0.09690356060148622,32.08287849390507,-96.25519929585457,84.22370748782159
2024-09-23 12:54:28.900825,43.0,22.315031,-0.0031339382481259063,-0.022982261414192504,0.09750050628343246,36.09446859390736,-100.26678939585686,76.200527287817
2024-09-23 12:54:28.993875,43.0,22.315031,-0.0031339382481259063,-0.02352945757203875,0.09665483728461309,40.106058693909645,-96.25519929585457,76.200527287817
2024-09-23 12:54:29.005739,43.0,22.315118,-0.0031339382481259063,-0.02352945757203875,0.09665483728461309,40.106058693909645,-96.25519929585457,76.200527287817
2024-09-23 12:54:29.038872,43.0,22.315118,-0.0032831742888682963,-0.023230986250042305,0.09665483728461309,40.106058693909645,-96.25519929585457,76.200527287817
2024-09-23 12:54:29.050221,43.0,22.315118,-0.0032831742888682963,-0.023230986250042305,0.09685382322919964,40.106058693909645,-92.24360919585227,80.21211738781929
2024-09-23 12:54:29.092365,43.0,22.31517,-0.003233425524256645,-0.02352945757203875,0.0973512698629459,24.06297849342227,-92.24360919585227,80.21211738781929
2024-09-23 12:54:29.104308,43.0,22.31517,-0.003233425524256645,-0.02352945757203875,0.0973512698629459,24.06297849342227,-92.24360919585227,80.21211738781929
2024-09-23 12:54:29.137648,43.0,22.315221,-0.003233425524256645,-0.02352945757203875,0.0973512698629459,24.06297849342227,-92.24360919585227,80.21211738781929
2024-09-23 12:54:29.148854,43.0,22.315221,-0.003233425524256645,-0.023330473146428877,0.0973015264147526,36.09446859390736,-92.24360919585227,80.21211738781929
2024-09-23 12:54:29.191321,43.0,22.315271,-0.0035816467500972456,-0.023579196463302005,0.09705279702197278,36.09446859390736,-100.26678939585686,76.200527287817
2024-09-23 12:54:29.234211,43.0,22.315271,-0.0035816467500972456,-0.023579196463302005,0.09705279702197278,28.07457030097246,-100.26678939585686,76.200527287817
2024-09-23 12:54:29.246408,43.0,22.315364,-0.0031339382481259063,-0.022982261414192504,0.09705279702197278,28.07457030097246,-100.26678939585686,80.21211738781929
2024-09-23 12:54:29.288641,43.0,22.315415,-0.0031339382481259063,-0.022982261414192504,0.09685382322919964,24.06297849342227,-96.25519929585457,84.22370748782159
2024-09-23 12:54:29.300510,43.0,22.315415,-0.002785727465249955,-0.022982261414192504,0.09685382322919964,24.06297849342227,-96.25519929585457,84.22370748782159
2024-09-23 12:54:29.332517,43.0,22.315415,-0.002785727465249955,-0.023330473146428877,0.09710254654607277,24.06297849342227,-96.25519929585457,84.22370748782159
2024-09-23 12:54:29.385378,43.0,22.315508,-0.0038303700669703737,-0.023330473146428877,0.09710254654607277,36.09446859390736,-96.25519929585457,76.200527287817
2024-09-23 12:54:29.397782,43.0,22.315508,-0.0038303700669703737,-0.02313149783467906,0.09710254654607277,36.09446859390736,-96.25519929585457,76.200527287817
2024-09-23 12:54:29.430950,43.0,22.315508,-0.0038303700669703737,-0.02313149783467906,0.0973015264147526,36.09446859390736,-92.24360919585227,76.200527287817
2024-09-23 12:54:29.442705,43.0,22.31556,-0.003382661564999035,-0.02313149783467906,0.0973015264147526,36.09446859390736,-92.24360919585227,80.21211738781929
2024-09-23 12:54:29.485299,43.0,22.315611,-0.003382661564999035,-0.023330473146428877,0.0973015264147526,36.09446859390736,-96.25519929585457,80.21211738781929
2024-09-23 12:54:29.527652,43.0,22.315611,-0.0029349636958644295,-0.023280723622328886,0.09705279702197278,36.09446859390736,-96.25519929585457,80.21211738781929
2024-09-23 12:54:29.538781,43.0,22.315611,-0.0029349636958644295,-0.023280723622328886,0.09705279702197278,44.11764879391193,-92.24360919585227,84.22370748782159
2024-09-23 12:54:29.581285,43.0,22.315661,-0.0028852147413806935,-0.023181236725942318,0.09680407370509965,40.106058693909645,-100.26678939585686,84.22370748782159
2024-09-23 12:54:29.624065,43.0,22.315753,-0.0028852147413806935,-0.023181236725942318,0.09680407370509965,40.106058693909645,-100.26678939585686,76.200527287817
2024-09-23 12:54:29.635497,43.0,22.315753,-0.003233425524256645,-0.023579196463302005,0.09750050628343246,36.09446859390736,-100.26678939585686,76.200527287817
2024-09-23 12:54:29.678032,43.0,22.315804,-0.0029349636958644295,-0.023579196463302005,0.09750050628343246,36.09446859390736,-100.26678939585686,80.21211738781929
2024-09-23 12:54:29.690201,43.0,22.315804,-0.0029349636958644295,-0.023579196463302005,0.09710254654607277,36.09446859390736,-100.26678939585686,80.21211738781929
2024-09-23 12:54:29.722961,43.0,22.315804,-0.0029349636958644295,-0.023579196463302005,0.09710254654607277,36.09446859390736,-100.26678939585686,80.21211738781929
2024-09-23 12:54:29.734551,43.0,22.315855,-0.003631395514708897,-0.02338022115155219,0.09710254654607277,36.09446859390736,-100.26678939585686,80.21211738781929
2024-09-23 12:54:29.776275,43.06,22.315906,-0.0031836870127375577,-0.02338022115155219,0.09755024973162574,36.09446859390736,-100.26678939585686,84.22370748782159
2024-09-23 12:54:29.819246,43.06,22.315906,-0.0031836870127375577,-0.023479709566915436,0.09695331012558621,36.09446859390736,-100.26678939585686,84.22370748782159
2024-09-23 12:54:29.830289,43.06,22.315996,-0.0031836870127375577,-0.023479709566915436,0.09695331012558621,40.106058693909645,-96.25519929585457,80.21211738781929
2024-09-23 12:54:29.872423,43.06,22.315996,-0.003631395514708897,-0.02338022115155219,0.09764974270391902,28.07457030097246,-96.25519929585457,80.21211738781929
2024-09-23 12:54:29.883495,43.06,22.315996,-0.003631395514708897,-0.02338022115155219,0.09764974270391902,28.07457030097246,-92.24360919585227,76.200527287817
2024-09-23 12:54:29.916940,43.06,22.316048,-0.003631395514708897,-0.02338022115155219,0.09764974270391902,28.07457030097246,-92.24360919585227,76.200527287817
2024-09-23 12:54:29.928865,43.06,22.316048,-0.002586742470023829,-0.023181236725942318,0.09715228999426605,32.08287849390507,-96.25519929585457,76.200527287817
2024-09-23 12:54:29.970954,43.06,22.316098,-0.0033329230534799477,-0.023181236725942318,0.09715228999426605,32.08287849390507,-96.25519929585457,76.200527287817
2024-09-23 12:54:30.013429,43.06,22.316098,-0.0033329230534799477,-0.02313149783467906,0.09715228999426605,32.08287849390507,-96.25519929585457,76.200527287817
2024-09-23 12:54:30.025573,43.06,22.316149,-0.0033329230534799477,-0.02313149783467906,0.0970030596496862,28.07457030097246,-92.24360919585227,80.21211738781929
2024-09-23 12:54:30.068105,43.06,22.316149,-0.003929857343101113,-0.023579196463302005,0.09740101331113918,40.106058693909645,-88.23529758782387,80.21211738781929
2024-09-23 12:54:30.080269,43.06,22.316149,-0.003929857343101113,-0.023579196463302005,0.09740101331113918,40.106058693909645,-88.23529758782387,80.21211738781929
2024-09-23 12:54:30.111805,43.06,22.316199,-0.0029847020175114316,-0.023579196463302005,0.09740101331113918,40.106058693909645,-88.23529758782387,80.21211738781929
2024-09-23 12:54:30.123022,43.06,22.316199,-0.0029847020175114316,-0.023280723622328886,0.09635636444363997,44.11764879391193,-100.26678939585686,80.21211738781929
2024-09-23 12:54:30.165846,43.06,22.31625,-0.0035816467500972456,-0.023579196463302005,0.09695331012558621,44.11764879391193,-100.26678939585686,76.200527287817
2024-09-23 12:54:30.177543,43.06,22.31625,-0.0035816467500972456,-0.023579196463302005,0.09695331012558621,36.09446859390736,-100.26678939585686,76.200527287817
2024-09-23 12:54:30.210465,43.06,22.316337,-0.0035816467500972456,-0.023579196463302005,0.09695331012558621,36.09446859390736,-100.26678939585686,80.21211738781929
2024-09-23 12:54:30.221809,43.06,22.316337,-0.0034324103296106863,-0.022733528983459317,0.0966050877605131,36.09446859390736,-100.26678939585686,80.21211738781929
2024-09-23 12:54:30.263572,43.06,22.316389,-0.002785727465249955,-0.022733528983459317,0.0966050877605131,40.106058693909645,-104.27510100388527,72.1922225099802
2024-09-23 12:54:30.275543,43.06,22.316389,-0.002785727465249955,-0.02278327698858263,0.0966050877605131,40.106058693909645,-104.27510100388527,72.1922225099802
2024-09-23 12:54:30.307460,43.06,22.316389,-0.002785727465249955,-0.02278327698858263,0.09710254654607277,36.09446859390736,-100.26678939585686,72.1922225099802
2024-09-23 12:54:30.318685,43.06,22.316439,-0.0032831742888682963,-0.02278327698858263,0.09710254654607277,36.09446859390736,-100.26678939585686,80.21211738781929
2024-09-23 12:54:30.361259,43.06,22.316532,-0.0032831742888682963,-0.023280723622328886,0.0973015264147526,28.07457030097246,-96.25519929585457,76.200527287817
2024-09-23 12:54:30.404572,43.06,22.316532,-0.0031836870127375577,-0.023479709566915436,0.0973015264147526,28.07457030097246,-96.25519929585457,76.200527287817
2024-09-23 12:54:30.416288,43.06,22.316532,-0.0031836870127375577,-0.023479709566915436,0.09710254654607277,40.106058693909645,-104.27510100388527,76.200527287817
2024-09-23 12:54:30.459723,43.06,22.316584,-0.0030344509719951677,-0.022982261414192504,0.09680407370509965,32.08287849390507,-104.27510100388527,76.200527287817
2024-09-23 12:54:30.501924,43.06,22.316634,-0.0030344509719951677,-0.022982261414192504,0.09680407370509965,32.08287849390507,-104.27510100388527,80.21211738781929
2024-09-23 12:54:30.513839,43.06,22.316634,-0.003780631555451287,-0.02313149783467906,0.09685382322919964,28.07457030097246,-104.27510100388527,80.21211738781929
2024-09-23 12:54:30.556918,43.06,22.316685,-0.0034324103296106863,-0.023429960042815445,0.09779897304849887,28.07457030097246,-104.27510100388527,80.21211738781929
2024-09-23 12:54:30.598629,43.06,22.316685,-0.0034324103296106863,-0.023429960042815445,0.09779897304849887,28.07457030097246,-112.29828120388984,80.21211738781929
2024-09-23 12:54:30.610203,43.06,22.316736,-0.0034324103296106863,-0.023429960042815445,0.09779897304849887,28.07457030097246,-112.29828120388984,76.200527287817
2024-09-23 12:54:30.652666,43.06,22.316736,-0.0033329230534799477,-0.023429960042815445,0.09779897304849887,28.07457030097246,-112.29828120388984,76.200527287817
2024-09-23 12:54:30.695971,43.06,22.316736,-0.0033329230534799477,-0.023728432883788564,0.09779897304849887,28.07457030097246,-112.29828120388984,76.200527287817
2024-09-23 12:54:30.707102,43.06,22.316786,-0.0033329230534799477,-0.023728432883788564,0.0973015264147526,36.09446859390736,-104.27510100388527,84.22370748782159
2024-09-23 12:54:30.750742,43.06,22.316786,-0.0033329230534799477,-0.02308174982955575,0.09764974270391902,28.07457030097246,-100.26678939585686,84.22370748782159
2024-09-23 12:54:30.762420,43.06,22.316786,-0.0033329230534799477,-0.02308174982955575,0.09764974270391902,28.07457030097246,-100.26678939585686,80.21211738781929
2024-09-23 12:54:30.794547,42.59,22.316873,-0.0033329230534799477,-0.02308174982955575,0.09764974270391902,28.07457030097246,-100.26678939585686,80.21211738781929
2024-09-23 12:54:30.805998,42.59,22.316873,-0.0033329230534799477,-0.022833026512682618,0.09655535038822652,40.106058693909645,-96.25519929585457,80.21211738781929
2024-09-23 12:54:30.849112,42.59,22.316925,-0.0030841997366068195,-0.023181236725942318,0.09670458680871308,36.09446859390736,-96.25519929585457,80.21211738781929
2024-09-23 12:54:30.891362,42.59,22.316925,-0.0030841997366068195,-0.023181236725942318,0.09670458680871308,36.09446859390736,-96.25519929585457,84.22370748782159
2024-09-23 12:54:30.903197,42.59,22.316976,-0.003482159473966507,-0.023280723622328886,0.0970030596496862,36.09446859390736,-96.25519929585457,84.22370748782159
2024-09-23 12:54:30.946116,42.59,22.317071,-0.0035318979854855937,-0.023579196463302005,0.0970030596496862,36.09446859390736,-92.24360919585227,84.22370748782159
2024-09-23 12:54:30.988709,42.59,22.317071,-0.0035318979854855937,-0.023579196463302005,0.09715228999426605,40.106058693909645,-92.24360919585227,84.22370748782159
2024-09-23 12:54:30.999879,42.59,22.317121,-0.0032831742888682963,-0.023579196463302005,0.09715228999426605,40.106058693909645,-96.25519929585457,72.1922225099802
2024-09-23 12:54:31.042427,42.59,22.317121,-0.0032831742888682963,-0.023280723622328886,0.09725178296655933,40.106058693909645,-104.27510100388527,80.21211738781929
2024-09-23 12:54:31.054260,42.59,22.317215,-0.0032831742888682963,-0.023280723622328886,0.09725178296655933,40.106058693909645,-104.27510100388527,80.21211738781929
2024-09-23 12:54:31.086407,42.59,22.317215,-0.0031836870127375577,-0.02313149783467906,0.09725178296655933,40.106058693909645,-104.27510100388527,80.21211738781929
2024-09-23 12:54:31.097986,42.59,22.317215,-0.0031836870127375577,-0.02313149783467906,0.09764974270391902,36.09446859390736,-100.26678939585686,88.23529758782387
2024-09-23 12:54:31.140256,42.59,22.317266,-0.003233425524256645,-0.023230986250042305,0.09725178296655933,40.106058693909645,-100.26678939585686,88.23529758782387
2024-09-23 12:54:31.152390,42.59,22.317266,-0.003233425524256645,-0.023230986250042305,0.09725178296655933,40.106058693909645,-104.27510100388527,88.23529758782387
2024-09-23 12:54:31.184402,42.59,22.317317,-0.003233425524256645,-0.023230986250042305,0.09725178296655933,40.106058693909645,-104.27510100388527,80.21211738781929
2024-09-23 12:54:31.196632,42.59,22.317317,-0.0038303700669703737,-0.022982261414192504,0.0966050877605131,36.09446859390736,-104.27510100388527,80.21211738781929
2024-09-23 12:54:31.239776,42.59,22.317368,-0.0036811340262279837,-0.023280723622328886,0.09705279702197278,36.09446859390736,-104.27510100388527,80.21211738781929
2024-09-23 12:54:31.281792,42.59,22.317368,-0.0036811340262279837,-0.023280723622328886,0.09705279702197278,40.106058693909645,-104.27510100388527,80.21211738781929
2024-09-23 12:54:31.293113,42.59,22.317418,-0.003233425524256645,-0.02293251340906919,0.09705279702197278,40.106058693909645,-104.27510100388527,80.21211738781929
2024-09-23 12:54:31.336160,42.59,22.317418,-0.003233425524256645,-0.02293251340906919,0.09720203344245934,40.106058693909645,-96.25519929585457,80.21211738781929
2024-09-23 12:54:31.349083,42.59,22.317469,-0.0035318979854855937,-0.02293251340906919,0.09720203344245934,40.106058693909645,-96.25519929585457,80.21211738781929
2024-09-23 12:54:31.381306,42.59,22.317469,-0.0035318979854855937,-0.022982261414192504,0.09764974270391902,32.08287849390507,-96.25519929585457,80.21211738781929
2024-09-23 12:54:31.392590,42.59,22.317556,-0.0035318979854855937,-0.022982261414192504,0.09764974270391902,32.08287849390507,-96.25519929585457,76.200527287817
2024-09-23 12:54:31.436250,42.59,22.317556,-0.0031339382481259063,-0.02362894446842532,0.09695331012558621,44.11764879391193,-96.25519929585457,80.21211738781929
2024-09-23 12:54:31.478385,42.59,22.317608,-0.0031339382481259063,-0.02278327698858263,0.09695331012558621,44.11764879391193,-96.25519929585457,80.21211738781929
2024-09-23 12:54:31.490084,42.59,22.317608,-0.0031339382481259063,-0.02278327698858263,0.09650560086412653,36.09446859390736,-92.24360919585227,80.21211738781929
2024-09-23 12:54:31.532475,42.59,22.317658,-0.0029847020175114316,-0.022733528983459317,0.09705279702197278,36.09446859390736,-92.24360919585227,80.21211738781929
2024-09-23 12:54:31.575951,42.59,22.317709,-0.0029847020175114316,-0.022733528983459317,0.09705279702197278,36.09446859390736,-96.25519929585457,84.22370748782159
2024-09-23 12:54:31.587762,42.59,22.317709,-0.002636491424507565,-0.02303200030545576,0.09680407370509965,36.09446859390736,-96.25519929585457,84.22370748782159
2024-09-23 12:54:31.630131,42.59,22.31776,-0.003382661564999035,-0.0228827638849692,0.09680407370509965,40.106058693909645,-100.26678939585686,76.200527287817
2024-09-23 12:54:31.673802,42.59,22.31776,-0.003382661564999035,-0.0228827638849692,0.09715228999426605,36.09446859390736,-100.26678939585686,76.200527287817
2024-09-23 12:54:31.685361,42.59,22.317811,-0.0032831742888682963,-0.0228827638849692,0.09715228999426605,36.09446859390736,-100.26678939585686,76.200527287817
2024-09-23 12:54:31.719735,42.59,22.317811,-0.0032831742888682963,-0.023181236725942318,0.09715228999426605,36.09446859390736,-100.26678939585686,76.200527287817
2024-09-23 12:54:31.731715,42.59,22.317897,-0.0032831742888682963,-0.023181236725942318,0.0973015264147526,40.106058693909645,-96.25519929585457,84.22370748782159
2024-09-23 12:54:31.774269,42.59,22.317897,-0.003233425524256645,-0.02352945757203875,0.09720203344245934,40.106058693909645,-96.25519929585457,84.22370748782159
2024-09-23 12:54:31.786783,42.59,22.317897,-0.003233425524256645,-0.02352945757203875,0.09720203344245934,40.106058693909645,-104.27510100388527,80.21211738781929
2024-09-23 12:54:31.818745,42.68,22.317949,-0.0033329230534799477,-0.023827930413011865,0.09720203344245934,40.106058693909645,-104.27510100388527,80.21211738781929
2024-09-23 12:54:31.829760,42.68,22.317949,-0.0033329230534799477,-0.023827930413011865,0.09774922960030558,32.08287849390507,-100.26678939585686,80.21211738781929
2024-09-23 12:54:31.872854,42.68,22.318,-0.0030344509719951677,-0.02313149783467906,0.09725178296655933,36.09446859390736,-100.26678939585686,80.21211738781929
2024-09-23 12:54:31.915280,42.68,22.318,-0.0030344509719951677,-0.02313149783467906,0.09725178296655933,36.09446859390736,-96.25519929585457,76.200527287817
2024-09-23 12:54:31.927003,42.68,22.31805,-0.0031836870127375577,-0.023429960042815445,0.09690356060148622,36.09446859390736,-96.25519929585457,76.200527287817
2024-09-23 12:54:31.971459,42.68,22.318101,-0.0031836870127375577,-0.02367869399252531,0.09690356060148622,40.106058693909645,-100.26678939585686,84.22370748782159
2024-09-23 12:54:32.014939,42.68,22.318101,-0.0031836870127375577,-0.02367869399252531,0.0973015264147526,36.09446859390736,-96.25519929585457,84.22370748782159
2024-09-23 12:54:32.026546,42.68,22.318152,-0.0035816467500972456,-0.02367869399252531,0.0973015264147526,36.09446859390736,-96.25519929585457,80.21211738781929
2024-09-23 12:54:32.060218,42.68,22.318152,-0.0035816467500972456,-0.02303200030545576,0.0973015264147526,36.09446859390736,-96.25519929585457,80.21211738781929
2024-09-23 12:54:32.072014,42.68,22.318239,-0.0035816467500972456,-0.02303200030545576,0.09725178296655933,36.09446859390736,-96.25519929585457,80.21211738781929
2024-09-23 12:54:32.114420,42.68,22.318239,-0.0030841997366068195,-0.02308174982955575,0.09725178296655933,44.11764879391193,-96.25519929585457,80.21211738781929
2024-09-23 12:54:32.125903,42.68,22.318239,-0.0030841997366068195,-0.02308174982955575,0.09725178296655933,44.11764879391193,-100.26678939585686,76.200527287817
2024-09-23 12:54:32.159895,42.68,22.31829,-0.0034324103296106863,-0.02308174982955575,0.09725178296655933,44.11764879391193,-100.26678939585686,76.200527287817
2024-09-23 12:54:32.171688,42.68,22.31829,-0.0034324103296106863,-0.023429960042815445,0.09745075675933246,44.11764879391193,-96.25519929585457,76.200527287817
2024-09-23 12:54:32.214944,42.68,22.318341,-0.0031836870127375577,-0.022584292562972758,0.09710254654607277,32.08287849390507,-96.25519929585457,76.200527287817
2024-09-23 12:54:32.259347,42.68,22.318391,-0.0031836870127375577,-0.022584292562972758,0.09710254654607277,32.08287849390507,-92.24360919585227,84.22370748782159
2024-09-23 12:54:32.271547,42.68,22.318391,-0.0031339382481259063,-0.02278327698858263,0.09685382322919964,32.08287849390507,-92.24360919585227,84.22370748782159
2024-09-23 12:54:32.304294,42.68,22.318391,-0.0031339382481259063,-0.02278327698858263,0.09685382322919964,40.106058693909645,-92.24360919585227,84.22370748782159
2024-09-23 12:54:32.315634,42.68,22.318442,-0.003631395514708897,-0.02313149783467906,0.09685382322919964,40.106058693909645,-100.26678939585686,80.21211738781929
2024-09-23 12:54:32.358456,42.68,22.318493,-0.003631395514708897,-0.02313149783467906,0.0973015264147526,40.106058693909645,-100.26678939585686,80.21211738781929
2024-09-23 12:54:32.370437,42.68,22.318493,-0.0029847020175114316,-0.02313149783467906,0.0973015264147526,40.106058693909645,-100.26678939585686,80.21211738781929
2024-09-23 12:54:32.402488,42.68,22.318493,-0.0029847020175114316,-0.02313149783467906,0.0973015264147526,40.106058693909645,-100.26678939585686,80.21211738781929
2024-09-23 12:54:32.413962,42.68,22.31858,-0.0029847020175114316,-0.02313149783467906,0.0973015264147526,40.106058693909645,-96.25519929585457,84.22370748782159
2024-09-23 12:54:32.456157,42.68,22.31858,-0.0029349636958644295,-0.023429960042815445,0.09670458680871308,40.106058693909645,-100.26678939585686,84.22370748782159
2024-09-23 12:54:32.467819,42.68,22.31858,-0.0029349636958644295,-0.023429960042815445,0.09670458680871308,40.106058693909645,-100.26678939585686,80.21211738781929
2024-09-23 12:54:32.500056,42.68,22.318631,-0.0034324103296106863,-0.023429960042815445,0.09670458680871308,40.106058693909645,-100.26678939585686,80.21211738781929
2024-09-23 12:54:32.511533,42.68,22.318631,-0.0034324103296106863,-0.022733528983459317,0.09725178296655933,36.09446859390736,-104.27510100388527,80.21211738781929
2024-09-23 12:54:32.554833,42.68,22.318682,-0.0030344509719951677,-0.023429960042815445,0.09725178296655933,36.09446859390736,-104.27510100388527,80.21211738781929
2024-09-23 12:54:32.565791,42.68,22.318682,-0.0030344509719951677,-0.023429960042815445,0.09720203344245934,32.08287849390507,-104.27510100388527,80.21211738781929
2024-09-23 12:54:32.598614,42.68,22.318682,-0.0030344509719951677,-0.023429960042815445,0.09720203344245934,32.08287849390507,-96.25519929585457,84.22370748782159
2024-09-23 12:54:32.610280,42.68,22.318733,-0.0026862297461545674,-0.022982261414192504,0.09695331012558621,32.08287849390507,-96.25519929585457,84.22370748782159
2024-09-23 12:54:32.653406,42.68,22.318783,-0.0031339382481259063,-0.02293251340906919,0.09695331012558621,32.08287849390507,-104.27510100388527,68.18063240997792
2024-09-23 12:54:32.696855,42.68,22.318783,-0.0031339382481259063,-0.02293251340906919,0.09640611396773996,40.106058693909645,-100.26678939585686,68.18063240997792
2024-09-23 12:54:32.708617,42.68,22.318834,-0.003382661564999035,-0.02293251340906919,0.09640611396773996,40.106058693909645,-100.26678939585686,76.200527287817
2024-09-23 12:54:32.751594,42.68,22.318921,-0.003382661564999035,-0.02313149783467906,0.09705279702197278,36.09446859390736,-100.26678939585686,76.200527287817
2024-09-23 12:54:32.794307,42.68,22.318921,-0.0035318979854855937,-0.023230986250042305,0.09759999317981902,36.09446859390736,-100.26678939585686,76.200527287817
2024-09-23 12:54:32.805966,42.68,22.318921,-0.0035318979854855937,-0.023230986250042305,0.09759999317981902,36.09446859390736,-100.26678939585686,80.21211738781929
2024-09-23 12:54:32.848938,42.58,22.318973,-0.0034324103296106863,-0.023181236725942318,0.09695331012558621,36.09446859390736,-100.26678939585686,80.21211738781929
2024-09-23 12:54:32.891945,42.58,22.319023,-0.003780631555451287,-0.023181236725942318,0.09695331012558621,36.09446859390736,-100.26678939585686,76.200527287817
2024-09-23 12:54:32.903589,42.58,22.319023,-0.003780631555451287,-0.023280723622328886,0.09789846602079214,40.106058693909645,-100.26678939585686,76.200527287817
2024-09-23 12:54:32.946529,42.58,22.319074,-0.0034324103296106863,-0.023230986250042305,0.09710254654607277,40.106058693909645,-104.27510100388527,84.22370748782159
2024-09-23 12:54:32.989759,42.58,22.319074,-0.0034324103296106863,-0.023230986250042305,0.09710254654607277,40.106058693909645,-96.25519929585457,76.200527287817
2024-09-23 12:54:33.001392,42.58,22.319125,-0.0032831742888682963,-0.023877669304275123,0.09710254654607277,40.106058693909645,-96.25519929585457,76.200527287817
2024-09-23 12:54:33.043769,42.58,22.319175,-0.0034324103296106863,-0.023877669304275123,0.09740101331113918,36.09446859390736,-100.26678939585686,80.21211738781929
2024-09-23 12:54:33.087235,42.58,22.319175,-0.0034324103296106863,-0.02313149783467906,0.09675432418099966,36.09446859390736,-100.26678939585686,80.21211738781929
2024-09-23 12:54:33.098684,42.58,22.319262,-0.0034324103296106863,-0.02313149783467906,0.09675432418099966,36.09446859390736,-92.24360919585227,80.21211738781929
2024-09-23 12:54:33.141244,42.58,22.319262,-0.0031339382481259063,-0.023181236725942318,0.09705279702197278,36.09446859390736,-92.24360919585227,84.22370748782159
2024-09-23 12:54:33.183323,42.58,22.319314,-0.0035318979854855937,-0.023181236725942318,0.09705279702197278,36.09446859390736,-92.24360919585227,84.22370748782159
2024-09-23 12:54:33.195473,42.58,22.319314,-0.0035318979854855937,-0.02362894446842532,0.09774922960030558,36.09446859390736,-100.26678939585686,84.22370748782159
2024-09-23 12:54:33.238793,42.58,22.319365,-0.0036811340262279837,-0.0228827638849692,0.09740101331113918,32.08287849390507,-100.26678939585686,76.200527287817
2024-09-23 12:54:33.281675,42.58,22.319415,-0.0036811340262279837,-0.0228827638849692,0.09740101331113918,32.08287849390507,-104.27510100388527,80.21211738781929
2024-09-23 12:54:33.292747,42.58,22.319415,-0.003780631555451287,-0.02313149783467906,0.09755024973162574,32.08287849390507,-104.27510100388527,80.21211738781929
2024-09-23 12:54:33.335788,42.58,22.319466,-0.0035816467500972456,-0.02362894446842532,0.09755024973162574,32.08287849390507,-96.25519929585457,76.200527287817
2024-09-23 12:54:33.378335,42.58,22.319466,-0.0035816467500972456,-0.02362894446842532,0.09690356060148622,44.11764879391193,-96.25519929585457,76.200527287817
2024-09-23 12:54:33.389369,42.58,22.319517,-0.0030344509719951677,-0.02362894446842532,0.09690356060148622,44.11764879391193,-104.27510100388527,72.1922225099802
2024-09-23 12:54:33.431188,42.58,22.319517,-0.0030344509719951677,-0.023479709566915436,0.09740101331113918,36.09446859390736,-104.27510100388527,80.21211738781929
2024-09-23 12:54:33.443172,42.58,22.319604,-0.0030344509719951677,-0.023479709566915436,0.09740101331113918,36.09446859390736,-104.27510100388527,80.21211738781929
2024-09-23 12:54:33.475220,42.58,22.319604,-0.0030344509719951677,-0.023479709566915436,0.09740101331113918,36.09446859390736,-104.27510100388527,80.21211738781929
2024-09-23 12:54:33.486804,42.58,22.319604,-0.0030344509719951677,-0.023479709566915436,0.09635636444363997,40.106058693909645,-92.24360919585227,80.21211738781929
2024-09-23 12:54:33.529928,42.58,22.319655,-0.003382661564999035,-0.023280723622328886,0.09670458680871308,32.08287849390507,-108.28669110388756,80.21211738781929
2024-09-23 12:54:33.573085,42.58,22.319706,-0.003382661564999035,-0.023280723622328886,0.09670458680871308,32.08287849390507,-108.28669110388756,72.1922225099802
2024-09-23 12:54:33.584831,42.58,22.319706,-0.0031339382481259063,-0.02338022115155219,0.0973015264147526,36.09446859390736,-108.28669110388756,72.1922225099802
2024-09-23 12:54:33.627472,42.58,22.319756,-0.0030344509719951677,-0.023429960042815445,0.0973015264147526,36.09446859390736,-104.27510100388527,72.1922225099802
2024-09-23 12:54:33.639130,42.58,22.319756,-0.0030344509719951677,-0.023429960042815445,0.09710254654607277,36.09446859390736,-104.27510100388527,72.1922225099802
2024-09-23 12:54:33.670558,42.58,22.319756,-0.0030344509719951677,-0.023429960042815445,0.09710254654607277,36.09446859390736,-96.25519929585457,72.1922225099802
2024-09-23 12:54:33.681635,42.58,22.319807,-0.0028852147413806935,-0.02308174982955575,0.09710254654607277,36.09446859390736,-96.25519929585457,80.21211738781929
2024-09-23 12:54:33.724939,42.58,22.319858,-0.0034324103296106863,-0.02308174982955575,0.09675432418099966,36.09446859390736,-100.26678939585686,76.200527287817
2024-09-23 12:54:33.767736,42.58,22.319858,-0.0034324103296106863,-0.02362894446842532,0.09675432418099966,36.09446859390736,-100.26678939585686,76.200527287817
2024-09-23 12:54:33.778833,42.58,22.319945,-0.0034324103296106863,-0.02362894446842532,0.09635636444363997,32.08287849390507,-100.26678939585686,80.21211738781929
2024-09-23 12:54:33.820992,42.58,22.319945,-0.0031339382481259063,-0.02362894446842532,0.09715228999426605,32.08287849390507,-100.26678939585686,80.21211738781929
2024-09-23 12:54:33.832853,42.58,22.319945,-0.0031339382481259063,-0.02362894446842532,0.09715228999426605,32.08287849390507,-100.26678939585686,84.22370748782159
2024-09-23 12:54:33.865349,42.5,22.319997,-0.003233425524256645,-0.02362894446842532,0.09715228999426605,32.08287849390507,-100.26678939585686,84.22370748782159
2024-09-23 12:54:33.876916,42.5,22.319997,-0.003233425524256645,-0.02362894446842532,0.09794820946898543,32.08287849390507,-108.28669110388756,84.22370748782159
2024-09-23 12:54:33.918746,42.5,22.320047,-0.003382661564999035,-0.023280723622328886,0.09720203344245934,32.08287849390507,-108.28669110388756,76.200527287817
2024-09-23 12:54:33.930420,42.5,22.320047,-0.003382661564999035,-0.023280723622328886,0.09720203344245934,36.09446859390736,-108.28669110388756,76.200527287817
2024-09-23 12:54:33.963400,42.5,22.320047,-0.003382661564999035,-0.023280723622328886,0.09720203344245934,36.09446859390736,-104.27510100388527,80.21211738781929
2024-09-23 12:54:33.974780,42.5,22.320098,-0.0032831742888682963,-0.023479709566915436,0.09705279702197278,36.09446859390736,-104.27510100388527,80.21211738781929
2024-09-23 12:54:34.017415,42.5,22.320149,-0.0035816467500972456,-0.023479709566915436,0.09705279702197278,40.106058693909645,-104.27510100388527,80.21211738781929
2024-09-23 12:54:34.029887,42.5,22.320149,-0.0035816467500972456,-0.02352945757203875,0.09705279702197278,40.106058693909645,-104.27510100388527,80.21211738781929
2024-09-23 12:54:34.062249,42.5,22.320149,-0.0035816467500972456,-0.02352945757203875,0.09685382322919964,32.08287849390507,-104.27510100388527,80.21211738781929
2024-09-23 12:54:34.073812,42.5,22.3202,-0.003631395514708897,-0.02352945757203875,0.09685382322919964,32.08287849390507,-104.27510100388527,76.200527287817
2024-09-23 12:54:34.117479,42.5,22.320286,-0.003631395514708897,-0.02303200030545576,0.09750050628343246,28.07457030097246,-104.27510100388527,76.200527287817
2024-09-23 12:54:34.161614,42.5,22.320286,-0.0026862297461545674,-0.02313149783467906,0.09685382322919964,24.06297849342227,-96.25519929585457,76.200527287817
2024-09-23 12:54:34.173775,42.5,22.320286,-0.0026862297461545674,-0.02313149783467906,0.09685382322919964,24.06297849342227,-96.25519929585457,80.21211738781929
2024-09-23 12:54:34.207824,42.5,22.320338,-0.0032831742888682963,-0.02313149783467906,0.09685382322919964,24.06297849342227,-96.25519929585457,80.21211738781929
2024-09-23 12:54:34.219544,42.5,22.320338,-0.0032831742888682963,-0.023230986250042305,0.09784872257259886,24.06297849342227,-96.25519929585457,80.21211738781929
2024-09-23 12:54:34.261597,42.5,22.320388,-0.003233425524256645,-0.022982261414192504,0.09720203344245934,32.08287849390507,-96.25519929585457,76.200527287817
2024-09-23 12:54:34.305986,42.5,22.320439,-0.003233425524256645,-0.022982261414192504,0.09720203344245934,32.08287849390507,-100.26678939585686,80.21211738781929
2024-09-23 12:54:34.317776,42.5,22.320439,-0.003382661564999035,-0.023181236725942318,0.09740101331113918,32.08287849390507,-100.26678939585686,80.21211738781929
2024-09-23 12:54:34.361336,42.5,22.32049,-0.003382661564999035,-0.023429960042815445,0.09740101331113918,44.11764879391193,-104.27510100388527,80.21211738781929
2024-09-23 12:54:34.403562,42.5,22.32049,-0.003382661564999035,-0.023429960042815445,0.09720203344245934,36.09446859390736,-104.27510100388527,80.21211738781929
2024-09-23 12:54:34.415436,42.5,22.32054,-0.003233425524256645,-0.023429960042815445,0.09720203344245934,36.09446859390736,-104.27510100388527,72.1922225099802
2024-09-23 12:54:34.448421,42.5,22.32054,-0.003233425524256645,-0.023280723622328886,0.09720203344245934,36.09446859390736,-104.27510100388527,72.1922225099802
2024-09-23 12:54:34.459344,42.5,22.32054,-0.003233425524256645,-0.023280723622328886,0.0973015264147526,32.08287849390507,-84.22370748782159,72.1922225099802
2024-09-23 12:54:34.501885,42.5,22.320628,-0.0027359787006383035,-0.023280723622328886,0.0973015264147526,32.08287849390507,-84.22370748782159,80.21211738781929
2024-09-23 12:54:34.513733,42.5,22.320628,-0.0027359787006383035,-0.023330473146428877,0.09725178296655933,32.08287849390507,-84.22370748782159,80.21211738781929
2024-09-23 12:54:34.545591,42.5,22.320628,-0.0027359787006383035,-0.023330473146428877,0.09725178296655933,32.08287849390507,-92.24360919585227,80.21211738781929
2024-09-23 12:54:34.557659,42.5,22.320679,-0.0029847020175114316,-0.02308174982955575,0.0973512698629459,32.08287849390507,-92.24360919585227,84.22370748782159
2024-09-23 12:54:34.599578,42.5,22.32073,-0.0029847020175114316,-0.02308174982955575,0.0973512698629459,20.05138839341998,-104.27510100388527,76.200527287817
2024-09-23 12:54:34.611330,42.5,22.32073,-0.0035816467500972456,-0.023330473146428877,0.0973512698629459,20.05138839341998,-104.27510100388527,76.200527287817
2024-09-23 12:54:34.643200,42.5,22.32073,-0.0035816467500972456,-0.023330473146428877,0.09725178296655933,20.05138839341998,-104.27510100388527,76.200527287817
2024-09-23 12:54:34.654999,42.5,22.32078,-0.0028354659767690416,-0.023330473146428877,0.09725178296655933,28.07457030097246,-100.26678939585686,76.200527287817
2024-09-23 12:54:34.698572,42.5,22.32078,-0.0028354659767690416,-0.023280723622328886,0.09705279702197278,36.09446859390736,-92.24360919585227,76.200527287817
2024-09-23 12:54:34.710438,42.5,22.320832,-0.0028354659767690416,-0.023280723622328886,0.09705279702197278,36.09446859390736,-92.24360919585227,76.200527287817
2024-09-23 12:54:34.742470,42.5,22.320832,-0.0036811340262279837,-0.02352945757203875,0.09705279702197278,36.09446859390736,-92.24360919585227,76.200527287817
2024-09-23 12:54:34.754262,42.5,22.320832,-0.0036811340262279837,-0.02352945757203875,0.0973015264147526,36.09446859390736,-96.25519929585457,84.22370748782159
2024-09-23 12:54:34.796146,42.5,22.32092,-0.0026862297461545674,-0.02338022115155219,0.09680407370509965,40.106058693909645,-96.25519929585457,84.22370748782159
2024-09-23 12:54:34.808296,42.5,22.32092,-0.0026862297461545674,-0.02338022115155219,0.09680407370509965,40.106058693909645,-96.25519929585457,84.22370748782159
2024-09-23 12:54:34.840511,42.5,22.320972,-0.0026862297461545674,-0.02338022115155219,0.09680407370509965,40.106058693909645,-96.25519929585457,84.22370748782159
2024-09-23 12:54:34.851922,42.5,22.320972,-0.0025369937054121774,-0.023827930413011865,0.0970030596496862,32.08287849390507,-96.25519929585457,84.22370748782159
2024-09-23 12:54:34.894324,43.08,22.321022,-0.0031836870127375577,-0.02303200030545576,0.0970030596496862,32.08287849390507,-92.24360919585227,84.22370748782159
2024-09-23 12:54:34.907067,43.08,22.321022,-0.0031836870127375577,-0.02303200030545576,0.09725178296655933,32.08287849390507,-92.24360919585227,84.22370748782159
2024-09-23 12:54:34.939296,43.08,22.321022,-0.0031836870127375577,-0.02303200030545576,0.09725178296655933,32.08287849390507,-100.26678939585686,84.22370748782159
2024-09-23 12:54:34.951256,43.08,22.321073,-0.0033329230534799477,-0.02338022115155219,0.09725178296655933,32.08287849390507,-100.26678939585686,84.22370748782159
2024-09-23 12:54:34.993849,43.08,22.321124,-0.003482159473966507,-0.02338022115155219,0.09710254654607277,28.07457030097246,-96.25519929585457,84.22370748782159
2024-09-23 12:54:35.035701,43.08,22.321124,-0.003482159473966507,-0.023429960042815445,0.09680407370509965,28.07457030097246,-96.25519929585457,84.22370748782159
2024-09-23 12:54:35.047862,43.08,22.321212,-0.003482159473966507,-0.023429960042815445,0.09680407370509965,36.09446859390736,-96.25519929585457,76.200527287817
2024-09-23 12:54:35.090571,43.08,22.321212,-0.0031339382481259063,-0.022982261414192504,0.09715228999426605,32.08287849390507,-96.25519929585457,76.200527287817
2024-09-23 12:54:35.133794,43.08,22.321212,-0.0031339382481259063,-0.022982261414192504,0.09715228999426605,32.08287849390507,-104.27510100388527,80.21211738781929
2024-09-23 12:54:35.145082,43.08,22.321264,-0.0037308827908396356,-0.023479709566915436,0.09710254654607277,32.08287849390507,-104.27510100388527,80.21211738781929
2024-09-23 12:54:35.188944,43.08,22.321315,-0.0030344509719951677,-0.02268379009219606,0.09710254654607277,28.07457030097246,-100.26678939585686,84.22370748782159
2024-09-23 12:54:35.231711,43.08,22.321315,-0.0030344509719951677,-0.02268379009219606,0.09720203344245934,40.106058693909645,-96.25519929585457,84.22370748782159
2024-09-23 12:54:35.242859,43.08,22.321365,-0.0029349636958644295,-0.02268379009219606,0.09720203344245934,40.106058693909645,-96.25519929585457,84.22370748782159
2024-09-23 12:54:35.285243,43.08,22.321416,-0.0029349636958644295,-0.023230986250042305,0.09640611396773996,44.11764879391193,-104.27510100388527,84.22370748782159
2024-09-23 12:54:35.327935,43.08,22.321416,-0.0031836870127375577,-0.022833026512682618,0.09640611396773996,44.11764879391193,-104.27510100388527,84.22370748782159
2024-09-23 12:54:35.339141,43.08,22.321416,-0.0031836870127375577,-0.022833026512682618,0.09725178296655933,40.106058693909645,-100.26678939585686,84.22370748782159
2024-09-23 12:54:35.382395,43.08,22.321505,-0.0032831742888682963,-0.023479709566915436,0.09695331012558621,32.08287849390507,-100.26678939585686,84.22370748782159
2024-09-23 12:54:35.424782,43.08,22.321557,-0.0032831742888682963,-0.023479709566915436,0.09695331012558621,32.08287849390507,-100.26678939585686,80.21211738781929
2024-09-23 12:54:35.437010,43.08,22.321557,-0.003631395514708897,-0.02362894446842532,0.0973015264147526,36.09446859390736,-100.26678939585686,80.21211738781929
2024-09-23 12:54:35.481052,43.08,22.321607,-0.0036811340262279837,-0.022833026512682618,0.09685382322919964,36.09446859390736,-96.25519929585457,80.21211738781929
2024-09-23 12:54:35.525237,43.08,22.321607,-0.0036811340262279837,-0.022833026512682618,0.09685382322919964,32.08287849390507,-100.26678939585686,80.21211738781929
2024-09-23 12:54:35.536813,43.08,22.321658,-0.0034324103296106863,-0.023330473146428877,0.09685382322919964,32.08287849390507,-100.26678939585686,80.21211738781929
2024-09-23 12:54:35.570779,43.08,22.321658,-0.0034324103296106863,-0.023330473146428877,0.0973015264147526,32.08287849390507,-100.26678939585686,80.21211738781929
2024-09-23 12:54:35.582557,43.08,22.321709,-0.003382661564999035,-0.023330473146428877,0.0973015264147526,36.09446859390736,-96.25519929585457,80.21211738781929
2024-09-23 12:54:35.624697,43.08,22.321709,-0.003382661564999035,-0.023479709566915436,0.09695331012558621,48.12595698684454,-100.26678939585686,76.200527287817
2024-09-23 12:54:35.636530,43.08,22.321797,-0.003382661564999035,-0.023479709566915436,0.09695331012558621,48.12595698684454,-100.26678939585686,76.200527287817
2024-09-23 12:54:35.670473,43.08,22.321797,-0.003979606107712764,-0.02303200030545576,0.09695331012558621,48.12595698684454,-100.26678939585686,76.200527287817
2024-09-23 12:54:35.682401,43.08,22.321797,-0.003979606107712764,-0.02303200030545576,0.09695331012558621,48.12595698684454,-100.26678939585686,80.21211738781929
2024-09-23 12:54:35.726174,43.08,22.321849,-0.003929857343101113,-0.023778180888911878,0.0973512698629459,32.08287849390507,-100.26678939585686,80.21211738781929
2024-09-23 12:54:35.767955,43.08,22.3219,-0.003929857343101113,-0.023778180888911878,0.0973512698629459,32.08287849390507,-100.26678939585686,76.200527287817
2024-09-23 12:54:35.821680,43.08,22.3219,-0.0030344509719951677,-0.02308174982955575,0.09720203344245934,36.09446859390736,-104.27510100388527,72.1922225099802
2024-09-23 12:54:35.866086,43.08,22.32195,-0.0030841997366068195,-0.02303200030545576,0.09720203344245934,36.09446859390736,-104.27510100388527,72.1922225099802
2024-09-23 12:54:35.877403,43.08,22.32195,-0.0030841997366068195,-0.02303200030545576,0.0976994861521123,32.08287849390507,-100.26678939585686,72.1922225099802
2024-09-23 12:54:35.921217,42.84,22.322001,-0.0030344509719951677,-0.023728432883788564,0.09720203344245934,36.09446859390736,-100.26678939585686,84.22370748782159
2024-09-23 12:54:35.964423,42.84,22.322052,-0.0030841997366068195,-0.023728432883788564,0.09720203344245934,36.09446859390736,-92.24360919585227,80.21211738781929
2024-09-23 12:54:35.975794,42.84,22.322052,-0.0030841997366068195,-0.023429960042815445,0.09725178296655933,36.09446859390736,-92.24360919585227,80.21211738781929
2024-09-23 12:54:36.007848,42.84,22.322052,-0.0030841997366068195,-0.023429960042815445,0.09725178296655933,40.106058693909645,-92.24360919585227,80.21211738781929
2024-09-23 12:54:36.019403,42.84,22.322139,-0.002586742470023829,-0.023429960042815445,0.09725178296655933,40.106058693909645,-100.26678939585686,72.1922225099802
2024-09-23 12:54:36.062452,42.84,22.322139,-0.002586742470023829,-0.023429960042815445,0.09710254654607277,44.11764879391193,-96.25519929585457,72.1922225099802
2024-09-23 12:54:36.074263,42.84,22.32219,-0.0030344509719951677,-0.023429960042815445,0.09710254654607277,44.11764879391193,-96.25519929585457,84.22370748782159
2024-09-23 12:54:36.106218,42.84,22.32219,-0.0030344509719951677,-0.02362894446842532,0.09710254654607277,44.11764879391193,-96.25519929585457,84.22370748782159
2024-09-23 12:54:36.118009,42.84,22.322285,-0.0030344509719951677,-0.02362894446842532,0.09740101331113918,44.11764879391193,-100.26678939585686,72.1922225099802
2024-09-23 12:54:36.161019,42.84,22.322285,-0.0034324103296106863,-0.02352945757203875,0.09665483728461309,40.106058693909645,-100.26678939585686,72.1922225099802
2024-09-23 12:54:36.172754,42.84,22.322285,-0.0034324103296106863,-0.02352945757203875,0.09665483728461309,40.106058693909645,-100.26678939585686,72.1922225099802
2024-09-23 12:54:36.204889,42.84,22.322336,-0.0032831742888682963,-0.02352945757203875,0.09665483728461309,40.106058693909645,-100.26678939585686,72.1922225099802
2024-09-23 12:54:36.216632,42.84,22.322336,-0.0032831742888682963,-0.023280723622328886,0.09715228999426605,36.09446859390736,-104.27510100388527,72.1922225099802
2024-09-23 12:54:36.259296,42.84,22.322387,-0.0032831742888682963,-0.023479709566915436,0.09740101331113918,36.09446859390736,-104.27510100388527,80.21211738781929
2024-09-23 12:54:36.271412,42.84,22.322387,-0.0032831742888682963,-0.023479709566915436,0.09740101331113918,32.08287849390507,-104.27510100388527,80.21211738781929
2024-09-23 12:54:36.303286,42.84,22.322387,-0.0032831742888682963,-0.023479709566915436,0.09740101331113918,32.08287849390507,-100.26678939585686,84.22370748782159
2024-09-23 12:54:36.314473,42.84,22.322438,-0.003233425524256645,-0.022733528983459317,0.0970030596496862,32.08287849390507,-100.26678939585686,84.22370748782159
2024-09-23 12:54:36.356404,42.84,22.322438,-0.003233425524256645,-0.022733528983459317,0.0970030596496862,32.08287849390507,-100.26678939585686,84.22370748782159
2024-09-23 12:54:36.398405,42.84,22.322438,-0.003233425524256645,-0.022733528983459317,0.0970030596496862,32.08287849390507,-100.26678939585686,80.21211738781929
2024-09-23 12:54:36.410026,42.84,22.322489,-0.0038303700669703737,-0.02338022115155219,0.0970030596496862,36.09446859390736,-100.26678939585686,80.21211738781929
2024-09-23 12:54:36.452700,42.84,22.32254,-0.0038303700669703737,-0.02338022115155219,0.0970030596496862,36.09446859390736,-100.26678939585686,80.21211738781929
