Ayaan's Suite
Timestamp,Sample Rate (Hz),Time,Ax,Ay,Az,Gx,Gy,Gz
2024-09-23 05:30:55.378047,0,21.278709,-0.013171458402297304,0.017013149402435646,1.00969310686615,0.38061600277069957,-1.0499454856518655,-1.4524485706396402
2024-09-23 05:30:55.411842,0,21.278709,-0.013171458402297304,0.018964423802771455,1.0124370835486052,0.29747979092085736,-1.0587118231426924,-1.4524485706396402
2024-09-23 05:30:55.424456,0,21.27876,-0.013171458402297304,0.018964423802771455,1.0124370835486052,0.29747979092085736,-1.0587118231426924,-1.469981032177806
2024-09-23 05:30:55.457762,0,21.27876,-0.013720285941093825,0.0173180429578192,1.012802998954003,0.29747979092085736,-1.0587118231426924,-1.469981032177806
2024-09-23 05:30:55.469661,0,21.27876,-0.013720285941093825,0.0173180429578192,1.012802998954003,0.26247207069927825,-1.1549687530383468,-1.504988752399385
2024-09-23 05:30:55.511547,0,21.27881,-0.01585453627184869,0.02274515826889256,1.00969310686615,0.3149550229238346,-1.2293386540777982,-1.504988752399385
2024-09-23 05:30:55.553925,0,21.27881,-0.01585453627184869,0.02274515826889256,1.00969310686615,0.3149550229238346,-1.2293386540777982,-1.43932777255252
2024-09-23 05:30:55.565184,0,21.278902,-0.011707950956838454,0.019879204721382753,1.0151202039495033,0.3280757409696467,-1.2293386540777982,-1.43932777255252
2024-09-23 05:30:55.607337,0,21.278953,-0.012744546969488612,0.019879204721382753,1.0151202039495033,0.3280757409696467,-1.1287272635858505,-1.461214801408723
2024-09-23 05:30:55.618378,0,21.278953,-0.012744546969488612,0.020427930488741967,1.012498037044669,0.3280757409696467,-1.1287272635858505,-1.461214801408723
2024-09-23 05:30:55.650759,0,21.278953,-0.012744546969488612,0.020427930488741967,1.012498037044669,0.31060053564710544,-1.1549687530383468,-1.461214801408723
2024-09-23 05:30:55.662546,0,21.279004,-0.015183792627064338,0.01914740125216718,1.012498037044669,0.31060053564710544,-1.1549687530383468,-1.3649578715130686
2024-09-23 05:30:55.704976,0,21.279054,-0.015183792627064338,0.01914740125216718,1.0121322188537785,0.27559278874509036,-1.1156065722204744,-1.448094003321603
2024-09-23 05:30:55.716734,0,21.279054,-0.013720285941093825,0.01914740125216718,1.0121322188537785,0.27559278874509036,-1.1156065722204744,-1.448094003321603
2024-09-23 05:30:55.748478,0,21.279054,-0.013720285941093825,0.02018409827676631,1.01231507934197,0.27559278874509036,-1.1156065722204744,-1.448094003321603
2024-09-23 05:30:55.760103,0,21.279145,-0.013720285941093825,0.02018409827676631,1.01231507934197,0.3499627431454137,-1.1287272635858505,-1.4174980532728136
2024-09-23 05:30:55.802074,0,21.279145,-0.015488684663471218,0.019513251341567978,1.0162788064472537,0.31060053564710544,-1.1549687530383468,-1.4174980532728136
2024-09-23 05:30:55.814000,0,21.279145,-0.015488684663471218,0.019513251341567978,1.0162788064472537,0.31060053564710544,-1.1549687530383468,-1.3606034109167755
2024-09-23 05:30:55.846280,0,21.279196,-0.011403058160943235,0.019513251341567978,1.0162788064472537,0.31060053564710544,-1.1549687530383468,-1.3606034109167755
2024-09-23 05:30:55.857533,0,21.279196,-0.011403058160943235,0.021464627513341095,1.0109126628599643,0.3062460483703762,-1.1330817241821438,-1.3606034109167755
2024-09-23 05:30:55.899651,0,21.279247,-0.011037206552565765,0.020245056329760223,1.0109126628599643,0.3062460483703762,-1.1330817241821438,-1.5005769822265953
2024-09-23 05:30:55.911980,0,21.279247,-0.011037206552565765,0.020245056329760223,1.0107297051572652,0.31060053564710544,-1.1330817241821438,-1.5005769822265953
2024-09-23 05:30:55.946266,0,21.279298,-0.011037206552565765,0.020245056329760223,1.0107297051572652,0.31060053564710544,-1.1156065722204744,-1.3911993609655648
2024-09-23 05:30:55.957892,0,21.279298,-0.011707950956838454,0.02018409827676631,1.0130469101527657,0.31060053564710544,-1.1156065722204744,-1.3911993609655648
2024-09-23 05:30:56.000708,0,21.279349,-0.012317737308117227,0.018842507696783625,1.0130469101527657,0.37184974532118065,-1.1462025222692638,-1.474335492774099
2024-09-23 05:30:56.043733,0,21.279349,-0.012317737308117227,0.018842507696783625,1.0117664006628877,0.4287444677185267,-1.1812102424908428,-1.474335492774099
2024-09-23 05:30:56.055273,0,21.279399,-0.014147094083488534,0.018842507696783625,1.0117664006628877,0.4287444677185267,-1.1812102424908428,-1.4524485706396402
2024-09-23 05:30:56.098292,0,21.279486,-0.014147094083488534,0.01914740125216718,1.0112784810508548,0.24935132597303017,-1.1199610328167677,-1.4087318225037306
2024-09-23 05:30:56.140485,0,21.279486,-0.013232416455291218,0.024086748848875243,1.014205512650516,0.24935132597303017,-1.1199610328167677,-1.4087318225037306
2024-09-23 05:30:56.152049,0,21.279486,-0.013232416455291218,0.024086748848875243,1.014205512650516,0.40685746554275976,-1.1812102424908428,-1.3693696416858583
2024-09-23 05:30:56.194888,0,21.279537,-0.013110498830326714,0.018049744655597465,1.0123761300525411,0.3543172304221429,-1.1243154934130608,-1.3693696416858583
2024-09-23 05:30:56.238300,0,21.279588,-0.013354434332716355,0.018049744655597465,1.0123761300525411,0.3543172304221429,-1.1243154934130608,-1.426207081187144
2024-09-23 05:30:56.249343,0,21.279588,-0.013354434332716355,0.022989092252305523,1.0169495865474782,0.3411964856958948,-1.1243154934130608,-1.426207081187144
2024-09-23 05:30:56.292113,0,21.279639,-0.016037512202267738,0.019086441680196593,1.0134127283436565,0.3411964856958948,-1.0718325145080685,-1.3562488435987383
2024-09-23 05:30:56.335381,0,21.279639,-0.016037512202267738,0.019086441680196593,1.0134127283436565,0.28871353347133843,-1.15932321363464,-1.3562488435987383
2024-09-23 05:30:56.346485,0,21.27969,-0.011524974266931064,0.018293680157987106,1.0134127283436565,0.28871353347133843,-1.15932321363464,-1.3693696416858583
2024-09-23 05:30:56.388507,44.03,21.27974,-0.015122834574070423,0.018293680157987106,1.0148762927507406,0.3018342781975865,-1.0893650827679784,-1.474335492774099
2024-09-23 05:30:56.430745,44.03,21.27974,-0.015122834574070423,0.018781549643789714,1.0128639524500669,0.3018342781975865,-1.0893650827679784,-1.474335492774099
2024-09-23 05:30:56.442632,44.03,21.279827,-0.015122834574070423,0.018781549643789714,1.0128639524500669,0.3280757409696467,-1.1024857741333545,-1.3780785628784449
2024-09-23 05:30:56.485150,44.03,21.279827,-0.013720285941093825,0.02134260963591596,1.0130469101527657,0.3456082558686845,-1.15932321363464,-1.3780785628784449
2024-09-23 05:30:56.497209,44.03,21.279827,-0.013720285941093825,0.02134260963591596,1.0130469101527657,0.3456082558686845,-1.15932321363464,-1.3606034109167755
2024-09-23 05:30:56.528886,44.03,21.279879,-0.01445198763887209,0.02134260963591596,1.0130469101527657,0.3456082558686845,-1.15932321363464,-1.3606034109167755
2024-09-23 05:30:56.540093,44.03,21.279879,-0.01445198763887209,0.020549948366167105,1.015973941752427,0.3193667930966243,-1.1724439050000162,-1.3606034109167755
2024-09-23 05:30:56.583520,44.03,21.279929,-0.01341539238571027,0.020306014382754138,1.0134736818397203,0.3149550229238346,-1.1724439050000162,-1.4174980532728136
2024-09-23 05:30:56.625642,44.03,21.279929,-0.01341539238571027,0.020306014382754138,1.0134736818397203,0.3149550229238346,-1.0718325145080685,-1.413086283100024
2024-09-23 05:30:56.637410,44.03,21.27998,-0.01341539238571027,0.020306014382754138,1.0134736818397203,0.3149550229238346,-1.0718325145080685,-1.413086283100024
2024-09-23 05:30:56.680417,44.03,21.27998,-0.011586034850850625,0.023233027754695164,1.0115223922496177,0.37620423259790986,-1.1199610328167677,-1.413086283100024
2024-09-23 05:30:56.692645,44.03,21.27998,-0.011586034850850625,0.023233027754695164,1.0115223922496177,0.37620423259790986,-1.1199610328167677,-1.4087318225037306
2024-09-23 05:30:56.725642,44.03,21.280031,-0.01341539238571027,0.020306014382754138,1.0115223922496177,0.37620423259790986,-1.1199610328167677,-1.4087318225037306
2024-09-23 05:30:56.737186,44.03,21.280031,-0.01341539238571027,0.020306014382754138,1.0120102146471432,0.3674952580444515,-1.2555801435302942,-1.4087318225037306
2024-09-23 05:30:56.779269,44.03,21.280082,-0.015915494324842603,0.021098777423940302,1.0149982969573756,0.39373674749694765,-1.2555801435302942,-1.4174980532728136
2024-09-23 05:30:56.822841,44.03,21.280168,-0.015915494324842603,0.021098777423940302,1.0149982969573756,0.39373674749694765,-1.1024857741333545,-1.483101830264926
2024-09-23 05:30:56.834076,44.03,21.280168,-0.012378695361111141,0.017013149402435646,1.0098759673543418,0.39373674749694765,-1.1024857741333545,-1.483101830264926
2024-09-23 05:30:56.877231,44.03,21.280219,-0.014512945691866003,0.017196025080394063,1.0098759673543418,0.38932495064372197,-1.2336931146740913,-1.4437395427253097
2024-09-23 05:30:56.920440,44.03,21.280219,-0.014512945691866003,0.017196025080394063,1.0143274196426437,0.3324875378228724,-1.1287272635858505,-1.4437395427253097
2024-09-23 05:30:56.932158,44.03,21.28027,-0.010854230622146716,0.017196025080394063,1.0143274196426437,0.3324875378228724,-1.1287272635858505,-1.3562488435987383
2024-09-23 05:30:56.975015,44.03,21.280364,-0.010854230622146716,0.021159735476934217,1.0150592504534395,0.3630834878716618,-1.0849533125951887,-1.3868447936475277
2024-09-23 05:30:57.017844,44.03,21.280364,-0.013537308491698099,0.02213537267710212,1.0138396944596255,0.3630834878716618,-1.0849533125951887,-1.3868447936475277
2024-09-23 05:30:57.030356,44.03,21.280364,-0.013537308491698099,0.02213537267710212,1.0138396944596255,0.40685746554275976,-1.15932321363464,-1.483101830264926
2024-09-23 05:30:57.073296,44.03,21.280415,-0.015976452377836518,0.023598879363072634,1.0130469101527657,0.3193667930966243,-1.0237041029211134,-1.483101830264926
2024-09-23 05:30:57.117277,44.03,21.280466,-0.01750101888823825,0.019940162774376668,1.0130469101527657,0.3193667930966243,-1.0237041029211134,-1.3956111311383546
2024-09-23 05:30:57.129107,44.03,21.280466,-0.01750101888823825,0.019940162774376668,1.0130469101527657,0.41121195281948897,-1.0237041029211134,-1.3956111311383546
2024-09-23 05:30:57.160765,44.03,21.280466,-0.01750101888823825,0.019940162774376668,1.0130469101527657,0.41121195281948897,-1.0718325145080685,-1.3956111311383546
2024-09-23 05:30:57.172182,44.03,21.280517,-0.015427726610477303,0.021586543619328925,1.0112784810508548,0.41121195281948897,-1.0718325145080685,-1.469981032177806
2024-09-23 05:30:57.213984,44.03,21.280567,-0.015427726610477303,0.021586543619328925,1.0112784810508548,0.27994727602181957,-1.0674780539117754,-1.3868447936475277
2024-09-23 05:30:57.227124,44.03,21.280567,-0.016769215419022678,0.02189143717471248,1.0112784810508548,0.27994727602181957,-1.0674780539117754,-1.3868447936475277
2024-09-23 05:30:57.259662,44.03,21.280567,-0.016769215419022678,0.02189143717471248,1.0165227176460165,0.3630834878716618,-1.0674780539117754,-1.3868447936475277
2024-09-23 05:30:57.271220,44.03,21.280618,-0.011037206552565765,0.02189143717471248,1.0165227176460165,0.3630834878716618,-1.2205724233087152,-1.3999655917346479
2024-09-23 05:30:57.314487,44.03,21.280618,-0.011037206552565765,0.02225739055452726,1.0109736163560281,0.41121195281948897,-1.0062288442377,-1.4174980532728136
2024-09-23 05:30:57.326461,44.03,21.280705,-0.011037206552565765,0.02225739055452726,1.0109736163560281,0.41121195281948897,-1.0062288442377,-1.4174980532728136
2024-09-23 05:30:57.359546,44.03,21.280705,-0.013171458402297304,0.02085484192155066,1.0131078636488298,0.41121195281948897,-1.0062288442377,-1.4174980532728136
2024-09-23 05:30:57.371231,44.03,21.280705,-0.013171458402297304,0.02085484192155066,1.0131078636488298,0.42433269754573705,-1.0499454856518655,-1.3911993609655648
2024-09-23 05:30:57.413585,43.48,21.280756,-0.012500713238536278,0.020732824044125523,1.0129859566567019,0.446219699721504,-1.1068402347296475,-1.3911993609655648
2024-09-23 05:30:57.456609,43.48,21.280807,-0.015061773230662524,0.020732824044125523,1.0129859566567019,0.446219699721504,-1.1068402347296475,-1.3387163820605725
2024-09-23 05:30:57.471453,43.48,21.280807,-0.015061773230662524,0.01975718684395762,1.0143883731387076,0.29747979092085736,-1.1068402347296475,-1.3387163820605725
2024-09-23 05:30:57.503961,43.48,21.280807,-0.015061773230662524,0.01975718684395762,1.0143883731387076,0.29747979092085736,-1.1724439050000162,-1.2905878637518733
2024-09-23 05:30:57.515277,43.48,21.280858,-0.012927522899907663,0.02280611632188647,1.0115223922496177,0.29747979092085736,-1.1724439050000162,-1.2905878637518733
2024-09-23 05:30:57.557865,43.48,21.280908,-0.016403363810645208,0.02280611632188647,1.0115223922496177,0.2668265312955715,-1.1199610328167677,-1.3780785628784449
2024-09-23 05:30:57.570089,43.48,21.280908,-0.016403363810645208,0.020732824044125523,1.0115223922496177,0.2668265312955715,-1.1199610328167677,-1.3780785628784449
2024-09-23 05:30:57.602840,43.48,21.280908,-0.016403363810645208,0.020732824044125523,1.0132908213515286,0.27123832814879717,-1.1156065722204744,-1.3780785628784449
2024-09-23 05:30:57.613971,43.48,21.280959,-0.018293680157987106,0.020732824044125523,1.0132908213515286,0.27123832814879717,-1.1156065722204744,-1.3474826128296553
2024-09-23 05:30:57.657624,43.48,21.280959,-0.018293680157987106,0.021037716080532405,1.0132908213515286,0.27123832814879717,-1.1156065722204744,-1.3474826128296553
2024-09-23 05:30:57.700384,43.48,21.280959,-0.018293680157987106,0.021037716080532405,1.0135347325502915,0.3018342781975865,-1.1418479549512268,-1.3474826128296553
2024-09-23 05:30:57.712173,43.48,21.281046,-0.014574005516297226,0.021037716080532405,1.0135347325502915,0.3018342781975865,-1.1418479549512268,-1.413086283100024
2024-09-23 05:30:57.756004,43.48,21.281097,-0.014574005516297226,0.02201345505213762,1.0107906586533293,0.3456082558686845,-1.216217962712422,-1.3649578715130686
2024-09-23 05:30:57.799122,43.48,21.281097,-0.012256778495634975,0.018964423802771455,1.0131688171448936,0.3499627431454137,-1.216217962712422,-1.3649578715130686
2024-09-23 05:30:57.810379,43.48,21.281097,-0.012256778495634975,0.018964423802771455,1.0131688171448936,0.3499627431454137,-1.1637349838074296,-1.4568603408124299
2024-09-23 05:30:57.843213,43.48,21.281148,-0.012256778495634975,0.018964423802771455,1.0131688171448936,0.3499627431454137,-1.1637349838074296,-1.4568603408124299
2024-09-23 05:30:57.854458,43.48,21.281148,-0.012866564846913748,0.01975718684395762,1.01426646614658,0.39373674749694765,-1.1068402347296475,-1.4568603408124299
2024-09-23 05:30:57.897402,43.48,21.281199,-0.011037206552565765,0.01786687049661572,1.01426646614658,0.39373674749694765,-1.1068402347296475,-1.3780785628784449
2024-09-23 05:30:57.908916,43.48,21.281199,-0.011037206552565765,0.01786687049661572,1.014022554947817,0.3193667930966243,-1.1068402347296475,-1.3780785628784449
2024-09-23 05:30:57.940606,43.48,21.281199,-0.011037206552565765,0.01786687049661572,1.014022554947817,0.3193667930966243,-1.1330817241821438,-1.3780785628784449
2024-09-23 05:30:57.951998,43.48,21.281291,-0.013232416455291218,0.02085484192155066,1.0167666288447792,0.3193667930966243,-1.1330817241821438,-1.3124748926080763
2024-09-23 05:30:57.994858,43.48,21.281291,-0.013232416455291218,0.02085484192155066,1.0167666288447792,0.3062460483703762,-1.1199610328167677,-1.3124748926080763
2024-09-23 05:30:58.048384,43.48,21.281342,-0.016403363810645208,0.01890346574977754,1.0138396944596255,0.3193667930966243,-1.1199610328167677,-1.3606034109167755
2024-09-23 05:30:58.092693,43.48,21.281393,-0.011098165365048018,0.01890346574977754,1.0138396944596255,0.3193667930966243,-1.203097164625302,-1.3387163820605725
2024-09-23 05:30:58.104724,43.48,21.281393,-0.011098165365048018,0.01914740125216718,1.013778546534547,0.3193667930966243,-1.203097164625302,-1.3387163820605725
2024-09-23 05:30:58.139112,43.48,21.281393,-0.011098165365048018,0.01914740125216718,1.013778546534547,0.38061600277069957,-1.1506142924420535,-1.4218526205908506
2024-09-23 05:30:58.150334,43.48,21.281485,-0.012256778495634975,0.0187205915907958,1.013778546534547,0.38061600277069957,-1.1506142924420535,-1.4218526205908506
2024-09-23 05:30:58.193606,43.48,21.281536,-0.01481783924724956,0.0187205915907958,1.0129859566567019,0.40244569536997005,-1.2118635021161288,-1.3956111311383546
2024-09-23 05:30:58.236598,43.48,21.281536,-0.01481783924724956,0.01914740125216718,1.0131078636488298,0.3280757409696467,-1.2118635021161288,-1.3956111311383546
2024-09-23 05:30:58.248077,43.48,21.281587,-0.01481783924724956,0.01914740125216718,1.0131078636488298,0.3280757409696467,-1.15932321363464,-1.3956111311383546
2024-09-23 05:30:58.291004,43.48,21.281587,-0.010366361136344109,0.017196025080394063,1.0146322843374704,0.3543172304221429,-1.1156065722204744,-1.3693696416858583
2024-09-23 05:30:58.334293,43.48,21.28168,-0.012073802565215924,0.020001120827370582,1.0146322843374704,0.3543172304221429,-1.1156065722204744,-1.3693696416858583
2024-09-23 05:30:58.345779,43.48,21.28168,-0.012073802565215924,0.020001120827370582,1.017010540043542,0.2186980663477443,-1.1199610328167677,-1.3693696416858583
2024-09-23 05:30:58.387680,43.48,21.281732,-0.013354434332716355,0.02152558556633501,1.0133517748475924,0.37184974532118065,-1.1199610328167677,-1.434973311956227
2024-09-23 05:30:58.429760,42.76,21.281732,-0.013354434332716355,0.02152558556633501,1.0133517748475924,0.37184974532118065,-1.0980740039605648,-1.3911993609655648
2024-09-23 05:30:58.441271,42.76,21.281782,-0.016037512202267738,0.019208359305161096,1.0151202039495033,0.37184974532118065,-1.0980740039605648,-1.3911993609655648
2024-09-23 05:30:58.483678,42.76,21.281782,-0.016037512202267738,0.019208359305161096,1.0151202039495033,0.4155664400962181,-1.1418479549512268,-1.2993542012427002
2024-09-23 05:30:58.526487,42.76,21.281833,-0.016037512202267738,0.019208359305161096,1.0151202039495033,0.4155664400962181,-1.1418479549512268,-1.2993542012427002
2024-09-23 05:30:58.537477,42.76,21.281833,-0.01365932788809991,0.019330377182586234,1.011034569852092,0.3674952580444515,-1.1724439050000162,-1.2993542012427002
2024-09-23 05:30:58.580715,42.76,21.281884,-0.016159429827232244,0.01890346574977754,1.0117053499523165,0.3674952580444515,-1.1724439050000162,-1.4306188513599336
2024-09-23 05:30:58.592695,42.76,21.281884,-0.016159429827232244,0.01890346574977754,1.0117053499523165,0.29306802074806765,-1.1724439050000162,-1.4306188513599336
2024-09-23 05:30:58.626589,42.76,21.281884,-0.016159429827232244,0.01890346574977754,1.0117053499523165,0.29306802074806765,-1.1680894444037229,-1.3430708426568656
2024-09-23 05:30:58.637805,42.76,21.281972,-0.013598266544692013,0.020427930488741967,1.0157908868352208,0.29306802074806765,-1.1680894444037229,-1.3430708426568656
2024-09-23 05:30:58.681916,42.76,21.281972,-0.013598266544692013,0.020427930488741967,1.0157908868352208,0.27123832814879717,-1.1680894444037229,-1.3430708426568656
2024-09-23 05:30:58.724854,42.76,21.282024,-0.013598266544692013,0.020427930488741967,1.0157908868352208,0.27123832814879717,-1.0980740039605648,-1.3606034109167755
2024-09-23 05:30:58.736688,42.76,21.282024,-0.012927522899907663,0.020306014382754138,1.0157908868352208,0.27123832814879717,-1.0980740039605648,-1.3606034109167755
2024-09-23 05:30:58.820430,42.76,21.282024,-0.012927522899907663,0.020306014382754138,1.0111565740587272,0.24935132597303017,-1.0980740039605648,-1.3606034109167755
2024-09-23 05:30:58.831725,42.76,21.282074,-0.012439653414105056,0.020306014382754138,1.0111565740587272,0.24935132597303017,-1.203097164625302,-1.4437395427253097
2024-09-23 05:30:58.874225,42.76,21.282074,-0.012439653414105056,0.017927828549609635,1.0108517093639005,0.2668265312955715,-1.1156065722204744,-1.3824903330512346
2024-09-23 05:30:58.886379,42.76,21.282167,-0.012439653414105056,0.017927828549609635,1.0108517093639005,0.2668265312955715,-1.1156065722204744,-1.3824903330512346
2024-09-23 05:30:58.919432,42.76,21.282167,-0.011707950956838454,0.018415698035412244,1.0117053499523165,0.2668265312955715,-1.1156065722204744,-1.3824903330512346
2024-09-23 05:30:58.930938,42.76,21.282167,-0.011707950956838454,0.018415698035412244,1.0117053499523165,0.38932495064372197,-1.1724439050000162,-1.518109550486505
2024-09-23 05:30:58.974494,42.76,21.282219,-0.014756881194255646,0.019330377182586234,1.012742045457939,0.35872900059493257,-1.2336931146740913,-1.518109550486505
2024-09-23 05:30:59.016860,42.76,21.282314,-0.012134760618209839,0.019330377182586234,1.012742045457939,0.35872900059493257,-1.2336931146740913,-1.448094003321603
2024-09-23 05:30:59.028699,42.76,21.282314,-0.012134760618209839,0.019696228790963704,1.0133517748475924,0.3499627431454137,-1.2336931146740913,-1.448094003321603
2024-09-23 05:30:59.071388,42.76,21.282413,-0.01445198763887209,0.020245056329760223,1.0162788064472537,0.3499627431454137,-1.0762442846808582,-1.2643463742993772
2024-09-23 05:30:59.166791,42.76,21.282463,-0.016586237969626952,0.020245056329760223,1.0162788064472537,0.3237212803733535,-1.0718325145080685,-1.4306188513599336
2024-09-23 05:30:59.178468,42.76,21.282463,-0.016586237969626952,0.019574312684975875,1.0162788064472537,0.3237212803733535,-1.0718325145080685,-1.4306188513599336
2024-09-23 05:30:59.212016,42.76,21.282463,-0.016586237969626952,0.019574312684975875,1.0134736818397203,0.3018342781975865,-1.0937195433642715,-1.4306188513599336
2024-09-23 05:30:59.223366,42.76,21.282514,-0.013293374508285133,0.019574312684975875,1.0134736818397203,0.3018342781975865,-1.0937195433642715,-1.3649578715130686
2024-09-23 05:30:59.267280,42.76,21.282606,-0.013293374508285133,0.022318348607521174,1.0135956860463553,0.35872900059493257,-1.1024857741333545,-1.404320052330941
2024-09-23 05:30:59.309883,42.76,21.282606,-0.015305708733052167,0.02152558556633501,1.0105467474545664,0.35872900059493257,-1.1024857741333545,-1.404320052330941
2024-09-23 05:30:59.322038,42.76,21.282606,-0.015305708733052167,0.02152558556633501,1.0105467474545664,0.28871353347133843,-1.1068402347296475,-1.4568603408124299
2024-09-23 05:30:59.354328,42.76,21.282657,-0.015305708733052167,0.02152558556633501,1.0105467474545664,0.28871353347133843,-1.1068402347296475,-1.4568603408124299
2024-09-23 05:30:59.365666,42.76,21.282657,-0.014695923141261731,0.018781549643789714,1.0133517748475924,0.3411964856958948,-1.1549687530383468,-1.4568603408124299
2024-09-23 05:30:59.407806,42.76,21.282753,-0.016159429827232244,0.021281651582922046,1.0133517748475924,0.3411964856958948,-1.1549687530383468,-1.3737241022821516
2024-09-23 05:30:59.419455,42.76,21.282753,-0.016159429827232244,0.021281651582922046,1.01231507934197,0.3368419984191656,-1.1549687530383468,-1.3737241022821516
2024-09-23 05:30:59.451552,42.35,21.282753,-0.016159429827232244,0.021281651582922046,1.01231507934197,0.3368419984191656,-1.1024857741333545,-1.3737241022821516
2024-09-23 05:30:59.463142,42.35,21.282804,-0.016159429827232244,0.021281651582922046,1.01231507934197,0.3368419984191656,-1.1024857741333545,-1.426207081187144
2024-09-23 05:30:59.506593,42.35,21.282804,-0.01433007153288426,0.01750101888823825,1.014022554947817,0.35872900059493257,-1.1024857741333545,-1.426207081187144
2024-09-23 05:30:59.518154,42.35,21.282804,-0.01433007153288426,0.01750101888823825,1.014022554947817,0.35872900059493257,-1.0893650827679784,-1.491868061034009
2024-09-23 05:30:59.551178,42.35,21.282855,-0.01433007153288426,0.01750101888823825,1.014022554947817,0.35872900059493257,-1.0893650827679784,-1.491868061034009
2024-09-23 05:30:59.563132,42.35,21.282855,-0.016159429827232244,0.01823272210499319,1.0114003880429827,0.3280757409696467,-1.0674780539117754,-1.491868061034009
2024-09-23 05:30:59.606610,42.35,21.282906,-0.013903160100075569,0.01585453627184869,1.01426646614658,0.2581175834225491,-1.0674780539117754,-1.3518370734259486
2024-09-23 05:30:59.649862,42.35,21.282996,-0.013903160100075569,0.01585453627184869,1.01426646614658,0.2581175834225491,-1.0805987452771515,-1.3518370734259486
2024-09-23 05:30:59.661037,42.35,21.282996,-0.013598266544692013,0.020915799974544576,1.0139006479556893,0.2581175834225491,-1.0805987452771515,-1.3518370734259486
2024-09-23 05:30:59.745712,42.35,21.282996,-0.013598266544692013,0.020915799974544576,1.0139006479556893,0.2668265312955715,-1.0805987452771515,-1.3518370734259486
2024-09-23 05:30:59.756968,42.35,21.283047,-0.013598266544692013,0.020915799974544576,1.0139006479556893,0.2668265312955715,-1.1506142924420535,-1.3387163820605725
2024-09-23 05:30:59.799502,42.35,21.283047,-0.012866564846913748,0.0187205915907958,1.0138396944596255,0.3456082558686845,-1.1506142924420535,-1.3387163820605725
2024-09-23 05:30:59.812253,42.35,21.283047,-0.012866564846913748,0.0187205915907958,1.0138396944596255,0.3456082558686845,-1.15932321363464,-1.3343619214642792
2024-09-23 05:30:59.844153,42.35,21.283098,-0.013720285941093825,0.0187205915907958,1.0138396944596255,0.3456082558686845,-1.15932321363464,-1.3343619214642792
2024-09-23 05:30:59.855485,42.35,21.283098,-0.013720285941093825,0.019208359305161096,1.0123761300525411,0.3368419984191656,-1.1724439050000162,-1.3343619214642792
2024-09-23 05:30:59.897916,42.35,21.283191,-0.010976248499571852,0.020732824044125523,1.0134736818397203,0.3368419984191656,-1.1724439050000162,-1.43932777255252
2024-09-23 05:30:59.910179,42.35,21.283191,-0.010976248499571852,0.020732824044125523,1.0134736818397203,0.3674952580444515,-1.1724439050000162,-1.43932777255252
2024-09-23 05:30:59.942148,42.35,21.283191,-0.010976248499571852,0.020732824044125523,1.0134736818397203,0.3674952580444515,-1.1243154934130608,-1.461214801408723
2024-09-23 05:30:59.953830,42.35,21.283243,-0.01396421992450679,0.016525279916633037,1.0143274196426437,0.3674952580444515,-1.1243154934130608,-1.461214801408723
2024-09-23 05:30:59.995887,42.35,21.283338,-0.012378695361111141,0.018964423802771455,1.0143274196426437,0.29306802074806765,-1.1812102424908428,-1.43932777255252
2024-09-23 05:31:00.038325,42.35,21.283338,-0.012378695361111141,0.018964423802771455,1.0117664006628877,0.29306802074806765,-1.1812102424908428,-1.43932777255252
2024-09-23 05:31:00.049854,42.35,21.283389,-0.01396421992450679,0.018964423802771455,1.0117664006628877,0.3543172304221429,-1.1637349838074296,-1.4174980532728136
2024-09-23 05:31:00.093263,42.35,21.283389,-0.01396421992450679,0.017927828549609635,1.012620041251304,0.27994727602181957,-1.1506142924420535,-1.4174980532728136
2024-09-23 05:31:00.105073,42.35,21.283483,-0.01396421992450679,0.017927828549609635,1.012620041251304,0.27994727602181957,-1.1506142924420535,-1.4174980532728136
2024-09-23 05:31:00.138230,42.35,21.283483,-0.020001120827370582,0.020427930488741967,1.016705578134208,0.27994727602181957,-1.1506142924420535,-1.4174980532728136
2024-09-23 05:31:00.149718,42.35,21.283483,-0.020001120827370582,0.020427930488741967,1.016705578134208,0.3018342781975865,-1.1549687530383468,-1.3956111311383546
2024-09-23 05:31:00.192799,42.35,21.283535,-0.011281142054955407,0.016708257366028764,1.0145713308414066,0.3411964856958948,-1.1768557818945498,-1.3956111311383546
2024-09-23 05:31:00.235017,42.35,21.283586,-0.012622630104012445,0.016708257366028764,1.0145713308414066,0.3411964856958948,-1.1768557818945498,-1.4174980532728136
2024-09-23 05:31:00.245955,42.35,21.283586,-0.012622630104012445,0.022684200215898644,1.012742045457939,0.3193667930966243,-1.1768557818945498,-1.4174980532728136
2024-09-23 05:31:00.287859,42.35,21.283636,-0.010488379013769245,0.017561976941232165,1.012742045457939,0.3193667930966243,-1.1287272635858505,-1.3562488435987383
2024-09-23 05:31:00.299809,42.35,21.283636,-0.010488379013769245,0.017561976941232165,1.0145103773453428,0.3193667930966243,-1.1287272635858505,-1.3562488435987383
2024-09-23 05:31:00.332883,42.35,21.283636,-0.010488379013769245,0.017561976941232165,1.0145103773453428,0.3062460483703762,-1.15932321363464,-1.4218526205908506
2024-09-23 05:31:00.344349,42.35,21.283687,-0.016525279916633037,0.019940162774376668,1.0145103773453428,0.3062460483703762,-1.15932321363464,-1.4218526205908506
2024-09-23 05:31:00.387135,42.35,21.283738,-0.010671253932239326,0.019940162774376668,1.01426646614658,0.38061600277069957,-1.1156065722204744,-1.469981032177806
2024-09-23 05:31:00.429456,42.35,21.283738,-0.010671253932239326,0.016891131525010507,1.0135956860463553,0.38061600277069957,-1.1156065722204744,-1.469981032177806
2024-09-23 05:31:00.483448,42.21,21.283825,-0.015427726610477303,0.016891131525010507,1.0135956860463553,0.2405850685235113,-1.1418479549512268,-1.3649578715130686
2024-09-23 05:31:00.495587,42.21,21.283825,-0.015427726610477303,0.019086441680196593,1.0135956860463553,0.2405850685235113,-1.1418479549512268,-1.3649578715130686
2024-09-23 05:31:00.527545,42.21,21.283825,-0.015427726610477303,0.019086441680196593,1.0148762927507406,0.4155664400962181,-1.1418479549512268,-1.3649578715130686
2024-09-23 05:31:00.539270,42.21,21.283876,-0.014695923141261731,0.019086441680196593,1.0148762927507406,0.4155664400962181,-1.1987427040290088,-1.3430708426568656
2024-09-23 05:31:00.582480,42.21,21.283927,-0.014695923141261731,0.020732824044125523,1.0115833457456815,0.3411964856958948,-1.1374934943549335,-1.4787472629468887
2024-09-23 05:31:00.624173,42.21,21.283927,-0.01341539238571027,0.02140366946034718,1.0115833457456815,0.3411964856958948,-1.1374934943549335,-1.4787472629468887
2024-09-23 05:31:00.635808,42.21,21.283927,-0.01341539238571027,0.02140366946034718,1.0117664006628877,0.27123832814879717,-1.1330817241821438,-1.6449624304309487
2024-09-23 05:31:00.719125,42.21,21.283978,-0.01341539238571027,0.02140366946034718,1.0117664006628877,0.27123832814879717,-1.1330817241821438,-1.6449624304309487
2024-09-23 05:31:00.733944,42.21,21.283978,-0.01396421992450679,0.019025483627202678,1.0145103773453428,0.3062460483703762,-1.2424594521649182,-1.6449624304309487
2024-09-23 05:31:00.777392,42.21,21.28407,-0.012073802565215924,0.0173180429578192,1.0096319589410718,0.3324875378228724,-1.2424594521649182,-1.404320052330941
2024-09-23 05:31:00.821071,42.21,21.284121,-0.012073802565215924,0.0173180429578192,1.0096319589410718,0.3324875378228724,-1.1462025222692638,-1.3562488435987383
2024-09-23 05:31:00.833475,42.21,21.284121,-0.01396421992450679,0.02085484192155066,1.0111565740587272,0.3324875378228724,-1.1462025222692638,-1.3562488435987383
2024-09-23 05:31:00.866290,42.21,21.284121,-0.01396421992450679,0.02085484192155066,1.0111565740587272,0.2537058132497594,-1.1462025222692638,-1.3562488435987383
2024-09-23 05:31:00.877351,42.21,21.284171,-0.016891131525010507,0.019208359305161096,1.0111565740587272,0.2537058132497594,-1.1330817241821438,-1.3911993609655648
2024-09-23 05:31:00.919543,42.21,21.284171,-0.016891131525010507,0.019208359305161096,1.0114614387535539,0.24935132597303017,-1.2205724233087152,-1.3606034109167755
2024-09-23 05:31:00.930837,42.21,21.284222,-0.015427726610477303,0.019208359305161096,1.0114614387535539,0.24935132597303017,-1.2205724233087152,-1.3606034109167755
2024-09-23 05:31:00.962920,42.21,21.284222,-0.015427726610477303,0.02213537267710212,1.0114614387535539,0.24935132597303017,-1.2205724233087152,-1.3606034109167755
2024-09-23 05:31:00.974604,42.21,21.284361,-0.015427726610477303,0.02213537267710212,1.0143883731387076,0.3499627431454137,-1.15932321363464,-1.3780785628784449
2024-09-23 05:31:01.017212,42.21,21.284361,-0.01433007153288426,0.01939133523558015,1.0159129882563631,0.2537058132497594,-1.15932321363464,-1.3780785628784449
2024-09-23 05:31:01.028588,42.21,21.284361,-0.01433007153288426,0.01939133523558015,1.0159129882563631,0.2537058132497594,-1.1156065722204744,-1.3780785628784449
2024-09-23 05:31:01.060541,42.21,21.284413,-0.01433007153288426,0.01939133523558015,1.0159129882563631,0.2537058132497594,-1.1156065722204744,-1.3780785628784449
2024-09-23 05:31:01.072608,42.21,21.284413,-0.014574005516297226,0.02012303845233509,1.01426646614658,0.3193667930966243,-1.1111946953259408,-1.3780785628784449
2024-09-23 05:31:01.115988,42.21,21.284463,-0.01365932788809991,0.02134260963591596,1.01426646614658,0.3193667930966243,-1.1111946953259408,-1.404320052330941
2024-09-23 05:31:01.127282,42.21,21.284463,-0.01365932788809991,0.02134260963591596,1.0130469101527657,0.2581175834225491,-1.1111946953259408,-1.404320052330941
2024-09-23 05:31:01.159790,42.21,21.284463,-0.01365932788809991,0.02134260963591596,1.0130469101527657,0.2581175834225491,-1.0105833048339934,-1.3824903330512346
2024-09-23 05:31:01.171536,42.21,21.284514,-0.01481783924724956,0.020549948366167105,1.012620041251304,0.2581175834225491,-1.0105833048339934,-1.3824903330512346
2024-09-23 05:31:01.214057,42.21,21.284565,-0.01341539238571027,0.020549948366167105,1.012620041251304,0.3368419984191656,-1.1943309338562191,-1.3649578715130686
2024-09-23 05:31:01.226296,42.21,21.284565,-0.01341539238571027,0.02201345505213762,1.012620041251304,0.3368419984191656,-1.1943309338562191,-1.3649578715130686
2024-09-23 05:31:01.257837,42.21,21.284565,-0.01341539238571027,0.02201345505213762,1.01542506864433,0.27559278874509036,-1.1943309338562191,-1.3649578715130686
2024-09-23 05:31:01.269229,42.21,21.284615,-0.013842202047081654,0.02201345505213762,1.01542506864433,0.27559278874509036,-1.1724439050000162,-1.404320052330941
2024-09-23 05:31:01.312006,42.21,21.284615,-0.013842202047081654,0.02067186599113161,1.0113394345469187,0.29306802074806765,-1.0062288442377,-1.3649578715130686
2024-09-23 05:31:01.323745,42.21,21.284702,-0.013842202047081654,0.02067186599113161,1.0113394345469187,0.29306802074806765,-1.0062288442377,-1.3649578715130686
2024-09-23 05:31:01.356407,42.21,21.284702,-0.013720285941093825,0.019574312684975875,1.0150592504534395,0.29306802074806765,-1.0062288442377,-1.3649578715130686
2024-09-23 05:31:01.367493,42.21,21.284702,-0.013720285941093825,0.019574312684975875,1.0150592504534395,0.4287444677185267,-1.0762442846808582,-1.539996472620964
2024-09-23 05:31:01.410288,42.21,21.284754,-0.014695923141261731,0.022928134199311608,1.0137175930384832,0.3849704900474288,-1.0893650827679784,-1.539996472620964
2024-09-23 05:31:01.453709,42.21,21.284804,-0.015488684663471218,0.022928134199311608,1.0137175930384832,0.3849704900474288,-1.0893650827679784,-1.3999655917346479
2024-09-23 05:31:01.465308,42.21,21.284804,-0.015488684663471218,0.019025483627202678,1.015973941752427,0.3193667930966243,-1.0893650827679784,-1.3999655917346479
2024-09-23 05:31:01.507677,42.5,21.284855,-0.012378695361111141,0.01798878660260355,1.0132908213515286,0.3193667930966243,-1.1549687530383468,-1.3649578715130686
2024-09-23 05:31:01.549678,42.5,21.284855,-0.012378695361111141,0.01798878660260355,1.0132908213515286,0.3237212803733535,-1.1462025222692638,-1.3649578715130686
2024-09-23 05:31:01.561265,42.5,21.284906,-0.01341539238571027,0.02018409827676631,1.0132908213515286,0.3237212803733535,-1.1462025222692638,-1.3606034109167755
2024-09-23 05:31:01.604734,42.5,21.284957,-0.012439653414105056,0.02018409827676631,1.0174983624410678,0.3018342781975865,-1.1768557818945498,-1.3168293532043696
2024-09-23 05:31:01.646993,42.5,21.284957,-0.012439653414105056,0.018781549643789714,1.0118883076550156,0.3018342781975865,-1.1768557818945498,-1.3168293532043696
2024-09-23 05:31:01.658613,42.5,21.285044,-0.012439653414105056,0.018781549643789714,1.0118883076550156,0.28871353347133843,-1.0937195433642715,-1.2643463742993772
2024-09-23 05:31:01.700548,42.5,21.285044,-0.012439653414105056,0.01926931735815501,1.0131688171448936,0.29747979092085736,-1.1418479549512268,-1.2643463742993772
2024-09-23 05:31:01.712723,42.5,21.285044,-0.012439653414105056,0.01926931735815501,1.0131688171448936,0.29747979092085736,-1.1418479549512268,-1.3299501512914895
2024-09-23 05:31:01.745464,42.5,21.285095,-0.01256167205101853,0.01926931735815501,1.0131688171448936,0.29747979092085736,-1.1418479549512268,-1.3299501512914895
2024-09-23 05:31:01.757425,42.5,21.285095,-0.01256167205101853,0.019086441680196593,1.0133517748475924,0.3630834878716618,-1.1330817241821438,-1.3299501512914895
2024-09-23 05:31:01.799468,42.5,21.285146,-0.014391029585878175,0.019086441680196593,1.0133517748475924,0.3630834878716618,-1.1330817241821438,-1.4218526205908506
2024-09-23 05:31:01.842752,42.5,21.285146,-0.014391029585878175,0.021830479121718566,1.015546975636458,0.3630834878716618,-1.1330817241821438,-1.4218526205908506
2024-09-23 05:31:01.854188,42.5,21.285196,-0.014391029585878175,0.021830479121718566,1.015546975636458,0.3324875378228724,-1.1462025222692638,-1.3824903330512346
2024-09-23 05:31:01.898103,42.5,21.285196,-0.015671560341429636,0.019696228790963704,1.0093270942462451,0.3368419984191656,-1.1549687530383468,-1.3956111311383546
2024-09-23 05:31:01.940444,42.5,21.285247,-0.015122834574070423,0.019696228790963704,1.0093270942462451,0.3368419984191656,-1.1549687530383468,-1.3956111311383546
2024-09-23 05:31:01.951614,42.5,21.285247,-0.015122834574070423,0.01798878660260355,1.0130469101527657,0.3324875378228724,-1.15932321363464,-1.3956111311383546
2024-09-23 05:31:01.994520,42.5,21.285298,-0.017013149402435646,0.020245056329760223,1.0168275823408433,0.3324875378228724,-1.15932321363464,-1.3474826128296553
2024-09-23 05:31:02.006105,42.5,21.285298,-0.017013149402435646,0.020245056329760223,1.0168275823408433,0.3368419984191656,-1.15932321363464,-1.3474826128296553
2024-09-23 05:31:02.039424,42.5,21.285385,-0.017013149402435646,0.020245056329760223,1.0168275823408433,0.3368419984191656,-1.1637349838074296,-1.461214801408723
2024-09-23 05:31:02.051085,42.5,21.285385,-0.01481783924724956,0.01914740125216718,1.01426646614658,0.3368419984191656,-1.1637349838074296,-1.461214801408723
2024-09-23 05:31:02.093969,42.5,21.285436,-0.014939857124674697,0.020062078880364497,1.01426646614658,0.3149550229238346,-1.1549687530383468,-1.5224640110827983
2024-09-23 05:31:02.136938,42.5,21.285436,-0.014939857124674697,0.020062078880364497,1.0144494238492787,0.3149550229238346,-1.1549687530383468,-1.5224640110827983
2024-09-23 05:31:02.189789,42.5,21.285487,-0.015000815177668611,0.020062078880364497,1.0144494238492787,0.3018342781975865,-1.1024857741333545,-1.3911993609655648
2024-09-23 05:31:02.201641,42.5,21.285487,-0.015000815177668611,0.023537919791102042,1.0144494238492787,0.3018342781975865,-1.1024857741333545,-1.3911993609655648
2024-09-23 05:31:02.234457,42.5,21.285487,-0.015000815177668611,0.023537919791102042,1.0115833457456815,0.3674952580444515,-1.1111946953259408,-1.3911993609655648
2024-09-23 05:31:02.246034,42.5,21.28558,-0.012500713238536278,0.023537919791102042,1.0115833457456815,0.3674952580444515,-1.1111946953259408,-1.43932777255252
2024-09-23 05:31:02.288927,42.5,21.285631,-0.012500713238536278,0.021708563015730736,1.0139006479556893,0.3411964856958948,-1.1943309338562191,-1.4087318225037306
2024-09-23 05:31:02.332093,42.5,21.285631,-0.015671560341429636,0.02122069352992813,1.0112784810508548,0.3411964856958948,-1.1943309338562191,-1.4087318225037306
2024-09-23 05:31:02.344451,42.5,21.285631,-0.015671560341429636,0.02122069352992813,1.0112784810508548,0.37184974532118065,-1.0674780539117754,-1.3387163820605725
2024-09-23 05:31:02.376690,42.5,21.285682,-0.015671560341429636,0.02122069352992813,1.0112784810508548,0.37184974532118065,-1.0674780539117754,-1.3387163820605725
2024-09-23 05:31:02.388264,42.5,21.285682,-0.013232416455291218,0.01713506550842347,1.012925003160638,0.3674952580444515,-1.1156065722204744,-1.3387163820605725
2024-09-23 05:31:02.523518,41.77,21.285682,-0.013232416455291218,0.01713506550842347,1.012925003160638,0.3674952580444515,-1.1156065722204744,-1.3606034109167755
2024-09-23 05:31:02.535082,41.77,21.285776,-0.012256778495634975,0.018476656088406155,1.0120712653577144,0.3543172304221429,-1.1156065722204744,-1.3606034109167755
2024-09-23 05:31:02.578095,41.77,21.285776,-0.012256778495634975,0.018476656088406155,1.0120712653577144,0.3543172304221429,-1.0762442846808582,-1.3606034109167755
2024-09-23 05:31:02.620630,41.77,21.285776,-0.012256778495634975,0.018476656088406155,1.0120712653577144,0.3543172304221429,-1.0762442846808582,-1.434973311956227
2024-09-23 05:31:02.632005,41.77,21.285827,-0.014634963569291141,0.020427930488741967,1.0135956860463553,0.3499627431454137,-1.0762442846808582,-1.434973311956227
2024-09-23 05:31:02.674893,41.77,21.285878,-0.01622038788022616,0.020427930488741967,1.0135956860463553,0.3499627431454137,-1.0587118231426924,-1.3430708426568656
2024-09-23 05:31:02.686040,41.77,21.285878,-0.01622038788022616,0.020915799974544576,1.0164616669354454,0.3499627431454137,-1.0587118231426924,-1.3430708426568656
2024-09-23 05:31:02.718701,41.77,21.285878,-0.01622038788022616,0.020915799974544576,1.0164616669354454,0.29747979092085736,-1.0587118231426924,-1.3430708426568656
2024-09-23 05:31:02.730546,41.77,21.285928,-0.01768389456619667,0.02012303845233509,1.0164616669354454,0.29747979092085736,-1.1418479549512268,-1.3430708426568656
2024-09-23 05:31:02.773644,41.77,21.285928,-0.01768389456619667,0.02012303845233509,1.0153031616522024,0.37620423259790986,-1.1199610328167677,-1.4218526205908506
2024-09-23 05:31:02.786522,41.77,21.286068,-0.013720285941093825,0.02012303845233509,1.0153031616522024,0.37620423259790986,-1.1199610328167677,-1.4218526205908506
2024-09-23 05:31:02.818797,41.77,21.286068,-0.013720285941093825,0.0187205915907958,1.013778546534547,0.3368419984191656,-1.1199610328167677,-1.4218526205908506
2024-09-23 05:31:02.830410,41.77,21.286166,-0.013720285941093825,0.0187205915907958,1.013778546534547,0.3368419984191656,-1.207451731943339,-1.3518370734259486
2024-09-23 05:31:02.872321,41.77,21.286166,-0.015915494324842603,0.021281651582922046,1.01426646614658,0.28871353347133843,-1.15932321363464,-1.3518370734259486
2024-09-23 05:31:02.884441,41.77,21.286166,-0.015915494324842603,0.021281651582922046,1.01426646614658,0.28871353347133843,-1.15932321363464,-1.3911993609655648
2024-09-23 05:31:02.917179,41.77,21.286263,-0.015000815177668611,0.019086441680196593,1.01426646614658,0.28871353347133843,-1.15932321363464,-1.3911993609655648
2024-09-23 05:31:02.928734,41.77,21.286263,-0.015000815177668611,0.019086441680196593,1.0103028362558035,0.2668265312955715,-1.0805987452771515,-1.3911993609655648
2024-09-23 05:31:02.971234,41.77,21.286314,-0.013354434332716355,0.02048899031317319,1.014205512650516,0.37620423259790986,-1.0805987452771515,-1.3868447936475277
2024-09-23 05:31:03.014127,41.77,21.286365,-0.013354434332716355,0.02048899031317319,1.014205512650516,0.37620423259790986,-1.1199610328167677,-1.3911993609655648
2024-09-23 05:31:03.027060,41.77,21.286365,-0.013598266544692013,0.022440264713509,1.0163397599433175,0.37620423259790986,-1.1199610328167677,-1.3911993609655648
2024-09-23 05:31:03.059687,41.77,21.286365,-0.013598266544692013,0.022440264713509,1.0163397599433175,0.4505741869982332,-1.1199610328167677,-1.3911993609655648
2024-09-23 05:31:03.071589,41.77,21.286416,-0.014269113479890346,0.01963527073796979,1.0163397599433175,0.4505741869982332,-1.1724439050000162,-1.3868447936475277
2024-09-23 05:31:03.114639,41.77,21.286466,-0.014269113479890346,0.01963527073796979,1.0134127283436565,0.35872900059493257,-1.1462025222692638,-1.3737241022821516
2024-09-23 05:31:03.126376,41.77,21.286466,-0.015305708733052167,0.01963527073796979,1.0134127283436565,0.35872900059493257,-1.1462025222692638,-1.3737241022821516
2024-09-23 05:31:03.159255,41.77,21.286466,-0.015305708733052167,0.020366972435748053,1.0160958487445546,0.35872900059493257,-1.1462025222692638,-1.3737241022821516
2024-09-23 05:31:03.171025,41.77,21.286555,-0.015305708733052167,0.020366972435748053,1.0160958487445546,0.26247207069927825,-1.1199610328167677,-1.413086283100024
2024-09-23 05:31:03.214834,41.77,21.286555,-0.011524974266931064,0.021159735476934217,1.0148152420401695,0.3456082558686845,-1.207451731943339,-1.413086283100024
2024-09-23 05:31:03.226495,41.77,21.286555,-0.011524974266931064,0.021159735476934217,1.0148152420401695,0.3456082558686845,-1.207451731943339,-1.43932777255252
2024-09-23 05:31:03.258237,41.77,21.286606,-0.012500713238536278,0.02067186599113161,1.0148152420401695,0.3456082558686845,-1.207451731943339,-1.43932777255252
2024-09-23 05:31:03.270193,41.77,21.286606,-0.012500713238536278,0.02067186599113161,1.0126809947473678,0.3849704900474288,-1.1987427040290088,-1.43932777255252
2024-09-23 05:31:03.312847,41.77,21.286657,-0.012927522899907663,0.01750101888823825,1.0173154047383688,0.3368419984191656,-1.1987427040290088,-1.3693696416858583
2024-09-23 05:31:03.355311,41.77,21.286657,-0.012927522899907663,0.01750101888823825,1.0173154047383688,0.3368419984191656,-1.1899764732599258,-1.3824903330512346
2024-09-23 05:31:03.366529,41.77,21.286708,-0.01182986782231462,0.018598572194393984,1.0104247432479314,0.3368419984191656,-1.1899764732599258,-1.3824903330512346
2024-09-23 05:31:03.409017,41.77,21.286759,-0.015793578218854774,0.020062078880364497,1.0104247432479314,0.35872900059493257,-1.0937195433642715,-1.3299501512914895
2024-09-23 05:31:03.450963,41.77,21.286759,-0.015793578218854774,0.020062078880364497,1.012742045457939,0.3062460483703762,-1.0937195433642715,-1.3299501512914895
2024-09-23 05:31:03.462531,41.77,21.286809,-0.01256167205101853,0.020062078880364497,1.012742045457939,0.3062460483703762,-1.0805987452771515,-1.3737241022821516
2024-09-23 05:31:03.505717,41.77,21.286809,-0.01256167205101853,0.019818144896951533,1.0119492611510794,0.3324875378228724,-1.1243154934130608,-1.434973311956227
2024-09-23 05:31:03.517426,41.77,21.286896,-0.01256167205101853,0.019818144896951533,1.0119492611510794,0.3324875378228724,-1.1243154934130608,-1.434973311956227
2024-09-23 05:31:03.549366,42.28,21.286896,-0.014208053655459124,0.019818144896951533,1.0119492611510794,0.3324875378228724,-1.1243154934130608,-1.434973311956227
2024-09-23 05:31:03.653806,42.28,21.286948,-0.014208053655459124,0.019452293288574063,1.017132544250177,0.3368419984191656,-1.1506142924420535,-1.474335492774099
2024-09-23 05:31:03.698499,42.28,21.286948,-0.013537308491698099,0.01975718684395762,1.0120712653577144,0.3368419984191656,-1.1506142924420535,-1.474335492774099
2024-09-23 05:31:03.710137,42.28,21.286948,-0.013537308491698099,0.01975718684395762,1.0120712653577144,0.35872900059493257,-1.1199610328167677,-1.426207081187144
2024-09-23 05:31:03.742271,42.28,21.286998,-0.013537308491698099,0.01975718684395762,1.0120712653577144,0.35872900059493257,-1.1199610328167677,-1.426207081187144
2024-09-23 05:31:03.753708,42.28,21.286998,-0.01396421992450679,0.017744852619190586,1.0134736818397203,0.3280757409696467,-1.1462025222692638,-1.426207081187144
2024-09-23 05:31:03.795376,42.28,21.287049,-0.012866564846913748,0.020001120827370582,1.0134736818397203,0.3280757409696467,-1.1462025222692638,-1.3780785628784449
2024-09-23 05:31:03.806909,42.28,21.287049,-0.012866564846913748,0.020001120827370582,1.0109126628599643,0.26247207069927825,-1.1462025222692638,-1.3780785628784449
2024-09-23 05:31:03.890333,42.28,21.287049,-0.012866564846913748,0.020001120827370582,1.0109126628599643,0.26247207069927825,-1.15932321363464,-1.426207081187144
2024-09-23 05:31:03.901961,42.28,21.2871,-0.016891131525010507,0.02122069352992813,1.01426646614658,0.26247207069927825,-1.15932321363464,-1.426207081187144
2024-09-23 05:31:03.945632,42.28,21.28724,-0.01664729931303485,0.01926931735815501,1.01426646614658,0.3630834878716618,-1.1068402347296475,-1.3999655917346479
2024-09-23 05:31:03.988084,42.28,21.28724,-0.01664729931303485,0.01926931735815501,1.0089612760553544,0.38932495064372197,-1.1068402347296475,-1.3999655917346479
2024-09-23 05:31:03.999409,42.28,21.28729,-0.01378124399408774,0.01926931735815501,1.0089612760553544,0.38932495064372197,-1.1943309338562191,-1.434973311956227
2024-09-23 05:31:04.042211,42.28,21.28729,-0.01378124399408774,0.017805912443621806,1.012498037044669,0.3499627431454137,-1.15932321363464,-1.3693696416858583
2024-09-23 05:31:04.054494,42.28,21.287384,-0.01378124399408774,0.017805912443621806,1.012498037044669,0.3499627431454137,-1.15932321363464,-1.3693696416858583
2024-09-23 05:31:04.088416,42.28,21.287384,-0.01622038788022616,0.017561976941232165,1.0084734536578288,0.3499627431454137,-1.15932321363464,-1.3693696416858583
2024-09-23 05:31:04.099507,42.28,21.287384,-0.01622038788022616,0.017561976941232165,1.0084734536578288,0.4155664400962181,-1.0893650827679784,-1.3824903330512346
2024-09-23 05:31:04.133001,42.28,21.287482,-0.01622038788022616,0.017561976941232165,1.0084734536578288,0.4155664400962181,-1.0893650827679784,-1.3824903330512346
2024-09-23 05:31:04.143958,42.28,21.287482,-0.017439959063807027,0.018476656088406155,1.010668654446694,0.3849704900474288,-1.0105833048339934,-1.3824903330512346
2024-09-23 05:31:04.187042,42.28,21.287533,-0.013720285941093825,0.01890346574977754,1.0108517093639005,0.3849704900474288,-1.0105833048339934,-1.3693696416858583
2024-09-23 05:31:04.198720,42.28,21.287533,-0.013720285941093825,0.01890346574977754,1.0108517093639005,0.4287444677185267,-1.0105833048339934,-1.3693696416858583
2024-09-23 05:31:04.281925,42.28,21.287584,-0.013720285941093825,0.01890346574977754,1.0108517093639005,0.4287444677185267,-1.1243154934130608,-1.4174980532728136
2024-09-23 05:31:04.293632,42.28,21.287584,-0.01378124399408774,0.018659531766364576,1.0109126628599643,0.4287444677185267,-1.1243154934130608,-1.4174980532728136
2024-09-23 05:31:04.337150,42.28,21.287634,-0.01365932788809991,0.01975718684395762,1.0109126628599643,0.3456082558686845,-1.1287272635858505,-1.3606034109167755
2024-09-23 05:31:04.380279,42.28,21.287634,-0.01365932788809991,0.01975718684395762,1.0121931723498423,0.31060053564710544,-1.1768557818945498,-1.4524485706396402
2024-09-23 05:31:04.391852,42.28,21.287685,-0.013049540777332799,0.01975718684395762,1.0121931723498423,0.31060053564710544,-1.1768557818945498,-1.4524485706396402
2024-09-23 05:31:04.424230,42.28,21.287685,-0.013049540777332799,0.019208359305161096,1.0121931723498423,0.31060053564710544,-1.1768557818945498,-1.4524485706396402
2024-09-23 05:31:04.435685,42.28,21.287774,-0.013049540777332799,0.019208359305161096,1.0149372462468045,0.3324875378228724,-1.0937195433642715,-1.3737241022821516
2024-09-23 05:31:04.478523,42.28,21.287774,-0.015122834574070423,0.019025483627202678,1.01426646614658,0.38932495064372197,-1.0937195433642715,-1.3737241022821516
2024-09-23 05:31:04.490379,42.28,21.287774,-0.015122834574070423,0.019025483627202678,1.01426646614658,0.38932495064372197,-1.1287272635858505,-1.4437395427253097
2024-09-23 05:31:04.523799,42.28,21.287872,-0.015122834574070423,0.019025483627202678,1.01426646614658,0.38932495064372197,-1.1287272635858505,-1.4437395427253097
2024-09-23 05:31:04.537951,42.28,21.287872,-0.01433007153288426,0.022562284109910815,1.0124370835486052,0.3280757409696467,-1.1418479549512268,-1.4437395427253097
2024-09-23 05:31:04.570950,41.93,21.287872,-0.01433007153288426,0.022562284109910815,1.0124370835486052,0.3280757409696467,-1.1418479549512268,-1.3737241022821516
2024-09-23 05:31:04.582821,41.93,21.287923,-0.014208053655459124,0.02164760496273682,1.0107906586533293,0.3499627431454137,-1.1418479549512268,-1.3737241022821516
2024-09-23 05:31:04.625783,41.93,21.287974,-0.016769215419022678,0.01798878660260355,1.0107906586533293,0.3499627431454137,-1.0980740039605648,-1.3430708426568656
2024-09-23 05:31:04.637869,41.93,21.287974,-0.016769215419022678,0.01798878660260355,1.0111565740587272,0.3499627431454137,-1.0980740039605648,-1.3430708426568656
2024-09-23 05:31:04.670281,41.93,21.287974,-0.016769215419022678,0.01798878660260355,1.0111565740587272,0.3237212803733535,-1.1855647030871361,-1.3430708426568656
2024-09-23 05:31:04.681644,41.93,21.288025,-0.013842202047081654,0.022928134199311608,1.0111565740587272,0.3237212803733535,-1.1855647030871361,-1.4524485706396402
2024-09-23 05:31:04.724295,41.93,21.288075,-0.013842202047081654,0.022928134199311608,1.0145103773453428,0.3543172304221429,-1.1637349838074296,-1.4524485706396402
2024-09-23 05:31:04.736365,41.93,21.288075,-0.010183486217874026,0.022928134199311608,1.0145103773453428,0.3543172304221429,-1.1637349838074296,-1.4524485706396402
2024-09-23 05:31:04.769391,41.93,21.288075,-0.010183486217874026,0.019696228790963704,1.0121322188537785,0.3411964856958948,-1.1637349838074296,-1.4524485706396402
2024-09-23 05:31:04.781175,41.93,21.288164,-0.010183486217874026,0.019696228790963704,1.0121322188537785,0.3411964856958948,-1.1024857741333545,-1.3649578715130686
2024-09-23 05:31:04.823408,41.93,21.288164,-0.012317737308117227,0.01939133523558015,1.0132908213515286,0.3062460483703762,-1.1330817241821438,-1.4524485706396402
2024-09-23 05:31:04.865937,41.93,21.288215,-0.012317737308117227,0.01939133523558015,1.0132908213515286,0.3062460483703762,-1.1330817241821438,-1.4524485706396402
2024-09-23 05:31:04.919990,41.93,21.288215,-0.016342405757651293,0.018049744655597465,1.0112784810508548,0.2581175834225491,-1.1374934943549335,-1.4524485706396402
2024-09-23 05:31:04.931449,41.93,21.288215,-0.016342405757651293,0.018049744655597465,1.0112784810508548,0.2581175834225491,-1.1374934943549335,-1.553117270708084
2024-09-23 05:31:04.964285,41.93,21.288266,-0.011098165365048018,0.019696228790963704,1.0112784810508548,0.2581175834225491,-1.1374934943549335,-1.553117270708084
2024-09-23 05:31:04.976026,41.93,21.288266,-0.011098165365048018,0.019696228790963704,1.009815013858278,0.4155664400962181,-1.1943309338562191,-1.553117270708084
2024-09-23 05:31:05.019505,41.93,21.288317,-0.01182986782231462,0.019879204721382753,1.010668654446694,0.2318188110739924,-1.1943309338562191,-1.474335492774099
2024-09-23 05:31:05.061916,41.93,21.288367,-0.01182986782231462,0.019879204721382753,1.010668654446694,0.2318188110739924,-1.1111946953259408,-1.4568603408124299
2024-09-23 05:31:05.073016,41.93,21.288367,-0.013293374508285133,0.019330377182586234,1.0108517093639005,0.2318188110739924,-1.1111946953259408,-1.4568603408124299
2024-09-23 05:31:05.115307,41.93,21.288367,-0.013293374508285133,0.019330377182586234,1.0108517093639005,0.35872900059493257,-1.1024857741333545,-1.4568603408124299
2024-09-23 05:31:05.159628,41.93,21.288418,-0.013903160100075569,0.019330377182586234,1.0108517093639005,0.35872900059493257,-1.1024857741333545,-1.3911993609655648
2024-09-23 05:31:05.171031,41.93,21.288418,-0.013903160100075569,0.02140366946034718,1.0132908213515286,0.3411964856958948,-1.1024857741333545,-1.3911993609655648
2024-09-23 05:31:05.213435,41.93,21.288508,-0.01396421992450679,0.019513251341567978,1.0124370835486052,0.3411964856958948,-1.1024857741333545,-1.3956111311383546
2024-09-23 05:31:05.257216,41.93,21.288508,-0.01396421992450679,0.019513251341567978,1.0124370835486052,0.3411964856958948,-1.1068402347296475,-1.434973311956227
2024-09-23 05:31:05.268663,41.93,21.288603,-0.010488379013769245,0.018476656088406155,1.0124370835486052,0.3411964856958948,-1.1068402347296475,-1.434973311956227
2024-09-23 05:31:05.311057,41.93,21.288654,-0.01585453627184869,0.018476656088406155,1.0132298678554648,0.2668265312955715,-1.0937195433642715,-1.3255955839734523
2024-09-23 05:31:05.354500,41.93,21.288654,-0.01585453627184869,0.019452293288574063,1.0107297051572652,0.3630834878716618,-1.0937195433642715,-1.3255955839734523
2024-09-23 05:31:05.366068,41.93,21.288705,-0.01585453627184869,0.019452293288574063,1.0107297051572652,0.3630834878716618,-1.1243154934130608,-1.3911993609655648
2024-09-23 05:31:05.409723,41.93,21.288705,-0.014878899071680782,0.019513251341567978,1.0124370835486052,0.3193667930966243,-1.0587118231426924,-1.3124748926080763
2024-09-23 05:31:05.451979,41.93,21.288798,-0.011524974266931064,0.01823272210499319,1.0124370835486052,0.3193667930966243,-1.0587118231426924,-1.3124748926080763
2024-09-23 05:31:05.463459,41.93,21.288798,-0.011524974266931064,0.01823272210499319,1.015973941752427,0.3280757409696467,-1.1549687530383468,-1.3124748926080763
2024-09-23 05:31:05.506008,41.93,21.288849,-0.014269113479890346,0.018659531766364576,1.00969310686615,0.3149550229238346,-1.1549687530383468,-1.3956111311383546
2024-09-23 05:31:05.549266,41.93,21.2889,-0.014269113479890346,0.018659531766364576,1.00969310686615,0.3149550229238346,-1.207451731943339,-1.3693696416858583
2024-09-23 05:31:05.560885,41.93,21.2889,-0.01695219134944173,0.02048899031317319,1.015973941752427,0.3149550229238346,-1.207451731943339,-1.3693696416858583
2024-09-23 05:31:05.603506,41.81,21.288951,-0.011890927646745842,0.017622936513202757,1.015973941752427,0.3237212803733535,-1.1899764732599258,-1.3956111311383546
2024-09-23 05:31:05.645986,41.81,21.288951,-0.011890927646745842,0.017622936513202757,1.0133517748475924,0.3193667930966243,-1.1899764732599258,-1.3956111311383546
2024-09-23 05:31:05.657821,41.81,21.289002,-0.016525279916633037,0.017622936513202757,1.0133517748475924,0.3193667930966243,-1.1024857741333545,-1.3649578715130686
2024-09-23 05:31:05.701250,41.81,21.28909,-0.016525279916633037,0.01835463821098102,1.0151202039495033,0.37184974532118065,-1.203097164625302,-1.3737241022821516
2024-09-23 05:31:05.743616,41.81,21.28909,-0.015000815177668611,0.020306014382754138,1.0162178529511898,0.37184974532118065,-1.203097164625302,-1.3737241022821516
2024-09-23 05:31:05.755451,41.81,21.28909,-0.015000815177668611,0.020306014382754138,1.0162178529511898,0.3849704900474288,-1.1506142924420535,-1.3606034109167755
2024-09-23 05:31:05.798520,41.81,21.289141,-0.014391029585878175,0.020793883868556746,1.013778546534547,0.41121195281948897,-1.0718325145080685,-1.3606034109167755
2024-09-23 05:31:05.840508,41.81,21.289192,-0.014391029585878175,0.020793883868556746,1.013778546534547,0.41121195281948897,-1.0718325145080685,-1.3080631224352866
2024-09-23 05:31:05.851868,41.81,21.289192,-0.014574005516297226,0.01798878660260355,1.0090832802619896,0.3324875378228724,-1.0718325145080685,-1.3080631224352866
2024-09-23 05:31:05.946420,41.81,21.289243,-0.012866564846913748,0.02122069352992813,1.0090832802619896,0.3324875378228724,-1.0630662837389857,-1.3737241022821516
2024-09-23 05:31:05.989870,41.81,21.289243,-0.012866564846913748,0.02122069352992813,1.0143883731387076,0.31060053564710544,-1.1199610328167677,-1.518109550486505
2024-09-23 05:31:06.000969,41.81,21.289294,-0.014391029585878175,0.02122069352992813,1.0143883731387076,0.31060053564710544,-1.1199610328167677,-1.518109550486505
2024-09-23 05:31:06.032724,41.81,21.289294,-0.014391029585878175,0.021037716080532405,1.0143883731387076,0.31060053564710544,-1.1199610328167677,-1.518109550486505
2024-09-23 05:31:06.044533,41.81,21.289344,-0.014391029585878175,0.021037716080532405,1.015546975636458,0.29747979092085736,-1.1549687530383468,-1.469981032177806
2024-09-23 05:31:06.086702,41.81,21.289344,-0.009329765883182288,0.02097675802753849,1.0102418827597397,0.3018342781975865,-1.1549687530383468,-1.469981032177806
2024-09-23 05:31:06.098529,41.81,21.289344,-0.009329765883182288,0.02097675802753849,1.0102418827597397,0.3018342781975865,-1.1943309338562191,-1.461214801408723
2024-09-23 05:31:06.131172,41.81,21.289431,-0.009329765883182288,0.02097675802753849,1.0102418827597397,0.3018342781975865,-1.1943309338562191,-1.461214801408723
2024-09-23 05:31:06.142994,41.81,21.289431,-0.014269113479890346,0.02048899031317319,1.0083514494511938,0.3237212803733535,-1.1156065722204744,-1.461214801408723
2024-09-23 05:31:06.186446,41.81,21.289529,-0.01378124399408774,0.019818144896951533,1.0104247432479314,0.3237212803733535,-1.1156065722204744,-1.3956111311383546
2024-09-23 05:31:06.198884,41.81,21.289529,-0.01378124399408774,0.019818144896951533,1.0104247432479314,0.4287444677185267,-1.1156065722204744,-1.3956111311383546
2024-09-23 05:31:06.231881,41.81,21.289529,-0.01378124399408774,0.019818144896951533,1.0104247432479314,0.4287444677185267,-1.15932321363464,-1.3387163820605725
2024-09-23 05:31:06.242915,41.81,21.289581,-0.013049540777332799,0.01926931735815501,1.0109126628599643,0.4287444677185267,-1.15932321363464,-1.3387163820605725
2024-09-23 05:31:06.284983,41.81,21.289632,-0.011586034850850625,0.023476961738108128,1.0109126628599643,0.3630834878716618,-1.1506142924420535,-1.3868447936475277
2024-09-23 05:31:06.327806,41.81,21.289632,-0.011586034850850625,0.023476961738108128,1.0119492611510794,0.3324875378228724,-1.1506142924420535,-1.3868447936475277
2024-09-23 05:31:06.339958,41.81,21.289683,-0.012378695361111141,0.023476961738108128,1.0119492611510794,0.3324875378228724,-1.1855647030871361,-1.4174980532728136
2024-09-23 05:31:06.382822,41.81,21.289683,-0.012378695361111141,0.020245056329760223,1.0132908213515286,0.3411964856958948,-1.207451731943339,-1.5005769822265953
2024-09-23 05:31:06.394315,41.81,21.289772,-0.012378695361111141,0.020245056329760223,1.0132908213515286,0.3411964856958948,-1.207451731943339,-1.5005769822265953
2024-09-23 05:31:06.477624,41.81,21.289772,-0.016281345933220073,0.018781549643789714,1.0165227176460165,0.39373674749694765,-1.207451731943339,-1.5005769822265953
2024-09-23 05:31:06.489262,41.81,21.289772,-0.016281345933220073,0.018781549643789714,1.0165227176460165,0.39373674749694765,-1.1812102424908428,-1.4218526205908506
2024-09-23 05:31:06.522771,41.81,21.289824,-0.012378695361111141,0.018781549643789714,1.0165227176460165,0.39373674749694765,-1.1812102424908428,-1.4218526205908506
2024-09-23 05:31:06.533835,41.81,21.289824,-0.012378695361111141,0.019452293288574063,1.0124370835486052,0.27123832814879717,-1.216217962712422,-1.4218526205908506
2024-09-23 05:31:06.576521,41.81,21.289875,-0.013720285941093825,0.019818144896951533,1.011095523348156,0.27123832814879717,-1.216217962712422,-1.4568603408124299
2024-09-23 05:31:06.588833,41.81,21.289875,-0.013720285941093825,0.019818144896951533,1.011095523348156,0.3280757409696467,-1.216217962712422,-1.4568603408124299
2024-09-23 05:31:06.621914,41.43,21.289925,-0.013720285941093825,0.019818144896951533,1.011095523348156,0.3280757409696467,-1.1068402347296475,-1.3606034109167755
2024-09-23 05:31:06.632980,41.43,21.289925,-0.014512945691866003,0.021098777423940302,1.0162788064472537,0.3280757409696467,-1.1068402347296475,-1.3606034109167755
2024-09-23 05:31:06.675029,41.43,21.289976,-0.015610600769459046,0.020001120827370582,1.0162788064472537,0.3149550229238346,-1.1374934943549335,-1.3343619214642792
2024-09-23 05:31:06.717137,41.43,21.289976,-0.015610600769459046,0.020001120827370582,1.0157299333391567,0.3280757409696467,-1.1374934943549335,-1.3343619214642792
2024-09-23 05:31:06.728949,41.43,21.290068,-0.015244750680058252,0.020001120827370582,1.0157299333391567,0.3280757409696467,-1.1637349838074296,-1.3387163820605725
2024-09-23 05:31:06.772217,41.43,21.290162,-0.015244750680058252,0.020001120827370582,1.0115223922496177,0.3849704900474288,-1.1287272635858505,-1.496222521630302
2024-09-23 05:31:06.814602,41.43,21.290162,-0.013537308491698099,0.02048899031317319,1.0115223922496177,0.3849704900474288,-1.1287272635858505,-1.496222521630302
2024-09-23 05:31:06.826428,41.43,21.290162,-0.013537308491698099,0.02048899031317319,1.010668654446694,0.3324875378228724,-1.0674780539117754,-1.3824903330512346
2024-09-23 05:31:06.869310,41.43,21.290214,-0.015793578218854774,0.019086441680196593,1.0143883731387076,0.3324875378228724,-1.0674780539117754,-1.3824903330512346
2024-09-23 05:31:06.912098,41.43,21.290214,-0.015793578218854774,0.019086441680196593,1.0143883731387076,0.3237212803733535,-1.1156065722204744,-1.3824903330512346
2024-09-23 05:31:06.923385,41.43,21.290265,-0.012134760618209839,0.02067186599113161,1.0143883731387076,0.3237212803733535,-1.1156065722204744,-1.3999655917346479
2024-09-23 05:31:06.966866,41.43,21.290315,-0.012134760618209839,0.02067186599113161,1.014022554947817,0.29747979092085736,-1.1068402347296475,-1.4218526205908506
2024-09-23 05:31:06.978997,41.43,21.290315,-0.013232416455291218,0.02067186599113161,1.014022554947817,0.29747979092085736,-1.1068402347296475,-1.4218526205908506
2024-09-23 05:31:07.011904,41.43,21.290315,-0.013232416455291218,0.020366972435748053,1.0131078636488298,0.37620423259790986,-1.1068402347296475,-1.4218526205908506
2024-09-23 05:31:07.023376,41.43,21.290366,-0.013232416455291218,0.020366972435748053,1.0131078636488298,0.37620423259790986,-1.0937195433642715,-1.413086283100024
2024-09-23 05:31:07.066307,41.43,21.290366,-0.015427726610477303,0.020366972435748053,1.0136566395424191,0.2537058132497594,-1.0849533125951887,-1.4568603408124299
2024-09-23 05:31:07.108723,41.43,21.290417,-0.016403363810645208,0.020366972435748053,1.0136566395424191,0.2537058132497594,-1.0849533125951887,-1.4568603408124299
2024-09-23 05:31:07.120940,41.43,21.290417,-0.016403363810645208,0.020366972435748053,1.0125589905407328,0.3456082558686845,-1.1680894444037229,-1.4568603408124299
2024-09-23 05:31:07.164672,41.43,21.290505,-0.013354434332716355,0.01750101888823825,1.0149372462468045,0.37620423259790986,-1.1680894444037229,-1.3649578715130686
2024-09-23 05:31:07.206974,41.43,21.290556,-0.013354434332716355,0.01750101888823825,1.0149372462468045,0.37620423259790986,-1.1680894444037229,-1.3387163820605725
2024-09-23 05:31:07.218412,41.43,21.290556,-0.01481783924724956,0.018781549643789714,1.0149982969573756,0.37620423259790986,-1.1680894444037229,-1.3387163820605725
2024-09-23 05:31:07.261243,41.43,21.290607,-0.013293374508285133,0.02097675802753849,1.0149982969573756,0.3411964856958948,-1.1199610328167677,-1.448094003321603
2024-09-23 05:31:07.304377,41.43,21.290607,-0.013293374508285133,0.02097675802753849,1.012925003160638,0.3280757409696467,-1.0455910250555724,-1.448094003321603
2024-09-23 05:31:07.316058,41.43,21.290657,-0.014695923141261731,0.02097675802753849,1.012925003160638,0.3280757409696467,-1.0455910250555724,-1.3430708426568656
2024-09-23 05:31:07.358546,41.43,21.290747,-0.014695923141261731,0.02201345505213762,1.0125589905407328,0.27123832814879717,-1.15932321363464,-1.2905878637518733
2024-09-23 05:31:07.401177,41.43,21.290747,-0.01268358815700636,0.02176952106872465,1.0131078636488298,0.27123832814879717,-1.15932321363464,-1.2905878637518733
2024-09-23 05:31:07.412149,41.43,21.290747,-0.01268358815700636,0.02176952106872465,1.0131078636488298,0.3411964856958948,-1.0762442846808582,-1.4874562908612192
2024-09-23 05:31:07.454003,41.43,21.290799,-0.011707950956838454,0.02152558556633501,1.0146322843374704,0.3149550229238346,-1.0762442846808582,-1.4874562908612192
2024-09-23 05:31:07.465995,41.43,21.290799,-0.011707950956838454,0.02152558556633501,1.0146322843374704,0.3149550229238346,-1.1812102424908428,-1.4874562908612192
2024-09-23 05:31:07.498501,41.43,21.29085,-0.011707950956838454,0.02152558556633501,1.0146322843374704,0.3149550229238346,-1.1812102424908428,-1.5136977803137153
2024-09-23 05:31:07.510336,41.43,21.29085,-0.015122834574070423,0.019330377182586234,1.0149372462468045,0.26247207069927825,-1.1812102424908428,-1.5136977803137153
2024-09-23 05:31:07.553571,41.43,21.290901,-0.015427726610477303,0.02213537267710212,1.0149982969573756,0.26247207069927825,-1.1068402347296475,-1.4087318225037306
2024-09-23 05:31:07.596405,41.43,21.290901,-0.015427726610477303,0.02213537267710212,1.0149982969573756,0.2581175834225491,-1.1199610328167677,-1.4568603408124299
2024-09-23 05:31:07.608426,41.43,21.290952,-0.014391029585878175,0.02134260963591596,1.0149982969573756,0.2581175834225491,-1.1199610328167677,-1.4568603408124299
2024-09-23 05:31:07.650883,41.22,21.290952,-0.014391029585878175,0.02134260963591596,1.0115833457456815,0.3062460483703762,-1.1199610328167677,-1.4568603408124299
2024-09-23 05:31:07.693329,41.22,21.290952,-0.014391029585878175,0.02134260963591596,1.0115833457456815,0.3062460483703762,-1.0937195433642715,-1.5005769822265953
2024-09-23 05:31:07.705253,41.22,21.291002,-0.013354434332716355,0.020366972435748053,1.0157299333391567,0.3062460483703762,-1.0937195433642715,-1.5005769822265953
2024-09-23 05:31:07.789409,41.22,21.291002,-0.013354434332716355,0.020366972435748053,1.0157299333391567,0.3368419984191656,-1.0937195433642715,-1.5005769822265953
2024-09-23 05:31:07.800988,41.22,21.291089,-0.016830173472016593,0.01926931735815501,1.0157299333391567,0.3368419984191656,-1.1330817241821438,-1.43932777255252
2024-09-23 05:31:07.843584,41.22,21.29114,-0.016830173472016593,0.01926931735815501,1.0157908868352208,0.3193667930966243,-1.0893650827679784,-1.3824903330512346
2024-09-23 05:31:07.855697,41.22,21.29114,-0.011890927646745842,0.01926931735815501,1.0157908868352208,0.3193667930966243,-1.0893650827679784,-1.3824903330512346
2024-09-23 05:31:07.888270,41.22,21.29114,-0.011890927646745842,0.020732824044125523,1.0083514494511938,0.3193667930966243,-1.0893650827679784,-1.3824903330512346
2024-09-23 05:31:07.899339,41.22,21.291191,-0.011890927646745842,0.020732824044125523,1.0083514494511938,0.3368419984191656,-1.224984193481505,-1.4174980532728136
2024-09-23 05:31:07.941251,41.22,21.291191,-0.01408613603049462,0.020732824044125523,1.0083514494511938,0.3368419984191656,-1.224984193481505,-1.4174980532728136
2024-09-23 05:31:07.984498,41.22,21.291191,-0.01408613603049462,0.019452293288574063,1.0083514494511938,0.3368419984191656,-1.224984193481505,-1.4174980532728136
2024-09-23 05:31:07.996599,41.22,21.291284,-0.01408613603049462,0.019452293288574063,1.0134127283436565,0.3280757409696467,-1.224984193481505,-1.434973311956227
2024-09-23 05:31:08.039044,41.22,21.291284,-0.015305708733052167,0.01835463821098102,1.0164616669354454,0.38061600277069957,-1.0937195433642715,-1.434973311956227
2024-09-23 05:31:08.051127,41.22,21.291284,-0.015305708733052167,0.01835463821098102,1.0164616669354454,0.38061600277069957,-1.0937195433642715,-1.3255955839734523
2024-09-23 05:31:08.082775,41.22,21.291382,-0.011403058160943235,0.01835463821098102,1.0164616669354454,0.38061600277069957,-1.0937195433642715,-1.3255955839734523
2024-09-23 05:31:08.094562,41.22,21.291382,-0.011403058160943235,0.020366972435748053,1.0162788064472537,0.4636949317244813,-1.0849533125951887,-1.3255955839734523
2024-09-23 05:31:08.138242,41.22,21.291433,-0.01365932788809991,0.018598572194393984,1.0160348952484908,0.3062460483703762,-1.0849533125951887,-1.4218526205908506
2024-09-23 05:31:08.180755,41.22,21.291433,-0.01365932788809991,0.018598572194393984,1.0160348952484908,0.3062460483703762,-1.1987427040290088,-1.4437395427253097
2024-09-23 05:31:08.192198,41.22,21.291484,-0.01481783924724956,0.016769215419022678,1.0129859566567019,0.3062460483703762,-1.1987427040290088,-1.4437395427253097
2024-09-23 05:31:08.234051,41.22,21.291578,-0.013354434332716355,0.016769215419022678,1.0129859566567019,0.4593404177673161,-1.0980740039605648,-1.4306188513599336
2024-09-23 05:31:08.246261,41.22,21.291578,-0.013354434332716355,0.019818144896951533,1.0129859566567019,0.4593404177673161,-1.0980740039605648,-1.4306188513599336
2024-09-23 05:31:08.278093,41.22,21.291578,-0.013354434332716355,0.019818144896951533,1.0107906586533293,0.3149550229238346,-1.0980740039605648,-1.4306188513599336
2024-09-23 05:31:08.290034,41.22,21.291629,-0.011342100107949322,0.019818144896951533,1.0107906586533293,0.3149550229238346,-1.1199610328167677,-1.4437395427253097
2024-09-23 05:31:08.333109,41.22,21.291722,-0.011342100107949322,0.01768389456619667,1.0132298678554648,0.3018342781975865,-1.216217962712422,-1.404320052330941
2024-09-23 05:31:08.375277,41.22,21.291722,-0.01365932788809991,0.018415698035412244,1.0132298678554648,0.3018342781975865,-1.216217962712422,-1.404320052330941
2024-09-23 05:31:08.387335,41.22,21.291722,-0.01365932788809991,0.018415698035412244,1.0112784810508548,0.2668265312955715,-1.1374934943549335,-1.3212411233771593
2024-09-23 05:31:08.430862,41.22,21.291774,-0.014208053655459124,0.0173180429578192,1.0140835084438808,0.3018342781975865,-1.1024857741333545,-1.3212411233771593
2024-09-23 05:31:08.474753,41.22,21.291825,-0.01378124399408774,0.0173180429578192,1.0140835084438808,0.3018342781975865,-1.1024857741333545,-1.3562488435987383
2024-09-23 05:31:08.486462,41.22,21.291825,-0.01378124399408774,0.01963527073796979,1.0087173648565917,0.27559278874509036,-1.1024857741333545,-1.3562488435987383
2024-09-23 05:31:08.519255,41.22,21.291825,-0.01378124399408774,0.01963527073796979,1.0087173648565917,0.27559278874509036,-1.1111946953259408,-1.3562488435987383
2024-09-23 05:31:08.530762,41.22,21.291875,-0.013903160100075569,0.01768389456619667,1.0091442337580534,0.27559278874509036,-1.1111946953259408,-1.3824903330512346
2024-09-23 05:31:08.572734,41.22,21.291926,-0.013903160100075569,0.01768389456619667,1.0091442337580534,0.3062460483703762,-1.1068402347296475,-1.4306188513599336
2024-09-23 05:31:08.584268,41.22,21.291926,-0.011342100107949322,0.01823272210499319,1.0091442337580534,0.3062460483703762,-1.1068402347296475,-1.4306188513599336
2024-09-23 05:31:08.616351,41.22,21.291926,-0.011342100107949322,0.01823272210499319,1.0109736163560281,0.3062460483703762,-1.1068402347296475,-1.4306188513599336
2024-09-23 05:31:08.627988,41.22,21.291977,-0.012927522899907663,0.01823272210499319,1.0109736163560281,0.3193667930966243,-1.014995075006783,-1.3212411233771593
2024-09-23 05:31:08.670263,41.3,21.291977,-0.012927522899907663,0.022318348607521174,1.0113394345469187,0.38061600277069957,-1.1637349838074296,-1.3212411233771593
2024-09-23 05:31:08.681910,41.3,21.292064,-0.012927522899907663,0.022318348607521174,1.0113394345469187,0.38061600277069957,-1.1637349838074296,-1.3911993609655648
2024-09-23 05:31:08.714003,41.3,21.292064,-0.014269113479890346,0.022318348607521174,1.0113394345469187,0.38061600277069957,-1.1637349838074296,-1.3911993609655648
2024-09-23 05:31:08.725340,41.3,21.292064,-0.014269113479890346,0.02122069352992813,1.0153641151482662,0.3368419984191656,-1.0324703336901964,-1.3387163820605725
2024-09-23 05:31:08.767806,41.3,21.292115,-0.014878899071680782,0.017074107455429557,1.014205512650516,0.3368419984191656,-1.0324703336901964,-1.3387163820605725
2024-09-23 05:31:08.779469,41.3,21.292115,-0.014878899071680782,0.017074107455429557,1.014205512650516,0.2318188110739924,-1.1199610328167677,-1.3387163820605725
2024-09-23 05:31:08.811740,41.3,21.292115,-0.014878899071680782,0.017074107455429557,1.014205512650516,0.2318188110739924,-1.1199610328167677,-1.426207081187144
2024-09-23 05:31:08.822891,41.3,21.292166,-0.016281345933220073,0.020306014382754138,1.0136566395424191,0.2362305812467821,-1.1199610328167677,-1.426207081187144
2024-09-23 05:31:08.865903,41.3,21.292217,-0.01481783924724956,0.020306014382754138,1.0136566395424191,0.2362305812467821,-1.0455910250555724,-1.4655692620050162
2024-09-23 05:31:08.877882,41.3,21.292217,-0.01481783924724956,0.020915799974544576,1.0089003225592905,0.2362305812467821,-1.0455910250555724,-1.4655692620050162
2024-09-23 05:31:08.910425,41.3,21.292217,-0.01481783924724956,0.020915799974544576,1.0089003225592905,0.3674952580444515,-1.0455910250555724,-1.4655692620050162
2024-09-23 05:31:08.921433,41.3,21.292267,-0.011707950956838454,0.018659531766364576,1.0089003225592905,0.3674952580444515,-1.1855647030871361,-1.491868061034009
2024-09-23 05:31:08.964161,41.3,21.292318,-0.011707950956838454,0.018659531766364576,1.0091442337580534,0.38061600277069957,-1.0893650827679784,-1.4174980532728136
2024-09-23 05:31:08.975920,41.3,21.292318,-0.015244750680058252,0.018659531766364576,1.0091442337580534,0.38061600277069957,-1.0893650827679784,-1.4174980532728136
2024-09-23 05:31:09.060213,41.3,21.292318,-0.015244750680058252,0.020610907938137694,1.0139006479556893,0.41121195281948897,-1.0893650827679784,-1.4174980532728136
2024-09-23 05:31:09.071798,41.3,21.292405,-0.015244750680058252,0.020610907938137694,1.0139006479556893,0.41121195281948897,-1.1680894444037229,-1.3999655917346479
2024-09-23 05:31:09.104222,41.3,21.292405,-0.01481783924724956,0.020610907938137694,1.0139006479556893,0.41121195281948897,-1.1680894444037229,-1.3999655917346479
2024-09-23 05:31:09.116564,41.3,21.292405,-0.01481783924724956,0.023537919791102042,1.0075587623588413,0.3674952580444515,-1.259991913703084,-1.426207081187144
2024-09-23 05:31:09.160141,41.3,21.292456,-0.013354434332716355,0.019025483627202678,1.0116442992417454,0.2405850685235113,-1.259991913703084,-1.426207081187144
2024-09-23 05:31:09.172335,41.3,21.292456,-0.013354434332716355,0.019025483627202678,1.0116442992417454,0.2405850685235113,-1.1768557818945498,-1.426207081187144
2024-09-23 05:31:09.204809,41.3,21.292507,-0.014695923141261731,0.019025483627202678,1.0116442992417454,0.2405850685235113,-1.1768557818945498,-1.3606034109167755
2024-09-23 05:31:09.216141,41.3,21.292507,-0.014695923141261731,0.021098777423940302,1.0150592504534395,0.3324875378228724,-1.1768557818945498,-1.3606034109167755
2024-09-23 05:31:09.258693,41.3,21.292558,-0.01445198763887209,0.02201345505213762,1.0139006479556893,0.3324875378228724,-1.0805987452771515,-1.404320052330941
2024-09-23 05:31:09.301359,41.3,21.292558,-0.01445198763887209,0.02201345505213762,1.0139006479556893,0.31060053564710544,-1.224984193481505,-1.404320052330941
2024-09-23 05:31:09.313204,41.3,21.292651,-0.012866564846913748,0.021952496999143704,1.0139006479556893,0.31060053564710544,-1.224984193481505,-1.4524485706396402
2024-09-23 05:31:09.396728,41.3,21.292651,-0.012866564846913748,0.021952496999143704,1.0099979715609768,0.31060053564710544,-1.224984193481505,-1.4524485706396402
2024-09-23 05:31:09.408612,41.3,21.292702,-0.013354434332716355,0.021952496999143704,1.0099979715609768,0.3674952580444515,-1.203097164625302,-1.4218526205908506
2024-09-23 05:31:09.450686,41.3,21.292702,-0.013354434332716355,0.020306014382754138,1.0117664006628877,0.27994727602181957,-1.1549687530383468,-1.4218526205908506
2024-09-23 05:31:09.462784,41.3,21.292795,-0.013354434332716355,0.020306014382754138,1.0117664006628877,0.27994727602181957,-1.1549687530383468,-1.3606034109167755
2024-09-23 05:31:09.495451,41.3,21.292795,-0.01573262016586086,0.020306014382754138,1.0117664006628877,0.27994727602181957,-1.1549687530383468,-1.3606034109167755
2024-09-23 05:31:09.507283,41.3,21.292795,-0.01573262016586086,0.021281651582922046,1.0091442337580534,0.2668265312955715,-1.1330817241821438,-1.2862334031555802
2024-09-23 05:31:09.592461,41.3,21.292846,-0.01573262016586086,0.021281651582922046,1.0091442337580534,0.2668265312955715,-1.1330817241821438,-1.2862334031555802
2024-09-23 05:31:09.604225,41.3,21.292846,-0.01396421992450679,0.02085484192155066,1.0134127283436565,0.3149550229238346,-1.1462025222692638,-1.2862334031555802
2024-09-23 05:31:09.647565,41.3,21.292897,-0.012744546969488612,0.01798878660260355,1.0140835084438808,0.3149550229238346,-1.1462025222692638,-1.2555801435302942
2024-09-23 05:31:09.659621,41.3,21.292897,-0.012744546969488612,0.01798878660260355,1.0140835084438808,0.27994727602181957,-1.1462025222692638,-1.2555801435302942
2024-09-23 05:31:09.691172,41.4,21.292897,-0.012744546969488612,0.01798878660260355,1.0140835084438808,0.27994727602181957,-1.1506142924420535,-1.3343619214642792
2024-09-23 05:31:09.743560,41.4,21.292992,-0.014269113479890346,0.018415698035412244,1.0107906586533293,0.27994727602181957,-1.1506142924420535,-1.3343619214642792
2024-09-23 05:31:09.755438,41.4,21.292992,-0.014269113479890346,0.018415698035412244,1.0107906586533293,0.27994727602181957,-1.1243154934130608,-1.3343619214642792
2024-09-23 05:31:09.789610,41.4,21.293042,-0.014269113479890346,0.018415698035412244,1.0107906586533293,0.27994727602181957,-1.1243154934130608,-1.4568603408124299
2024-09-23 05:31:09.801866,41.4,21.293042,-0.013842202047081654,0.021708563015730736,1.0148762927507406,0.3062460483703762,-1.1243154934130608,-1.4568603408124299
2024-09-23 05:31:09.843919,41.4,21.293093,-0.014878899071680782,0.020732824044125523,1.0138396944596255,0.3062460483703762,-1.0368247942864894,-1.4174980532728136
2024-09-23 05:31:09.886553,41.4,21.293093,-0.014878899071680782,0.020732824044125523,1.0138396944596255,0.28871353347133843,-1.1462025222692638,-1.4174980532728136
2024-09-23 05:31:09.898237,41.4,21.293234,-0.01378124399408774,0.022928134199311608,1.0138396944596255,0.28871353347133843,-1.1462025222692638,-1.3649578715130686
2024-09-23 05:31:09.940533,41.4,21.293284,-0.01378124399408774,0.022928134199311608,1.0117664006628877,0.3324875378228724,-1.1111946953259408,-1.3956111311383546
2024-09-23 05:31:09.952330,41.4,21.293284,-0.009939551474972724,0.022928134199311608,1.0117664006628877,0.3324875378228724,-1.1111946953259408,-1.3956111311383546
2024-09-23 05:31:09.985623,41.4,21.293284,-0.009939551474972724,0.020732824044125523,1.013778546534547,0.29306802074806765,-1.1111946953259408,-1.3956111311383546
2024-09-23 05:31:09.996746,41.4,21.29338,-0.009939551474972724,0.020732824044125523,1.013778546534547,0.29306802074806765,-1.0937195433642715,-1.404320052330941
2024-09-23 05:31:10.039318,41.4,21.29338,-0.012988480952901577,0.020427930488741967,1.0148762927507406,0.29747979092085736,-1.1506142924420535,-1.43932777255252
2024-09-23 05:31:10.081473,41.4,21.293431,-0.013842202047081654,0.020427930488741967,1.0148762927507406,0.29747979092085736,-1.1506142924420535,-1.43932777255252
2024-09-23 05:31:10.093809,41.4,21.293431,-0.013842202047081654,0.02134260963591596,1.0120102146471432,0.3062460483703762,-1.1199610328167677,-1.43932777255252
2024-09-23 05:31:10.136971,41.4,21.293482,-0.013354434332716355,0.019818144896951533,1.015486022140394,0.3237212803733535,-1.1199610328167677,-1.469981032177806
2024-09-23 05:31:10.180307,41.4,21.293533,-0.013354434332716355,0.019818144896951533,1.015486022140394,0.3237212803733535,-0.971221124016121,-1.3868447936475277
2024-09-23 05:31:10.191982,41.4,21.293533,-0.01768389456619667,0.020915799974544576,1.0131688171448936,0.3237212803733535,-0.971221124016121,-1.3868447936475277
2024-09-23 05:31:10.234207,41.4,21.293584,-0.013842202047081654,0.018598572194393984,1.0131688171448936,0.3280757409696467,-1.0937195433642715,-1.448094003321603
2024-09-23 05:31:10.276604,41.4,21.293584,-0.013842202047081654,0.018598572194393984,1.0139006479556893,0.3368419984191656,-1.0937195433642715,-1.448094003321603
2024-09-23 05:31:10.288849,41.4,21.293634,-0.012317737308117227,0.018598572194393984,1.0139006479556893,0.3368419984191656,-1.1680894444037229,-1.4218526205908506
2024-09-23 05:31:10.331955,41.4,21.293721,-0.012317737308117227,0.020549948366167105,1.01426646614658,0.3193667930966243,-1.0762442846808582,-1.434973311956227
2024-09-23 05:31:10.374199,41.4,21.293721,-0.01445198763887209,0.019696228790963704,1.01426646614658,0.3193667930966243,-1.0762442846808582,-1.434973311956227
2024-09-23 05:31:10.386150,41.4,21.293721,-0.01445198763887209,0.019696228790963704,1.0116442992417454,0.3018342781975865,-1.1287272635858505,-1.448094003321603
2024-09-23 05:31:10.429322,41.4,21.293773,-0.01268358815700636,0.020427930488741967,1.0150592504534395,0.24935132597303017,-1.1024857741333545,-1.448094003321603
2024-09-23 05:31:10.471632,41.4,21.293823,-0.01268358815700636,0.020427930488741967,1.0150592504534395,0.24935132597303017,-1.1024857741333545,-1.3518370734259486
2024-09-23 05:31:10.483447,41.4,21.293823,-0.014208053655459124,0.01811080599900536,1.014205512650516,0.3411964856958948,-1.1024857741333545,-1.3518370734259486
2024-09-23 05:31:10.526195,41.4,21.293874,-0.014512945691866003,0.019696228790963704,1.014205512650516,0.3411964856958948,-1.1111946953259408,-1.448094003321603
2024-09-23 05:31:10.538010,41.4,21.293874,-0.014512945691866003,0.019696228790963704,1.009266140750181,0.3411964856958948,-1.1111946953259408,-1.448094003321603
2024-09-23 05:31:10.569884,41.4,21.293874,-0.014512945691866003,0.019696228790963704,1.009266140750181,0.29306802074806765,-1.2118635021161288,-1.448094003321603
2024-09-23 05:31:10.581885,41.4,21.293925,-0.01268358815700636,0.018964423802771455,1.009266140750181,0.29306802074806765,-1.2118635021161288,-1.4874562908612192
2024-09-23 05:31:10.625627,41.4,21.293976,-0.012744546969488612,0.018964423802771455,1.0160958487445546,0.39373674749694765,-1.224984193481505,-1.3693696416858583
2024-09-23 05:31:10.668221,41.4,21.293976,-0.012744546969488612,0.018842507696783625,1.0161568022406187,0.3674952580444515,-1.224984193481505,-1.3693696416858583
2024-09-23 05:31:10.679393,41.4,21.294063,-0.012744546969488612,0.018842507696783625,1.0161568022406187,0.3674952580444515,-1.0237041029211134,-1.4218526205908506
2024-09-23 05:31:10.722157,41.31,21.294063,-0.01256167205101853,0.02280611632188647,1.0131688171448936,0.2668265312955715,-0.9624548932470381,-1.3868447936475277
2024-09-23 05:31:10.764448,41.31,21.294114,-0.014574005516297226,0.02280611632188647,1.0131688171448936,0.2668265312955715,-0.9624548932470381,-1.3868447936475277
2024-09-23 05:31:10.775781,41.31,21.294114,-0.014574005516297226,0.01975718684395762,1.0145713308414066,0.27123832814879717,-1.1068402347296475,-1.3868447936475277
2024-09-23 05:31:10.819821,41.31,21.294165,-0.014391029585878175,0.021464627513341095,1.0138396944596255,0.2581175834225491,-1.1068402347296475,-1.3999655917346479
2024-09-23 05:31:10.862835,41.31,21.294216,-0.014391029585878175,0.021464627513341095,1.0138396944596255,0.2581175834225491,-1.0937195433642715,-1.4218526205908506
2024-09-23 05:31:10.874510,41.31,21.294216,-0.01481783924724956,0.020732824044125523,1.0163397599433175,0.2581175834225491,-1.0937195433642715,-1.4218526205908506
2024-09-23 05:31:10.917174,41.31,21.294266,-0.015671560341429636,0.020062078880364497,1.0163397599433175,0.3018342781975865,-1.1680894444037229,-1.448094003321603
2024-09-23 05:31:10.960295,41.31,21.294266,-0.015671560341429636,0.020062078880364497,1.0120712653577144,0.3280757409696467,-1.1330817241821438,-1.448094003321603
2024-09-23 05:31:10.971849,41.31,21.294317,-0.01408613603049462,0.020062078880364497,1.0120712653577144,0.3280757409696467,-1.1330817241821438,-1.404320052330941
2024-09-23 05:31:11.013891,41.31,21.294317,-0.01408613603049462,0.017379001010813116,1.010668654446694,0.3280757409696467,-1.1330817241821438,-1.404320052330941
2024-09-23 05:31:11.056303,41.31,21.294317,-0.01408613603049462,0.017379001010813116,1.010668654446694,0.28871353347133843,-1.1156065722204744,-1.404320052330941
2024-09-23 05:31:11.109036,41.31,21.294404,-0.012866564846913748,0.017379001010813116,1.010668654446694,0.28871353347133843,-1.1156065722204744,-1.3255955839734523
2024-09-23 05:31:11.120701,41.31,21.294404,-0.012866564846913748,0.02225739055452726,1.0131078636488298,0.3149550229238346,-1.1156065722204744,-1.3255955839734523
2024-09-23 05:31:11.154057,41.31,21.294404,-0.012866564846913748,0.02225739055452726,1.0131078636488298,0.3149550229238346,-1.1156065722204744,-1.4568603408124299
2024-09-23 05:31:11.165294,41.31,21.294456,-0.014391029585878175,0.01890346574977754,1.0149982969573756,0.3149550229238346,-1.1156065722204744,-1.4568603408124299
2024-09-23 05:31:11.208194,41.31,21.294507,-0.011403058160943235,0.01890346574977754,1.0149982969573756,0.3456082558686845,-1.207451731943339,-1.4087318225037306
2024-09-23 05:31:11.219860,41.31,21.294507,-0.011403058160943235,0.020245056329760223,1.0149982969573756,0.3456082558686845,-1.207451731943339,-1.4087318225037306
2024-09-23 05:31:11.253065,41.31,21.294507,-0.011403058160943235,0.020245056329760223,1.013778546534547,0.3149550229238346,-1.1199610328167677,-1.4087318225037306
2024-09-23 05:31:11.264671,41.31,21.294557,-0.015427726610477303,0.020245056329760223,1.013778546534547,0.3149550229238346,-1.1199610328167677,-1.3868447936475277
2024-09-23 05:31:11.307374,41.31,21.294649,-0.015427726610477303,0.02097675802753849,1.0145103773453428,0.19245659023546613,-1.1549687530383468,-1.3606034109167755
2024-09-23 05:31:11.350011,41.31,21.294649,-0.014756881194255646,0.021098777423940302,1.0120102146471432,0.19245659023546613,-1.1549687530383468,-1.3606034109167755
2024-09-23 05:31:11.361241,41.31,21.294649,-0.014756881194255646,0.021098777423940302,1.0120102146471432,0.3018342781975865,-1.0499454856518655,-1.3824903330512346
2024-09-23 05:31:11.403501,41.31,21.294746,-0.010915188675140628,0.019208359305161096,1.0100589250570406,0.2668265312955715,-1.1506142924420535,-1.3824903330512346
2024-09-23 05:31:11.445939,41.31,21.294797,-0.010915188675140628,0.019208359305161096,1.0100589250570406,0.2668265312955715,-1.1506142924420535,-1.4087318225037306
2024-09-23 05:31:11.457820,41.31,21.294797,-0.017561976941232165,0.01926931735815501,1.01231507934197,0.3018342781975865,-1.1506142924420535,-1.4087318225037306
2024-09-23 05:31:11.500013,41.31,21.294848,-0.009146789193274898,0.017074107455429557,1.01231507934197,0.3018342781975865,-1.15932321363464,-1.413086283100024
2024-09-23 05:31:11.511701,41.31,21.294848,-0.009146789193274898,0.017074107455429557,1.0148152420401695,0.3018342781975865,-1.15932321363464,-1.413086283100024
2024-09-23 05:31:11.544111,41.31,21.294848,-0.009146789193274898,0.017074107455429557,1.0148152420401695,0.39809120809324083,-1.1768557818945498,-1.413086283100024
2024-09-23 05:31:11.555970,41.31,21.294899,-0.01585453627184869,0.02189143717471248,1.0148152420401695,0.39809120809324083,-1.1768557818945498,-1.4524485706396402
2024-09-23 05:31:11.598690,41.31,21.294949,-0.015000815177668611,0.02189143717471248,1.0138396944596255,0.3193667930966243,-1.15932321363464,-1.3562488435987383
2024-09-23 05:31:11.640908,41.31,21.294949,-0.015000815177668611,0.018049744655597465,1.0163397599433175,0.3193667930966243,-1.15932321363464,-1.3562488435987383
2024-09-23 05:31:11.652368,41.31,21.294949,-0.015000815177668611,0.018049744655597465,1.0163397599433175,0.3849704900474288,-1.1199610328167677,-1.3562488435987383
2024-09-23 05:31:11.694167,41.31,21.295038,-0.011220081471035847,0.019879204721382753,1.0163397599433175,0.3849704900474288,-1.1199610328167677,-1.496222521630302
2024-09-23 05:31:11.706632,41.31,21.295038,-0.011220081471035847,0.019879204721382753,1.0114614387535539,0.3280757409696467,-1.1199610328167677,-1.496222521630302
2024-09-23 05:31:11.739414,41.05,21.295038,-0.011220081471035847,0.019879204721382753,1.0114614387535539,0.3280757409696467,-1.2118635021161288,-1.3999655917346479
2024-09-23 05:31:11.750847,41.05,21.295089,-0.01396421992450679,0.019940162774376668,1.0134736818397203,0.3280757409696467,-1.2118635021161288,-1.3999655917346479
2024-09-23 05:31:11.792937,41.05,21.29514,-0.01256167205101853,0.019940162774376668,1.0134736818397203,0.27994727602181957,-1.1768557818945498,-1.3343619214642792
2024-09-23 05:31:11.805091,41.05,21.29514,-0.01256167205101853,0.02067186599113161,1.0134736818397203,0.27994727602181957,-1.1768557818945498,-1.3343619214642792
2024-09-23 05:31:11.838197,41.05,21.29514,-0.01256167205101853,0.02067186599113161,1.0143274196426437,0.27994727602181957,-1.1374934943549335,-1.3343619214642792
2024-09-23 05:31:11.849905,41.05,21.295191,-0.01481783924724956,0.02067186599113161,1.0143274196426437,0.27994727602181957,-1.1374934943549335,-1.3737241022821516
2024-09-23 05:31:11.892255,41.05,21.295242,-0.01481783924724956,0.01939133523558015,1.0132908213515286,0.37184974532118065,-1.1418479549512268,-1.3911993609655648
2024-09-23 05:31:11.936374,41.05,21.295242,-0.012805606793919833,0.022318348607521174,1.0109126628599643,0.37184974532118065,-1.1418479549512268,-1.3911993609655648
2024-09-23 05:31:11.948181,41.05,21.295242,-0.012805606793919833,0.022318348607521174,1.0109126628599643,0.3630834878716618,-1.1724439050000162,-1.483101830264926
2024-09-23 05:31:11.980813,41.05,21.295331,-0.012805606793919833,0.022318348607521174,1.0109126628599643,0.3630834878716618,-1.1724439050000162,-1.483101830264926
2024-09-23 05:31:11.992024,41.05,21.295331,-0.013903160100075569,0.021037716080532405,1.012620041251304,0.3411964856958948,-1.1111946953259408,-1.483101830264926
2024-09-23 05:31:12.033871,41.05,21.295382,-0.013598266544692013,0.021037716080532405,1.012620041251304,0.3411964856958948,-1.1111946953259408,-1.4568603408124299
2024-09-23 05:31:12.045084,41.05,21.295382,-0.013598266544692013,0.018049744655597465,1.0120102146471432,0.3280757409696467,-1.1111946953259408,-1.4568603408124299
2024-09-23 05:31:12.077970,41.05,21.295382,-0.013598266544692013,0.018049744655597465,1.0120102146471432,0.3280757409696467,-1.0893650827679784,-1.4568603408124299
2024-09-23 05:31:12.130832,41.05,21.295433,-0.011098165365048018,0.018049744655597465,1.0120102146471432,0.3280757409696467,-1.0893650827679784,-1.413086283100024
2024-09-23 05:31:12.142423,41.05,21.295433,-0.011098165365048018,0.016708257366028764,1.0153031616522024,0.28871353347133843,-1.0893650827679784,-1.413086283100024
2024-09-23 05:31:12.184865,41.05,21.295484,-0.010732313756670548,0.021159735476934217,1.0120102146471432,0.28871353347133843,-1.1374934943549335,-1.3956111311383546
2024-09-23 05:31:12.228328,41.05,21.295484,-0.010732313756670548,0.021159735476934217,1.0120102146471432,0.3674952580444515,-1.1374934943549335,-1.3956111311383546
2024-09-23 05:31:12.280903,41.05,21.295484,-0.010732313756670548,0.021159735476934217,1.0120102146471432,0.3674952580444515,-1.207451731943339,-1.3956111311383546
2024-09-23 05:31:12.323968,41.05,21.295534,-0.010732313756670548,0.021159735476934217,1.0120102146471432,0.3674952580444515,-1.207451731943339,-1.474335492774099
2024-09-23 05:31:12.335286,41.05,21.295534,-0.013842202047081654,0.017561976941232165,1.0120102146471432,0.3630834878716618,-1.207451731943339,-1.474335492774099
2024-09-23 05:31:12.377947,41.05,21.295623,-0.012988480952901577,0.020366972435748053,1.0120102146471432,0.3630834878716618,-1.15932321363464,-1.3737241022821516
2024-09-23 05:31:12.390076,41.05,21.295623,-0.012988480952901577,0.020366972435748053,1.012620041251304,0.3630834878716618,-1.15932321363464,-1.3737241022821516
2024-09-23 05:31:12.421739,41.05,21.295623,-0.012988480952901577,0.020366972435748053,1.012620041251304,0.3324875378228724,-1.1199610328167677,-1.3737241022821516
2024-09-23 05:31:12.432905,41.05,21.29572,-0.015061773230662524,0.018842507696783625,1.012620041251304,0.3324875378228724,-1.1199610328167677,-1.448094003321603
2024-09-23 05:31:12.477029,41.05,21.295772,-0.016342405757651293,0.018842507696783625,1.015546975636458,0.3149550229238346,-1.1855647030871361,-1.404320052330941
2024-09-23 05:31:12.519788,41.05,21.295772,-0.016342405757651293,0.021159735476934217,1.0105467474545664,0.3368419984191656,-1.1855647030871361,-1.404320052330941
2024-09-23 05:31:12.531140,41.05,21.295915,-0.016342405757651293,0.021159735476934217,1.0105467474545664,0.3368419984191656,-1.1549687530383468,-1.3911993609655648
2024-09-23 05:31:12.574137,41.05,21.295915,-0.012439653414105056,0.018842507696783625,1.0128639524500669,0.2318188110739924,-1.1943309338562191,-1.4874562908612192
2024-09-23 05:31:12.617665,41.05,21.295967,-0.012378695361111141,0.018598572194393984,1.0128639524500669,0.2318188110739924,-1.1943309338562191,-1.4874562908612192
2024-09-23 05:31:12.628768,41.05,21.295967,-0.012378695361111141,0.018598572194393984,1.0134127283436565,0.24499683869630098,-1.1156065722204744,-1.4874562908612192
2024-09-23 05:31:12.671105,41.05,21.296017,-0.013293374508285133,0.02140366946034718,1.0139616014517532,0.3018342781975865,-1.1156065722204744,-1.4087318225037306
2024-09-23 05:31:12.713454,41.05,21.296017,-0.013293374508285133,0.02140366946034718,1.0139616014517532,0.3018342781975865,-1.1637349838074296,-1.3999655917346479
2024-09-23 05:31:12.725210,41.05,21.296068,-0.012622630104012445,0.02085484192155066,1.0131688171448936,0.3018342781975865,-1.1637349838074296,-1.3999655917346479
2024-09-23 05:31:12.767819,41.39,21.296119,-0.014634963569291141,0.02085484192155066,1.0131688171448936,0.3324875378228724,-1.1855647030871361,-1.3693696416858583
2024-09-23 05:31:12.779414,41.39,21.296119,-0.014634963569291141,0.020427930488741967,1.0131688171448936,0.3324875378228724,-1.1855647030871361,-1.3693696416858583
2024-09-23 05:31:12.811585,41.39,21.296119,-0.014634963569291141,0.020427930488741967,1.0140835084438808,0.27994727602181957,-1.1855647030871361,-1.3693696416858583
2024-09-23 05:31:12.822749,41.39,21.296169,-0.016525279916633037,0.020427930488741967,1.0140835084438808,0.27994727602181957,-1.1199610328167677,-1.4524485706396402
2024-09-23 05:31:12.865706,41.39,21.296169,-0.016525279916633037,0.019940162774376668,1.0151811574455674,0.3499627431454137,-1.1943309338562191,-1.5224640110827983
2024-09-23 05:31:12.877718,41.39,21.296256,-0.016525279916633037,0.019940162774376668,1.0151811574455674,0.3499627431454137,-1.1943309338562191,-1.5224640110827983
2024-09-23 05:31:12.909246,41.39,21.296256,-0.010549337066763158,0.02122069352992813,1.0151811574455674,0.3499627431454137,-1.1943309338562191,-1.5224640110827983
2024-09-23 05:31:12.920314,41.39,21.296256,-0.010549337066763158,0.02122069352992813,1.012925003160638,0.3411964856958948,-1.1111946953259408,-1.426207081187144
2024-09-23 05:31:12.963007,41.39,21.296308,-0.012988480952901577,0.01890346574977754,1.012802998954003,0.3062460483703762,-1.0718325145080685,-1.426207081187144
2024-09-23 05:31:13.006488,41.39,21.296359,-0.012988480952901577,0.01890346574977754,1.012802998954003,0.3062460483703762,-1.0718325145080685,-1.3911993609655648
2024-09-23 05:31:13.017721,41.39,21.296359,-0.010915188675140628,0.021098777423940302,1.0134127283436565,0.29306802074806765,-1.0718325145080685,-1.3911993609655648
2024-09-23 05:31:13.060460,41.39,21.29641,-0.016281345933220073,0.020001120827370582,1.0134127283436565,0.29306802074806765,-1.0849533125951887,-1.43932777255252
2024-09-23 05:31:13.072365,41.39,21.29641,-0.016281345933220073,0.020001120827370582,1.0160958487445546,0.29306802074806765,-1.0849533125951887,-1.43932777255252
2024-09-23 05:31:13.104340,41.39,21.29641,-0.016281345933220073,0.020001120827370582,1.0160958487445546,0.3499627431454137,-1.15932321363464,-1.43932777255252
2024-09-23 05:31:13.115816,41.39,21.29646,-0.013049540777332799,0.018171764051999276,1.0160958487445546,0.3499627431454137,-1.15932321363464,-1.413086283100024
2024-09-23 05:31:13.158604,41.39,21.296511,-0.009512741813601339,0.018171764051999276,1.0135347325502915,0.24499683869630098,-1.0980740039605648,-1.4306188513599336
2024-09-23 05:31:13.200652,41.39,21.296511,-0.009512741813601339,0.0187205915907958,1.012498037044669,0.24499683869630098,-1.0980740039605648,-1.4306188513599336
2024-09-23 05:31:13.212222,41.39,21.296598,-0.009512741813601339,0.0187205915907958,1.012498037044669,0.49870265194606034,-1.259991913703084,-1.3824903330512346
2024-09-23 05:31:13.255246,41.39,21.296598,-0.01365932788809991,0.020732824044125523,1.0157908868352208,0.42433269754573705,-1.1899764732599258,-1.3824903330512346
2024-09-23 05:31:13.267254,41.39,21.296598,-0.01365932788809991,0.020732824044125523,1.0157908868352208,0.42433269754573705,-1.1899764732599258,-1.3737241022821516
2024-09-23 05:31:13.298911,41.39,21.296649,-0.013293374508285133,0.020732824044125523,1.0157908868352208,0.42433269754573705,-1.1899764732599258,-1.3737241022821516
2024-09-23 05:31:13.310778,41.39,21.296649,-0.013293374508285133,0.021464627513341095,1.0145713308414066,0.37184974532118065,-1.1462025222692638,-1.3737241022821516
2024-09-23 05:31:13.353389,41.39,21.2967,-0.014574005516297226,0.020001120827370582,1.011095523348156,0.37184974532118065,-1.1462025222692638,-1.3606034109167755
2024-09-23 05:31:13.365341,41.39,21.2967,-0.014574005516297226,0.020001120827370582,1.011095523348156,0.3411964856958948,-1.1462025222692638,-1.3606034109167755
2024-09-23 05:31:13.397297,41.39,21.2967,-0.014574005516297226,0.020001120827370582,1.011095523348156,0.3411964856958948,-1.1199610328167677,-1.4218526205908506
2024-09-23 05:31:13.409044,41.39,21.296751,-0.014574005516297226,0.020793883868556746,1.0151202039495033,0.3411964856958948,-1.1199610328167677,-1.4218526205908506
2024-09-23 05:31:13.452187,41.39,21.296801,-0.01268358815700636,0.02012303845233509,1.0151202039495033,0.3368419984191656,-1.1680894444037229,-1.3606034109167755
2024-09-23 05:31:13.495159,41.39,21.296801,-0.01268358815700636,0.02012303845233509,1.0137175930384832,0.2405850685235113,-1.1549687530383468,-1.3606034109167755
2024-09-23 05:31:13.506137,41.39,21.296852,-0.015305708733052167,0.02012303845233509,1.0137175930384832,0.2405850685235113,-1.1549687530383468,-1.3212411233771593
2024-09-23 05:31:13.548760,41.39,21.296939,-0.015305708733052167,0.022318348607521174,1.0087784155671629,0.37620423259790986,-1.1462025222692638,-1.4524485706396402
2024-09-23 05:31:13.591699,41.39,21.296939,-0.014634963569291141,0.02365983741606655,1.0087784155671629,0.37620423259790986,-1.1462025222692638,-1.4524485706396402
2024-09-23 05:31:13.602865,41.39,21.296939,-0.014634963569291141,0.02365983741606655,1.01426646614658,0.3280757409696467,-1.1156065722204744,-1.3343619214642792
2024-09-23 05:31:13.645371,41.39,21.29699,-0.014147094083488534,0.016769215419022678,1.0112784810508548,0.3368419984191656,-1.1156065722204744,-1.3343619214642792
2024-09-23 05:31:13.657317,41.39,21.29699,-0.014147094083488534,0.016769215419022678,1.0112784810508548,0.3368419984191656,-1.0849533125951887,-1.3343619214642792
2024-09-23 05:31:13.689103,41.39,21.297041,-0.014147094083488534,0.016769215419022678,1.0112784810508548,0.3368419984191656,-1.0849533125951887,-1.4087318225037306
2024-09-23 05:31:13.700201,41.39,21.297041,-0.011220081471035847,0.019513251341567978,1.01231507934197,0.38061600277069957,-1.0849533125951887,-1.4087318225037306
2024-09-23 05:31:13.743597,41.39,21.297092,-0.014695923141261731,0.01939133523558015,1.0099369208504057,0.38061600277069957,-1.0324703336901964,-1.3780785628784449
2024-09-23 05:31:13.785995,41.23,21.297092,-0.014695923141261731,0.01939133523558015,1.0099369208504057,0.39373674749694765,-1.1156065722204744,-1.3780785628784449
2024-09-23 05:31:13.797468,41.23,21.297143,-0.015244750680058252,0.021464627513341095,1.0099369208504057,0.39373674749694765,-1.1156065722204744,-1.4174980532728136
2024-09-23 05:31:13.840127,41.23,21.297143,-0.015244750680058252,0.021464627513341095,1.0121322188537785,0.29306802074806765,-1.0018170740649104,-1.3124748926080763
2024-09-23 05:31:13.851784,41.23,21.297193,-0.014269113479890346,0.021464627513341095,1.0121322188537785,0.29306802074806765,-1.0018170740649104,-1.3124748926080763
2024-09-23 05:31:13.884111,41.23,21.297193,-0.014269113479890346,0.017196025080394063,1.0111565740587272,0.29306802074806765,-1.0018170740649104,-1.3124748926080763
2024-09-23 05:31:13.895291,41.23,21.29728,-0.014269113479890346,0.017196025080394063,1.0111565740587272,0.3674952580444515,-1.1156065722204744,-1.3868447936475277
2024-09-23 05:31:13.937576,41.23,21.29728,-0.01164699290384454,0.018781549643789714,1.0123761300525411,0.3674952580444515,-1.15932321363464,-1.3868447936475277
2024-09-23 05:31:13.949462,41.23,21.29728,-0.01164699290384454,0.018781549643789714,1.0123761300525411,0.3674952580444515,-1.15932321363464,-1.404320052330941
2024-09-23 05:31:13.982556,41.23,21.297332,-0.012866564846913748,0.019208359305161096,1.0123761300525411,0.3674952580444515,-1.15932321363464,-1.404320052330941
2024-09-23 05:31:13.993842,41.23,21.297332,-0.012866564846913748,0.019208359305161096,1.0132908213515286,0.35872900059493257,-1.0805987452771515,-1.404320052330941
2024-09-23 05:31:14.036447,41.23,21.297382,-0.012988480952901577,0.019513251341567978,1.0194497492456776,0.3280757409696467,-1.0805987452771515,-1.3868447936475277
2024-09-23 05:31:14.079316,41.23,21.297382,-0.012988480952901577,0.019513251341567978,1.0194497492456776,0.3280757409696467,-1.1768557818945498,-1.3080631224352866
2024-09-23 05:31:14.091008,41.23,21.297433,-0.011951885699739756,0.02225739055452726,1.0116442992417454,0.3280757409696467,-1.1768557818945498,-1.3080631224352866
2024-09-23 05:31:14.133726,41.23,21.297484,-0.014269113479890346,0.02189143717471248,1.0116442992417454,0.35872900059493257,-1.1462025222692638,-1.3474826128296553
2024-09-23 05:31:14.176093,41.23,21.297484,-0.014269113479890346,0.02189143717471248,1.0149372462468045,0.39809120809324083,-1.1462025222692638,-1.3474826128296553
2024-09-23 05:31:14.187746,41.23,21.297535,-0.009329765883182288,0.02189143717471248,1.0149372462468045,0.39809120809324083,-1.0849533125951887,-1.3212411233771593
2024-09-23 05:31:14.231076,41.23,21.297622,-0.009329765883182288,0.020001120827370582,1.012498037044669,0.3368419984191656,-1.207451731943339,-1.434973311956227
2024-09-23 05:31:14.273292,41.23,21.297622,-0.017196025080394063,0.021708563015730736,1.012498037044669,0.3368419984191656,-1.207451731943339,-1.434973311956227
2024-09-23 05:31:14.284776,41.23,21.297622,-0.017196025080394063,0.021708563015730736,1.0149982969573756,0.3411964856958948,-1.207451731943339,-1.483101830264926
2024-09-23 05:31:14.327169,41.23,21.297673,-0.018049744655597465,0.016586237969626952,1.0106077981651376,0.29306802074806765,-1.207451731943339,-1.483101830264926
2024-09-23 05:31:14.339147,41.23,21.297673,-0.018049744655597465,0.016586237969626952,1.0106077981651376,0.29306802074806765,-1.0674780539117754,-1.483101830264926
2024-09-23 05:31:14.371496,41.23,21.297724,-0.018049744655597465,0.016586237969626952,1.0106077981651376,0.29306802074806765,-1.0674780539117754,-1.3956111311383546
2024-09-23 05:31:14.382700,41.23,21.297724,-0.013171458402297304,0.018476656088406155,1.0132298678554648,0.3543172304221429,-1.0674780539117754,-1.3956111311383546
2024-09-23 05:31:14.425278,41.23,21.297774,-0.013171458402297304,0.02237930666051509,1.0132298678554648,0.3543172304221429,-1.0893650827679784,-1.413086283100024
2024-09-23 05:31:14.437752,41.23,21.297774,-0.013171458402297304,0.02237930666051509,1.00969310686615,0.3543172304221429,-1.0893650827679784,-1.413086283100024
2024-09-23 05:31:14.470390,41.23,21.297774,-0.013171458402297304,0.02237930666051509,1.00969310686615,0.3411964856958948,-1.0937195433642715,-1.483101830264926
2024-09-23 05:31:14.481614,41.23,21.297825,-0.013171458402297304,0.022196330730096036,1.00969310686615,0.3411964856958948,-1.0937195433642715,-1.483101830264926
2024-09-23 05:31:14.524788,41.23,21.297876,-0.01268358815700636,0.022196330730096036,1.0162178529511898,0.2581175834225491,-1.1068402347296475,-1.413086283100024
2024-09-23 05:31:14.569213,41.23,21.297876,-0.01268358815700636,0.018476656088406155,1.0124370835486052,0.4287444677185267,-1.1068402347296475,-1.413086283100024
2024-09-23 05:31:14.580848,41.23,21.297963,-0.01268358815700636,0.018476656088406155,1.0124370835486052,0.4287444677185267,-1.1374934943549335,-1.3693696416858583
2024-09-23 05:31:14.613751,41.23,21.297963,-0.013903160100075569,0.018476656088406155,1.0124370835486052,0.4287444677185267,-1.1374934943549335,-1.3693696416858583
2024-09-23 05:31:14.625248,41.23,21.297963,-0.013903160100075569,0.017744852619190586,1.0091442337580534,0.37620423259790986,-1.224984193481505,-1.4437395427253097
2024-09-23 05:31:14.667511,41.23,21.298014,-0.015061773230662524,0.020732824044125523,1.012925003160638,0.37620423259790986,-1.224984193481505,-1.4437395427253097
2024-09-23 05:31:14.679338,41.23,21.298014,-0.015061773230662524,0.020732824044125523,1.012925003160638,0.3193667930966243,-1.1374934943549335,-1.4437395427253097
2024-09-23 05:31:14.712048,41.23,21.298014,-0.015061773230662524,0.020732824044125523,1.012925003160638,0.3193667930966243,-1.1374934943549335,-1.3430708426568656
2024-09-23 05:31:14.722995,41.23,21.298065,-0.016464321863639123,0.020062078880364497,1.0164616669354454,0.41121195281948897,-1.1374934943549335,-1.3430708426568656
2024-09-23 05:31:14.766697,41.23,21.298116,-0.012744546969488612,0.017927828549609635,1.0164616669354454,0.41121195281948897,-1.2424594521649182,-1.4524485706396402
2024-09-23 05:31:14.778397,41.23,21.298116,-0.012744546969488612,0.017927828549609635,1.012620041251304,0.41121195281948897,-1.2424594521649182,-1.4524485706396402
2024-09-23 05:31:14.810404,41.8,21.298116,-0.012744546969488612,0.017927828549609635,1.012620041251304,0.3237212803733535,-1.1549687530383468,-1.4524485706396402
2024-09-23 05:31:14.822444,41.8,21.298166,-0.015183792627064338,0.02067186599113161,1.012620041251304,0.3237212803733535,-1.1549687530383468,-1.404320052330941
2024-09-23 05:31:14.865224,41.8,21.298217,-0.01445198763887209,0.02067186599113161,1.0131078636488298,0.3193667930966243,-1.0718325145080685,-1.3299501512914895
2024-09-23 05:31:14.907329,41.8,21.298217,-0.01445198763887209,0.020610907938137694,1.0148152420401695,0.3193667930966243,-1.0718325145080685,-1.3299501512914895
2024-09-23 05:31:14.918628,41.8,21.298304,-0.01445198763887209,0.020610907938137694,1.0148152420401695,0.3849704900474288,-1.0762442846808582,-1.4306188513599336
2024-09-23 05:31:14.962166,41.8,21.298304,-0.014878899071680782,0.021464627513341095,1.0123761300525411,0.3368419984191656,-1.1068402347296475,-1.3868447936475277
2024-09-23 05:31:15.004932,41.8,21.298355,-0.01268358815700636,0.021464627513341095,1.0123761300525411,0.3368419984191656,-1.1068402347296475,-1.3868447936475277
2024-09-23 05:31:15.016216,41.8,21.298355,-0.01268358815700636,0.021952496999143704,1.014144559154452,0.3411964856958948,-1.0237041029211134,-1.3868447936475277
2024-09-23 05:31:15.058483,41.8,21.298406,-0.01396421992450679,0.018964423802771455,1.014144559154452,0.3411964856958948,-1.0237041029211134,-1.4524485706396402
2024-09-23 05:31:15.070580,41.8,21.298406,-0.01396421992450679,0.018964423802771455,1.014144559154452,0.3149550229238346,-1.0237041029211134,-1.4524485706396402
2024-09-23 05:31:15.102404,41.8,21.298406,-0.01396421992450679,0.018964423802771455,1.014144559154452,0.3149550229238346,-1.1287272635858505,-1.474335492774099
2024-09-23 05:31:15.114078,41.8,21.298457,-0.014147094083488534,0.02134260963591596,1.0123761300525411,0.3149550229238346,-1.1287272635858505,-1.474335492774099
2024-09-23 05:31:15.157208,41.8,21.298508,-0.016525279916633037,0.02237930666051509,1.0123761300525411,0.3149550229238346,-1.1549687530383468,-1.4174980532728136
2024-09-23 05:31:15.199820,41.8,21.298508,-0.016525279916633037,0.02237930666051509,1.0130469101527657,0.28871353347133843,-1.1549687530383468,-1.4174980532728136
2024-09-23 05:31:15.211042,41.8,21.298558,-0.013293374508285133,0.02237930666051509,1.0130469101527657,0.28871353347133843,-1.1418479549512268,-1.4787472629468887
2024-09-23 05:31:15.253331,41.8,21.298558,-0.013293374508285133,0.018659531766364576,1.0131078636488298,0.42433269754573705,-1.1243154934130608,-1.3606034109167755
2024-09-23 05:31:15.265183,41.8,21.298645,-0.013293374508285133,0.018659531766364576,1.0131078636488298,0.42433269754573705,-1.1243154934130608,-1.3606034109167755
2024-09-23 05:31:15.298284,41.8,21.298645,-0.01365932788809991,0.019940162774376668,1.0131078636488298,0.42433269754573705,-1.1243154934130608,-1.3606034109167755
2024-09-23 05:31:15.309994,41.8,21.298645,-0.01365932788809991,0.019940162774376668,1.014144559154452,0.38061600277069957,-1.0805987452771515,-1.4437395427253097
2024-09-23 05:31:15.353392,41.8,21.298697,-0.012378695361111141,0.02122069352992813,1.0115223922496177,0.3018342781975865,-1.1462025222692638,-1.4437395427253097
2024-09-23 05:31:15.395430,41.8,21.298747,-0.012378695361111141,0.02122069352992813,1.0115223922496177,0.3018342781975865,-1.1462025222692638,-1.404320052330941
2024-09-23 05:31:15.406380,41.8,21.298747,-0.011342100107949322,0.02262324216290473,1.0133517748475924,0.2537058132497594,-1.1462025222692638,-1.404320052330941
2024-09-23 05:31:15.448751,41.8,21.298798,-0.011037206552565765,0.02262324216290473,1.0133517748475924,0.2537058132497594,-1.1243154934130608,-1.3649578715130686
2024-09-23 05:31:15.460744,41.8,21.298798,-0.011037206552565765,0.018781549643789714,1.015608026347029,0.2537058132497594,-1.1243154934130608,-1.3649578715130686
2024-09-23 05:31:15.493415,41.8,21.298798,-0.011037206552565765,0.018781549643789714,1.015608026347029,0.38061600277069957,-1.1724439050000162,-1.3649578715130686
2024-09-23 05:31:15.504969,41.8,21.298849,-0.01268358815700636,0.019940162774376668,1.015608026347029,0.38061600277069957,-1.1724439050000162,-1.3911993609655648
2024-09-23 05:31:15.548464,41.8,21.2989,-0.014634963569291141,0.019940162774376668,1.0160348952484908,0.24935132597303017,-1.1637349838074296,-1.426207081187144
2024-09-23 05:31:15.591975,41.8,21.2989,-0.014634963569291141,0.020915799974544576,1.01542506864433,0.27994727602181957,-1.1637349838074296,-1.426207081187144
2024-09-23 05:31:15.603673,41.8,21.298987,-0.014634963569291141,0.020915799974544576,1.01542506864433,0.27994727602181957,-1.1243154934130608,-1.3780785628784449
2024-09-23 05:31:15.647019,41.8,21.298987,-0.01219582044264106,0.021830479121718566,1.0132908213515286,0.2843590461946093,-1.0587118231426924,-1.3037086618389935
2024-09-23 05:31:15.689704,41.8,21.299038,-0.013110498830326714,0.01926931735815501,1.0132908213515286,0.2843590461946093,-1.0587118231426924,-1.3037086618389935
2024-09-23 05:31:15.701300,41.8,21.299038,-0.013110498830326714,0.01926931735815501,1.0125589905407328,0.27559278874509036,-1.1068402347296475,-1.3037086618389935
2024-09-23 05:31:15.735600,41.8,21.299038,-0.013110498830326714,0.01926931735815501,1.0125589905407328,0.27559278874509036,-1.1068402347296475,-1.448094003321603
2024-09-23 05:31:15.746868,41.8,21.299089,-0.015427726610477303,0.018293680157987106,1.0093270942462451,0.27994727602181957,-1.1068402347296475,-1.448094003321603
2024-09-23 05:31:15.789475,41.8,21.29914,-0.015244750680058252,0.019696228790963704,1.0093270942462451,0.27994727602181957,-1.1462025222692638,-1.3518370734259486
2024-09-23 05:31:15.801671,41.8,21.29914,-0.015244750680058252,0.019696228790963704,1.012620041251304,0.27994727602181957,-1.1462025222692638,-1.3518370734259486
2024-09-23 05:31:15.834170,42.03,21.29914,-0.015244750680058252,0.019696228790963704,1.012620041251304,0.29747979092085736,-1.1330817241821438,-1.3518370734259486
2024-09-23 05:31:15.845449,42.03,21.29919,-0.013903160100075569,0.022989092252305523,1.012620041251304,0.29747979092085736,-1.1330817241821438,-1.3824903330512346
2024-09-23 05:31:15.888648,42.03,21.299241,-0.01433007153288426,0.022989092252305523,1.0115833457456815,0.2668265312955715,-1.1024857741333545,-1.448094003321603
2024-09-23 05:31:15.930944,42.03,21.299241,-0.01433007153288426,0.02018409827676631,1.014144559154452,0.2668265312955715,-1.1024857741333545,-1.448094003321603
2024-09-23 05:31:15.942439,42.03,21.299328,-0.01433007153288426,0.02018409827676631,1.014144559154452,0.3237212803733535,-1.0849533125951887,-1.434973311956227
2024-09-23 05:31:15.985783,42.03,21.299328,-0.01481783924724956,0.017744852619190586,1.0160958487445546,0.40244569536997005,-1.1199610328167677,-1.3911993609655648
2024-09-23 05:31:16.028255,42.03,21.299379,-0.013049540777332799,0.017744852619190586,1.0160958487445546,0.40244569536997005,-1.1199610328167677,-1.3911993609655648
2024-09-23 05:31:16.039593,42.03,21.299379,-0.013049540777332799,0.019330377182586234,1.0126809947473678,0.3674952580444515,-1.0805987452771515,-1.3911993609655648
2024-09-23 05:31:16.082490,42.03,21.29943,-0.013598266544692013,0.014025177977500705,1.0103637897518674,0.3674952580444515,-1.0805987452771515,-1.3606034109167755
2024-09-23 05:31:16.094794,42.03,21.29943,-0.013598266544692013,0.014025177977500705,1.0103637897518674,0.3456082558686845,-1.0805987452771515,-1.3606034109167755
2024-09-23 05:31:16.127868,42.03,21.299481,-0.013598266544692013,0.014025177977500705,1.0103637897518674,0.3456082558686845,-1.0893650827679784,-1.4218526205908506
2024-09-23 05:31:16.139737,42.03,21.299481,-0.011768909009832369,0.019025483627202678,1.01542506864433,0.3456082558686845,-1.0893650827679784,-1.4218526205908506
2024-09-23 05:31:16.184140,42.03,21.299531,-0.01268358815700636,0.019086441680196593,1.01542506864433,0.223109849860752,-1.0499454856518655,-1.483101830264926
2024-09-23 05:31:16.227008,42.03,21.299531,-0.01268358815700636,0.019086441680196593,1.0174374089450038,0.37184974532118065,-1.1243154934130608,-1.4174980532728136
2024-09-23 05:31:16.237985,42.03,21.299582,-0.015427726610477303,0.019086441680196593,1.0174374089450038,0.37184974532118065,-1.1243154934130608,-1.4174980532728136
2024-09-23 05:31:16.280741,42.03,21.299669,-0.015427726610477303,0.02317206970170125,1.0114614387535539,0.3193667930966243,-1.1768557818945498,-1.3343619214642792
2024-09-23 05:31:16.322533,42.03,21.299669,-0.014147094083488534,0.019574312684975875,1.0115833457456815,0.3193667930966243,-1.1768557818945498,-1.3343619214642792
2024-09-23 05:31:16.333771,42.03,21.299669,-0.014147094083488534,0.019574312684975875,1.0115833457456815,0.3018342781975865,-1.1549687530383468,-1.3999655917346479
2024-09-23 05:31:16.376069,42.03,21.29972,-0.01408613603049462,0.023598879363072634,1.0109126628599643,0.3324875378228724,-1.0455910250555724,-1.3999655917346479
2024-09-23 05:31:16.418879,42.03,21.299771,-0.01408613603049462,0.023598879363072634,1.0109126628599643,0.3324875378228724,-1.0455910250555724,-1.434973311956227
2024-09-23 05:31:16.430326,42.03,21.299771,-0.013354434332716355,0.02018409827676631,1.0146933350480416,0.3018342781975865,-1.0455910250555724,-1.434973311956227
2024-09-23 05:31:16.473115,42.03,21.299822,-0.012256778495634975,0.020245056329760223,1.0146933350480416,0.3018342781975865,-1.0893650827679784,-1.2774671723864972
2024-09-23 05:31:16.485164,42.03,21.299822,-0.012256778495634975,0.020245056329760223,1.012620041251304,0.3018342781975865,-1.0893650827679784,-1.2774671723864972
2024-09-23 05:31:16.517658,42.03,21.299822,-0.012256778495634975,0.020245056329760223,1.012620041251304,0.3018342781975865,-1.1899764732599258,-1.3562488435987383
2024-09-23 05:31:16.528747,42.03,21.299873,-0.013720285941093825,0.02085484192155066,1.012620041251304,0.3018342781975865,-1.1899764732599258,-1.3562488435987383
2024-09-23 05:31:16.571056,42.03,21.299923,-0.013598266544692013,0.02085484192155066,1.0146933350480416,0.29306802074806765,-1.0849533125951887,-1.2993542012427002
2024-09-23 05:31:16.613808,42.03,21.299923,-0.013598266544692013,0.020001120827370582,1.011034569852092,0.29306802074806765,-1.0849533125951887,-1.2993542012427002
2024-09-23 05:31:16.625062,42.03,21.30001,-0.013598266544692013,0.020001120827370582,1.011034569852092,0.27123832814879717,-1.1199610328167677,-1.3999655917346479
2024-09-23 05:31:16.667953,42.03,21.30001,-0.015915494324842603,0.01914740125216718,1.0132298678554648,0.3193667930966243,-1.1068402347296475,-1.3999655917346479
2024-09-23 05:31:16.680591,42.03,21.30001,-0.015915494324842603,0.01914740125216718,1.0132298678554648,0.3193667930966243,-1.1068402347296475,-1.3124748926080763
2024-09-23 05:31:16.712933,42.03,21.300062,-0.010122528164880112,0.018659531766364576,1.0132298678554648,0.3193667930966243,-1.1068402347296475,-1.3124748926080763
2024-09-23 05:31:16.724591,42.03,21.300062,-0.010122528164880112,0.018659531766364576,1.0122541258459061,0.3368419984191656,-1.1024857741333545,-1.3124748926080763
2024-09-23 05:31:16.767329,42.03,21.300112,-0.012439653414105056,0.019086441680196593,1.0138396944596255,0.2668265312955715,-1.1024857741333545,-1.2993542012427002
2024-09-23 05:31:16.809947,42.03,21.300163,-0.012439653414105056,0.019086441680196593,1.0138396944596255,0.2668265312955715,-1.1768557818945498,-1.413086283100024
2024-09-23 05:31:16.822126,42.03,21.300163,-0.013537308491698099,0.023598879363072634,1.0090222295514184,0.2668265312955715,-1.1768557818945498,-1.413086283100024
2024-09-23 05:31:16.864930,42.28,21.300214,-0.015793578218854774,0.019940162774376668,1.0090222295514184,0.35872900059493257,-1.1987427040290088,-1.3956111311383546
2024-09-23 05:31:16.907286,42.28,21.300214,-0.015793578218854774,0.019940162774376668,1.0148152420401695,0.29747979092085736,-1.1987427040290088,-1.3956111311383546
