Ayaan's Suite
Timestamp,Sample Rate (Hz),Time,Ax,Ay,Az,Gx,Gy,Gz
2024-09-23 10:39:13.484737,0,14.199379,-0.003979606107712764,-0.02338022115155219,0.09755024973162574,32.08287849390507,-100.26678939585686,80.21211738781929
2024-09-23 10:39:13.518494,0,14.199379,-0.003979606107712764,-0.02338022115155219,0.09755024973162574,32.08287849390507,-100.26678939585686,72.1922225099802
2024-09-23 10:39:13.529834,0,14.199471,-0.0028852147413806935,-0.023330473146428877,0.09690356060148622,36.09446859390736,-100.26678939585686,72.1922225099802
2024-09-23 10:39:13.572424,0,14.199522,-0.0035816467500972456,-0.023330473146428877,0.09690356060148622,36.09446859390736,-104.27510100388527,80.21211738781929
2024-09-23 10:39:13.583903,0,14.199522,-0.0035816467500972456,-0.02293251340906919,0.09715228999426605,36.09446859390736,-104.27510100388527,80.21211738781929
2024-09-23 10:39:13.616742,0,14.199522,-0.0035816467500972456,-0.02293251340906919,0.09715228999426605,40.106058693909645,-100.26678939585686,80.21211738781929
2024-09-23 10:39:13.628506,0,14.199572,-0.0038303700669703737,-0.023429960042815445,0.09715228999426605,40.106058693909645,-100.26678939585686,76.200527287817
2024-09-23 10:39:13.670702,0,14.199623,-0.0038303700669703737,-0.023429960042815445,0.09675432418099966,28.07457030097246,-92.24360919585227,88.23529758782387
2024-09-23 10:39:13.682021,0,14.199623,-0.002785727465249955,-0.023429960042815445,0.09675432418099966,28.07457030097246,-92.24360919585227,88.23529758782387
2024-09-23 10:39:13.715290,0,14.199623,-0.002785727465249955,-0.02367869399252531,0.09640611396773996,28.07457030097246,-92.24360919585227,88.23529758782387
2024-09-23 10:39:13.727719,0,14.199713,-0.002785727465249955,-0.02367869399252531,0.09640611396773996,36.09446859390736,-104.27510100388527,84.22370748782159
2024-09-23 10:39:13.770753,0,14.199713,-0.0035318979854855937,-0.023579196463302005,0.09705279702197278,36.09446859390736,-100.26678939585686,84.22370748782159
2024-09-23 10:39:13.813843,0,14.199765,-0.0033329230534799477,-0.023280723622328886,0.09705279702197278,36.09446859390736,-100.26678939585686,84.22370748782159
2024-09-23 10:39:13.825400,0,14.199765,-0.0033329230534799477,-0.023280723622328886,0.09750050628343246,40.106058693909645,-100.26678939585686,84.22370748782159
2024-09-23 10:39:13.868985,0,14.199815,-0.0031339382481259063,-0.023280723622328886,0.0973512698629459,44.11764879391193,-100.26678939585686,80.21211738781929
2024-09-23 10:39:13.911048,0,14.199815,-0.0031339382481259063,-0.023280723622328886,0.0973512698629459,44.11764879391193,-96.25519929585457,80.21211738781929
2024-09-23 10:39:13.964319,0,14.199866,-0.002785727465249955,-0.02352945757203875,0.09725178296655933,44.11764879391193,-96.25519929585457,84.22370748782159
2024-09-23 10:39:14.007064,0,14.199866,-0.002785727465249955,-0.02352945757203875,0.09725178296655933,44.11764879391193,-92.24360919585227,80.21211738781929
2024-09-23 10:39:14.018438,0,14.199917,-0.0030344509719951677,-0.02352945757203875,0.09705279702197278,44.11764879391193,-92.24360919585227,80.21211738781929
2024-09-23 10:39:14.060677,0,14.199967,-0.0035816467500972456,-0.02352945757203875,0.09705279702197278,32.08287849390507,-100.26678939585686,80.21211738781929
2024-09-23 10:39:14.073055,0,14.199967,-0.0035816467500972456,-0.023778180888911878,0.09705279702197278,32.08287849390507,-100.26678939585686,80.21211738781929
2024-09-23 10:39:14.106165,0,14.199967,-0.0035816467500972456,-0.023778180888911878,0.09705279702197278,40.106058693909645,-100.26678939585686,80.21211738781929
2024-09-23 10:39:14.118032,0,14.200054,-0.0030344509719951677,-0.023778180888911878,0.09705279702197278,40.106058693909645,-100.26678939585686,80.21211738781929
2024-09-23 10:39:14.160994,0,14.200105,-0.0030344509719951677,-0.023877669304275123,0.09680407370509965,36.09446859390736,-104.27510100388527,80.21211738781929
2024-09-23 10:39:14.203512,0,14.200105,-0.0035318979854855937,-0.02352945757203875,0.09705279702197278,36.09446859390736,-104.27510100388527,80.21211738781929
2024-09-23 10:39:14.215346,0,14.200105,-0.0035318979854855937,-0.02352945757203875,0.09705279702197278,32.08287849390507,-96.25519929585457,80.21211738781929
2024-09-23 10:39:14.258241,0,14.200201,-0.0030344509719951677,-0.02352945757203875,0.09705279702197278,32.08287849390507,-96.25519929585457,80.21211738781929
2024-09-23 10:39:14.301908,0,14.200201,-0.0030344509719951677,-0.02362894446842532,0.09665483728461309,40.106058693909645,-96.25519929585457,80.21211738781929
2024-09-23 10:39:14.312889,0,14.200253,-0.0030344509719951677,-0.02362894446842532,0.09665483728461309,40.106058693909645,-100.26678939585686,80.21211738781929
2024-09-23 10:39:14.397132,0,14.200253,-0.0031836870127375577,-0.02338022115155219,0.09665483728461309,40.106058693909645,-100.26678939585686,80.21211738781929
2024-09-23 10:39:14.408388,0,14.200253,-0.0031836870127375577,-0.02338022115155219,0.09675432418099966,36.09446859390736,-96.25519929585457,80.21211738781929
2024-09-23 10:39:14.451134,0,14.200303,-0.003482159473966507,-0.023429960042815445,0.09720203344245934,36.09446859390736,-96.25519929585457,80.21211738781929
2024-09-23 10:39:14.463284,0,14.200303,-0.003482159473966507,-0.023429960042815445,0.09720203344245934,36.09446859390736,-92.24360919585227,80.21211738781929
2024-09-23 10:39:14.495872,42.06,14.200354,-0.0026862297461545674,-0.023429960042815445,0.09720203344245934,36.09446859390736,-92.24360919585227,84.22370748782159
2024-09-23 10:39:14.506993,42.06,14.200354,-0.0026862297461545674,-0.02308174982955575,0.09725178296655933,32.08287849390507,-92.24360919585227,84.22370748782159
2024-09-23 10:39:14.549259,42.06,14.200405,-0.0035816467500972456,-0.023330473146428877,0.09740101331113918,32.08287849390507,-100.26678939585686,80.21211738781929
2024-09-23 10:39:14.592061,42.06,14.200405,-0.0035816467500972456,-0.023330473146428877,0.09740101331113918,36.09446859390736,-96.25519929585457,80.21211738781929
2024-09-23 10:39:14.603869,42.06,14.200495,-0.003482159473966507,-0.023429960042815445,0.09740101331113918,36.09446859390736,-96.25519929585457,84.22370748782159
2024-09-23 10:39:14.646610,42.06,14.200594,-0.003482159473966507,-0.023429960042815445,0.09650560086412653,36.09446859390736,-100.26678939585686,84.22370748782159
2024-09-23 10:39:14.658305,42.06,14.200594,-0.0029847020175114316,-0.023429960042815445,0.09650560086412653,36.09446859390736,-100.26678939585686,84.22370748782159
2024-09-23 10:39:14.690735,42.06,14.200594,-0.0029847020175114316,-0.023280723622328886,0.09695331012558621,28.07457030097246,-100.26678939585686,84.22370748782159
2024-09-23 10:39:14.702034,42.06,14.200688,-0.0029847020175114316,-0.023280723622328886,0.09695331012558621,28.07457030097246,-96.25519929585457,80.21211738781929
2024-09-23 10:39:14.744595,42.06,14.200688,-0.0031836870127375577,-0.02338022115155219,0.09710254654607277,28.07457030097246,-96.25519929585457,80.21211738781929
2024-09-23 10:39:14.756909,42.06,14.200688,-0.0031836870127375577,-0.02338022115155219,0.09710254654607277,28.07457030097246,-96.25519929585457,84.22370748782159
2024-09-23 10:39:14.789350,42.06,14.20074,-0.0029349636958644295,-0.023778180888911878,0.09710254654607277,28.07457030097246,-96.25519929585457,84.22370748782159
2024-09-23 10:39:14.800509,42.06,14.20074,-0.0029349636958644295,-0.023778180888911878,0.0973015264147526,36.09446859390736,-104.27510100388527,84.22370748782159
2024-09-23 10:39:14.842781,42.06,14.20079,-0.003233425524256645,-0.023230986250042305,0.09630662707135339,40.106058693909645,-104.27510100388527,84.22370748782159
2024-09-23 10:39:14.886469,42.06,14.200841,-0.003233425524256645,-0.023230986250042305,0.09630662707135339,40.106058693909645,-100.26678939585686,80.21211738781929
2024-09-23 10:39:14.898407,42.06,14.200841,-0.0035318979854855937,-0.023330473146428877,0.09745075675933246,40.106058693909645,-100.26678939585686,80.21211738781929
2024-09-23 10:39:14.940784,42.06,14.200892,-0.0037308827908396356,-0.02338022115155219,0.09745075675933246,40.106058693909645,-92.24360919585227,80.21211738781929
2024-09-23 10:39:14.982575,42.06,14.200892,-0.0037308827908396356,-0.02338022115155219,0.0973015264147526,32.08287849390507,-92.24360919585227,80.21211738781929
2024-09-23 10:39:14.995292,42.06,14.200942,-0.003382661564999035,-0.02338022115155219,0.0973015264147526,32.08287849390507,-96.25519929585457,80.21211738781929
2024-09-23 10:39:15.039066,42.06,14.201029,-0.003382661564999035,-0.02367869399252531,0.0973512698629459,36.09446859390736,-100.26678939585686,76.200527287817
2024-09-23 10:39:15.080677,42.06,14.201029,-0.0030344509719951677,-0.023479709566915436,0.09690356060148622,36.09446859390736,-100.26678939585686,76.200527287817
2024-09-23 10:39:15.092539,42.06,14.201029,-0.0030344509719951677,-0.023479709566915436,0.09690356060148622,40.106058693909645,-96.25519929585457,80.21211738781929
2024-09-23 10:39:15.135575,42.06,14.201081,-0.0030841997366068195,-0.02352945757203875,0.09720203344245934,36.09446859390736,-100.26678939585686,80.21211738781929
2024-09-23 10:39:15.178314,42.06,14.201132,-0.0032831742888682963,-0.02352945757203875,0.09720203344245934,36.09446859390736,-100.26678939585686,80.21211738781929
2024-09-23 10:39:15.189566,42.06,14.201132,-0.0032831742888682963,-0.02362894446842532,0.09695331012558621,40.106058693909645,-100.26678939585686,80.21211738781929
2024-09-23 10:39:15.232033,42.06,14.201183,-0.0029847020175114316,-0.023330473146428877,0.09740101331113918,40.106058693909645,-100.26678939585686,84.22370748782159
2024-09-23 10:39:15.275335,42.06,14.201183,-0.0029847020175114316,-0.023330473146428877,0.09740101331113918,36.09446859390736,-100.26678939585686,84.22370748782159
2024-09-23 10:39:15.286543,42.06,14.201234,-0.004029355252068585,-0.023429960042815445,0.09740101331113918,36.09446859390736,-100.26678939585686,84.22370748782159
2024-09-23 10:39:15.330136,42.06,14.201284,-0.0033329230534799477,-0.023429960042815445,0.09690356060148622,36.09446859390736,-100.26678939585686,76.200527287817
2024-09-23 10:39:15.372515,42.06,14.201284,-0.0033329230534799477,-0.023230986250042305,0.09695331012558621,36.09446859390736,-100.26678939585686,76.200527287817
2024-09-23 10:39:15.384323,42.06,14.201371,-0.0033329230534799477,-0.023230986250042305,0.09695331012558621,40.106058693909645,-104.27510100388527,80.21211738781929
2024-09-23 10:39:15.427996,42.06,14.201371,-0.0038801188315820256,-0.023579196463302005,0.09715228999426605,32.08287849390507,-100.26678939585686,80.21211738781929
2024-09-23 10:39:15.471273,42.06,14.201422,-0.0034324103296106863,-0.023429960042815445,0.09715228999426605,32.08287849390507,-100.26678939585686,80.21211738781929
2024-09-23 10:39:15.482605,42.06,14.201422,-0.0034324103296106863,-0.023429960042815445,0.09725178296655933,40.106058693909645,-96.25519929585457,80.21211738781929
2024-09-23 10:39:15.525580,41.42,14.201473,-0.0027359787006383035,-0.02338022115155219,0.09710254654607277,44.11764879391193,-96.25519929585457,76.200527287817
2024-09-23 10:39:15.568783,41.42,14.201524,-0.0027359787006383035,-0.02338022115155219,0.09710254654607277,44.11764879391193,-100.26678939585686,76.200527287817
2024-09-23 10:39:15.580516,41.42,14.201524,-0.0029349636958644295,-0.02303200030545576,0.09715228999426605,44.11764879391193,-100.26678939585686,76.200527287817
2024-09-23 10:39:15.623582,41.42,14.201574,-0.0028852147413806935,-0.023330473146428877,0.09715228999426605,36.09446859390736,-96.25519929585457,80.21211738781929
2024-09-23 10:39:15.666884,41.42,14.201574,-0.0028852147413806935,-0.023330473146428877,0.09680407370509965,32.08287849390507,-92.24360919585227,80.21211738781929
2024-09-23 10:39:15.678530,41.42,14.201625,-0.002785727465249955,-0.023330473146428877,0.09680407370509965,32.08287849390507,-92.24360919585227,80.21211738781929
2024-09-23 10:39:15.721762,41.42,14.201712,-0.002785727465249955,-0.023579196463302005,0.09695331012558621,40.106058693909645,-92.24360919585227,80.21211738781929
2024-09-23 10:39:15.763815,41.42,14.201712,-0.003482159473966507,-0.02352945757203875,0.09690356060148622,40.106058693909645,-92.24360919585227,80.21211738781929
2024-09-23 10:39:15.775435,41.42,14.201712,-0.003482159473966507,-0.02352945757203875,0.09690356060148622,40.106058693909645,-100.26678939585686,84.22370748782159
2024-09-23 10:39:15.818558,41.42,14.201763,-0.0033329230534799477,-0.02352945757203875,0.09655535038822652,36.09446859390736,-100.26678939585686,84.22370748782159
2024-09-23 10:39:15.860696,41.42,14.201814,-0.0028852147413806935,-0.02352945757203875,0.09655535038822652,36.09446859390736,-100.26678939585686,80.21211738781929
2024-09-23 10:39:15.871779,41.42,14.201814,-0.0028852147413806935,-0.023927417309398437,0.0966050877605131,40.106058693909645,-100.26678939585686,80.21211738781929
2024-09-23 10:39:15.914564,41.42,14.201865,-0.003482159473966507,-0.023429960042815445,0.09690356060148622,40.106058693909645,-92.24360919585227,84.22370748782159
2024-09-23 10:39:15.956563,41.42,14.201865,-0.003482159473966507,-0.023429960042815445,0.09690356060148622,44.11764879391193,-96.25519929585457,84.22370748782159
2024-09-23 10:39:15.968224,41.42,14.201916,-0.003382661564999035,-0.02338022115155219,0.09690356060148622,44.11764879391193,-96.25519929585457,80.21211738781929
2024-09-23 10:39:16.009880,41.42,14.201966,-0.003382661564999035,-0.02338022115155219,0.09705279702197278,40.106058693909645,-100.26678939585686,76.200527287817
2024-09-23 10:39:16.022184,41.42,14.201966,-0.0035318979854855937,-0.02338022115155219,0.09705279702197278,40.106058693909645,-100.26678939585686,76.200527287817
2024-09-23 10:39:16.054548,41.42,14.201966,-0.0035318979854855937,-0.023778180888911878,0.09685382322919964,40.106058693909645,-100.26678939585686,76.200527287817
2024-09-23 10:39:16.065727,41.42,14.202053,-0.0035318979854855937,-0.023778180888911878,0.09685382322919964,40.106058693909645,-92.24360919585227,80.21211738781929
2024-09-23 10:39:16.108572,41.42,14.202053,-0.0034324103296106863,-0.023579196463302005,0.0973015264147526,36.09446859390736,-92.24360919585227,80.21211738781929
2024-09-23 10:39:16.120468,41.42,14.202053,-0.0034324103296106863,-0.023579196463302005,0.0973015264147526,36.09446859390736,-92.24360919585227,80.21211738781929
2024-09-23 10:39:16.152500,41.42,14.202105,-0.0029349636958644295,-0.023579196463302005,0.0973015264147526,36.09446859390736,-92.24360919585227,80.21211738781929
2024-09-23 10:39:16.163917,41.42,14.202105,-0.0029349636958644295,-0.023877669304275123,0.09705279702197278,36.09446859390736,-100.26678939585686,80.21211738781929
2024-09-23 10:39:16.206446,41.42,14.202155,-0.003780631555451287,-0.02313149783467906,0.09710254654607277,36.09446859390736,-100.26678939585686,76.200527287817
2024-09-23 10:39:16.251010,41.42,14.202206,-0.003780631555451287,-0.02313149783467906,0.09710254654607277,36.09446859390736,-96.25519929585457,88.23529758782387
2024-09-23 10:39:16.262467,41.42,14.202206,-0.0034324103296106863,-0.023280723622328886,0.09715228999426605,36.09446859390736,-96.25519929585457,88.23529758782387
2024-09-23 10:39:16.306091,41.42,14.202206,-0.0034324103296106863,-0.023280723622328886,0.09715228999426605,36.09446859390736,-96.25519929585457,88.23529758782387
2024-09-23 10:39:16.348931,41.42,14.202206,-0.0034324103296106863,-0.023280723622328886,0.09715228999426605,36.09446859390736,-104.27510100388527,84.22370748782159
2024-09-23 10:39:16.360859,41.42,14.202257,-0.0030841997366068195,-0.023479709566915436,0.09665483728461309,36.09446859390736,-104.27510100388527,84.22370748782159
2024-09-23 10:39:16.394919,41.42,14.202257,-0.0030841997366068195,-0.023479709566915436,0.09665483728461309,36.09446859390736,-104.27510100388527,84.22370748782159
2024-09-23 10:39:16.406463,41.42,14.202307,-0.0029349636958644295,-0.023280723622328886,0.09665483728461309,36.09446859390736,-100.26678939585686,76.200527287817
2024-09-23 10:39:16.448525,41.42,14.202394,-0.0029349636958644295,-0.023280723622328886,0.09665483728461309,28.07457030097246,-104.27510100388527,72.1922225099802
2024-09-23 10:39:16.460192,41.42,14.202394,-0.003482159473966507,-0.023280723622328886,0.09665483728461309,28.07457030097246,-104.27510100388527,72.1922225099802
2024-09-23 10:39:16.492196,41.42,14.202394,-0.003482159473966507,-0.023877669304275123,0.09665483728461309,28.07457030097246,-104.27510100388527,72.1922225099802
2024-09-23 10:39:16.504413,41.42,14.202446,-0.003482159473966507,-0.023877669304275123,0.09690356060148622,32.08287849390507,-100.26678939585686,80.21211738781929
2024-09-23 10:39:16.547347,41.64,14.202446,-0.0031836870127375577,-0.023280723622328886,0.09759999317981902,48.12595698684454,-96.25519929585457,80.21211738781929
2024-09-23 10:39:16.559086,41.64,14.202446,-0.0031836870127375577,-0.023280723622328886,0.09759999317981902,48.12595698684454,-96.25519929585457,76.200527287817
2024-09-23 10:39:16.590932,41.64,14.202541,-0.0030344509719951677,-0.023280723622328886,0.09759999317981902,48.12595698684454,-96.25519929585457,76.200527287817
2024-09-23 10:39:16.602103,41.64,14.202541,-0.0030344509719951677,-0.02308174982955575,0.0976994861521123,36.09446859390736,-92.24360919585227,76.200527287817
2024-09-23 10:39:16.644921,41.64,14.202593,-0.0035816467500972456,-0.02308174982955575,0.09690356060148622,36.09446859390736,-92.24360919585227,76.200527287817
2024-09-23 10:39:16.656573,41.64,14.202593,-0.0035816467500972456,-0.02308174982955575,0.09690356060148622,40.106058693909645,-92.24360919585227,76.200527287817
2024-09-23 10:39:16.689041,41.64,14.202643,-0.0035816467500972456,-0.02308174982955575,0.09690356060148622,40.106058693909645,-96.25519929585457,80.21211738781929
2024-09-23 10:39:16.700442,41.64,14.202643,-0.0029847020175114316,-0.023330473146428877,0.09710254654607277,40.106058693909645,-96.25519929585457,80.21211738781929
2024-09-23 10:39:16.743419,41.64,14.202694,-0.003979606107712764,-0.023827930413011865,0.09710254654607277,40.106058693909645,-96.25519929585457,84.22370748782159
2024-09-23 10:39:16.787395,41.64,14.202694,-0.003979606107712764,-0.023827930413011865,0.09764974270391902,40.106058693909645,-108.28669110388756,84.22370748782159
2024-09-23 10:39:16.799041,41.64,14.202745,-0.0034324103296106863,-0.023827930413011865,0.09764974270391902,40.106058693909645,-108.28669110388756,68.18063240997792
2024-09-23 10:39:16.841339,41.64,14.202833,-0.0034324103296106863,-0.02293251340906919,0.09685382322919964,40.106058693909645,-96.25519929585457,76.200527287817
2024-09-23 10:39:16.883529,41.64,14.202833,-0.0031836870127375577,-0.02352945757203875,0.09685382322919964,40.106058693909645,-96.25519929585457,76.200527287817
2024-09-23 10:39:16.894905,41.64,14.202833,-0.0031836870127375577,-0.02352945757203875,0.0973512698629459,44.11764879391193,-96.25519929585457,76.200527287817
2024-09-23 10:39:16.937910,41.64,14.202885,-0.0035318979854855937,-0.02367869399252531,0.09720203344245934,44.11764879391193,-96.25519929585457,76.200527287817
2024-09-23 10:39:16.980371,41.64,14.202935,-0.0035318979854855937,-0.02367869399252531,0.09720203344245934,44.11764879391193,-96.25519929585457,72.1922225099802
2024-09-23 10:39:16.991824,41.64,14.202935,-0.003631395514708897,-0.023479709566915436,0.09685382322919964,40.106058693909645,-96.25519929585457,72.1922225099802
2024-09-23 10:39:17.034208,41.64,14.202986,-0.0030841997366068195,-0.023479709566915436,0.09685382322919964,40.106058693909645,-96.25519929585457,76.200527287817
2024-09-23 10:39:17.046855,41.64,14.202986,-0.0030841997366068195,-0.023429960042815445,0.09715228999426605,40.106058693909645,-96.25519929585457,76.200527287817
2024-09-23 10:39:17.079637,41.64,14.202986,-0.0030841997366068195,-0.023429960042815445,0.09715228999426605,36.09446859390736,-96.25519929585457,76.200527287817
2024-09-23 10:39:17.091454,41.64,14.203037,-0.0030841997366068195,-0.023429960042815445,0.09715228999426605,36.09446859390736,-96.25519929585457,76.200527287817
2024-09-23 10:39:17.134206,41.64,14.203037,-0.0032831742888682963,-0.023330473146428877,0.0970030596496862,32.08287849390507,-96.25519929585457,76.200527287817
2024-09-23 10:39:17.178503,41.64,14.203087,-0.0035318979854855937,-0.023728432883788564,0.0970030596496862,32.08287849390507,-96.25519929585457,76.200527287817
2024-09-23 10:39:17.189882,41.64,14.203087,-0.0035318979854855937,-0.023728432883788564,0.0966050877605131,40.106058693909645,-96.25519929585457,76.200527287817
2024-09-23 10:39:17.222243,41.64,14.203087,-0.0035318979854855937,-0.023728432883788564,0.0966050877605131,40.106058693909645,-96.25519929585457,80.21211738781929
2024-09-23 10:39:17.233789,41.64,14.203175,-0.0030841997366068195,-0.023827930413011865,0.09740101331113918,32.08287849390507,-96.25519929585457,80.21211738781929
2024-09-23 10:39:17.276710,41.64,14.203226,-0.0026862297461545674,-0.023827930413011865,0.09740101331113918,32.08287849390507,-96.25519929585457,76.200527287817
2024-09-23 10:39:17.288663,41.64,14.203226,-0.0026862297461545674,-0.023827930413011865,0.0973015264147526,32.08287849390507,-96.25519929585457,76.200527287817
2024-09-23 10:39:17.320625,41.64,14.203226,-0.0026862297461545674,-0.023827930413011865,0.0973015264147526,40.106058693909645,-96.25519929585457,76.200527287817
2024-09-23 10:39:17.373558,41.64,14.203277,-0.0036811340262279837,-0.023827930413011865,0.0973015264147526,40.106058693909645,-100.26678939585686,76.200527287817
2024-09-23 10:39:17.426653,41.64,14.203327,-0.0036811340262279837,-0.023778180888911878,0.09670458680871308,36.09446859390736,-100.26678939585686,76.200527287817
2024-09-23 10:39:17.469875,41.64,14.203327,-0.0031339382481259063,-0.02313149783467906,0.09720203344245934,36.09446859390736,-100.26678939585686,76.200527287817
2024-09-23 10:39:17.481645,41.64,14.203327,-0.0031339382481259063,-0.02313149783467906,0.09720203344245934,36.09446859390736,-100.26678939585686,80.21211738781929
2024-09-23 10:39:17.523747,41.64,14.203418,-0.0034324103296106863,-0.02367869399252531,0.09680407370509965,44.11764879391193,-96.25519929585457,80.21211738781929
2024-09-23 10:39:17.566733,41.29,14.20347,-0.0034324103296106863,-0.02367869399252531,0.09680407370509965,44.11764879391193,-96.25519929585457,80.21211738781929
2024-09-23 10:39:17.578977,41.29,14.20347,-0.0031339382481259063,-0.02338022115155219,0.09750050628343246,36.09446859390736,-96.25519929585457,80.21211738781929
2024-09-23 10:39:17.621759,41.29,14.203565,-0.003382661564999035,-0.023877669304275123,0.09720203344245934,36.09446859390736,-88.23529758782387,80.21211738781929
2024-09-23 10:39:17.663655,41.29,14.203565,-0.003382661564999035,-0.023877669304275123,0.09720203344245934,40.106058693909645,-92.24360919585227,80.21211738781929
2024-09-23 10:39:17.674627,41.29,14.203616,-0.0035318979854855937,-0.02362894446842532,0.09720203344245934,40.106058693909645,-92.24360919585227,80.21211738781929
2024-09-23 10:39:17.717256,41.29,14.203667,-0.0035318979854855937,-0.02362894446842532,0.09665483728461309,48.12595698684454,-96.25519929585457,92.24360919585227
2024-09-23 10:39:17.729299,41.29,14.203667,-0.003233425524256645,-0.02362894446842532,0.09665483728461309,48.12595698684454,-96.25519929585457,92.24360919585227
2024-09-23 10:39:17.761300,41.29,14.203667,-0.003233425524256645,-0.023877669304275123,0.09690356060148622,48.12595698684454,-96.25519929585457,92.24360919585227
2024-09-23 10:39:17.772303,41.29,14.203759,-0.003233425524256645,-0.023877669304275123,0.09690356060148622,36.09446859390736,-92.24360919585227,76.200527287817
2024-09-23 10:39:17.814126,41.29,14.203759,-0.0030841997366068195,-0.023479709566915436,0.09720203344245934,44.11764879391193,-92.24360919585227,76.200527287817
2024-09-23 10:39:17.827237,41.29,14.203759,-0.0030841997366068195,-0.023479709566915436,0.09720203344245934,44.11764879391193,-96.25519929585457,80.21211738781929
2024-09-23 10:39:17.859306,41.29,14.203811,-0.0035318979854855937,-0.023728432883788564,0.09720203344245934,44.11764879391193,-96.25519929585457,80.21211738781929
2024-09-23 10:39:17.870419,41.29,14.203811,-0.0035318979854855937,-0.023728432883788564,0.09695331012558621,32.08287849390507,-92.24360919585227,80.21211738781929
2024-09-23 10:39:17.912588,41.29,14.203862,-0.0030344509719951677,-0.02338022115155219,0.09665483728461309,32.08287849390507,-92.24360919585227,80.21211738781929
2024-09-23 10:39:17.924374,41.29,14.203862,-0.0030344509719951677,-0.02338022115155219,0.09665483728461309,40.106058693909645,-92.24360919585227,80.21211738781929
2024-09-23 10:39:17.957417,41.29,14.203912,-0.0030344509719951677,-0.02338022115155219,0.09665483728461309,40.106058693909645,-100.26678939585686,76.200527287817
2024-09-23 10:39:17.968793,41.29,14.203912,-0.0031836870127375577,-0.02362894446842532,0.0970030596496862,40.106058693909645,-100.26678939585686,76.200527287817
2024-09-23 10:39:18.011398,41.29,14.203963,-0.0031339382481259063,-0.023280723622328886,0.0970030596496862,40.106058693909645,-100.26678939585686,76.200527287817
2024-09-23 10:39:18.054209,41.29,14.203963,-0.0031339382481259063,-0.023280723622328886,0.09784872257259886,44.11764879391193,-92.24360919585227,76.200527287817
2024-09-23 10:39:18.065738,41.29,14.204014,-0.0032831742888682963,-0.023280723622328886,0.09784872257259886,44.11764879391193,-92.24360919585227,76.200527287817
2024-09-23 10:39:18.108835,41.29,14.204101,-0.0032831742888682963,-0.023728432883788564,0.09635636444363997,44.11764879391193,-96.25519929585457,76.200527287817
2024-09-23 10:39:18.152242,41.29,14.204101,-0.002785727465249955,-0.023479709566915436,0.09779897304849887,44.11764879391193,-96.25519929585457,76.200527287817
2024-09-23 10:39:18.163734,41.29,14.204101,-0.002785727465249955,-0.023479709566915436,0.09779897304849887,32.08287849390507,-92.24360919585227,80.21211738781929
2024-09-23 10:39:18.206493,41.29,14.204152,-0.0027359787006383035,-0.02308174982955575,0.09710254654607277,36.09446859390736,-100.26678939585686,80.21211738781929
2024-09-23 10:39:18.248893,41.29,14.204203,-0.0027359787006383035,-0.02308174982955575,0.09710254654607277,36.09446859390736,-100.26678939585686,80.21211738781929
2024-09-23 10:39:18.260082,41.29,14.204203,-0.0030344509719951677,-0.02362894446842532,0.09710254654607277,32.08287849390507,-100.26678939585686,80.21211738781929
2024-09-23 10:39:18.302563,41.29,14.204254,-0.0030344509719951677,-0.02352945757203875,0.09710254654607277,32.08287849390507,-104.27510100388527,80.21211738781929
2024-09-23 10:39:18.314449,41.29,14.204254,-0.0030344509719951677,-0.02352945757203875,0.09650560086412653,32.08287849390507,-104.27510100388527,80.21211738781929
2024-09-23 10:39:18.397951,41.29,14.204305,-0.0030344509719951677,-0.02352945757203875,0.09650560086412653,32.08287849390507,-104.27510100388527,80.21211738781929
2024-09-23 10:39:18.409702,41.29,14.204305,-0.0029349636958644295,-0.0228827638849692,0.09650560086412653,32.08287849390507,-104.27510100388527,80.21211738781929
2024-09-23 10:39:18.442577,41.29,14.204305,-0.0029349636958644295,-0.0228827638849692,0.09715228999426605,32.08287849390507,-104.27510100388527,80.21211738781929
2024-09-23 10:39:18.454565,41.29,14.204355,-0.0029349636958644295,-0.0228827638849692,0.09715228999426605,28.07457030097246,-96.25519929585457,80.21211738781929
2024-09-23 10:39:18.497282,41.29,14.204355,-0.0029349636958644295,-0.023181236725942318,0.09720203344245934,32.08287849390507,-96.25519929585457,76.200527287817
2024-09-23 10:39:18.509083,41.29,14.204442,-0.0029349636958644295,-0.023181236725942318,0.09720203344245934,32.08287849390507,-96.25519929585457,76.200527287817
2024-09-23 10:39:18.540881,41.29,14.204442,-0.0032831742888682963,-0.023827930413011865,0.09720203344245934,32.08287849390507,-96.25519929585457,76.200527287817
2024-09-23 10:39:18.552209,41.29,14.204442,-0.0032831742888682963,-0.023827930413011865,0.09740101331113918,44.11764879391193,-104.27510100388527,84.22370748782159
2024-09-23 10:39:18.595274,41.78,14.204493,-0.0033329230534799477,-0.023330473146428877,0.09745075675933246,40.106058693909645,-104.27510100388527,84.22370748782159
2024-09-23 10:39:18.638837,41.78,14.204589,-0.0033329230534799477,-0.023330473146428877,0.09745075675933246,40.106058693909645,-104.27510100388527,68.18063240997792
2024-09-23 10:39:18.651163,41.78,14.204589,-0.0033329230534799477,-0.023230986250042305,0.09705279702197278,28.07457030097246,-104.27510100388527,68.18063240997792
2024-09-23 10:39:18.694122,41.78,14.204641,-0.0034324103296106863,-0.023429960042815445,0.09695331012558621,28.07457030097246,-100.26678939585686,76.200527287817
2024-09-23 10:39:18.737199,41.78,14.204641,-0.0034324103296106863,-0.023429960042815445,0.09695331012558621,32.08287849390507,-100.26678939585686,84.22370748782159
2024-09-23 10:39:18.749037,41.78,14.204691,-0.003382661564999035,-0.023778180888911878,0.09695331012558621,32.08287849390507,-100.26678939585686,84.22370748782159
2024-09-23 10:39:18.791224,41.78,14.204742,-0.0030841997366068195,-0.023778180888911878,0.09789846602079214,40.106058693909645,-104.27510100388527,76.200527287817
2024-09-23 10:39:18.834933,41.78,14.204742,-0.0030841997366068195,-0.023827930413011865,0.09715228999426605,32.08287849390507,-104.27510100388527,76.200527287817
2024-09-23 10:39:18.846208,41.78,14.204832,-0.0030841997366068195,-0.023827930413011865,0.09715228999426605,32.08287849390507,-100.26678939585686,80.21211738781929
2024-09-23 10:39:18.888948,41.78,14.204832,-0.0028354659767690416,-0.023579196463302005,0.09685382322919964,36.09446859390736,-104.27510100388527,84.22370748782159
2024-09-23 10:39:18.931831,41.78,14.204884,-0.003233425524256645,-0.023579196463302005,0.09685382322919964,36.09446859390736,-104.27510100388527,84.22370748782159
2024-09-23 10:39:18.943719,41.78,14.204884,-0.003233425524256645,-0.02367869399252531,0.0973015264147526,40.106058693909645,-104.27510100388527,84.22370748782159
2024-09-23 10:39:18.987050,41.78,14.204934,-0.003631395514708897,-0.023429960042815445,0.09784872257259886,36.09446859390736,-104.27510100388527,88.23529758782387
2024-09-23 10:39:19.029166,41.78,14.204985,-0.003631395514708897,-0.023429960042815445,0.09784872257259886,36.09446859390736,-96.25519929585457,76.200527287817
2024-09-23 10:39:19.040378,41.78,14.204985,-0.003482159473966507,-0.02352945757203875,0.09720203344245934,36.09446859390736,-96.25519929585457,76.200527287817
2024-09-23 10:39:19.083745,41.78,14.205036,-0.0031836870127375577,-0.02352945757203875,0.09720203344245934,28.07457030097246,-96.25519929585457,76.200527287817
2024-09-23 10:39:19.126532,41.78,14.205036,-0.0031836870127375577,-0.02352945757203875,0.09695331012558621,32.08287849390507,-96.25519929585457,76.200527287817
2024-09-23 10:39:19.137763,41.78,14.205086,-0.0028354659767690416,-0.02352945757203875,0.09695331012558621,32.08287849390507,-100.26678939585686,80.21211738781929
2024-09-23 10:39:19.181198,41.78,14.205173,-0.0028354659767690416,-0.02308174982955575,0.0973015264147526,32.08287849390507,-100.26678939585686,84.22370748782159
2024-09-23 10:39:19.225155,41.78,14.205173,-0.0031836870127375577,-0.02367869399252531,0.09715228999426605,32.08287849390507,-100.26678939585686,84.22370748782159
2024-09-23 10:39:19.236857,41.78,14.205173,-0.0031836870127375577,-0.02367869399252531,0.09715228999426605,32.08287849390507,-100.26678939585686,80.21211738781929
2024-09-23 10:39:19.279199,41.78,14.205225,-0.0032831742888682963,-0.023429960042815445,0.09750050628343246,36.09446859390736,-100.26678939585686,80.21211738781929
2024-09-23 10:39:19.322487,41.78,14.205275,-0.003382661564999035,-0.023429960042815445,0.09750050628343246,36.09446859390736,-100.26678939585686,76.200527287817
2024-09-23 10:39:19.334025,41.78,14.205275,-0.003382661564999035,-0.023579196463302005,0.09650560086412653,44.11764879391193,-100.26678939585686,76.200527287817
2024-09-23 10:39:19.418358,41.78,14.205275,-0.003382661564999035,-0.023579196463302005,0.09650560086412653,44.11764879391193,-88.23529758782387,88.23529758782387
2024-09-23 10:39:19.430233,41.78,14.205326,-0.0030841997366068195,-0.02367869399252531,0.09685382322919964,44.11764879391193,-88.23529758782387,88.23529758782387
2024-09-23 10:39:19.474229,41.78,14.205377,-0.0032831742888682963,-0.023429960042815445,0.09685382322919964,36.09446859390736,-96.25519929585457,88.23529758782387
2024-09-23 10:39:19.517586,41.78,14.205377,-0.0032831742888682963,-0.023429960042815445,0.09680407370509965,32.08287849390507,-92.24360919585227,88.23529758782387
2024-09-23 10:39:19.529004,41.78,14.205427,-0.0030344509719951677,-0.023429960042815445,0.09680407370509965,32.08287849390507,-92.24360919585227,80.21211738781929
2024-09-23 10:39:19.571600,41.78,14.205514,-0.0030344509719951677,-0.023827930413011865,0.09720203344245934,36.09446859390736,-104.27510100388527,80.21211738781929
2024-09-23 10:39:19.614828,41.03,14.205514,-0.003979606107712764,-0.02338022115155219,0.09685382322919964,36.09446859390736,-104.27510100388527,80.21211738781929
2024-09-23 10:39:19.626306,41.03,14.205514,-0.003979606107712764,-0.02338022115155219,0.09685382322919964,32.08287849390507,-96.25519929585457,84.22370748782159
2024-09-23 10:39:19.668904,41.03,14.205612,-0.0032831742888682963,-0.023280723622328886,0.09720203344245934,36.09446859390736,-100.26678939585686,84.22370748782159
2024-09-23 10:39:19.710917,41.03,14.205664,-0.0032831742888682963,-0.023280723622328886,0.09720203344245934,36.09446859390736,-100.26678939585686,80.21211738781929
2024-09-23 10:39:19.723220,41.03,14.205664,-0.0036811340262279837,-0.023181236725942318,0.09715228999426605,36.09446859390736,-100.26678939585686,80.21211738781929
2024-09-23 10:39:19.766620,41.03,14.205714,-0.0028354659767690416,-0.023579196463302005,0.09665483728461309,36.09446859390736,-96.25519929585457,76.200527287817
2024-09-23 10:39:19.809781,41.03,14.205714,-0.0028354659767690416,-0.023579196463302005,0.09665483728461309,36.09446859390736,-100.26678939585686,80.21211738781929
2024-09-23 10:39:19.820825,41.03,14.205765,-0.0033329230534799477,-0.023330473146428877,0.09665483728461309,36.09446859390736,-100.26678939585686,80.21211738781929
2024-09-23 10:39:19.863898,41.03,14.205816,-0.0032831742888682963,-0.023330473146428877,0.09675432418099966,32.08287849390507,-104.27510100388527,80.21211738781929
2024-09-23 10:39:19.905878,41.03,14.205816,-0.0032831742888682963,-0.022982261414192504,0.09705279702197278,32.08287849390507,-104.27510100388527,80.21211738781929
2024-09-23 10:39:19.917097,41.03,14.205904,-0.0032831742888682963,-0.022982261414192504,0.09705279702197278,40.106058693909645,-96.25519929585457,80.21211738781929
2024-09-23 10:39:19.960605,41.03,14.205904,-0.0034324103296106863,-0.023429960042815445,0.09690356060148622,28.07457030097246,-96.25519929585457,80.21211738781929
2024-09-23 10:39:19.972358,41.03,14.205904,-0.0034324103296106863,-0.023429960042815445,0.09690356060148622,28.07457030097246,-96.25519929585457,80.21211738781929
2024-09-23 10:39:20.004397,41.03,14.205956,-0.0035318979854855937,-0.02338022115155219,0.09690356060148622,28.07457030097246,-96.25519929585457,80.21211738781929
2024-09-23 10:39:20.016106,41.03,14.205956,-0.0035318979854855937,-0.02338022115155219,0.09740101331113918,36.09446859390736,-92.24360919585227,80.21211738781929
2024-09-23 10:39:20.059230,41.03,14.206007,-0.0029847020175114316,-0.023479709566915436,0.09720203344245934,36.09446859390736,-92.24360919585227,80.21211738781929
2024-09-23 10:39:20.101641,41.03,14.206057,-0.0029847020175114316,-0.023479709566915436,0.09720203344245934,36.09446859390736,-108.28669110388756,68.18063240997792
2024-09-23 10:39:20.113371,41.03,14.206057,-0.0032831742888682963,-0.02362894446842532,0.09764974270391902,36.09446859390736,-108.28669110388756,68.18063240997792
2024-09-23 10:39:20.156505,41.03,14.206108,-0.0029349636958644295,-0.023280723622328886,0.09764974270391902,44.11764879391193,-100.26678939585686,76.200527287817
2024-09-23 10:39:20.199044,41.03,14.206108,-0.0029349636958644295,-0.023280723622328886,0.09690356060148622,40.106058693909645,-96.25519929585457,76.200527287817
2024-09-23 10:39:20.210118,41.03,14.206159,-0.003382661564999035,-0.023280723622328886,0.09690356060148622,40.106058693909645,-96.25519929585457,80.21211738781929
2024-09-23 10:39:20.252687,41.03,14.206246,-0.003382661564999035,-0.023330473146428877,0.09720203344245934,40.106058693909645,-100.26678939585686,76.200527287817
2024-09-23 10:39:20.295177,41.03,14.206246,-0.0033329230534799477,-0.023479709566915436,0.09720203344245934,40.106058693909645,-100.26678939585686,76.200527287817
2024-09-23 10:39:20.306800,41.03,14.206246,-0.0033329230534799477,-0.023479709566915436,0.09705279702197278,28.07457030097246,-104.27510100388527,76.200527287817
2024-09-23 10:39:20.350626,41.03,14.206298,-0.003233425524256645,-0.023778180888911878,0.09710254654607277,28.07457030097246,-104.27510100388527,76.200527287817
2024-09-23 10:39:20.362312,41.03,14.206298,-0.003233425524256645,-0.023778180888911878,0.09710254654607277,28.07457030097246,-100.26678939585686,76.200527287817
2024-09-23 10:39:20.446698,41.03,14.206348,-0.003233425524256645,-0.023330473146428877,0.09710254654607277,28.07457030097246,-100.26678939585686,80.21211738781929
2024-09-23 10:39:20.457756,41.03,14.206348,-0.003233425524256645,-0.023330473146428877,0.0973512698629459,44.11764879391193,-100.26678939585686,80.21211738781929
2024-09-23 10:39:20.491146,41.03,14.206348,-0.003233425524256645,-0.023330473146428877,0.0973512698629459,44.11764879391193,-100.26678939585686,84.22370748782159
2024-09-23 10:39:20.502672,41.03,14.206399,-0.0030344509719951677,-0.023429960042815445,0.09690356060148622,44.11764879391193,-100.26678939585686,84.22370748782159
2024-09-23 10:39:20.546621,41.03,14.20645,-0.0034324103296106863,-0.023280723622328886,0.09690356060148622,32.08287849390507,-104.27510100388527,76.200527287817
2024-09-23 10:39:20.589680,41.03,14.20645,-0.0034324103296106863,-0.023280723622328886,0.09690356060148622,40.106058693909645,-104.27510100388527,76.200527287817
2024-09-23 10:39:20.601260,41.03,14.206501,-0.0031836870127375577,-0.023280723622328886,0.09690356060148622,40.106058693909645,-104.27510100388527,80.21211738781929
2024-09-23 10:39:20.644098,40.86,14.206636,-0.0031836870127375577,-0.023728432883788564,0.0973512698629459,32.08287849390507,-104.27510100388527,80.21211738781929
2024-09-23 10:39:20.687028,40.86,14.206636,-0.0030344509719951677,-0.02308174982955575,0.0973512698629459,32.08287849390507,-104.27510100388527,80.21211738781929
2024-09-23 10:39:20.698699,40.86,14.206636,-0.0030344509719951677,-0.02308174982955575,0.0973512698629459,32.08287849390507,-108.28669110388756,80.21211738781929
2024-09-23 10:39:20.742606,40.86,14.206687,-0.0032831742888682963,-0.02293251340906919,0.0973015264147526,44.11764879391193,-100.26678939585686,80.21211738781929
2024-09-23 10:39:20.785043,40.86,14.206738,-0.0033329230534799477,-0.02293251340906919,0.0973015264147526,44.11764879391193,-100.26678939585686,76.200527287817
2024-09-23 10:39:20.796107,40.86,14.206738,-0.0033329230534799477,-0.024026904205785005,0.09755024973162574,36.09446859390736,-100.26678939585686,76.200527287817
2024-09-23 10:39:20.838268,40.86,14.206789,-0.0032831742888682963,-0.02338022115155219,0.09715228999426605,36.09446859390736,-100.26678939585686,80.21211738781929
2024-09-23 10:39:20.881812,40.86,14.206789,-0.0032831742888682963,-0.02338022115155219,0.09715228999426605,44.11764879391193,-96.25519929585457,80.21211738781929
2024-09-23 10:39:20.892912,40.86,14.206839,-0.003482159473966507,-0.023181236725942318,0.09715228999426605,44.11764879391193,-96.25519929585457,80.21211738781929
2024-09-23 10:39:20.936982,40.86,14.206839,-0.003482159473966507,-0.023181236725942318,0.09750050628343246,44.11764879391193,-96.25519929585457,80.21211738781929
2024-09-23 10:39:20.978931,40.86,14.206839,-0.003482159473966507,-0.023181236725942318,0.09750050628343246,36.09446859390736,-96.25519929585457,80.21211738781929
2024-09-23 10:39:21.033863,40.86,14.20689,-0.003631395514708897,-0.023181236725942318,0.09755024973162574,36.09446859390736,-96.25519929585457,80.21211738781929
2024-09-23 10:39:21.076534,40.86,14.20689,-0.003631395514708897,-0.023181236725942318,0.09755024973162574,44.11764879391193,-104.27510100388527,80.21211738781929
2024-09-23 10:39:21.087770,40.86,14.206977,-0.0032831742888682963,-0.023728432883788564,0.09755024973162574,44.11764879391193,-104.27510100388527,68.18063240997792
2024-09-23 10:39:21.130982,40.86,14.207029,-0.0032831742888682963,-0.023728432883788564,0.09794820946898543,48.12595698684454,-92.24360919585227,76.200527287817
2024-09-23 10:39:21.142559,40.86,14.207029,-0.0031339382481259063,-0.023728432883788564,0.09794820946898543,48.12595698684454,-92.24360919585227,76.200527287817
2024-09-23 10:39:21.175440,40.86,14.207029,-0.0031339382481259063,-0.023280723622328886,0.0973512698629459,36.09446859390736,-92.24360919585227,76.200527287817
2024-09-23 10:39:21.186440,40.86,14.20708,-0.0031339382481259063,-0.023280723622328886,0.0973512698629459,36.09446859390736,-100.26678939585686,80.21211738781929
2024-09-23 10:39:21.228909,40.86,14.20708,-0.003631395514708897,-0.023280723622328886,0.09680407370509965,36.09446859390736,-100.26678939585686,72.1922225099802
2024-09-23 10:39:21.272147,40.86,14.207221,-0.0037308827908396356,-0.02268379009219606,0.09680407370509965,36.09446859390736,-100.26678939585686,72.1922225099802
2024-09-23 10:39:21.283668,40.86,14.207221,-0.0037308827908396356,-0.02268379009219606,0.09695331012558621,36.09446859390736,-104.27510100388527,72.1922225099802
2024-09-23 10:39:21.326217,40.86,14.207273,-0.0028852147413806935,-0.02362894446842532,0.09725178296655933,32.08287849390507,-104.27510100388527,80.21211738781929
2024-09-23 10:39:21.368515,40.86,14.207273,-0.0028852147413806935,-0.02362894446842532,0.09725178296655933,32.08287849390507,-92.24360919585227,84.22370748782159
2024-09-23 10:39:21.380351,40.86,14.207323,-0.003929857343101113,-0.02367869399252531,0.09710254654607277,32.08287849390507,-92.24360919585227,84.22370748782159
2024-09-23 10:39:21.423921,40.86,14.207374,-0.0037308827908396356,-0.023181236725942318,0.09710254654607277,48.12595698684454,-100.26678939585686,72.1922225099802
2024-09-23 10:39:21.467359,40.86,14.207374,-0.0037308827908396356,-0.023181236725942318,0.09745075675933246,36.09446859390736,-100.26678939585686,72.1922225099802
2024-09-23 10:39:21.478717,40.86,14.207425,-0.0032831742888682963,-0.023181236725942318,0.09745075675933246,36.09446859390736,-100.26678939585686,80.21211738781929
2024-09-23 10:39:21.521699,40.86,14.207513,-0.0032831742888682963,-0.02352945757203875,0.09695331012558621,28.07457030097246,-96.25519929585457,80.21211738781929
2024-09-23 10:39:21.564324,40.86,14.207513,-0.0026862297461545674,-0.023330473146428877,0.09720203344245934,28.07457030097246,-96.25519929585457,80.21211738781929
2024-09-23 10:39:21.575298,40.86,14.207513,-0.0026862297461545674,-0.023330473146428877,0.09720203344245934,40.106058693909645,-92.24360919585227,80.21211738781929
2024-09-23 10:39:21.618014,40.86,14.207565,-0.0033329230534799477,-0.02352945757203875,0.09740101331113918,32.08287849390507,-96.25519929585457,80.21211738781929
2024-09-23 10:39:21.662432,40.54,14.207615,-0.003382661564999035,-0.02352945757203875,0.09740101331113918,32.08287849390507,-96.25519929585457,76.200527287817
2024-09-23 10:39:21.673776,40.54,14.207615,-0.003382661564999035,-0.023280723622328886,0.09690356060148622,36.09446859390736,-96.25519929585457,76.200527287817
2024-09-23 10:39:21.717122,40.54,14.207666,-0.0035318979854855937,-0.023429960042815445,0.09715228999426605,36.09446859390736,-100.26678939585686,72.1922225099802
2024-09-23 10:39:21.759270,40.54,14.207666,-0.0035318979854855937,-0.023429960042815445,0.09715228999426605,40.106058693909645,-96.25519929585457,92.24360919585227
2024-09-23 10:39:21.771383,40.54,14.207717,-0.0030841997366068195,-0.022982261414192504,0.09715228999426605,40.106058693909645,-96.25519929585457,92.24360919585227
2024-09-23 10:39:21.813890,40.54,14.207767,-0.0032831742888682963,-0.022982261414192504,0.09715228999426605,40.106058693909645,-100.26678939585686,80.21211738781929
2024-09-23 10:39:21.857134,40.54,14.207767,-0.0032831742888682963,-0.02313149783467906,0.0973512698629459,40.106058693909645,-100.26678939585686,80.21211738781929
2024-09-23 10:39:21.868586,40.54,14.207854,-0.0032831742888682963,-0.02313149783467906,0.0973512698629459,40.106058693909645,-92.24360919585227,76.200527287817
2024-09-23 10:39:21.911400,40.54,14.207854,-0.0026862297461545674,-0.02303200030545576,0.09740101331113918,36.09446859390736,-96.25519929585457,84.22370748782159
2024-09-23 10:39:21.953249,40.54,14.207906,-0.003233425524256645,-0.02303200030545576,0.09740101331113918,36.09446859390736,-96.25519929585457,84.22370748782159
2024-09-23 10:39:21.965118,40.54,14.207906,-0.003233425524256645,-0.023429960042815445,0.09715228999426605,32.08287849390507,-96.25519929585457,84.22370748782159
2024-09-23 10:39:22.007831,40.54,14.207957,-0.003482159473966507,-0.023181236725942318,0.0970030596496862,32.08287849390507,-96.25519929585457,88.23529758782387
2024-09-23 10:39:22.050494,40.54,14.207957,-0.003482159473966507,-0.023181236725942318,0.0970030596496862,32.08287849390507,-100.26678939585686,80.21211738781929
2024-09-23 10:39:22.061873,40.54,14.208007,-0.003631395514708897,-0.02352945757203875,0.09675432418099966,32.08287849390507,-100.26678939585686,80.21211738781929
2024-09-23 10:39:22.106105,40.54,14.208058,-0.0035318979854855937,-0.02352945757203875,0.09675432418099966,40.106058693909645,-104.27510100388527,80.21211738781929
2024-09-23 10:39:22.117995,40.54,14.208058,-0.0035318979854855937,-0.02338022115155219,0.09675432418099966,40.106058693909645,-104.27510100388527,80.21211738781929
2024-09-23 10:39:22.151246,40.54,14.208058,-0.0035318979854855937,-0.02338022115155219,0.09705279702197278,40.106058693909645,-104.27510100388527,80.21211738781929
2024-09-23 10:39:22.163142,40.54,14.208109,-0.0030841997366068195,-0.02338022115155219,0.09705279702197278,40.106058693909645,-104.27510100388527,76.200527287817
2024-09-23 10:39:22.195766,40.54,14.208109,-0.0030841997366068195,-0.02303200030545576,0.09705279702197278,40.106058693909645,-104.27510100388527,76.200527287817
2024-09-23 10:39:22.206683,40.54,14.208196,-0.0030841997366068195,-0.02303200030545576,0.0973015264147526,40.106058693909645,-92.24360919585227,72.1922225099802
2024-09-23 10:39:22.249776,40.54,14.208196,-0.0038801188315820256,-0.023778180888911878,0.09680407370509965,40.106058693909645,-96.25519929585457,72.1922225099802
2024-09-23 10:39:22.261843,40.54,14.208196,-0.0038801188315820256,-0.023778180888911878,0.09680407370509965,40.106058693909645,-96.25519929585457,80.21211738781929
2024-09-23 10:39:22.295323,40.54,14.208247,-0.003482159473966507,-0.023778180888911878,0.09680407370509965,40.106058693909645,-96.25519929585457,80.21211738781929
2024-09-23 10:39:22.306613,40.54,14.208247,-0.003482159473966507,-0.02367869399252531,0.09745075675933246,48.12595698684454,-104.27510100388527,80.21211738781929
2024-09-23 10:39:22.350045,40.54,14.208298,-0.0029847020175114316,-0.023230986250042305,0.0973512698629459,36.09446859390736,-104.27510100388527,76.200527287817
2024-09-23 10:39:22.393643,40.54,14.208348,-0.0029847020175114316,-0.023230986250042305,0.0973512698629459,36.09446859390736,-104.27510100388527,84.22370748782159
2024-09-23 10:39:22.405152,40.54,14.208348,-0.0032831742888682963,-0.023429960042815445,0.0970030596496862,36.09446859390736,-104.27510100388527,84.22370748782159
2024-09-23 10:39:22.448062,40.54,14.208348,-0.0032831742888682963,-0.023429960042815445,0.0970030596496862,32.08287849390507,-96.25519929585457,84.22370748782159
2024-09-23 10:39:22.490925,40.54,14.208399,-0.0034324103296106863,-0.02352945757203875,0.0970030596496862,32.08287849390507,-96.25519929585457,84.22370748782159
2024-09-23 10:39:22.502535,40.54,14.208399,-0.0034324103296106863,-0.02352945757203875,0.09685382322919964,36.09446859390736,-100.26678939585686,84.22370748782159
2024-09-23 10:39:22.546484,40.54,14.20845,-0.0035816467500972456,-0.024076653729884996,0.09720203344245934,36.09446859390736,-100.26678939585686,72.1922225099802
2024-09-23 10:39:22.589618,40.54,14.20845,-0.0035816467500972456,-0.024076653729884996,0.09720203344245934,36.09446859390736,-96.25519929585457,72.1922225099802
2024-09-23 10:39:22.642552,40.54,14.208537,-0.003482159473966507,-0.02293251340906919,0.0970030596496862,32.08287849390507,-96.25519929585457,80.21211738781929
2024-09-23 10:39:22.685876,40.49,14.208588,-0.003482159473966507,-0.02293251340906919,0.0970030596496862,32.08287849390507,-100.26678939585686,80.21211738781929
2024-09-23 10:39:22.697591,40.49,14.208588,-0.0032831742888682963,-0.023330473146428877,0.09725178296655933,32.08287849390507,-100.26678939585686,80.21211738781929
2024-09-23 10:39:22.740209,40.49,14.208639,-0.0030841997366068195,-0.02352945757203875,0.09725178296655933,44.11764879391193,-100.26678939585686,76.200527287817
2024-09-23 10:39:22.783471,40.49,14.208639,-0.0030841997366068195,-0.02352945757203875,0.09720203344245934,40.106058693909645,-104.27510100388527,76.200527287817
2024-09-23 10:39:22.795525,40.49,14.208732,-0.003482159473966507,-0.02352945757203875,0.09720203344245934,40.106058693909645,-104.27510100388527,68.18063240997792
2024-09-23 10:39:22.828090,40.49,14.208732,-0.003482159473966507,-0.02397715620066169,0.09720203344245934,40.106058693909645,-104.27510100388527,68.18063240997792
2024-09-23 10:39:22.839722,40.49,14.208783,-0.003482159473966507,-0.02397715620066169,0.0970030596496862,36.09446859390736,-100.26678939585686,76.200527287817
2024-09-23 10:39:22.882482,40.49,14.208783,-0.0036811340262279837,-0.02313149783467906,0.09750050628343246,36.09446859390736,-100.26678939585686,76.200527287817
2024-09-23 10:39:22.893972,40.49,14.208783,-0.0036811340262279837,-0.02313149783467906,0.09750050628343246,40.106058693909645,-96.25519929585457,84.22370748782159
2024-09-23 10:39:22.926342,40.49,14.208879,-0.0036811340262279837,-0.02313149783467906,0.09750050628343246,40.106058693909645,-96.25519929585457,84.22370748782159
2024-09-23 10:39:22.937460,40.49,14.208879,-0.003482159473966507,-0.02338022115155219,0.0970030596496862,44.11764879391193,-100.26678939585686,84.22370748782159
2024-09-23 10:39:22.980033,40.49,14.20893,-0.0030344509719951677,-0.02308174982955575,0.0970030596496862,44.11764879391193,-100.26678939585686,76.200527287817
2024-09-23 10:39:22.991810,40.49,14.20893,-0.0030344509719951677,-0.02308174982955575,0.0973512698629459,40.106058693909645,-100.26678939585686,76.200527287817
2024-09-23 10:39:23.023078,40.49,14.20893,-0.0030344509719951677,-0.02308174982955575,0.0973512698629459,40.106058693909645,-104.27510100388527,76.200527287817
2024-09-23 10:39:23.034503,40.49,14.208981,-0.002785727465249955,-0.02303200030545576,0.09745075675933246,40.106058693909645,-104.27510100388527,76.200527287817
2024-09-23 10:39:23.077387,40.49,14.209031,-0.002785727465249955,-0.02303200030545576,0.09745075675933246,36.09446859390736,-100.26678939585686,80.21211738781929
2024-09-23 10:39:23.089275,40.49,14.209031,-0.0029847020175114316,-0.02313149783467906,0.09745075675933246,36.09446859390736,-100.26678939585686,80.21211738781929
2024-09-23 10:39:23.122098,40.49,14.209031,-0.0029847020175114316,-0.02313149783467906,0.09670458680871308,36.09446859390736,-100.26678939585686,80.21211738781929
2024-09-23 10:39:23.133458,40.49,14.209082,-0.0034324103296106863,-0.02313149783467906,0.09670458680871308,44.11764879391193,-92.24360919585227,80.21211738781929
2024-09-23 10:39:23.176008,40.49,14.209082,-0.0034324103296106863,-0.02362894446842532,0.09705279702197278,36.09446859390736,-104.27510100388527,84.22370748782159
2024-09-23 10:39:23.188613,40.49,14.209171,-0.0034324103296106863,-0.02362894446842532,0.09705279702197278,36.09446859390736,-104.27510100388527,84.22370748782159
2024-09-23 10:39:23.220384,40.49,14.209171,-0.0024872551938930902,-0.023877669304275123,0.09705279702197278,36.09446859390736,-104.27510100388527,84.22370748782159
2024-09-23 10:39:23.231711,40.49,14.209171,-0.0024872551938930902,-0.023877669304275123,0.09705279702197278,36.09446859390736,-108.28669110388756,84.22370748782159
2024-09-23 10:39:23.273386,40.49,14.209222,-0.003233425524256645,-0.023827930413011865,0.0973512698629459,32.08287849390507,-108.28669110388756,84.22370748782159
2024-09-23 10:39:23.285414,40.49,14.209222,-0.003233425524256645,-0.023827930413011865,0.0973512698629459,32.08287849390507,-104.27510100388527,84.22370748782159
2024-09-23 10:39:23.318187,40.49,14.209273,-0.003233425524256645,-0.023827930413011865,0.0973512698629459,32.08287849390507,-104.27510100388527,80.21211738781929
2024-09-23 10:39:23.330101,40.49,14.209273,-0.0032831742888682963,-0.023579196463302005,0.09705279702197278,32.08287849390507,-104.27510100388527,80.21211738781929
2024-09-23 10:39:23.372560,40.49,14.209324,-0.0032831742888682963,-0.023579196463302005,0.09705279702197278,32.08287849390507,-104.27510100388527,80.21211738781929
2024-09-23 10:39:23.384779,40.49,14.209324,-0.0032831742888682963,-0.023579196463302005,0.09675432418099966,32.08287849390507,-104.27510100388527,80.21211738781929
2024-09-23 10:39:23.417060,40.49,14.209324,-0.0032831742888682963,-0.023579196463302005,0.09675432418099966,36.09446859390736,-92.24360919585227,88.23529758782387
2024-09-23 10:39:23.428576,40.49,14.209374,-0.0033329230534799477,-0.02367869399252531,0.09675432418099966,36.09446859390736,-92.24360919585227,88.23529758782387
2024-09-23 10:39:23.471758,40.49,14.209374,-0.0033329230534799477,-0.02367869399252531,0.09675432418099966,36.09446859390736,-92.24360919585227,88.23529758782387
2024-09-23 10:39:23.515225,40.49,14.209374,-0.0033329230534799477,-0.02367869399252531,0.09675432418099966,36.09446859390736,-96.25519929585457,88.23529758782387
2024-09-23 10:39:23.526500,40.49,14.209425,-0.003233425524256645,-0.02367869399252531,0.09675432418099966,36.09446859390736,-96.25519929585457,88.23529758782387
2024-09-23 10:39:23.569745,40.49,14.209512,-0.003233425524256645,-0.02303200030545576,0.09655535038822652,40.106058693909645,-96.25519929585457,76.200527287817
2024-09-23 10:39:23.612728,40.49,14.209512,-0.003382661564999035,-0.023579196463302005,0.09755024973162574,40.106058693909645,-96.25519929585457,76.200527287817
2024-09-23 10:39:23.624005,40.49,14.209512,-0.003382661564999035,-0.023579196463302005,0.09755024973162574,36.09446859390736,-92.24360919585227,84.22370748782159
2024-09-23 10:39:23.667905,40.49,14.209563,-0.003233425524256645,-0.02338022115155219,0.09725178296655933,36.09446859390736,-96.25519929585457,84.22370748782159
2024-09-23 10:39:23.710677,40.93,14.209614,-0.0031339382481259063,-0.02303200030545576,0.09725178296655933,36.09446859390736,-96.25519929585457,80.21211738781929
2024-09-23 10:39:23.722407,40.93,14.209614,-0.0031339382481259063,-0.02303200030545576,0.09715228999426605,36.09446859390736,-96.25519929585457,80.21211738781929
2024-09-23 10:39:23.754358,40.93,14.209614,-0.0031339382481259063,-0.02303200030545576,0.09715228999426605,36.09446859390736,-100.26678939585686,80.21211738781929
2024-09-23 10:39:23.766149,40.93,14.209708,-0.0031339382481259063,-0.02352945757203875,0.09690356060148622,36.09446859390736,-100.26678939585686,84.22370748782159
2024-09-23 10:39:23.808570,40.93,14.209759,-0.0031339382481259063,-0.02352945757203875,0.09690356060148622,24.06297849342227,-100.26678939585686,88.23529758782387
2024-09-23 10:39:23.820312,40.93,14.209759,-0.003482159473966507,-0.023579196463302005,0.09690356060148622,24.06297849342227,-100.26678939585686,88.23529758782387
2024-09-23 10:39:23.852124,40.93,14.209759,-0.003482159473966507,-0.023579196463302005,0.09725178296655933,24.06297849342227,-100.26678939585686,88.23529758782387
2024-09-23 10:39:23.864019,40.93,14.20981,-0.0031836870127375577,-0.023579196463302005,0.09725178296655933,36.09446859390736,-104.27510100388527,76.200527287817
2024-09-23 10:39:23.906420,40.93,14.20981,-0.0031836870127375577,-0.023877669304275123,0.09720203344245934,32.08287849390507,-96.25519929585457,76.200527287817
2024-09-23 10:39:23.917884,40.93,14.209902,-0.0031836870127375577,-0.023877669304275123,0.09720203344245934,32.08287849390507,-96.25519929585457,80.21211738781929
2024-09-23 10:39:23.949396,40.93,14.209902,-0.003382661564999035,-0.023877669304275123,0.09720203344245934,32.08287849390507,-96.25519929585457,80.21211738781929
2024-09-23 10:39:23.960937,40.93,14.209902,-0.003382661564999035,-0.02313149783467906,0.09710254654607277,36.09446859390736,-100.26678939585686,80.21211738781929
2024-09-23 10:39:24.003189,40.93,14.209953,-0.0031339382481259063,-0.023728432883788564,0.09705279702197278,36.09446859390736,-100.26678939585686,80.21211738781929
2024-09-23 10:39:24.014917,40.93,14.209953,-0.0031339382481259063,-0.023728432883788564,0.09705279702197278,36.09446859390736,-100.26678939585686,80.21211738781929
2024-09-23 10:39:24.047170,40.93,14.209953,-0.0031339382481259063,-0.023728432883788564,0.09705279702197278,36.09446859390736,-100.26678939585686,80.21211738781929
2024-09-23 10:39:24.058297,40.93,14.210004,-0.0033329230534799477,-0.02352945757203875,0.0970030596496862,36.09446859390736,-100.26678939585686,80.21211738781929
2024-09-23 10:39:24.101311,40.93,14.210055,-0.0033329230534799477,-0.02352945757203875,0.0970030596496862,36.09446859390736,-100.26678939585686,76.200527287817
2024-09-23 10:39:24.112614,40.93,14.210055,-0.003631395514708897,-0.02338022115155219,0.09740101331113918,36.09446859390736,-100.26678939585686,76.200527287817
2024-09-23 10:39:24.145987,40.93,14.210055,-0.003631395514708897,-0.02338022115155219,0.09740101331113918,44.11764879391193,-100.26678939585686,76.200527287817
2024-09-23 10:39:24.157555,40.93,14.210105,-0.0031836870127375577,-0.02367869399252531,0.09740101331113918,44.11764879391193,-96.25519929585457,88.23529758782387
2024-09-23 10:39:24.199873,40.93,14.210156,-0.0031836870127375577,-0.02367869399252531,0.09675432418099966,40.106058693909645,-100.26678939585686,84.22370748782159
2024-09-23 10:39:24.211925,40.93,14.210156,-0.0029847020175114316,-0.02367869399252531,0.09675432418099966,40.106058693909645,-100.26678939585686,84.22370748782159
2024-09-23 10:39:24.243722,40.93,14.210156,-0.0029847020175114316,-0.02367869399252531,0.09675432418099966,40.106058693909645,-100.26678939585686,84.22370748782159
2024-09-23 10:39:24.255968,40.93,14.210243,-0.0029847020175114316,-0.02367869399252531,0.09750050628343246,28.07457030097246,-100.26678939585686,76.200527287817
2024-09-23 10:39:24.298270,40.93,14.210243,-0.0033329230534799477,-0.023479709566915436,0.09755024973162574,36.09446859390736,-96.25519929585457,76.200527287817
2024-09-23 10:39:24.310391,40.93,14.210243,-0.0033329230534799477,-0.023479709566915436,0.09755024973162574,36.09446859390736,-96.25519929585457,88.23529758782387
2024-09-23 10:39:24.342966,40.93,14.210295,-0.0032831742888682963,-0.02397715620066169,0.09755024973162574,36.09446859390736,-96.25519929585457,88.23529758782387
2024-09-23 10:39:24.354091,40.93,14.210295,-0.0032831742888682963,-0.02397715620066169,0.09725178296655933,36.09446859390736,-88.23529758782387,88.23529758782387
2024-09-23 10:39:24.397570,40.93,14.210345,-0.0035816467500972456,-0.023330473146428877,0.0966050877605131,36.09446859390736,-88.23529758782387,88.23529758782387
2024-09-23 10:39:24.439480,40.93,14.210345,-0.0035816467500972456,-0.023330473146428877,0.0966050877605131,36.09446859390736,-96.25519929585457,80.21211738781929
2024-09-23 10:39:24.451458,40.93,14.210396,-0.003631395514708897,-0.0228827638849692,0.0973015264147526,36.09446859390736,-96.25519929585457,80.21211738781929
2024-09-23 10:39:24.493853,40.93,14.210396,-0.003631395514708897,-0.0228827638849692,0.0973015264147526,44.11764879391193,-96.25519929585457,80.21211738781929
2024-09-23 10:39:24.538728,40.93,14.210447,-0.003631395514708897,-0.0228827638849692,0.0973015264147526,44.11764879391193,-96.25519929585457,84.22370748782159
2024-09-23 10:39:24.550641,40.93,14.210447,-0.003233425524256645,-0.02352945757203875,0.09725178296655933,40.106058693909645,-96.25519929585457,84.22370748782159
2024-09-23 10:39:24.593822,40.93,14.210498,-0.0032831742888682963,-0.02352945757203875,0.09725178296655933,40.106058693909645,-96.25519929585457,88.23529758782387
2024-09-23 10:39:24.635729,40.93,14.210498,-0.0032831742888682963,-0.02352945757203875,0.09725178296655933,32.08287849390507,-92.24360919585227,76.200527287817
2024-09-23 10:39:24.647248,40.93,14.210584,-0.003382661564999035,-0.023728432883788564,0.09725178296655933,32.08287849390507,-92.24360919585227,76.200527287817
2024-09-23 10:39:24.690087,40.93,14.210636,-0.003482159473966507,-0.023728432883788564,0.09670458680871308,36.09446859390736,-88.23529758782387,76.200527287817
2024-09-23 10:39:24.733421,41.22,14.210636,-0.003482159473966507,-0.02362894446842532,0.09715228999426605,40.106058693909645,-88.23529758782387,76.200527287817
2024-09-23 10:39:24.745092,41.22,14.210687,-0.003482159473966507,-0.02362894446842532,0.09715228999426605,40.106058693909645,-100.26678939585686,80.21211738781929
2024-09-23 10:39:24.788920,41.22,14.210687,-0.0031836870127375577,-0.023479709566915436,0.09685382322919964,40.106058693909645,-100.26678939585686,76.200527287817
2024-09-23 10:39:24.830862,41.22,14.21078,-0.0030841997366068195,-0.024026904205785005,0.09685382322919964,40.106058693909645,-100.26678939585686,76.200527287817
2024-09-23 10:39:24.841892,41.22,14.21078,-0.0030841997366068195,-0.024026904205785005,0.09745075675933246,48.12595698684454,-92.24360919585227,76.200527287817
2024-09-23 10:39:24.883801,41.22,14.210831,-0.0030841997366068195,-0.02313149783467906,0.09720203344245934,36.09446859390736,-92.24360919585227,72.1922225099802
2024-09-23 10:39:24.927143,41.22,14.210831,-0.0030841997366068195,-0.02313149783467906,0.09720203344245934,36.09446859390736,-104.27510100388527,76.200527287817
2024-09-23 10:39:24.939078,41.22,14.210882,-0.0031836870127375577,-0.023778180888911878,0.0973512698629459,36.09446859390736,-104.27510100388527,76.200527287817
2024-09-23 10:39:24.981214,41.22,14.210933,-0.0028852147413806935,-0.023778180888911878,0.0973512698629459,28.07457030097246,-104.27510100388527,76.200527287817
2024-09-23 10:39:24.993357,41.22,14.210933,-0.0028852147413806935,-0.022982261414192504,0.0973512698629459,28.07457030097246,-104.27510100388527,76.200527287817
2024-09-23 10:39:25.026555,41.22,14.210933,-0.0028852147413806935,-0.022982261414192504,0.09720203344245934,36.09446859390736,-96.25519929585457,76.200527287817
2024-09-23 10:39:25.037895,41.22,14.210984,-0.0033329230534799477,-0.022982261414192504,0.09720203344245934,36.09446859390736,-96.25519929585457,76.200527287817
2024-09-23 10:39:25.080165,41.22,14.211072,-0.0033329230534799477,-0.023827930413011865,0.09715228999426605,36.09446859390736,-104.27510100388527,76.200527287817
2024-09-23 10:39:25.122411,41.22,14.211072,-0.002387757474797703,-0.02293251340906919,0.09740101331113918,36.09446859390736,-104.27510100388527,76.200527287817
2024-09-23 10:39:25.134991,41.22,14.211072,-0.002387757474797703,-0.02293251340906919,0.09740101331113918,36.09446859390736,-96.25519929585457,80.21211738781929
2024-09-23 10:39:25.177981,41.22,14.211123,-0.0030344509719951677,-0.02278327698858263,0.09710254654607277,36.09446859390736,-92.24360919585227,80.21211738781929
2024-09-23 10:39:25.220838,41.22,14.211174,-0.0035318979854855937,-0.02278327698858263,0.09710254654607277,36.09446859390736,-92.24360919585227,76.200527287817
2024-09-23 10:39:25.232648,41.22,14.211174,-0.0035318979854855937,-0.023479709566915436,0.09705279702197278,36.09446859390736,-92.24360919585227,76.200527287817
2024-09-23 10:39:25.275910,41.22,14.211225,-0.0037308827908396356,-0.02352945757203875,0.09695331012558621,36.09446859390736,-100.26678939585686,80.21211738781929
2024-09-23 10:39:25.318732,41.22,14.211225,-0.0037308827908396356,-0.02352945757203875,0.09695331012558621,40.106058693909645,-100.26678939585686,76.200527287817
2024-09-23 10:39:25.329906,41.22,14.211275,-0.0031339382481259063,-0.023927417309398437,0.09695331012558621,40.106058693909645,-100.26678939585686,76.200527287817
2024-09-23 10:39:25.372542,41.22,14.211326,-0.003233425524256645,-0.023927417309398437,0.09680407370509965,40.106058693909645,-92.24360919585227,76.200527287817
2024-09-23 10:39:25.415896,41.22,14.211326,-0.003233425524256645,-0.02338022115155219,0.09750050628343246,40.106058693909645,-92.24360919585227,76.200527287817
2024-09-23 10:39:25.468451,41.22,14.211413,-0.003233425524256645,-0.02338022115155219,0.09750050628343246,36.09446859390736,-100.26678939585686,80.21211738781929
2024-09-23 10:39:25.479840,41.22,14.211413,-0.0029847020175114316,-0.023230986250042305,0.09750050628343246,36.09446859390736,-100.26678939585686,80.21211738781929
2024-09-23 10:39:25.512483,41.22,14.211413,-0.0029847020175114316,-0.023230986250042305,0.09680407370509965,44.11764879391193,-100.26678939585686,80.21211738781929
2024-09-23 10:39:25.524525,41.22,14.211465,-0.0034324103296106863,-0.023230986250042305,0.09680407370509965,44.11764879391193,-92.24360919585227,84.22370748782159
2024-09-23 10:39:25.567475,41.22,14.211465,-0.0034324103296106863,-0.02362894446842532,0.09725178296655933,36.09446859390736,-92.24360919585227,84.22370748782159
2024-09-23 10:39:25.610346,41.22,14.211515,-0.0035816467500972456,-0.02362894446842532,0.09725178296655933,36.09446859390736,-92.24360919585227,84.22370748782159
2024-09-23 10:39:25.622808,41.22,14.211515,-0.0035816467500972456,-0.023429960042815445,0.09720203344245934,40.106058693909645,-92.24360919585227,84.22370748782159
2024-09-23 10:39:25.656570,41.22,14.211515,-0.0035816467500972456,-0.023429960042815445,0.09720203344245934,40.106058693909645,-92.24360919585227,84.22370748782159
2024-09-23 10:39:25.667547,41.22,14.211566,-0.0030344509719951677,-0.02308174982955575,0.09725178296655933,40.106058693909645,-92.24360919585227,80.21211738781929
2024-09-23 10:39:25.709401,41.22,14.211658,-0.0030344509719951677,-0.02308174982955575,0.09725178296655933,36.09446859390736,-100.26678939585686,76.200527287817
2024-09-23 10:39:25.720980,41.22,14.211658,-0.0030841997366068195,-0.02362894446842532,0.09725178296655933,36.09446859390736,-100.26678939585686,76.200527287817
2024-09-23 10:39:25.754441,41.35,14.211658,-0.0030841997366068195,-0.02362894446842532,0.0966050877605131,36.09446859390736,-100.26678939585686,76.200527287817
2024-09-23 10:39:25.765423,41.35,14.211709,-0.0033329230534799477,-0.02362894446842532,0.0966050877605131,44.11764879391193,-96.25519929585457,80.21211738781929
2024-09-23 10:39:25.808482,41.35,14.211709,-0.0033329230534799477,-0.023280723622328886,0.09764974270391902,40.106058693909645,-104.27510100388527,80.21211738781929
2024-09-23 10:39:25.820317,41.35,14.211803,-0.0033329230534799477,-0.023280723622328886,0.09764974270391902,40.106058693909645,-104.27510100388527,80.21211738781929
2024-09-23 10:39:25.852428,41.35,14.211803,-0.0032831742888682963,-0.023827930413011865,0.09764974270391902,40.106058693909645,-104.27510100388527,80.21211738781929
2024-09-23 10:39:25.864290,41.35,14.211803,-0.0032831742888682963,-0.023827930413011865,0.09764974270391902,36.09446859390736,-100.26678939585686,80.21211738781929
2024-09-23 10:39:25.906824,41.35,14.211855,-0.0037308827908396356,-0.02367869399252531,0.09710254654607277,36.09446859390736,-100.26678939585686,80.21211738781929
2024-09-23 10:39:25.918945,41.35,14.211855,-0.0037308827908396356,-0.02367869399252531,0.09710254654607277,36.09446859390736,-100.26678939585686,80.21211738781929
2024-09-23 10:39:25.950525,41.35,14.211905,-0.0037308827908396356,-0.02367869399252531,0.09710254654607277,36.09446859390736,-100.26678939585686,80.21211738781929
2024-09-23 10:39:25.961460,41.35,14.211905,-0.0030344509719951677,-0.02367869399252531,0.09665483728461309,36.09446859390736,-100.26678939585686,80.21211738781929
2024-09-23 10:39:26.004945,41.35,14.211956,-0.0031339382481259063,-0.023230986250042305,0.09665483728461309,36.09446859390736,-96.25519929585457,84.22370748782159
2024-09-23 10:39:26.047401,41.35,14.211956,-0.0031339382481259063,-0.023230986250042305,0.09665483728461309,40.106058693909645,-96.25519929585457,84.22370748782159
2024-09-23 10:39:26.059235,41.35,14.212007,-0.0031339382481259063,-0.023778180888911878,0.09665483728461309,40.106058693909645,-96.25519929585457,84.22370748782159
2024-09-23 10:39:26.102359,41.35,14.212057,-0.0031339382481259063,-0.023778180888911878,0.09685382322919964,36.09446859390736,-92.24360919585227,76.200527287817
2024-09-23 10:39:26.114256,41.35,14.212057,-0.0032831742888682963,-0.023778180888911878,0.09685382322919964,36.09446859390736,-92.24360919585227,76.200527287817
2024-09-23 10:39:26.146862,41.35,14.212057,-0.0032831742888682963,-0.023330473146428877,0.09720203344245934,36.09446859390736,-92.24360919585227,76.200527287817
2024-09-23 10:39:26.157948,41.35,14.212144,-0.0032831742888682963,-0.023330473146428877,0.09720203344245934,36.09446859390736,-100.26678939585686,80.21211738781929
2024-09-23 10:39:26.201206,41.35,14.212144,-0.0031836870127375577,-0.02338022115155219,0.09710254654607277,32.08287849390507,-96.25519929585457,84.22370748782159
2024-09-23 10:39:26.244971,41.35,14.212196,-0.003233425524256645,-0.023778180888911878,0.09710254654607277,32.08287849390507,-96.25519929585457,84.22370748782159
2024-09-23 10:39:26.256459,41.35,14.212196,-0.003233425524256645,-0.023778180888911878,0.09705279702197278,40.106058693909645,-104.27510100388527,84.22370748782159
2024-09-23 10:39:26.298873,41.35,14.212247,-0.002586742470023829,-0.023877669304275123,0.09695331012558621,36.09446859390736,-104.27510100388527,80.21211738781929
2024-09-23 10:39:26.341986,41.35,14.212297,-0.002586742470023829,-0.023877669304275123,0.09695331012558621,36.09446859390736,-92.24360919585227,84.22370748782159
2024-09-23 10:39:26.353688,41.35,14.212297,-0.0029847020175114316,-0.02338022115155219,0.09670458680871308,36.09446859390736,-92.24360919585227,84.22370748782159
2024-09-23 10:39:26.397265,41.35,14.212348,-0.0034324103296106863,-0.02412639262114825,0.09670458680871308,36.09446859390736,-92.24360919585227,76.200527287817
2024-09-23 10:39:26.440460,41.35,14.212348,-0.0034324103296106863,-0.02412639262114825,0.09655535038822652,52.137550501942634,-92.24360919585227,80.21211738781929
2024-09-23 10:39:26.452059,41.35,14.212399,-0.0034324103296106863,-0.02412639262114825,0.09655535038822652,52.137550501942634,-92.24360919585227,80.21211738781929
2024-09-23 10:39:26.494849,41.35,14.212486,-0.0034324103296106863,-0.02313149783467906,0.09705279702197278,32.08287849390507,-100.26678939585686,80.21211738781929
2024-09-23 10:39:26.538535,41.35,14.212486,-0.0035318979854855937,-0.023280723622328886,0.09705279702197278,32.08287849390507,-100.26678939585686,80.21211738781929
2024-09-23 10:39:26.550004,41.35,14.212486,-0.0035318979854855937,-0.023280723622328886,0.09705279702197278,36.09446859390736,-96.25519929585457,84.22370748782159
2024-09-23 10:39:26.582104,41.35,14.212537,-0.0035318979854855937,-0.023280723622328886,0.09705279702197278,36.09446859390736,-96.25519929585457,84.22370748782159
2024-09-23 10:39:26.593855,41.35,14.212537,-0.002785727465249955,-0.023728432883788564,0.09705279702197278,36.09446859390736,-96.25519929585457,84.22370748782159
2024-09-23 10:39:26.636493,41.35,14.212537,-0.002785727465249955,-0.023728432883788564,0.09670458680871308,36.09446859390736,-96.25519929585457,88.23529758782387
2024-09-23 10:39:26.648498,41.35,14.212588,-0.0033329230534799477,-0.023728432883788564,0.09670458680871308,36.09446859390736,-96.25519929585457,88.23529758782387
2024-09-23 10:39:26.680962,41.35,14.212588,-0.0033329230534799477,-0.023579196463302005,0.09670458680871308,36.09446859390736,-96.25519929585457,88.23529758782387
2024-09-23 10:39:26.692882,41.35,14.212639,-0.0033329230534799477,-0.023579196463302005,0.09715228999426605,36.09446859390736,-100.26678939585686,80.21211738781929
2024-09-23 10:39:26.735135,41.35,14.212639,-0.0033329230534799477,-0.023429960042815445,0.09745075675933246,36.09446859390736,-100.26678939585686,80.21211738781929
2024-09-23 10:39:26.746928,41.35,14.212639,-0.0033329230534799477,-0.023429960042815445,0.09745075675933246,36.09446859390736,-100.26678939585686,76.200527287817
2024-09-23 10:39:26.779366,41.53,14.212689,-0.0033329230534799477,-0.023429960042815445,0.09745075675933246,36.09446859390736,-100.26678939585686,76.200527287817
2024-09-23 10:39:26.790580,41.53,14.212689,-0.0030841997366068195,-0.023479709566915436,0.09705279702197278,40.106058693909645,-100.26678939585686,76.200527287817
2024-09-23 10:39:26.832520,41.53,14.21274,-0.0034324103296106863,-0.02352945757203875,0.09665483728461309,40.106058693909645,-100.26678939585686,76.200527287817
2024-09-23 10:39:26.844189,41.53,14.21274,-0.0034324103296106863,-0.02352945757203875,0.09665483728461309,36.09446859390736,-100.26678939585686,76.200527287817
2024-09-23 10:39:26.876010,41.53,14.21274,-0.0034324103296106863,-0.02352945757203875,0.09665483728461309,36.09446859390736,-100.26678939585686,76.200527287817
2024-09-23 10:39:26.887864,41.53,14.212829,-0.0033329230534799477,-0.023330473146428877,0.09715228999426605,36.09446859390736,-100.26678939585686,80.21211738781929
2024-09-23 10:39:26.930222,41.53,14.212879,-0.0029349636958644295,-0.023330473146428877,0.09715228999426605,36.09446859390736,-92.24360919585227,84.22370748782159
2024-09-23 10:39:26.941865,41.53,14.212879,-0.0029349636958644295,-0.02367869399252531,0.09715228999426605,36.09446859390736,-92.24360919585227,84.22370748782159
2024-09-23 10:39:26.973997,41.53,14.212879,-0.0029349636958644295,-0.02367869399252531,0.09705279702197278,36.09446859390736,-92.24360919585227,84.22370748782159
2024-09-23 10:39:26.985700,41.53,14.21293,-0.0037308827908396356,-0.02367869399252531,0.09705279702197278,36.09446859390736,-104.27510100388527,84.22370748782159
2024-09-23 10:39:27.028904,41.53,14.213022,-0.0037308827908396356,-0.023429960042815445,0.09740101331113918,28.07457030097246,-100.26678939585686,76.200527287817
2024-09-23 10:39:27.071782,41.53,14.213022,-0.002785727465249955,-0.02338022115155219,0.09740101331113918,28.07457030097246,-100.26678939585686,76.200527287817
2024-09-23 10:39:27.082837,41.53,14.213022,-0.002785727465249955,-0.02338022115155219,0.0970030596496862,36.09446859390736,-96.25519929585457,76.200527287817
2024-09-23 10:39:27.126365,41.53,14.213073,-0.0031836870127375577,-0.022982261414192504,0.09715228999426605,40.106058693909645,-96.25519929585457,76.200527287817
2024-09-23 10:39:27.169003,41.53,14.213124,-0.0031836870127375577,-0.022982261414192504,0.09715228999426605,40.106058693909645,-96.25519929585457,76.200527287817
2024-09-23 10:39:27.180538,41.53,14.213124,-0.0031339382481259063,-0.02362894446842532,0.09720203344245934,36.09446859390736,-96.25519929585457,76.200527287817
2024-09-23 10:39:27.223860,41.53,14.213175,-0.0030841997366068195,-0.02367869399252531,0.09680407370509965,36.09446859390736,-100.26678939585686,84.22370748782159
2024-09-23 10:39:27.266678,41.53,14.213175,-0.0030841997366068195,-0.02367869399252531,0.09680407370509965,36.09446859390736,-96.25519929585457,84.22370748782159
2024-09-23 10:39:27.278275,41.53,14.213225,-0.0032831742888682963,-0.023927417309398437,0.09680407370509965,36.09446859390736,-96.25519929585457,80.21211738781929
2024-09-23 10:39:27.320227,41.53,14.213276,-0.0032831742888682963,-0.023927417309398437,0.09650560086412653,28.07457030097246,-100.26678939585686,72.1922225099802
2024-09-23 10:39:27.332779,41.53,14.213276,-0.003233425524256645,-0.023927417309398437,0.09650560086412653,28.07457030097246,-100.26678939585686,72.1922225099802
2024-09-23 10:39:27.364438,41.53,14.213276,-0.003233425524256645,-0.02362894446842532,0.09705279702197278,28.07457030097246,-100.26678939585686,72.1922225099802
2024-09-23 10:39:27.376332,41.53,14.213363,-0.003233425524256645,-0.02362894446842532,0.09705279702197278,40.106058693909645,-96.25519929585457,80.21211738781929
2024-09-23 10:39:27.419102,41.53,14.213363,-0.0034324103296106863,-0.02338022115155219,0.09715228999426605,48.12595698684454,-96.25519929585457,68.18063240997792
2024-09-23 10:39:27.462092,41.53,14.213415,-0.0030841997366068195,-0.02338022115155219,0.09715228999426605,48.12595698684454,-96.25519929585457,68.18063240997792
2024-09-23 10:39:27.473309,41.53,14.213415,-0.0030841997366068195,-0.023330473146428877,0.09715228999426605,40.106058693909645,-96.25519929585457,68.18063240997792
2024-09-23 10:39:27.516300,41.53,14.213466,-0.0035816467500972456,-0.02338022115155219,0.09665483728461309,40.106058693909645,-96.25519929585457,72.1922225099802
2024-09-23 10:39:27.528469,41.53,14.213466,-0.0035816467500972456,-0.02338022115155219,0.09665483728461309,36.09446859390736,-96.25519929585457,72.1922225099802
2024-09-23 10:39:27.612232,41.53,14.213516,-0.0035816467500972456,-0.02338022115155219,0.09665483728461309,36.09446859390736,-96.25519929585457,84.22370748782159
2024-09-23 10:39:27.664488,41.53,14.213516,-0.0035816467500972456,-0.024076653729884996,0.09710254654607277,36.09446859390736,-100.26678939585686,80.21211738781929
2024-09-23 10:39:27.707490,41.53,14.213567,-0.0028852147413806935,-0.024076653729884996,0.09710254654607277,36.09446859390736,-100.26678939585686,80.21211738781929
2024-09-23 10:39:27.718409,41.53,14.213567,-0.0028852147413806935,-0.023827930413011865,0.09695331012558621,40.106058693909645,-96.25519929585457,80.21211738781929
2024-09-23 10:39:27.761029,41.53,14.213618,-0.0028852147413806935,-0.023827930413011865,0.09695331012558621,40.106058693909645,-96.25519929585457,72.1922225099802
2024-09-23 10:39:27.802904,41.42,14.213618,-0.002785727465249955,-0.023230986250042305,0.09695331012558621,40.106058693909645,-96.25519929585457,72.1922225099802
2024-09-23 10:39:27.814241,41.42,14.213618,-0.002785727465249955,-0.023230986250042305,0.0973512698629459,36.09446859390736,-92.24360919585227,80.21211738781929
2024-09-23 10:39:27.857157,41.42,14.213704,-0.0028354659767690416,-0.02362894446842532,0.09725178296655933,32.08287849390507,-92.24360919585227,80.21211738781929
2024-09-23 10:39:27.868916,41.42,14.213704,-0.0028354659767690416,-0.02362894446842532,0.09725178296655933,32.08287849390507,-104.27510100388527,80.21211738781929
2024-09-23 10:39:27.900555,41.42,14.213802,-0.0028354659767690416,-0.02362894446842532,0.09725178296655933,32.08287849390507,-104.27510100388527,80.21211738781929
2024-09-23 10:39:27.911614,41.42,14.213802,-0.0034324103296106863,-0.02352945757203875,0.09755024973162574,36.09446859390736,-104.27510100388527,80.21211738781929
2024-09-23 10:39:27.954759,41.42,14.213854,-0.0031339382481259063,-0.02352945757203875,0.09755024973162574,36.09446859390736,-104.27510100388527,80.21211738781929
2024-09-23 10:39:27.966400,41.42,14.213854,-0.0031339382481259063,-0.02352945757203875,0.09685382322919964,36.09446859390736,-104.27510100388527,80.21211738781929
2024-09-23 10:39:27.998210,41.42,14.213854,-0.0031339382481259063,-0.02352945757203875,0.09685382322919964,44.11764879391193,-100.26678939585686,80.21211738781929
2024-09-23 10:39:28.009364,41.42,14.213948,-0.003482159473966507,-0.023429960042815445,0.09685382322919964,44.11764879391193,-100.26678939585686,80.21211738781929
2024-09-23 10:39:28.051695,41.42,14.214,-0.003482159473966507,-0.023429960042815445,0.09745075675933246,40.106058693909645,-104.27510100388527,72.1922225099802
2024-09-23 10:39:28.063753,41.42,14.214,-0.0033329230534799477,-0.023429960042815445,0.09745075675933246,40.106058693909645,-104.27510100388527,72.1922225099802
2024-09-23 10:39:28.095586,41.42,14.214,-0.0033329230534799477,-0.023429960042815445,0.09675432418099966,40.106058693909645,-104.27510100388527,72.1922225099802
2024-09-23 10:39:28.107546,41.42,14.214094,-0.0033329230534799477,-0.023429960042815445,0.09675432418099966,40.106058693909645,-96.25519929585457,84.22370748782159
2024-09-23 10:39:28.150272,41.42,14.214094,-0.002636491424507565,-0.02362894446842532,0.0973512698629459,32.08287849390507,-100.26678939585686,76.200527287817
2024-09-23 10:39:28.192597,41.42,14.214146,-0.0030344509719951677,-0.02362894446842532,0.0973512698629459,32.08287849390507,-100.26678939585686,76.200527287817
2024-09-23 10:39:28.204134,41.42,14.214146,-0.0030344509719951677,-0.023280723622328886,0.09690356060148622,44.11764879391193,-100.26678939585686,76.200527287817
2024-09-23 10:39:28.246086,41.42,14.214197,-0.0036811340262279837,-0.023429960042815445,0.09715228999426605,44.11764879391193,-100.26678939585686,84.22370748782159
2024-09-23 10:39:28.257764,41.42,14.214197,-0.0036811340262279837,-0.023429960042815445,0.09715228999426605,40.106058693909645,-100.26678939585686,84.22370748782159
2024-09-23 10:39:28.290051,41.42,14.214197,-0.0036811340262279837,-0.023429960042815445,0.09715228999426605,40.106058693909645,-100.26678939585686,84.22370748782159
2024-09-23 10:39:28.301912,41.42,14.214248,-0.003482159473966507,-0.02352945757203875,0.09690356060148622,40.106058693909645,-100.26678939585686,84.22370748782159
2024-09-23 10:39:28.344345,41.42,14.214299,-0.0030344509719951677,-0.02352945757203875,0.09690356060148622,40.106058693909645,-104.27510100388527,84.22370748782159
2024-09-23 10:39:28.356660,41.42,14.214299,-0.0030344509719951677,-0.023280723622328886,0.09690356060148622,40.106058693909645,-104.27510100388527,84.22370748782159
2024-09-23 10:39:28.389889,41.42,14.214299,-0.0030344509719951677,-0.023280723622328886,0.0970030596496862,32.08287849390507,-88.23529758782387,84.22370748782159
2024-09-23 10:39:28.401390,41.42,14.214349,-0.002785727465249955,-0.023280723622328886,0.0970030596496862,32.08287849390507,-88.23529758782387,88.23529758782387
2024-09-23 10:39:28.434608,41.42,14.214349,-0.002785727465249955,-0.023230986250042305,0.0970030596496862,32.08287849390507,-88.23529758782387,88.23529758782387
2024-09-23 10:39:28.446749,41.42,14.214436,-0.002785727465249955,-0.023230986250042305,0.09680407370509965,40.106058693909645,-96.25519929585457,80.21211738781929
2024-09-23 10:39:28.490426,41.42,14.214436,-0.0035318979854855937,-0.02352945757203875,0.0970030596496862,40.106058693909645,-100.26678939585686,80.21211738781929
2024-09-23 10:39:28.502323,41.42,14.214436,-0.0035318979854855937,-0.02352945757203875,0.0970030596496862,40.106058693909645,-100.26678939585686,80.21211738781929
2024-09-23 10:39:28.535808,41.42,14.214487,-0.0030344509719951677,-0.02362894446842532,0.0970030596496862,40.106058693909645,-100.26678939585686,80.21211738781929
2024-09-23 10:39:28.547203,41.42,14.214487,-0.0030344509719951677,-0.02362894446842532,0.09720203344245934,32.08287849390507,-100.26678939585686,80.21211738781929
2024-09-23 10:39:28.630626,41.42,14.214487,-0.0030344509719951677,-0.02362894446842532,0.09720203344245934,32.08287849390507,-100.26678939585686,84.22370748782159
2024-09-23 10:39:28.642228,41.42,14.214538,-0.0031339382481259063,-0.023579196463302005,0.09685382322919964,40.106058693909645,-100.26678939585686,84.22370748782159
2024-09-23 10:39:28.684801,41.42,14.214589,-0.002785727465249955,-0.023579196463302005,0.09685382322919964,40.106058693909645,-104.27510100388527,84.22370748782159
2024-09-23 10:39:28.696465,41.42,14.214589,-0.002785727465249955,-0.023778180888911878,0.09685382322919964,40.106058693909645,-104.27510100388527,84.22370748782159
2024-09-23 10:39:28.728086,41.42,14.214589,-0.002785727465249955,-0.023778180888911878,0.09685382322919964,40.106058693909645,-104.27510100388527,84.22370748782159
2024-09-23 10:39:28.739647,41.42,14.214639,-0.0033329230534799477,-0.023827930413011865,0.09685382322919964,40.106058693909645,-100.26678939585686,80.21211738781929
2024-09-23 10:39:28.782319,41.42,14.21469,-0.0033329230534799477,-0.023827930413011865,0.09774922960030558,36.09446859390736,-100.26678939585686,80.21211738781929
2024-09-23 10:39:28.794312,41.42,14.21469,-0.003482159473966507,-0.023827930413011865,0.09774922960030558,36.09446859390736,-100.26678939585686,80.21211738781929
2024-09-23 10:39:28.826378,41.73,14.21469,-0.003482159473966507,-0.023579196463302005,0.0970030596496862,36.09446859390736,-100.26678939585686,80.21211738781929
2024-09-23 10:39:28.837774,41.73,14.214777,-0.003482159473966507,-0.023579196463302005,0.0970030596496862,36.09446859390736,-100.26678939585686,80.21211738781929
2024-09-23 10:39:28.879760,41.73,14.214777,-0.003631395514708897,-0.023429960042815445,0.0966050877605131,32.08287849390507,-96.25519929585457,80.21211738781929
2024-09-23 10:39:28.891374,41.73,14.214777,-0.003631395514708897,-0.023429960042815445,0.0966050877605131,32.08287849390507,-96.25519929585457,76.200527287817
2024-09-23 10:39:28.923833,41.73,14.214875,-0.003233425524256645,-0.023429960042815445,0.0966050877605131,32.08287849390507,-96.25519929585457,76.200527287817
2024-09-23 10:39:28.935602,41.73,14.214875,-0.003233425524256645,-0.02352945757203875,0.09690356060148622,36.09446859390736,-96.25519929585457,76.200527287817
2024-09-23 10:39:28.978037,41.73,14.214926,-0.002586742470023829,-0.02313149783467906,0.09690356060148622,36.09446859390736,-96.25519929585457,76.200527287817
2024-09-23 10:39:28.990142,41.73,14.214926,-0.002586742470023829,-0.02313149783467906,0.09690356060148622,36.09446859390736,-96.25519929585457,76.200527287817
2024-09-23 10:39:29.023280,41.73,14.214977,-0.002586742470023829,-0.02313149783467906,0.09690356060148622,36.09446859390736,-100.26678939585686,76.200527287817
2024-09-23 10:39:29.035063,41.73,14.214977,-0.003233425524256645,-0.023479709566915436,0.09695331012558621,36.09446859390736,-100.26678939585686,76.200527287817
2024-09-23 10:39:29.077546,41.73,14.215028,-0.0029349636958644295,-0.02313149783467906,0.09695331012558621,32.08287849390507,-96.25519929585457,76.200527287817
2024-09-23 10:39:29.119116,41.73,14.215028,-0.0029349636958644295,-0.02313149783467906,0.09685382322919964,44.11764879391193,-96.25519929585457,76.200527287817
2024-09-23 10:39:29.132472,41.73,14.215078,-0.0032831742888682963,-0.02313149783467906,0.09685382322919964,44.11764879391193,-100.26678939585686,80.21211738781929
2024-09-23 10:39:29.176206,41.73,14.215167,-0.0032831742888682963,-0.023877669304275123,0.09750050628343246,36.09446859390736,-100.26678939585686,76.200527287817
2024-09-23 10:39:29.218518,41.73,14.215167,-0.0034324103296106863,-0.023827930413011865,0.09685382322919964,36.09446859390736,-100.26678939585686,76.200527287817
2024-09-23 10:39:29.230037,41.73,14.215167,-0.0034324103296106863,-0.023827930413011865,0.09685382322919964,28.07457030097246,-96.25519929585457,84.22370748782159
2024-09-23 10:39:29.272410,41.73,14.215218,-0.0036811340262279837,-0.024424863943144692,0.0976994861521123,36.09446859390736,-96.25519929585457,84.22370748782159
2024-09-23 10:39:29.315358,41.73,14.215269,-0.003482159473966507,-0.024424863943144692,0.0976994861521123,36.09446859390736,-96.25519929585457,84.22370748782159
2024-09-23 10:39:29.327140,41.73,14.215269,-0.003482159473966507,-0.02397715620066169,0.09705279702197278,40.106058693909645,-96.25519929585457,84.22370748782159
2024-09-23 10:39:29.369988,41.73,14.21532,-0.0031836870127375577,-0.023778180888911878,0.09690356060148622,40.106058693909645,-100.26678939585686,80.21211738781929
2024-09-23 10:39:29.412432,41.73,14.21532,-0.0031836870127375577,-0.023778180888911878,0.09690356060148622,44.11764879391193,-108.28669110388756,80.21211738781929
2024-09-23 10:39:29.424130,41.73,14.21537,-0.003631395514708897,-0.023728432883788564,0.09690356060148622,44.11764879391193,-108.28669110388756,76.200527287817
2024-09-23 10:39:29.458720,41.73,14.21537,-0.003631395514708897,-0.023728432883788564,0.0966050877605131,44.11764879391193,-108.28669110388756,76.200527287817
2024-09-23 10:39:29.470182,41.73,14.215421,-0.002785727465249955,-0.023728432883788564,0.0966050877605131,40.106058693909645,-96.25519929585457,76.200527287817
2024-09-23 10:39:29.512006,41.73,14.215421,-0.002785727465249955,-0.0228827638849692,0.09725178296655933,32.08287849390507,-92.24360919585227,76.200527287817
2024-09-23 10:39:29.523531,41.73,14.215508,-0.002785727465249955,-0.0228827638849692,0.09725178296655933,32.08287849390507,-92.24360919585227,80.21211738781929
2024-09-23 10:39:29.555863,41.73,14.215508,-0.0033329230534799477,-0.0228827638849692,0.09725178296655933,32.08287849390507,-92.24360919585227,80.21211738781929
2024-09-23 10:39:29.566878,41.73,14.215508,-0.0033329230534799477,-0.023579196463302005,0.09630662707135339,32.08287849390507,-100.26678939585686,84.22370748782159
2024-09-23 10:39:29.661350,41.73,14.21556,-0.0033329230534799477,-0.023579196463302005,0.09630662707135339,32.08287849390507,-100.26678939585686,84.22370748782159
2024-09-23 10:39:29.704409,41.73,14.21556,-0.003382661564999035,-0.023429960042815445,0.09630662707135339,32.08287849390507,-100.26678939585686,84.22370748782159
2024-09-23 10:39:29.715829,41.73,14.21556,-0.003382661564999035,-0.023429960042815445,0.09670458680871308,40.106058693909645,-100.26678939585686,84.22370748782159
2024-09-23 10:39:29.758622,41.73,14.21561,-0.003780631555451287,-0.023778180888911878,0.09670458680871308,40.106058693909645,-96.25519929585457,80.21211738781929
2024-09-23 10:39:29.770331,41.73,14.21561,-0.003780631555451287,-0.023778180888911878,0.0970030596496862,40.106058693909645,-96.25519929585457,80.21211738781929
2024-09-23 10:39:29.854554,41.99,14.21561,-0.003780631555451287,-0.023778180888911878,0.0970030596496862,28.07457030097246,-92.24360919585227,80.21211738781929
2024-09-23 10:39:29.865909,41.99,14.215661,-0.0031836870127375577,-0.02362894446842532,0.0970030596496862,28.07457030097246,-92.24360919585227,80.21211738781929
2024-09-23 10:39:29.898358,41.99,14.215661,-0.0031836870127375577,-0.02362894446842532,0.09670458680871308,28.07457030097246,-92.24360919585227,80.21211738781929
2024-09-23 10:39:29.909819,41.99,14.215712,-0.0035318979854855937,-0.02362894446842532,0.09670458680871308,44.11764879391193,-96.25519929585457,76.200527287817
2024-09-23 10:39:29.952882,41.99,14.215712,-0.0035318979854855937,-0.023330473146428877,0.0970030596496862,24.06297849342227,-100.26678939585686,84.22370748782159
2024-09-23 10:39:29.964716,41.99,14.215763,-0.0035318979854855937,-0.023330473146428877,0.0970030596496862,24.06297849342227,-100.26678939585686,84.22370748782159
2024-09-23 10:39:29.996392,41.99,14.215763,-0.0034324103296106863,-0.023181236725942318,0.0970030596496862,24.06297849342227,-100.26678939585686,84.22370748782159
2024-09-23 10:39:30.007895,41.99,14.215763,-0.0034324103296106863,-0.023181236725942318,0.09705279702197278,36.09446859390736,-100.26678939585686,84.22370748782159
2024-09-23 10:39:30.050670,41.99,14.215947,-0.0037308827908396356,-0.023728432883788564,0.09705279702197278,44.11764879391193,-100.26678939585686,84.22370748782159
2024-09-23 10:39:30.062235,41.99,14.215947,-0.0037308827908396356,-0.023728432883788564,0.09705279702197278,44.11764879391193,-100.26678939585686,84.22370748782159
2024-09-23 10:39:30.094376,41.99,14.216046,-0.0037308827908396356,-0.023728432883788564,0.09705279702197278,44.11764879391193,-100.26678939585686,80.21211738781929
2024-09-23 10:39:30.105706,41.99,14.216046,-0.0035816467500972456,-0.023827930413011865,0.09645586349183995,36.09446859390736,-100.26678939585686,80.21211738781929
2024-09-23 10:39:30.147999,41.99,14.216097,-0.0031339382481259063,-0.023827930413011865,0.09645586349183995,36.09446859390736,-100.26678939585686,76.200527287817
2024-09-23 10:39:30.160243,41.99,14.216097,-0.0031339382481259063,-0.02397715620066169,0.09695331012558621,36.09446859390736,-100.26678939585686,76.200527287817
2024-09-23 10:39:30.193779,41.99,14.216097,-0.0031339382481259063,-0.02397715620066169,0.09695331012558621,36.09446859390736,-104.27510100388527,76.200527287817
2024-09-23 10:39:30.205191,41.99,14.216147,-0.0036811340262279837,-0.02338022115155219,0.09695331012558621,36.09446859390736,-104.27510100388527,76.200527287817
2024-09-23 10:39:30.249839,41.99,14.216198,-0.0033329230534799477,-0.02338022115155219,0.09685382322919964,36.09446859390736,-96.25519929585457,80.21211738781929
2024-09-23 10:39:30.293464,41.99,14.216198,-0.0033329230534799477,-0.023429960042815445,0.09750050628343246,32.08287849390507,-92.24360919585227,76.200527287817
2024-09-23 10:39:30.305210,41.99,14.216288,-0.0033329230534799477,-0.023429960042815445,0.09750050628343246,32.08287849390507,-92.24360919585227,76.200527287817
2024-09-23 10:39:30.338133,41.99,14.216288,-0.0036811340262279837,-0.023728432883788564,0.09750050628343246,32.08287849390507,-92.24360919585227,76.200527287817
2024-09-23 10:39:30.349649,41.99,14.216288,-0.0036811340262279837,-0.023728432883788564,0.09720203344245934,36.09446859390736,-96.25519929585457,76.200527287817
2024-09-23 10:39:30.392104,41.99,14.21634,-0.0030344509719951677,-0.022982261414192504,0.09680407370509965,36.09446859390736,-96.25519929585457,76.200527287817
2024-09-23 10:39:30.404326,41.99,14.21634,-0.0030344509719951677,-0.022982261414192504,0.09680407370509965,36.09446859390736,-96.25519929585457,76.200527287817
2024-09-23 10:39:30.436926,41.99,14.21639,-0.0031339382481259063,-0.022982261414192504,0.09680407370509965,36.09446859390736,-96.25519929585457,80.21211738781929
2024-09-23 10:39:30.448215,41.99,14.21639,-0.0031339382481259063,-0.024225890150371555,0.09774922960030558,36.09446859390736,-96.25519929585457,80.21211738781929
2024-09-23 10:39:30.491823,41.99,14.216441,-0.0034324103296106863,-0.023579196463302005,0.0966050877605131,36.09446859390736,-104.27510100388527,80.21211738781929
2024-09-23 10:39:30.534085,41.99,14.216441,-0.0034324103296106863,-0.023579196463302005,0.0966050877605131,44.11764879391193,-100.26678939585686,80.21211738781929
2024-09-23 10:39:30.546237,41.99,14.216492,-0.0033329230534799477,-0.024026904205785005,0.0966050877605131,44.11764879391193,-100.26678939585686,80.21211738781929
2024-09-23 10:39:30.588797,41.99,14.216542,-0.0031836870127375577,-0.024026904205785005,0.09755024973162574,36.09446859390736,-100.26678939585686,84.22370748782159
2024-09-23 10:39:30.633613,41.99,14.216542,-0.0031836870127375577,-0.023728432883788564,0.09690356060148622,36.09446859390736,-100.26678939585686,84.22370748782159
2024-09-23 10:39:30.644693,41.99,14.216629,-0.0031836870127375577,-0.023728432883788564,0.09690356060148622,36.09446859390736,-100.26678939585686,88.23529758782387
2024-09-23 10:39:30.677025,41.99,14.216629,-0.0028354659767690416,-0.023728432883788564,0.09690356060148622,36.09446859390736,-100.26678939585686,88.23529758782387
2024-09-23 10:39:30.688279,41.99,14.216629,-0.0028354659767690416,-0.02293251340906919,0.09720203344245934,44.11764879391193,-92.24360919585227,84.22370748782159
2024-09-23 10:39:30.733047,41.99,14.216681,-0.0031836870127375577,-0.023827930413011865,0.09715228999426605,44.11764879391193,-92.24360919585227,84.22370748782159
2024-09-23 10:39:30.744412,41.99,14.216681,-0.0031836870127375577,-0.023827930413011865,0.09715228999426605,36.09446859390736,-92.24360919585227,84.22370748782159
2024-09-23 10:39:30.776426,41.99,14.216681,-0.0031836870127375577,-0.023827930413011865,0.09715228999426605,36.09446859390736,-92.24360919585227,88.23529758782387
2024-09-23 10:39:30.830690,41.99,14.216732,-0.0034324103296106863,-0.023877669304275123,0.09680407370509965,32.08287849390507,-92.24360919585227,88.23529758782387
2024-09-23 10:39:30.842569,41.99,14.216732,-0.0034324103296106863,-0.023877669304275123,0.09680407370509965,32.08287849390507,-92.24360919585227,88.23529758782387
2024-09-23 10:39:30.874199,42.52,14.216782,-0.0034324103296106863,-0.023877669304275123,0.09680407370509965,32.08287849390507,-92.24360919585227,84.22370748782159
2024-09-23 10:39:30.885196,42.52,14.216782,-0.003780631555451287,-0.02303200030545576,0.09695331012558621,32.08287849390507,-92.24360919585227,84.22370748782159
2024-09-23 10:39:30.927933,42.52,14.216833,-0.0030841997366068195,-0.023827930413011865,0.09695331012558621,32.08287849390507,-96.25519929585457,80.21211738781929
2024-09-23 10:39:30.940184,42.52,14.216833,-0.0030841997366068195,-0.023827930413011865,0.09695331012558621,32.08287849390507,-96.25519929585457,80.21211738781929
2024-09-23 10:39:30.972940,42.52,14.216833,-0.0030841997366068195,-0.023827930413011865,0.09695331012558621,44.11764879391193,-100.26678939585686,80.21211738781929
2024-09-23 10:39:30.984247,42.52,14.216884,-0.0029847020175114316,-0.02362894446842532,0.09695331012558621,44.11764879391193,-100.26678939585686,80.21211738781929
2024-09-23 10:39:31.026370,42.52,14.216971,-0.0032831742888682963,-0.02362894446842532,0.0973015264147526,36.09446859390736,-100.26678939585686,80.21211738781929
2024-09-23 10:39:31.070084,42.52,14.216971,-0.0032831742888682963,-0.023877669304275123,0.0966050877605131,40.106058693909645,-100.26678939585686,80.21211738781929
2024-09-23 10:39:31.081281,42.52,14.217068,-0.0032831742888682963,-0.023877669304275123,0.0966050877605131,40.106058693909645,-96.25519929585457,76.200527287817
2024-09-23 10:39:31.123686,42.52,14.217068,-0.0035816467500972456,-0.02352945757203875,0.09759999317981902,36.09446859390736,-104.27510100388527,80.21211738781929
2024-09-23 10:39:31.166339,42.52,14.21712,-0.0035816467500972456,-0.02352945757203875,0.09759999317981902,36.09446859390736,-104.27510100388527,80.21211738781929
2024-09-23 10:39:31.178099,42.52,14.21712,-0.0035816467500972456,-0.02362894446842532,0.09685382322919964,36.09446859390736,-100.26678939585686,80.21211738781929
2024-09-23 10:39:31.222144,42.52,14.21717,-0.0031339382481259063,-0.02338022115155219,0.09690356060148622,32.08287849390507,-100.26678939585686,76.200527287817
2024-09-23 10:39:31.265663,42.52,14.217221,-0.0031339382481259063,-0.02338022115155219,0.09690356060148622,32.08287849390507,-108.28669110388756,84.22370748782159
2024-09-23 10:39:31.277427,42.52,14.217221,-0.0030344509719951677,-0.023827930413011865,0.09750050628343246,32.08287849390507,-108.28669110388756,84.22370748782159
2024-09-23 10:39:31.320928,42.52,14.217272,-0.003979606107712764,-0.023181236725942318,0.09750050628343246,40.106058693909645,-96.25519929585457,76.200527287817
2024-09-23 10:39:31.363487,42.52,14.217272,-0.003979606107712764,-0.023181236725942318,0.09745075675933246,36.09446859390736,-104.27510100388527,76.200527287817
2024-09-23 10:39:31.375284,42.52,14.217322,-0.0031836870127375577,-0.023181236725942318,0.09745075675933246,36.09446859390736,-104.27510100388527,84.22370748782159
2024-09-23 10:39:31.417349,42.52,14.217409,-0.0031836870127375577,-0.023778180888911878,0.09764974270391902,28.07457030097246,-100.26678939585686,76.200527287817
2024-09-23 10:39:31.460302,42.52,14.217409,-0.0029349636958644295,-0.023230986250042305,0.09695331012558621,28.07457030097246,-100.26678939585686,76.200527287817
2024-09-23 10:39:31.471564,42.52,14.217409,-0.0029349636958644295,-0.023230986250042305,0.09695331012558621,40.106058693909645,-108.28669110388756,72.1922225099802
2024-09-23 10:39:31.515309,42.52,14.217461,-0.003233425524256645,-0.023181236725942318,0.09715228999426605,32.08287849390507,-104.27510100388527,72.1922225099802
2024-09-23 10:39:31.557253,42.52,14.217512,-0.003233425524256645,-0.023181236725942318,0.09715228999426605,32.08287849390507,-104.27510100388527,76.200527287817
2024-09-23 10:39:31.573899,42.52,14.217512,-0.0028852147413806935,-0.023579196463302005,0.09645586349183995,32.08287849390507,-104.27510100388527,76.200527287817
2024-09-23 10:39:31.607343,42.52,14.217563,-0.0028852147413806935,-0.023579196463302005,0.09645586349183995,32.08287849390507,-96.25519929585457,76.200527287817
2024-09-23 10:39:31.618628,42.52,14.217563,-0.0038303700669703737,-0.02313149783467906,0.09725178296655933,32.08287849390507,-96.25519929585457,76.200527287817
2024-09-23 10:39:31.702667,42.52,14.217563,-0.0038303700669703737,-0.02313149783467906,0.09725178296655933,40.106058693909645,-96.25519929585457,76.200527287817
2024-09-23 10:39:31.714552,42.52,14.217613,-0.002586742470023829,-0.02367869399252531,0.09725178296655933,40.106058693909645,-96.25519929585457,76.200527287817
2024-09-23 10:39:31.757901,42.52,14.217664,-0.002586742470023829,-0.02367869399252531,0.09715228999426605,40.106058693909645,-108.28669110388756,72.1922225099802
2024-09-23 10:39:31.799790,42.52,14.217664,-0.0038801188315820256,-0.02367869399252531,0.09715228999426605,40.106058693909645,-108.28669110388756,72.1922225099802
2024-09-23 10:39:31.811710,42.52,14.217664,-0.0038801188315820256,-0.02338022115155219,0.09705279702197278,32.08287849390507,-96.25519929585457,80.21211738781929
2024-09-23 10:39:31.855146,42.52,14.217751,-0.0029349636958644295,-0.02303200030545576,0.09630662707135339,40.106058693909645,-96.25519929585457,80.21211738781929
2024-09-23 10:39:31.866967,42.52,14.217751,-0.0029349636958644295,-0.02303200030545576,0.09630662707135339,40.106058693909645,-100.26678939585686,80.21211738781929
2024-09-23 10:39:31.898946,42.69,14.217802,-0.0035318979854855937,-0.02303200030545576,0.09630662707135339,40.106058693909645,-100.26678939585686,76.200527287817
2024-09-23 10:39:31.909946,42.69,14.217802,-0.0035318979854855937,-0.023778180888911878,0.09715228999426605,40.106058693909645,-100.26678939585686,76.200527287817
2024-09-23 10:39:31.952524,42.69,14.217898,-0.003233425524256645,-0.02352945757203875,0.09680407370509965,40.106058693909645,-96.25519929585457,80.21211738781929
2024-09-23 10:39:31.995331,42.69,14.217898,-0.003233425524256645,-0.02352945757203875,0.09680407370509965,44.11764879391193,-100.26678939585686,80.21211738781929
2024-09-23 10:39:32.006426,42.69,14.217949,-0.003233425524256645,-0.023579196463302005,0.09680407370509965,44.11764879391193,-100.26678939585686,84.22370748782159
2024-09-23 10:39:32.048779,42.69,14.217949,-0.003233425524256645,-0.023579196463302005,0.09685382322919964,40.106058693909645,-104.27510100388527,80.21211738781929
2024-09-23 10:39:32.060545,42.69,14.218,-0.003233425524256645,-0.023579196463302005,0.09685382322919964,40.106058693909645,-104.27510100388527,80.21211738781929
2024-09-23 10:39:32.093051,42.69,14.218,-0.0031339382481259063,-0.023579196463302005,0.09685382322919964,40.106058693909645,-104.27510100388527,80.21211738781929
2024-09-23 10:39:32.104787,42.69,14.218,-0.0031339382481259063,-0.023579196463302005,0.09720203344245934,44.11764879391193,-92.24360919585227,80.21211738781929
2024-09-23 10:39:32.146516,42.69,14.218092,-0.0038303700669703737,-0.023728432883788564,0.09705279702197278,44.11764879391193,-92.24360919585227,80.21211738781929
2024-09-23 10:39:32.157954,42.69,14.218092,-0.0038303700669703737,-0.023728432883788564,0.09705279702197278,40.106058693909645,-96.25519929585457,80.21211738781929
2024-09-23 10:39:32.191017,42.69,14.218143,-0.0038303700669703737,-0.023728432883788564,0.09705279702197278,40.106058693909645,-96.25519929585457,80.21211738781929
2024-09-23 10:39:32.202880,42.69,14.218143,-0.0031339382481259063,-0.023330473146428877,0.09779897304849887,32.08287849390507,-96.25519929585457,80.21211738781929
2024-09-23 10:39:32.246167,42.69,14.218194,-0.0030841997366068195,-0.023429960042815445,0.09655535038822652,32.08287849390507,-104.27510100388527,76.200527287817
2024-09-23 10:39:32.290265,42.69,14.218194,-0.0030841997366068195,-0.023429960042815445,0.09655535038822652,24.06297849342227,-108.28669110388756,76.200527287817
2024-09-23 10:39:32.301630,42.69,14.218245,-0.0031339382481259063,-0.023230986250042305,0.09655535038822652,24.06297849342227,-108.28669110388756,76.200527287817
2024-09-23 10:39:32.335534,42.69,14.218245,-0.0031339382481259063,-0.023230986250042305,0.0970030596496862,24.06297849342227,-108.28669110388756,76.200527287817
2024-09-23 10:39:32.346804,42.69,14.218295,-0.003482159473966507,-0.023230986250042305,0.0970030596496862,28.07457030097246,-100.26678939585686,80.21211738781929
2024-09-23 10:39:32.389564,42.69,14.218295,-0.003482159473966507,-0.02338022115155219,0.09779897304849887,36.09446859390736,-104.27510100388527,76.200527287817
2024-09-23 10:39:32.401358,42.69,14.218384,-0.003482159473966507,-0.02338022115155219,0.09779897304849887,36.09446859390736,-104.27510100388527,76.200527287817
2024-09-23 10:39:32.433230,42.69,14.218384,-0.0031339382481259063,-0.02338022115155219,0.09779897304849887,36.09446859390736,-104.27510100388527,76.200527287817
2024-09-23 10:39:32.445347,42.69,14.218384,-0.0031339382481259063,-0.024076653729884996,0.09680407370509965,36.09446859390736,-92.24360919585227,76.200527287817
2024-09-23 10:39:32.487643,42.69,14.218436,-0.0031339382481259063,-0.024076653729884996,0.09680407370509965,36.09446859390736,-92.24360919585227,76.200527287817
2024-09-23 10:39:32.529715,42.69,14.218436,-0.0029349636958644295,-0.024076653729884996,0.09680407370509965,36.09446859390736,-92.24360919585227,76.200527287817
2024-09-23 10:39:32.540877,42.69,14.218436,-0.0029349636958644295,-0.02352945757203875,0.09740101331113918,36.09446859390736,-96.25519929585457,80.21211738781929
2024-09-23 10:39:32.584562,42.69,14.218487,-0.002785727465249955,-0.022733528983459317,0.09695331012558621,36.09446859390736,-96.25519929585457,80.21211738781929
2024-09-23 10:39:32.595764,42.69,14.218487,-0.002785727465249955,-0.022733528983459317,0.09695331012558621,36.09446859390736,-96.25519929585457,80.21211738781929
2024-09-23 10:39:32.628111,42.69,14.218487,-0.002785727465249955,-0.022733528983459317,0.09695331012558621,36.09446859390736,-96.25519929585457,80.21211738781929
2024-09-23 10:39:32.639526,42.69,14.218537,-0.003382661564999035,-0.02397715620066169,0.09685382322919964,40.106058693909645,-96.25519929585457,80.21211738781929
2024-09-23 10:39:32.682854,42.69,14.218588,-0.0027359787006383035,-0.023778180888911878,0.09685382322919964,40.106058693909645,-96.25519929585457,84.22370748782159
2024-09-23 10:39:32.695180,42.69,14.218588,-0.0027359787006383035,-0.023778180888911878,0.09720203344245934,40.106058693909645,-96.25519929585457,84.22370748782159
2024-09-23 10:39:32.778975,42.69,14.218639,-0.0027359787006383035,-0.023778180888911878,0.09720203344245934,40.106058693909645,-96.25519929585457,84.22370748782159
2024-09-23 10:39:32.790769,42.69,14.218639,-0.0033329230534799477,-0.023181236725942318,0.09720203344245934,40.106058693909645,-96.25519929585457,84.22370748782159
2024-09-23 10:39:32.824060,42.69,14.218639,-0.0033329230534799477,-0.023181236725942318,0.09665483728461309,44.11764879391193,-96.25519929585457,84.22370748782159
2024-09-23 10:39:32.836426,42.69,14.218728,-0.002387757474797703,-0.023181236725942318,0.09665483728461309,44.11764879391193,-100.26678939585686,80.21211738781929
2024-09-23 10:39:32.879797,42.69,14.218823,-0.002387757474797703,-0.023479709566915436,0.09720203344245934,36.09446859390736,-108.28669110388756,84.22370748782159
2024-09-23 10:39:32.921831,42.99,14.218823,-0.003631395514708897,-0.023579196463302005,0.09720203344245934,36.09446859390736,-108.28669110388756,84.22370748782159
2024-09-23 10:39:32.933669,42.99,14.218823,-0.003631395514708897,-0.023579196463302005,0.09710254654607277,40.106058693909645,-96.25519929585457,88.23529758782387
2024-09-23 10:39:32.976249,42.99,14.218875,-0.0032831742888682963,-0.02303200030545576,0.09705279702197278,32.08287849390507,-96.25519929585457,88.23529758782387
2024-09-23 10:39:33.019002,42.99,14.218971,-0.0032831742888682963,-0.02303200030545576,0.09705279702197278,32.08287849390507,-96.25519929585457,76.200527287817
2024-09-23 10:39:33.030504,42.99,14.218971,-0.0037308827908396356,-0.023330473146428877,0.09725178296655933,40.106058693909645,-96.25519929585457,76.200527287817
2024-09-23 10:39:33.073804,42.99,14.219022,-0.0029847020175114316,-0.023579196463302005,0.09720203344245934,40.106058693909645,-100.26678939585686,72.1922225099802
2024-09-23 10:39:33.116299,42.99,14.219022,-0.0029847020175114316,-0.023579196463302005,0.09720203344245934,28.07457030097246,-96.25519929585457,72.1922225099802
2024-09-23 10:39:33.128171,42.99,14.219072,-0.003631395514708897,-0.023330473146428877,0.09720203344245934,28.07457030097246,-96.25519929585457,72.1922225099802
2024-09-23 10:39:33.171061,42.99,14.219123,-0.0035318979854855937,-0.023330473146428877,0.09725178296655933,32.08287849390507,-100.26678939585686,84.22370748782159
2024-09-23 10:39:33.214212,42.99,14.219123,-0.0035318979854855937,-0.023330473146428877,0.09755024973162574,32.08287849390507,-100.26678939585686,84.22370748782159
2024-09-23 10:39:33.225201,42.99,14.219213,-0.0035318979854855937,-0.023330473146428877,0.09755024973162574,32.08287849390507,-100.26678939585686,80.21211738781929
2024-09-23 10:39:33.267253,42.99,14.219213,-0.0034324103296106863,-0.02303200030545576,0.0970030596496862,32.08287849390507,-100.26678939585686,80.21211738781929
2024-09-23 10:39:33.278264,42.99,14.219213,-0.0034324103296106863,-0.02303200030545576,0.0970030596496862,32.08287849390507,-96.25519929585457,80.21211738781929
2024-09-23 10:39:33.311812,42.99,14.219265,-0.0031836870127375577,-0.02303200030545576,0.0970030596496862,32.08287849390507,-96.25519929585457,80.21211738781929
2024-09-23 10:39:33.323048,42.99,14.219265,-0.0031836870127375577,-0.023479709566915436,0.09675432418099966,36.09446859390736,-92.24360919585227,80.21211738781929
2024-09-23 10:39:33.365083,42.99,14.219315,-0.002785727465249955,-0.022982261414192504,0.09665483728461309,36.09446859390736,-92.24360919585227,84.22370748782159
2024-09-23 10:39:33.376760,42.99,14.219315,-0.002785727465249955,-0.022982261414192504,0.09665483728461309,32.08287849390507,-92.24360919585227,84.22370748782159
2024-09-23 10:39:33.408804,42.99,14.219315,-0.002785727465249955,-0.022982261414192504,0.09665483728461309,32.08287849390507,-92.24360919585227,80.21211738781929
2024-09-23 10:39:33.420356,42.99,14.219366,-0.0033329230534799477,-0.02352945757203875,0.0966050877605131,32.08287849390507,-92.24360919585227,80.21211738781929
2024-09-23 10:39:33.462865,42.99,14.219417,-0.0033329230534799477,-0.02352945757203875,0.0966050877605131,40.106058693909645,-100.26678939585686,76.200527287817
2024-09-23 10:39:33.474020,42.99,14.219417,-0.0031836870127375577,-0.02313149783467906,0.0966050877605131,40.106058693909645,-100.26678939585686,76.200527287817
2024-09-23 10:39:33.506062,42.99,14.219417,-0.0031836870127375577,-0.02313149783467906,0.09690356060148622,40.106058693909645,-100.26678939585686,76.200527287817
2024-09-23 10:39:33.517483,42.99,14.219467,-0.0032831742888682963,-0.02313149783467906,0.09690356060148622,40.106058693909645,-100.26678939585686,80.21211738781929
2024-09-23 10:39:33.562102,42.99,14.219467,-0.0032831742888682963,-0.023479709566915436,0.09715228999426605,28.07457030097246,-100.26678939585686,76.200527287817
2024-09-23 10:39:33.573415,42.99,14.219555,-0.0032831742888682963,-0.023479709566915436,0.09715228999426605,28.07457030097246,-100.26678939585686,76.200527287817
2024-09-23 10:39:33.605009,42.99,14.219555,-0.0030841997366068195,-0.023230986250042305,0.0970030596496862,28.07457030097246,-100.26678939585686,76.200527287817
2024-09-23 10:39:33.616329,42.99,14.219555,-0.0030841997366068195,-0.023230986250042305,0.0970030596496862,36.09446859390736,-100.26678939585686,76.200527287817
2024-09-23 10:39:33.658399,42.99,14.219606,-0.003482159473966507,-0.024026904205785005,0.09759999317981902,40.106058693909645,-100.26678939585686,76.200527287817
2024-09-23 10:39:33.670527,42.99,14.219606,-0.003482159473966507,-0.024026904205785005,0.09759999317981902,40.106058693909645,-96.25519929585457,76.200527287817
2024-09-23 10:39:33.703637,42.99,14.219657,-0.002785727465249955,-0.024026904205785005,0.09759999317981902,40.106058693909645,-96.25519929585457,72.1922225099802
2024-09-23 10:39:33.714835,42.99,14.219657,-0.002785727465249955,-0.023778180888911878,0.0973015264147526,36.09446859390736,-96.25519929585457,72.1922225099802
2024-09-23 10:39:33.757768,42.99,14.219707,-0.0032831742888682963,-0.023429960042815445,0.09670458680871308,36.09446859390736,-96.25519929585457,80.21211738781929
2024-09-23 10:39:33.799770,42.99,14.219707,-0.0032831742888682963,-0.023429960042815445,0.09670458680871308,32.08287849390507,-100.26678939585686,88.23529758782387
2024-09-23 10:39:33.853696,42.99,14.219758,-0.0035816467500972456,-0.023429960042815445,0.09774922960030558,32.08287849390507,-100.26678939585686,88.23529758782387
2024-09-23 10:39:33.866105,42.99,14.219758,-0.0035816467500972456,-0.023429960042815445,0.09774922960030558,36.09446859390736,-100.26678939585686,88.23529758782387
2024-09-23 10:39:33.898148,42.99,14.219809,-0.0029349636958644295,-0.023429960042815445,0.09774922960030558,36.09446859390736,-100.26678939585686,80.21211738781929
2024-09-23 10:39:33.909736,42.99,14.219809,-0.0029349636958644295,-0.02352945757203875,0.09690356060148622,28.07457030097246,-100.26678939585686,80.21211738781929
2024-09-23 10:39:33.953761,42.96,14.219896,-0.003382661564999035,-0.024176140626271565,0.09740101331113918,28.07457030097246,-96.25519929585457,76.200527287817
2024-09-23 10:39:33.995310,42.96,14.219896,-0.003382661564999035,-0.024176140626271565,0.09740101331113918,36.09446859390736,-104.27510100388527,84.22370748782159
2024-09-23 10:39:34.006460,42.96,14.219947,-0.003631395514708897,-0.023230986250042305,0.09740101331113918,36.09446859390736,-104.27510100388527,84.22370748782159
2024-09-23 10:39:34.049359,42.96,14.219998,-0.0030344509719951677,-0.023230986250042305,0.09750050628343246,40.106058693909645,-100.26678939585686,80.21211738781929
2024-09-23 10:39:34.092735,42.96,14.219998,-0.0030344509719951677,-0.023479709566915436,0.09750050628343246,32.08287849390507,-100.26678939585686,80.21211738781929
2024-09-23 10:39:34.104456,42.96,14.220091,-0.0030344509719951677,-0.023479709566915436,0.09750050628343246,32.08287849390507,-100.26678939585686,72.1922225099802
2024-09-23 10:39:34.146949,42.96,14.220091,-0.003382661564999035,-0.02362894446842532,0.09705279702197278,28.07457030097246,-100.26678939585686,72.1922225099802
2024-09-23 10:39:34.188707,42.96,14.220142,-0.0031339382481259063,-0.02362894446842532,0.09705279702197278,28.07457030097246,-100.26678939585686,72.1922225099802
2024-09-23 10:39:34.200969,42.96,14.220142,-0.0031339382481259063,-0.023280723622328886,0.09715228999426605,36.09446859390736,-96.25519929585457,72.1922225099802
2024-09-23 10:39:34.243629,42.96,14.220193,-0.003979606107712764,-0.023728432883788564,0.09764974270391902,40.106058693909645,-96.25519929585457,80.21211738781929
2024-09-23 10:39:34.286670,42.96,14.220193,-0.003979606107712764,-0.023728432883788564,0.09764974270391902,40.106058693909645,-100.26678939585686,80.21211738781929
2024-09-23 10:39:34.297800,42.96,14.220244,-0.0035318979854855937,-0.023579196463302005,0.09740101331113918,40.106058693909645,-100.26678939585686,80.21211738781929
2024-09-23 10:39:34.341149,42.96,14.220294,-0.0028852147413806935,-0.02313149783467906,0.09740101331113918,44.11764879391193,-92.24360919585227,80.21211738781929
2024-09-23 10:39:34.384162,42.96,14.220294,-0.0028852147413806935,-0.02313149783467906,0.0962568775472534,36.09446859390736,-92.24360919585227,80.21211738781929
2024-09-23 10:39:34.395237,42.96,14.220345,-0.003780631555451287,-0.02313149783467906,0.0962568775472534,36.09446859390736,-100.26678939585686,84.22370748782159
2024-09-23 10:39:34.438111,42.96,14.220345,-0.003780631555451287,-0.023230986250042305,0.09720203344245934,36.09446859390736,-96.25519929585457,84.22370748782159
2024-09-23 10:39:34.450290,42.96,14.220432,-0.003780631555451287,-0.023230986250042305,0.09720203344245934,36.09446859390736,-96.25519929585457,84.22370748782159
2024-09-23 10:39:34.482145,42.96,14.220432,-0.0029847020175114316,-0.023280723622328886,0.09720203344245934,36.09446859390736,-96.25519929585457,84.22370748782159
2024-09-23 10:39:34.494006,42.96,14.220432,-0.0029847020175114316,-0.023280723622328886,0.09725178296655933,36.09446859390736,-100.26678939585686,80.21211738781929
2024-09-23 10:39:34.536004,42.96,14.220484,-0.0027359787006383035,-0.023479709566915436,0.09675432418099966,32.08287849390507,-100.26678939585686,80.21211738781929
2024-09-23 10:39:34.547934,42.96,14.220484,-0.0027359787006383035,-0.023479709566915436,0.09675432418099966,32.08287849390507,-96.25519929585457,80.21211738781929
2024-09-23 10:39:34.581046,42.96,14.220534,-0.0027359787006383035,-0.023479709566915436,0.09675432418099966,32.08287849390507,-96.25519929585457,76.200527287817
2024-09-23 10:39:34.592703,42.96,14.220534,-0.0031339382481259063,-0.023230986250042305,0.09650560086412653,32.08287849390507,-96.25519929585457,76.200527287817
2024-09-23 10:39:34.635097,42.96,14.220585,-0.0035318979854855937,-0.02352945757203875,0.09685382322919964,32.08287849390507,-100.26678939585686,80.21211738781929
2024-09-23 10:39:34.677591,42.96,14.220585,-0.0035318979854855937,-0.02352945757203875,0.09685382322919964,36.09446859390736,-96.25519929585457,84.22370748782159
2024-09-23 10:39:34.689371,42.96,14.220636,-0.003631395514708897,-0.02352945757203875,0.09685382322919964,36.09446859390736,-96.25519929585457,84.22370748782159
2024-09-23 10:39:34.732746,42.96,14.220686,-0.0035318979854855937,-0.02352945757203875,0.09705279702197278,40.106058693909645,-96.25519929585457,80.21211738781929
2024-09-23 10:39:34.774958,42.96,14.220686,-0.0035318979854855937,-0.023181236725942318,0.0973512698629459,44.11764879391193,-96.25519929585457,80.21211738781929
2024-09-23 10:39:34.786526,42.96,14.220773,-0.0035318979854855937,-0.023181236725942318,0.0973512698629459,44.11764879391193,-92.24360919585227,76.200527287817
2024-09-23 10:39:34.829844,42.96,14.220773,-0.0029847020175114316,-0.023429960042815445,0.09720203344245934,44.11764879391193,-92.24360919585227,76.200527287817
2024-09-23 10:39:34.871666,42.96,14.220773,-0.0029847020175114316,-0.023429960042815445,0.09720203344245934,40.106058693909645,-104.27510100388527,76.200527287817
2024-09-23 10:39:34.883390,42.96,14.220825,-0.0033329230534799477,-0.02338022115155219,0.09720203344245934,40.106058693909645,-104.27510100388527,76.200527287817
2024-09-23 10:39:34.925801,42.96,14.220875,-0.0033329230534799477,-0.02338022115155219,0.09710254654607277,44.11764879391193,-100.26678939585686,80.21211738781929
2024-09-23 10:39:34.937997,42.96,14.220875,-0.0035318979854855937,-0.02338022115155219,0.09710254654607277,44.11764879391193,-100.26678939585686,80.21211738781929
2024-09-23 10:39:34.970746,42.59,14.220875,-0.0035318979854855937,-0.023230986250042305,0.09715228999426605,40.106058693909645,-100.26678939585686,80.21211738781929
2024-09-23 10:39:34.981836,42.59,14.220926,-0.0035318979854855937,-0.023230986250042305,0.09715228999426605,40.106058693909645,-100.26678939585686,76.200527287817
2024-09-23 10:39:35.023624,42.59,14.220926,-0.002785727465249955,-0.024076653729884996,0.09750050628343246,40.106058693909645,-100.26678939585686,76.200527287817
2024-09-23 10:39:35.065908,42.59,14.220977,-0.0029847020175114316,-0.024076653729884996,0.09750050628343246,40.106058693909645,-100.26678939585686,76.200527287817
2024-09-23 10:39:35.078250,42.59,14.220977,-0.0029847020175114316,-0.023230986250042305,0.0973015264147526,32.08287849390507,-100.26678939585686,76.200527287817
2024-09-23 10:39:35.121258,42.59,14.221067,-0.0035318979854855937,-0.023728432883788564,0.09740101331113918,32.08287849390507,-100.26678939585686,80.21211738781929
