Ayaan's Suite
Timestamp,Sample Rate (Hz),Time,Ax,Ay,Az,Gx,Gy,Gz
2024-09-23 10:06:13.060949,0,12.218858,-0.0035816467500972456,-0.023778180888911878,0.09680407370509965,32.08287849390507,-100.26678939585686,72.1922225099802
2024-09-23 10:06:13.094020,0,12.218858,-0.0035816467500972456,-0.023778180888911878,0.09680407370509965,32.08287849390507,-100.26678939585686,80.21211738781929
2024-09-23 10:06:13.105476,0,12.218908,-0.0035318979854855937,-0.022733528983459317,0.09705279702197278,32.08287849390507,-100.26678939585686,80.21211738781929
2024-09-23 10:06:13.148226,0,12.218959,-0.0032831742888682963,-0.02367869399252531,0.09705279702197278,28.07457030097246,-96.25519929585457,80.21211738781929
2024-09-23 10:06:13.190149,0,12.218959,-0.0032831742888682963,-0.02367869399252531,0.09725178296655933,40.106058693909645,-96.25519929585457,80.21211738781929
2024-09-23 10:06:13.201461,0,12.21901,-0.003482159473966507,-0.02367869399252531,0.09725178296655933,40.106058693909645,-96.25519929585457,80.21211738781929
2024-09-23 10:06:13.244848,0,12.219149,-0.003482159473966507,-0.023877669304275123,0.09705279702197278,44.11764879391193,-100.26678939585686,80.21211738781929
2024-09-23 10:06:13.288199,0,12.219149,-0.003382661564999035,-0.023429960042815445,0.09680407370509965,44.11764879391193,-100.26678939585686,80.21211738781929
2024-09-23 10:06:13.300034,0,12.219149,-0.003382661564999035,-0.023429960042815445,0.09680407370509965,36.09446859390736,-96.25519929585457,84.22370748782159
2024-09-23 10:06:13.343675,0,12.219245,-0.0030841997366068195,-0.02397715620066169,0.09715228999426605,36.09446859390736,-100.26678939585686,84.22370748782159
2024-09-23 10:06:13.386760,0,12.219296,-0.0031836870127375577,-0.02397715620066169,0.09715228999426605,36.09446859390736,-100.26678939585686,84.22370748782159
2024-09-23 10:06:13.398388,0,12.219296,-0.0031836870127375577,-0.023330473146428877,0.09630662707135339,36.09446859390736,-100.26678939585686,84.22370748782159
2024-09-23 10:06:13.441172,0,12.219347,-0.0029349636958644295,-0.023927417309398437,0.0973015264147526,36.09446859390736,-104.27510100388527,84.22370748782159
2024-09-23 10:06:13.486068,0,12.219397,-0.0029349636958644295,-0.023927417309398437,0.0973015264147526,32.08287849390507,-96.25519929585457,80.21211738781929
2024-09-23 10:06:13.497007,0,12.219397,-0.0031339382481259063,-0.023728432883788564,0.0973015264147526,32.08287849390507,-96.25519929585457,80.21211738781929
2024-09-23 10:06:13.529228,0,12.219397,-0.0031339382481259063,-0.023728432883788564,0.09695331012558621,32.08287849390507,-96.25519929585457,80.21211738781929
2024-09-23 10:06:13.540377,0,12.219448,-0.003233425524256645,-0.023728432883788564,0.09695331012558621,32.08287849390507,-100.26678939585686,80.21211738781929
2024-09-23 10:06:13.582506,0,12.219448,-0.003233425524256645,-0.023877669304275123,0.09680407370509965,48.12595698684454,-96.25519929585457,80.21211738781929
2024-09-23 10:06:13.594378,0,12.219537,-0.003233425524256645,-0.023877669304275123,0.09680407370509965,48.12595698684454,-96.25519929585457,80.21211738781929
2024-09-23 10:06:13.628067,0,12.219537,-0.0028852147413806935,-0.023230986250042305,0.09680407370509965,48.12595698684454,-96.25519929585457,80.21211738781929
2024-09-23 10:06:13.639381,0,12.219537,-0.0028852147413806935,-0.023230986250042305,0.09755024973162574,52.137550501942634,-100.26678939585686,76.200527287817
2024-09-23 10:06:13.681159,0,12.219588,-0.0028852147413806935,-0.023230986250042305,0.09755024973162574,52.137550501942634,-100.26678939585686,76.200527287817
2024-09-23 10:06:13.723321,0,12.219588,-0.0032831742888682963,-0.023230986250042305,0.09755024973162574,52.137550501942634,-100.26678939585686,76.200527287817
2024-09-23 10:06:13.735444,0,12.219588,-0.0032831742888682963,-0.024225890150371555,0.09705279702197278,40.106058693909645,-96.25519929585457,80.21211738781929
2024-09-23 10:06:13.778968,0,12.219639,-0.003482159473966507,-0.023479709566915436,0.09620712802315341,40.106058693909645,-96.25519929585457,80.21211738781929
2024-09-23 10:06:13.790404,0,12.219639,-0.003482159473966507,-0.023479709566915436,0.09620712802315341,36.09446859390736,-96.25519929585457,80.21211738781929
2024-09-23 10:06:13.822924,0,12.21969,-0.003482159473966507,-0.023479709566915436,0.09620712802315341,36.09446859390736,-96.25519929585457,80.21211738781929
2024-09-23 10:06:13.834615,0,12.21969,-0.0031339382481259063,-0.023479709566915436,0.09710254654607277,36.09446859390736,-96.25519929585457,80.21211738781929
2024-09-23 10:06:13.878009,0,12.21974,-0.0031836870127375577,-0.023877669304275123,0.0973015264147526,36.09446859390736,-96.25519929585457,80.21211738781929
2024-09-23 10:06:13.920080,0,12.21974,-0.0031836870127375577,-0.023877669304275123,0.0973015264147526,36.09446859390736,-100.26678939585686,80.21211738781929
2024-09-23 10:06:13.931443,0,12.219791,-0.003482159473966507,-0.023827930413011865,0.0973015264147526,36.09446859390736,-100.26678939585686,76.200527287817
2024-09-23 10:06:13.973909,0,12.219791,-0.003482159473966507,-0.023827930413011865,0.0973015264147526,36.09446859390736,-100.26678939585686,76.200527287817
2024-09-23 10:06:14.018460,0,12.219791,-0.003482159473966507,-0.023827930413011865,0.0973015264147526,40.106058693909645,-100.26678939585686,76.200527287817
2024-09-23 10:06:14.030099,0,12.219881,-0.0029847020175114316,-0.023479709566915436,0.0973015264147526,40.106058693909645,-96.25519929585457,76.200527287817
2024-09-23 10:06:14.073258,41.98,12.219976,-0.0027359787006383035,-0.023479709566915436,0.09630662707135339,40.106058693909645,-104.27510100388527,80.21211738781929
2024-09-23 10:06:14.115439,41.98,12.219976,-0.0027359787006383035,-0.023429960042815445,0.09695331012558621,40.106058693909645,-104.27510100388527,80.21211738781929
2024-09-23 10:06:14.127648,41.98,12.220027,-0.0027359787006383035,-0.023429960042815445,0.09695331012558621,44.11764879391193,-100.26678939585686,84.22370748782159
2024-09-23 10:06:14.171187,41.98,12.220027,-0.002785727465249955,-0.023479709566915436,0.0973015264147526,40.106058693909645,-96.25519929585457,80.21211738781929
2024-09-23 10:06:14.215207,41.98,12.220078,-0.0034324103296106863,-0.023827930413011865,0.0973015264147526,40.106058693909645,-96.25519929585457,80.21211738781929
2024-09-23 10:06:14.228082,41.98,12.220078,-0.0034324103296106863,-0.023827930413011865,0.09725178296655933,32.08287849390507,-104.27510100388527,80.21211738781929
2024-09-23 10:06:14.260615,41.98,12.220078,-0.0034324103296106863,-0.023827930413011865,0.09725178296655933,32.08287849390507,-104.27510100388527,84.22370748782159
2024-09-23 10:06:14.271925,41.98,12.220171,-0.0035816467500972456,-0.023479709566915436,0.0973015264147526,40.106058693909645,-104.27510100388527,84.22370748782159
2024-09-23 10:06:14.314657,41.98,12.220223,-0.003233425524256645,-0.023778180888911878,0.0973015264147526,40.106058693909645,-100.26678939585686,80.21211738781929
2024-09-23 10:06:14.326362,41.98,12.220223,-0.003233425524256645,-0.023778180888911878,0.0973512698629459,40.106058693909645,-100.26678939585686,80.21211738781929
2024-09-23 10:06:14.358389,41.98,12.220223,-0.003233425524256645,-0.023778180888911878,0.0973512698629459,48.12595698684454,-100.26678939585686,80.21211738781929
2024-09-23 10:06:14.370477,41.98,12.220273,-0.0031836870127375577,-0.02338022115155219,0.0973512698629459,48.12595698684454,-100.26678939585686,76.200527287817
2024-09-23 10:06:14.412801,41.98,12.220324,-0.0031836870127375577,-0.02338022115155219,0.0966050877605131,48.12595698684454,-96.25519929585457,80.21211738781929
2024-09-23 10:06:14.424980,41.98,12.220324,-0.003382661564999035,-0.02338022115155219,0.0966050877605131,48.12595698684454,-96.25519929585457,80.21211738781929
2024-09-23 10:06:14.457841,41.98,12.220324,-0.003382661564999035,-0.023230986250042305,0.09680407370509965,48.12595698684454,-96.25519929585457,80.21211738781929
2024-09-23 10:06:14.468837,41.98,12.220414,-0.003382661564999035,-0.023230986250042305,0.09680407370509965,48.12595698684454,-92.24360919585227,84.22370748782159
2024-09-23 10:06:14.511287,41.98,12.220414,-0.002437506429281439,-0.023429960042815445,0.09675432418099966,40.106058693909645,-88.23529758782387,84.22370748782159
2024-09-23 10:06:14.605402,41.98,12.220466,-0.0031836870127375577,-0.023579196463302005,0.09685382322919964,40.106058693909645,-88.23529758782387,84.22370748782159
2024-09-23 10:06:14.617422,41.98,12.220466,-0.0031836870127375577,-0.023579196463302005,0.09685382322919964,24.06297849342227,-104.27510100388527,84.22370748782159
2024-09-23 10:06:14.649366,41.98,12.220466,-0.0031836870127375577,-0.023579196463302005,0.09685382322919964,24.06297849342227,-104.27510100388527,76.200527287817
2024-09-23 10:06:14.702316,41.98,12.220516,-0.003233425524256645,-0.023778180888911878,0.09685382322919964,24.06297849342227,-104.27510100388527,76.200527287817
2024-09-23 10:06:14.713637,41.98,12.220516,-0.003233425524256645,-0.023778180888911878,0.0970030596496862,36.09446859390736,-100.26678939585686,76.200527287817
2024-09-23 10:06:14.756436,41.98,12.220567,-0.0031836870127375577,-0.023579196463302005,0.09710254654607277,40.106058693909645,-100.26678939585686,76.200527287817
2024-09-23 10:06:14.799030,41.98,12.220618,-0.0031836870127375577,-0.023579196463302005,0.09710254654607277,40.106058693909645,-96.25519929585457,84.22370748782159
2024-09-23 10:06:14.851940,41.98,12.220618,-0.0029847020175114316,-0.024225890150371555,0.09725178296655933,44.11764879391193,-100.26678939585686,84.22370748782159
2024-09-23 10:06:14.864187,41.98,12.220618,-0.0029847020175114316,-0.024225890150371555,0.09725178296655933,44.11764879391193,-100.26678939585686,76.200527287817
2024-09-23 10:06:14.895991,41.98,12.220668,-0.0029349636958644295,-0.024225890150371555,0.09725178296655933,44.11764879391193,-100.26678939585686,76.200527287817
2024-09-23 10:06:14.907007,41.98,12.220668,-0.0029349636958644295,-0.023728432883788564,0.0973015264147526,36.09446859390736,-100.26678939585686,76.200527287817
2024-09-23 10:06:15.041575,41.98,12.220804,-0.0029349636958644295,-0.023728432883788564,0.0973015264147526,36.09446859390736,-100.26678939585686,76.200527287817
2024-09-23 10:06:15.094899,39.1,12.220804,-0.0028852147413806935,-0.02338022115155219,0.09759999317981902,32.08287849390507,-100.26678939585686,76.200527287817
2024-09-23 10:06:15.106233,39.1,12.220804,-0.0028852147413806935,-0.02338022115155219,0.09759999317981902,32.08287849390507,-92.24360919585227,80.21211738781929
2024-09-23 10:06:15.139975,39.1,12.220902,-0.0033329230534799477,-0.02338022115155219,0.09759999317981902,32.08287849390507,-92.24360919585227,80.21211738781929
2024-09-23 10:06:15.151929,39.1,12.220902,-0.0033329230534799477,-0.023877669304275123,0.09740101331113918,28.07457030097246,-100.26678939585686,80.21211738781929
2024-09-23 10:06:15.195296,39.1,12.220953,-0.0038303700669703737,-0.024176140626271565,0.09665483728461309,32.08287849390507,-100.26678939585686,80.21211738781929
2024-09-23 10:06:15.237386,39.1,12.221003,-0.0038303700669703737,-0.024176140626271565,0.09665483728461309,32.08287849390507,-100.26678939585686,84.22370748782159
2024-09-23 10:06:15.248756,39.1,12.221003,-0.0030344509719951677,-0.023827930413011865,0.09630662707135339,32.08287849390507,-100.26678939585686,84.22370748782159
2024-09-23 10:06:15.292610,39.1,12.221194,-0.0030841997366068195,-0.023280723622328886,0.09630662707135339,32.08287849390507,-96.25519929585457,80.21211738781929
2024-09-23 10:06:15.336340,39.1,12.221194,-0.0030841997366068195,-0.023280723622328886,0.09740101331113918,28.07457030097246,-100.26678939585686,80.21211738781929
2024-09-23 10:06:15.348060,39.1,12.221246,-0.0032831742888682963,-0.023280723622328886,0.09740101331113918,28.07457030097246,-100.26678939585686,80.21211738781929
2024-09-23 10:06:15.391164,39.1,12.22134,-0.0032831742888682963,-0.02293251340906919,0.09715228999426605,36.09446859390736,-96.25519929585457,80.21211738781929
2024-09-23 10:06:15.432839,39.1,12.22134,-0.003233425524256645,-0.02362894446842532,0.09779897304849887,36.09446859390736,-96.25519929585457,80.21211738781929
2024-09-23 10:06:15.445772,39.1,12.22134,-0.003233425524256645,-0.02362894446842532,0.09779897304849887,40.106058693909645,-100.26678939585686,76.200527287817
2024-09-23 10:06:15.478053,39.1,12.221392,-0.003233425524256645,-0.02362894446842532,0.09779897304849887,40.106058693909645,-100.26678939585686,76.200527287817
2024-09-23 10:06:15.489878,39.1,12.221392,-0.0030841997366068195,-0.023579196463302005,0.09750050628343246,44.11764879391193,-96.25519929585457,76.200527287817
2024-09-23 10:06:15.531488,39.1,12.221443,-0.0030344509719951677,-0.02362894446842532,0.09750050628343246,44.11764879391193,-96.25519929585457,76.200527287817
2024-09-23 10:06:15.543190,39.1,12.221443,-0.0030344509719951677,-0.02362894446842532,0.09680407370509965,44.11764879391193,-96.25519929585457,76.200527287817
2024-09-23 10:06:15.575514,39.1,12.221443,-0.0030344509719951677,-0.02362894446842532,0.09680407370509965,44.11764879391193,-96.25519929585457,76.200527287817
2024-09-23 10:06:15.586950,39.1,12.221493,-0.0030841997366068195,-0.02362894446842532,0.09680407370509965,44.11764879391193,-96.25519929585457,80.21211738781929
2024-09-23 10:06:15.628958,39.1,12.221544,-0.0030841997366068195,-0.02362894446842532,0.09680407370509965,40.106058693909645,-96.25519929585457,80.21211738781929
2024-09-23 10:06:15.640780,39.1,12.221544,-0.0029349636958644295,-0.02367869399252531,0.09680407370509965,40.106058693909645,-96.25519929585457,80.21211738781929
2024-09-23 10:06:15.674156,39.1,12.221544,-0.0029349636958644295,-0.02367869399252531,0.09725178296655933,40.106058693909645,-96.25519929585457,80.21211738781929
2024-09-23 10:06:15.686217,39.1,12.221595,-0.003780631555451287,-0.02367869399252531,0.09725178296655933,40.106058693909645,-96.25519929585457,76.200527287817
2024-09-23 10:06:15.780009,39.1,12.221682,-0.003780631555451287,-0.023778180888911878,0.09750050628343246,32.08287849390507,-104.27510100388527,76.200527287817
2024-09-23 10:06:15.823428,39.1,12.221682,-0.0031339382481259063,-0.023927417309398437,0.09745075675933246,32.08287849390507,-104.27510100388527,76.200527287817
2024-09-23 10:06:15.834983,39.1,12.221682,-0.0031339382481259063,-0.023927417309398437,0.09745075675933246,24.06297849342227,-104.27510100388527,80.21211738781929
2024-09-23 10:06:15.877833,39.1,12.221733,-0.0031836870127375577,-0.023579196463302005,0.0973512698629459,28.07457030097246,-100.26678939585686,80.21211738781929
2024-09-23 10:06:15.920180,39.1,12.221784,-0.003631395514708897,-0.023579196463302005,0.0973512698629459,28.07457030097246,-100.26678939585686,72.1922225099802
2024-09-23 10:06:15.932381,39.1,12.221784,-0.003631395514708897,-0.02367869399252531,0.09680407370509965,44.11764879391193,-100.26678939585686,72.1922225099802
2024-09-23 10:06:15.975062,39.1,12.221835,-0.0035816467500972456,-0.023728432883788564,0.09655535038822652,44.11764879391193,-100.26678939585686,72.1922225099802
2024-09-23 10:06:16.017025,39.1,12.221835,-0.0035816467500972456,-0.023728432883788564,0.09655535038822652,40.106058693909645,-92.24360919585227,72.1922225099802
2024-09-23 10:06:16.028696,39.1,12.221928,-0.003482159473966507,-0.02362894446842532,0.09655535038822652,40.106058693909645,-92.24360919585227,84.22370748782159
2024-09-23 10:06:16.072376,39.1,12.221978,-0.003780631555451287,-0.02362894446842532,0.09695331012558621,36.09446859390736,-100.26678939585686,88.23529758782387
2024-09-23 10:06:16.115873,39.45,12.221978,-0.003780631555451287,-0.02268379009219606,0.09745075675933246,28.07457030097246,-100.26678939585686,88.23529758782387
2024-09-23 10:06:16.127546,39.45,12.222072,-0.003780631555451287,-0.02268379009219606,0.09745075675933246,28.07457030097246,-96.25519929585457,76.200527287817
2024-09-23 10:06:16.170218,39.45,12.222072,-0.0026862297461545674,-0.02362894446842532,0.09745075675933246,28.07457030097246,-96.25519929585457,76.200527287817
2024-09-23 10:06:16.212936,39.45,12.222123,-0.0032831742888682963,-0.02362894446842532,0.09745075675933246,28.07457030097246,-96.25519929585457,76.200527287817
2024-09-23 10:06:16.224095,39.45,12.222123,-0.0032831742888682963,-0.023330473146428877,0.0973015264147526,32.08287849390507,-84.22370748782159,76.200527287817
2024-09-23 10:06:16.266139,39.45,12.222174,-0.0031339382481259063,-0.023827930413011865,0.09695331012558621,40.106058693909645,-84.22370748782159,92.24360919585227
2024-09-23 10:06:16.308891,39.45,12.222174,-0.0031339382481259063,-0.023827930413011865,0.09695331012558621,40.106058693909645,-88.23529758782387,92.24360919585227
2024-09-23 10:06:16.363840,39.45,12.222225,-0.0037308827908396356,-0.023827930413011865,0.09789846602079214,40.106058693909645,-88.23529758782387,84.22370748782159
2024-09-23 10:06:16.375284,39.45,12.222225,-0.0037308827908396356,-0.023827930413011865,0.09789846602079214,40.106058693909645,-88.23529758782387,84.22370748782159
2024-09-23 10:06:16.407263,39.45,12.222225,-0.0037308827908396356,-0.023827930413011865,0.09789846602079214,40.106058693909645,-96.25519929585457,84.22370748782159
2024-09-23 10:06:16.418449,39.45,12.222275,-0.0031836870127375577,-0.02338022115155219,0.09675432418099966,40.106058693909645,-96.25519929585457,84.22370748782159
2024-09-23 10:06:16.461443,39.45,12.222326,-0.0028852147413806935,-0.02338022115155219,0.09675432418099966,36.09446859390736,-96.25519929585457,84.22370748782159
2024-09-23 10:06:16.473032,39.45,12.222326,-0.0028852147413806935,-0.023728432883788564,0.09675432418099966,36.09446859390736,-96.25519929585457,84.22370748782159
2024-09-23 10:06:16.505715,39.45,12.222326,-0.0028852147413806935,-0.023728432883788564,0.09750050628343246,36.09446859390736,-96.25519929585457,84.22370748782159
2024-09-23 10:06:16.517432,39.45,12.222413,-0.0034324103296106863,-0.023728432883788564,0.09750050628343246,36.09446859390736,-96.25519929585457,76.200527287817
2024-09-23 10:06:16.559933,39.45,12.222464,-0.0034324103296106863,-0.023827930413011865,0.09715228999426605,28.07457030097246,-100.26678939585686,80.21211738781929
2024-09-23 10:06:16.603549,39.45,12.222464,-0.0034324103296106863,-0.023479709566915436,0.0973512698629459,28.07457030097246,-100.26678939585686,80.21211738781929
2024-09-23 10:06:16.614592,39.45,12.222464,-0.0034324103296106863,-0.023479709566915436,0.0973512698629459,48.12595698684454,-96.25519929585457,80.21211738781929
2024-09-23 10:06:16.657581,39.45,12.22256,-0.0029847020175114316,-0.023330473146428877,0.09745075675933246,56.14914060194492,-88.23529758782387,80.21211738781929
2024-09-23 10:06:16.699593,39.45,12.222611,-0.0029847020175114316,-0.023330473146428877,0.09745075675933246,56.14914060194492,-88.23529758782387,76.200527287817
2024-09-23 10:06:16.711455,39.45,12.222611,-0.0032831742888682963,-0.02308174982955575,0.09725178296655933,44.11764879391193,-88.23529758782387,76.200527287817
2024-09-23 10:06:16.754740,39.45,12.222662,-0.0030841997366068195,-0.023877669304275123,0.09715228999426605,44.11764879391193,-92.24360919585227,76.200527287817
2024-09-23 10:06:16.849106,39.45,12.222712,-0.0030841997366068195,-0.023877669304275123,0.09715228999426605,40.106058693909645,-100.26678939585686,76.200527287817
2024-09-23 10:06:16.860705,39.45,12.222712,-0.0029349636958644295,-0.023579196463302005,0.09715228999426605,40.106058693909645,-100.26678939585686,76.200527287817
2024-09-23 10:06:16.892514,39.45,12.222712,-0.0029349636958644295,-0.023579196463302005,0.0970030596496862,40.106058693909645,-100.26678939585686,76.200527287817
2024-09-23 10:06:16.903802,39.45,12.222763,-0.0032831742888682963,-0.023579196463302005,0.0970030596496862,32.08287849390507,-104.27510100388527,80.21211738781929
2024-09-23 10:06:16.945858,39.45,12.222763,-0.0032831742888682963,-0.02362894446842532,0.09695331012558621,36.09446859390736,-100.26678939585686,80.21211738781929
2024-09-23 10:06:16.957225,39.45,12.222852,-0.0032831742888682963,-0.02362894446842532,0.09695331012558621,36.09446859390736,-100.26678939585686,76.200527287817
2024-09-23 10:06:16.989380,39.45,12.222852,-0.0032831742888682963,-0.02362894446842532,0.09695331012558621,36.09446859390736,-100.26678939585686,76.200527287817
2024-09-23 10:06:17.000676,39.45,12.222852,-0.0032831742888682963,-0.02293251340906919,0.09715228999426605,32.08287849390507,-100.26678939585686,76.200527287817
2024-09-23 10:06:17.042817,39.45,12.222903,-0.0030344509719951677,-0.023429960042815445,0.09720203344245934,32.08287849390507,-100.26678939585686,76.200527287817
2024-09-23 10:06:17.054421,39.45,12.222903,-0.0030344509719951677,-0.023429960042815445,0.09720203344245934,52.137550501942634,-96.25519929585457,76.200527287817
2024-09-23 10:06:17.097133,39.45,12.222999,-0.0031339382481259063,-0.023429960042815445,0.09720203344245934,52.137550501942634,-96.25519929585457,80.21211738781929
2024-09-23 10:06:17.141127,39.59,12.222999,-0.0031339382481259063,-0.02352945757203875,0.09680407370509965,52.137550501942634,-100.26678939585686,80.21211738781929
2024-09-23 10:06:17.152982,39.59,12.22305,-0.0031339382481259063,-0.02352945757203875,0.09680407370509965,52.137550501942634,-100.26678939585686,80.21211738781929
2024-09-23 10:06:17.184563,39.59,12.22305,-0.0030841997366068195,-0.02352945757203875,0.09680407370509965,52.137550501942634,-100.26678939585686,80.21211738781929
2024-09-23 10:06:17.196168,39.59,12.22305,-0.0030841997366068195,-0.02352945757203875,0.0970030596496862,40.106058693909645,-104.27510100388527,72.1922225099802
2024-09-23 10:06:17.238834,39.59,12.223101,-0.0031836870127375577,-0.023230986250042305,0.09690356060148622,40.106058693909645,-104.27510100388527,72.1922225099802
2024-09-23 10:06:17.250756,39.59,12.223101,-0.0031836870127375577,-0.023230986250042305,0.09690356060148622,36.09446859390736,-96.25519929585457,72.1922225099802
2024-09-23 10:06:17.284126,39.59,12.223151,-0.0031836870127375577,-0.023230986250042305,0.09690356060148622,36.09446859390736,-96.25519929585457,76.200527287817
2024-09-23 10:06:17.295599,39.59,12.223151,-0.0029847020175114316,-0.023579196463302005,0.09720203344245934,28.07457030097246,-96.25519929585457,76.200527287817
2024-09-23 10:06:17.338246,39.59,12.223242,-0.0029349636958644295,-0.02352945757203875,0.09720203344245934,28.07457030097246,-100.26678939585686,76.200527287817
2024-09-23 10:06:17.350388,39.59,12.223242,-0.0029349636958644295,-0.02352945757203875,0.09695331012558621,28.07457030097246,-100.26678939585686,76.200527287817
2024-09-23 10:06:17.383454,39.59,12.223242,-0.0029349636958644295,-0.02352945757203875,0.09695331012558621,40.106058693909645,-100.26678939585686,76.200527287817
2024-09-23 10:06:17.395173,39.59,12.223293,-0.003382661564999035,-0.02362894446842532,0.09695331012558621,40.106058693909645,-100.26678939585686,76.200527287817
2024-09-23 10:06:17.438821,39.59,12.223344,-0.003482159473966507,-0.02362894446842532,0.09740101331113918,48.12595698684454,-104.27510100388527,76.200527287817
2024-09-23 10:06:17.481719,39.59,12.223344,-0.003482159473966507,-0.023877669304275123,0.09695331012558621,48.12595698684454,-100.26678939585686,76.200527287817
2024-09-23 10:06:17.493339,39.59,12.223437,-0.003482159473966507,-0.023877669304275123,0.09695331012558621,48.12595698684454,-100.26678939585686,76.200527287817
2024-09-23 10:06:17.526938,39.59,12.223437,-0.003382661564999035,-0.023877669304275123,0.09695331012558621,48.12595698684454,-100.26678939585686,76.200527287817
2024-09-23 10:06:17.538942,39.59,12.223437,-0.003382661564999035,-0.02308174982955575,0.09680407370509965,40.106058693909645,-96.25519929585457,80.21211738781929
2024-09-23 10:06:17.580919,39.59,12.223488,-0.003929857343101113,-0.023877669304275123,0.09675432418099966,32.08287849390507,-96.25519929585457,80.21211738781929
2024-09-23 10:06:17.592677,39.59,12.223488,-0.003929857343101113,-0.023877669304275123,0.09675432418099966,32.08287849390507,-96.25519929585457,80.21211738781929
2024-09-23 10:06:17.625194,39.59,12.223539,-0.003929857343101113,-0.023877669304275123,0.09675432418099966,32.08287849390507,-96.25519929585457,76.200527287817
2024-09-23 10:06:17.636771,39.59,12.223539,-0.0031339382481259063,-0.02303200030545576,0.09685382322919964,24.06297849342227,-96.25519929585457,76.200527287817
2024-09-23 10:06:17.678326,39.59,12.22359,-0.0034324103296106863,-0.02303200030545576,0.09685382322919964,24.06297849342227,-100.26678939585686,80.21211738781929
2024-09-23 10:06:17.689654,39.59,12.22359,-0.0034324103296106863,-0.023429960042815445,0.09755024973162574,24.06297849342227,-100.26678939585686,80.21211738781929
2024-09-23 10:06:17.723072,39.59,12.22359,-0.0034324103296106863,-0.023429960042815445,0.09755024973162574,44.11764879391193,-96.25519929585457,80.21211738781929
2024-09-23 10:06:17.734926,39.59,12.22364,-0.0026862297461545674,-0.023429960042815445,0.09755024973162574,44.11764879391193,-96.25519929585457,76.200527287817
2024-09-23 10:06:17.777328,39.59,12.223691,-0.0029847020175114316,-0.023429960042815445,0.09670458680871308,40.106058693909645,-88.23529758782387,84.22370748782159
2024-09-23 10:06:17.820641,39.59,12.223691,-0.0029847020175114316,-0.023479709566915436,0.0970030596496862,40.106058693909645,-88.23529758782387,84.22370748782159
2024-09-23 10:06:17.831915,39.59,12.223778,-0.0029847020175114316,-0.023479709566915436,0.0970030596496862,52.137550501942634,-100.26678939585686,72.1922225099802
2024-09-23 10:06:17.874957,39.59,12.223778,-0.003631395514708897,-0.023230986250042305,0.09680407370509965,40.106058693909645,-96.25519929585457,72.1922225099802
2024-09-23 10:06:17.886992,39.59,12.223778,-0.003631395514708897,-0.023230986250042305,0.09680407370509965,40.106058693909645,-96.25519929585457,76.200527287817
2024-09-23 10:06:17.919389,39.59,12.223829,-0.0033329230534799477,-0.023280723622328886,0.09680407370509965,40.106058693909645,-96.25519929585457,76.200527287817
2024-09-23 10:06:17.930986,39.59,12.223829,-0.0033329230534799477,-0.023280723622328886,0.09685382322919964,32.08287849390507,-92.24360919585227,76.200527287817
2024-09-23 10:06:17.973615,39.59,12.22388,-0.0032831742888682963,-0.02352945757203875,0.09665483728461309,28.07457030097246,-92.24360919585227,76.200527287817
2024-09-23 10:06:18.017045,39.59,12.223931,-0.0032831742888682963,-0.02352945757203875,0.09665483728461309,28.07457030097246,-96.25519929585457,76.200527287817
2024-09-23 10:06:18.028757,39.59,12.223931,-0.0035318979854855937,-0.023479709566915436,0.0973015264147526,28.07457030097246,-96.25519929585457,76.200527287817
2024-09-23 10:06:18.071048,39.59,12.223981,-0.0029847020175114316,-0.02338022115155219,0.0973015264147526,24.06297849342227,-100.26678939585686,80.21211738781929
2024-09-23 10:06:18.114281,39.59,12.223981,-0.0029847020175114316,-0.02338022115155219,0.09705279702197278,40.106058693909645,-96.25519929585457,80.21211738781929
2024-09-23 10:06:18.126148,39.59,12.223981,-0.0029847020175114316,-0.02338022115155219,0.09705279702197278,40.106058693909645,-96.25519929585457,76.200527287817
2024-09-23 10:06:18.168449,40.62,12.224032,-0.0029847020175114316,-0.023181236725942318,0.09705279702197278,48.12595698684454,-104.27510100388527,76.200527287817
2024-09-23 10:06:18.211127,40.62,12.224119,-0.0029847020175114316,-0.023181236725942318,0.09705279702197278,48.12595698684454,-104.27510100388527,76.200527287817
2024-09-23 10:06:18.222216,40.62,12.224119,-0.0030344509719951677,-0.023429960042815445,0.09725178296655933,48.12595698684454,-104.27510100388527,76.200527287817
2024-09-23 10:06:18.266345,40.62,12.224171,-0.0034324103296106863,-0.023230986250042305,0.0973512698629459,48.12595698684454,-104.27510100388527,72.1922225099802
2024-09-23 10:06:18.309037,40.62,12.224171,-0.0034324103296106863,-0.023230986250042305,0.0973512698629459,44.11764879391193,-104.27510100388527,80.21211738781929
2024-09-23 10:06:18.320062,40.62,12.224221,-0.0029847020175114316,-0.02367869399252531,0.0973512698629459,44.11764879391193,-104.27510100388527,80.21211738781929
2024-09-23 10:06:18.363734,40.62,12.224272,-0.0029847020175114316,-0.02367869399252531,0.09655535038822652,40.106058693909645,-96.25519929585457,76.200527287817
2024-09-23 10:06:18.407780,40.62,12.224272,-0.0029847020175114316,-0.023877669304275123,0.0970030596496862,32.08287849390507,-96.25519929585457,76.200527287817
2024-09-23 10:06:18.419724,40.62,12.224363,-0.0029847020175114316,-0.023877669304275123,0.0970030596496862,32.08287849390507,-96.25519929585457,76.200527287817
2024-09-23 10:06:18.462208,40.62,12.224363,-0.0029847020175114316,-0.023877669304275123,0.09720203344245934,44.11764879391193,-104.27510100388527,76.200527287817
2024-09-23 10:06:18.503888,40.62,12.224415,-0.003233425524256645,-0.023827930413011865,0.09720203344245934,44.11764879391193,-104.27510100388527,76.200527287817
2024-09-23 10:06:18.515206,40.62,12.224415,-0.003233425524256645,-0.023827930413011865,0.09725178296655933,48.12595698684454,-100.26678939585686,76.200527287817
2024-09-23 10:06:18.558477,40.62,12.224465,-0.0032831742888682963,-0.02367869399252531,0.09705279702197278,48.12595698684454,-100.26678939585686,80.21211738781929
2024-09-23 10:06:18.602892,40.62,12.224516,-0.0032831742888682963,-0.02367869399252531,0.09705279702197278,48.12595698684454,-96.25519929585457,76.200527287817
2024-09-23 10:06:18.614227,40.62,12.224516,-0.0030841997366068195,-0.023429960042815445,0.09720203344245934,48.12595698684454,-96.25519929585457,76.200527287817
2024-09-23 10:06:18.656837,40.62,12.224567,-0.0036811340262279837,-0.023778180888911878,0.09720203344245934,44.11764879391193,-96.25519929585457,76.200527287817
2024-09-23 10:06:18.699512,40.62,12.224567,-0.0036811340262279837,-0.023778180888911878,0.09645586349183995,40.106058693909645,-96.25519929585457,76.200527287817
2024-09-23 10:06:18.711376,40.62,12.224617,-0.0031836870127375577,-0.023778180888911878,0.09645586349183995,40.106058693909645,-92.24360919585227,84.22370748782159
2024-09-23 10:06:18.744515,40.62,12.224617,-0.0031836870127375577,-0.02352945757203875,0.09645586349183995,40.106058693909645,-92.24360919585227,84.22370748782159
2024-09-23 10:06:18.756069,40.62,12.224704,-0.0031836870127375577,-0.02352945757203875,0.09695331012558621,28.07457030097246,-104.27510100388527,76.200527287817
2024-09-23 10:06:18.799204,40.62,12.224704,-0.0032831742888682963,-0.023827930413011865,0.09784872257259886,36.09446859390736,-104.27510100388527,76.200527287817
2024-09-23 10:06:18.810310,40.62,12.224704,-0.0032831742888682963,-0.023827930413011865,0.09784872257259886,36.09446859390736,-88.23529758782387,84.22370748782159
2024-09-23 10:06:18.842351,40.62,12.224756,-0.0032831742888682963,-0.023827930413011865,0.09784872257259886,36.09446859390736,-88.23529758782387,84.22370748782159
2024-09-23 10:06:18.854086,40.62,12.224756,-0.003233425524256645,-0.023579196463302005,0.09720203344245934,36.09446859390736,-92.24360919585227,84.22370748782159
2024-09-23 10:06:18.898081,40.62,12.224807,-0.003631395514708897,-0.02313149783467906,0.09695331012558621,36.09446859390736,-92.24360919585227,76.200527287817
2024-09-23 10:06:18.910048,40.62,12.224807,-0.003631395514708897,-0.02313149783467906,0.09695331012558621,48.12595698684454,-92.24360919585227,76.200527287817
2024-09-23 10:06:18.942677,40.62,12.224807,-0.003631395514708897,-0.02313149783467906,0.09695331012558621,48.12595698684454,-92.24360919585227,76.200527287817
2024-09-23 10:06:18.954512,40.62,12.224857,-0.003631395514708897,-0.023230986250042305,0.09745075675933246,48.12595698684454,-92.24360919585227,76.200527287817
2024-09-23 10:06:18.997599,40.62,12.224908,-0.0030841997366068195,-0.02367869399252531,0.09745075675933246,40.106058693909645,-100.26678939585686,84.22370748782159
2024-09-23 10:06:19.039450,40.62,12.224908,-0.0030841997366068195,-0.02367869399252531,0.09685382322919964,40.106058693909645,-100.26678939585686,84.22370748782159
2024-09-23 10:06:19.050701,40.62,12.224959,-0.003233425524256645,-0.02367869399252531,0.09685382322919964,40.106058693909645,-92.24360919585227,80.21211738781929
2024-09-23 10:06:19.093003,40.62,12.224959,-0.003233425524256645,-0.023181236725942318,0.09670458680871308,28.07457030097246,-96.25519929585457,84.22370748782159
2024-09-23 10:06:19.105176,40.62,12.225046,-0.003233425524256645,-0.023181236725942318,0.09670458680871308,28.07457030097246,-96.25519929585457,84.22370748782159
2024-09-23 10:06:19.137995,40.62,12.225046,-0.0030344509719951677,-0.024275627522658133,0.09680407370509965,28.07457030097246,-96.25519929585457,84.22370748782159
2024-09-23 10:06:19.192277,40.69,12.225097,-0.003631395514708897,-0.023728432883788564,0.09680407370509965,24.06297849342227,-96.25519929585457,84.22370748782159
2024-09-23 10:06:19.234396,40.69,12.225097,-0.003631395514708897,-0.023728432883788564,0.0966050877605131,32.08287849390507,-96.25519929585457,84.22370748782159
2024-09-23 10:06:19.246460,40.69,12.225148,-0.0028354659767690416,-0.023728432883788564,0.0966050877605131,32.08287849390507,-100.26678939585686,76.200527287817
2024-09-23 10:06:19.289976,40.69,12.225198,-0.0028354659767690416,-0.02313149783467906,0.09720203344245934,40.106058693909645,-100.26678939585686,80.21211738781929
2024-09-23 10:06:19.332332,40.69,12.225198,-0.004079093383843503,-0.023330473146428877,0.09720203344245934,40.106058693909645,-100.26678939585686,80.21211738781929
2024-09-23 10:06:19.344229,40.69,12.225198,-0.004079093383843503,-0.023330473146428877,0.09750050628343246,44.11764879391193,-92.24360919585227,76.200527287817
2024-09-23 10:06:19.387460,40.69,12.225249,-0.0031836870127375577,-0.02362894446842532,0.09675432418099966,44.11764879391193,-100.26678939585686,76.200527287817
2024-09-23 10:06:19.430580,40.69,12.225339,-0.002636491424507565,-0.02362894446842532,0.09675432418099966,44.11764879391193,-100.26678939585686,76.200527287817
2024-09-23 10:06:19.441551,40.69,12.225339,-0.002636491424507565,-0.024325377046758124,0.09655535038822652,28.07457030097246,-100.26678939585686,76.200527287817
2024-09-23 10:06:19.484589,40.69,12.22539,-0.003382661564999035,-0.02313149783467906,0.09675432418099966,28.07457030097246,-100.26678939585686,76.200527287817
2024-09-23 10:06:19.528654,40.69,12.22539,-0.003382661564999035,-0.02313149783467906,0.09675432418099966,28.07457030097246,-96.25519929585457,76.200527287817
2024-09-23 10:06:19.539993,40.69,12.225441,-0.0031836870127375577,-0.024026904205785005,0.09675432418099966,28.07457030097246,-96.25519929585457,76.200527287817
2024-09-23 10:06:19.582529,40.69,12.225492,-0.0036811340262279837,-0.024026904205785005,0.09705279702197278,28.07457030097246,-108.28669110388756,72.1922225099802
2024-09-23 10:06:19.625178,40.69,12.225492,-0.0036811340262279837,-0.023479709566915436,0.0973015264147526,40.106058693909645,-108.28669110388756,72.1922225099802
2024-09-23 10:06:19.636605,40.69,12.225582,-0.0036811340262279837,-0.023479709566915436,0.0973015264147526,40.106058693909645,-104.27510100388527,76.200527287817
2024-09-23 10:06:19.678668,40.69,12.225582,-0.0032831742888682963,-0.02397715620066169,0.0970030596496862,36.09446859390736,-104.27510100388527,80.21211738781929
2024-09-23 10:06:19.721443,40.69,12.225633,-0.003382661564999035,-0.02397715620066169,0.0970030596496862,36.09446859390736,-104.27510100388527,80.21211738781929
2024-09-23 10:06:19.733119,40.69,12.225633,-0.003382661564999035,-0.023330473146428877,0.09705279702197278,56.14914060194492,-96.25519929585457,80.21211738781929
2024-09-23 10:06:19.776419,40.69,12.225684,-0.003382661564999035,-0.02367869399252531,0.09680407370509965,44.11764879391193,-96.25519929585457,68.18063240997792
2024-09-23 10:06:19.819336,40.69,12.225684,-0.003382661564999035,-0.02367869399252531,0.09680407370509965,44.11764879391193,-96.25519929585457,72.1922225099802
2024-09-23 10:06:19.830351,40.69,12.225735,-0.0038303700669703737,-0.023429960042815445,0.09705279702197278,44.11764879391193,-96.25519929585457,72.1922225099802
2024-09-23 10:06:19.872015,40.69,12.225785,-0.0038303700669703737,-0.023429960042815445,0.09705279702197278,28.07457030097246,-104.27510100388527,76.200527287817
2024-09-23 10:06:19.885400,40.69,12.225785,-0.0036811340262279837,-0.023181236725942318,0.09705279702197278,28.07457030097246,-104.27510100388527,76.200527287817
2024-09-23 10:06:19.917586,40.69,12.225785,-0.0036811340262279837,-0.023181236725942318,0.0970030596496862,32.08287849390507,-100.26678939585686,76.200527287817
2024-09-23 10:06:19.928749,40.69,12.225836,-0.0031339382481259063,-0.023181236725942318,0.0970030596496862,32.08287849390507,-100.26678939585686,76.200527287817
2024-09-23 10:06:19.971972,40.69,12.225923,-0.0031339382481259063,-0.02278327698858263,0.09740101331113918,40.106058693909645,-96.25519929585457,72.1922225099802
2024-09-23 10:06:20.014313,40.69,12.225923,-0.002785727465249955,-0.02338022115155219,0.09740101331113918,40.106058693909645,-96.25519929585457,72.1922225099802
2024-09-23 10:06:20.026612,40.69,12.225923,-0.002785727465249955,-0.02338022115155219,0.09759999317981902,36.09446859390736,-100.26678939585686,76.200527287817
2024-09-23 10:06:20.069798,40.69,12.225975,-0.0035816467500972456,-0.023280723622328886,0.09680407370509965,44.11764879391193,-96.25519929585457,76.200527287817
2024-09-23 10:06:20.113978,40.69,12.226025,-0.0034324103296106863,-0.023280723622328886,0.09680407370509965,44.11764879391193,-96.25519929585457,80.21211738781929
2024-09-23 10:06:20.125674,40.69,12.226025,-0.0034324103296106863,-0.02367869399252531,0.09745075675933246,48.12595698684454,-96.25519929585457,80.21211738781929
2024-09-23 10:06:20.158396,40.69,12.226025,-0.0034324103296106863,-0.02367869399252531,0.09745075675933246,48.12595698684454,-96.25519929585457,80.21211738781929
2024-09-23 10:06:20.170110,40.69,12.226076,-0.0032831742888682963,-0.02338022115155219,0.09745075675933246,48.12595698684454,-96.25519929585457,76.200527287817
2024-09-23 10:06:20.211969,40.62,12.226076,-0.0032831742888682963,-0.02338022115155219,0.09680407370509965,40.106058693909645,-92.24360919585227,76.200527287817
2024-09-23 10:06:20.264914,40.62,12.226127,-0.0030841997366068195,-0.023230986250042305,0.0970030596496862,36.09446859390736,-92.24360919585227,76.200527287817
2024-09-23 10:06:20.309013,40.62,12.226178,-0.0030841997366068195,-0.023230986250042305,0.0970030596496862,36.09446859390736,-96.25519929585457,80.21211738781929
2024-09-23 10:06:20.320734,40.62,12.226178,-0.0024872551938930902,-0.023479709566915436,0.09720203344245934,36.09446859390736,-96.25519929585457,80.21211738781929
2024-09-23 10:06:20.363443,40.62,12.226264,-0.0030841997366068195,-0.023778180888911878,0.09720203344245934,32.08287849390507,-96.25519929585457,80.21211738781929
2024-09-23 10:06:20.405917,40.62,12.226264,-0.0030841997366068195,-0.023778180888911878,0.0973015264147526,36.09446859390736,-96.25519929585457,80.21211738781929
2024-09-23 10:06:20.460202,40.62,12.226315,-0.0030841997366068195,-0.023827930413011865,0.09695331012558621,36.09446859390736,-96.25519929585457,80.21211738781929
2024-09-23 10:06:20.504067,40.62,12.226315,-0.0030841997366068195,-0.023827930413011865,0.09695331012558621,36.09446859390736,-92.24360919585227,76.200527287817
2024-09-23 10:06:20.515548,40.62,12.226366,-0.0035318979854855937,-0.023429960042815445,0.09695331012558621,36.09446859390736,-92.24360919585227,76.200527287817
2024-09-23 10:06:20.547976,40.62,12.226366,-0.0035318979854855937,-0.023429960042815445,0.09665483728461309,36.09446859390736,-92.24360919585227,76.200527287817
2024-09-23 10:06:20.559706,40.62,12.22646,-0.0030841997366068195,-0.023429960042815445,0.09665483728461309,36.09446859390736,-92.24360919585227,80.21211738781929
2024-09-23 10:06:20.604418,40.62,12.22646,-0.0030841997366068195,-0.02362894446842532,0.09715228999426605,40.106058693909645,-96.25519929585457,80.21211738781929
2024-09-23 10:06:20.615783,40.62,12.226511,-0.0030841997366068195,-0.02362894446842532,0.09715228999426605,40.106058693909645,-96.25519929585457,80.21211738781929
2024-09-23 10:06:20.649884,40.62,12.226511,-0.003382661564999035,-0.02313149783467906,0.0970030596496862,40.106058693909645,-96.25519929585457,80.21211738781929
2024-09-23 10:06:20.661187,40.62,12.226511,-0.003382661564999035,-0.02313149783467906,0.0970030596496862,24.06297849342227,-104.27510100388527,80.21211738781929
2024-09-23 10:06:20.703787,40.62,12.226606,-0.0035318979854855937,-0.023330473146428877,0.09789846602079214,24.06297849342227,-100.26678939585686,80.21211738781929
2024-09-23 10:06:20.745609,40.62,12.226658,-0.0035318979854855937,-0.023330473146428877,0.09789846602079214,24.06297849342227,-100.26678939585686,80.21211738781929
2024-09-23 10:06:20.758007,40.62,12.226658,-0.0030344509719951677,-0.023479709566915436,0.09710254654607277,28.07457030097246,-100.26678939585686,80.21211738781929
2024-09-23 10:06:20.801286,40.62,12.226708,-0.0030841997366068195,-0.02367869399252531,0.09750050628343246,28.07457030097246,-104.27510100388527,80.21211738781929
2024-09-23 10:06:20.844928,40.62,12.226708,-0.0030841997366068195,-0.02367869399252531,0.09750050628343246,44.11764879391193,-100.26678939585686,76.200527287817
2024-09-23 10:06:20.856343,40.62,12.226759,-0.003780631555451287,-0.023778180888911878,0.09750050628343246,44.11764879391193,-100.26678939585686,76.200527287817
2024-09-23 10:06:20.900216,40.62,12.22681,-0.0030841997366068195,-0.023778180888911878,0.09695331012558621,56.14914060194492,-100.26678939585686,76.200527287817
2024-09-23 10:06:20.942388,40.62,12.22681,-0.0030841997366068195,-0.02367869399252531,0.09680407370509965,36.09446859390736,-100.26678939585686,76.200527287817
2024-09-23 10:06:20.954186,40.62,12.226898,-0.0030841997366068195,-0.02367869399252531,0.09680407370509965,36.09446859390736,-100.26678939585686,80.21211738781929
2024-09-23 10:06:20.997284,40.62,12.226898,-0.003233425524256645,-0.023778180888911878,0.09665483728461309,32.08287849390507,-104.27510100388527,84.22370748782159
2024-09-23 10:06:21.039963,40.62,12.22695,-0.0033329230534799477,-0.023230986250042305,0.09665483728461309,32.08287849390507,-104.27510100388527,84.22370748782159
2024-09-23 10:06:21.051491,40.62,12.22695,-0.0033329230534799477,-0.023230986250042305,0.09715228999426605,24.06297849342227,-104.27510100388527,84.22370748782159
2024-09-23 10:06:21.094218,40.62,12.227001,-0.003780631555451287,-0.023728432883788564,0.09670458680871308,40.106058693909645,-104.27510100388527,84.22370748782159
2024-09-23 10:06:21.137074,40.62,12.227051,-0.003780631555451287,-0.023728432883788564,0.09670458680871308,40.106058693909645,-100.26678939585686,76.200527287817
2024-09-23 10:06:21.148777,40.62,12.227051,-0.0028354659767690416,-0.023579196463302005,0.09725178296655933,40.106058693909645,-100.26678939585686,76.200527287817
2024-09-23 10:06:21.191637,40.62,12.227102,-0.0031339382481259063,-0.023579196463302005,0.09725178296655933,40.106058693909645,-96.25519929585457,88.23529758782387
2024-09-23 10:06:21.234454,40.31,12.227102,-0.0031339382481259063,-0.02362894446842532,0.09710254654607277,44.11764879391193,-96.25519929585457,88.23529758782387
2024-09-23 10:06:21.246147,40.31,12.227153,-0.0031339382481259063,-0.02362894446842532,0.09710254654607277,44.11764879391193,-100.26678939585686,80.21211738781929
2024-09-23 10:06:21.289854,40.31,12.227153,-0.0034324103296106863,-0.023280723622328886,0.09690356060148622,40.106058693909645,-96.25519929585457,76.200527287817
2024-09-23 10:06:21.332382,40.31,12.227239,-0.0031836870127375577,-0.02397715620066169,0.09690356060148622,40.106058693909645,-96.25519929585457,76.200527287817
2024-09-23 10:06:21.343631,40.31,12.227239,-0.0031836870127375577,-0.02397715620066169,0.09680407370509965,36.09446859390736,-96.25519929585457,76.200527287817
2024-09-23 10:06:21.386278,40.31,12.227291,-0.003382661564999035,-0.023728432883788564,0.09710254654607277,28.07457030097246,-96.25519929585457,76.200527287817
2024-09-23 10:06:21.429328,40.31,12.227342,-0.003382661564999035,-0.023728432883788564,0.09710254654607277,28.07457030097246,-100.26678939585686,84.22370748782159
2024-09-23 10:06:21.440476,40.31,12.227342,-0.0038801188315820256,-0.02367869399252531,0.09675432418099966,28.07457030097246,-100.26678939585686,84.22370748782159
2024-09-23 10:06:21.482837,40.31,12.227392,-0.0029349636958644295,-0.02397715620066169,0.09675432418099966,28.07457030097246,-100.26678939585686,76.200527287817
2024-09-23 10:06:21.526724,40.31,12.227392,-0.0029349636958644295,-0.02397715620066169,0.09705279702197278,36.09446859390736,-96.25519929585457,76.200527287817
2024-09-23 10:06:21.538797,40.31,12.227443,-0.003631395514708897,-0.02397715620066169,0.09705279702197278,36.09446859390736,-96.25519929585457,80.21211738781929
2024-09-23 10:06:21.581233,40.31,12.227532,-0.003631395514708897,-0.02338022115155219,0.09720203344245934,52.137550501942634,-92.24360919585227,84.22370748782159
2024-09-23 10:06:21.624437,40.31,12.227532,-0.0038801188315820256,-0.023230986250042305,0.09715228999426605,52.137550501942634,-92.24360919585227,84.22370748782159
2024-09-23 10:06:21.636041,40.31,12.227532,-0.0038801188315820256,-0.023230986250042305,0.09715228999426605,48.12595698684454,-96.25519929585457,80.21211738781929
2024-09-23 10:06:21.679165,40.31,12.227583,-0.0033329230534799477,-0.023230986250042305,0.09680407370509965,44.11764879391193,-92.24360919585227,80.21211738781929
2024-09-23 10:06:21.721811,40.31,12.227634,-0.0032831742888682963,-0.023230986250042305,0.09680407370509965,44.11764879391193,-92.24360919585227,84.22370748782159
2024-09-23 10:06:21.733069,40.31,12.227634,-0.0032831742888682963,-0.02367869399252531,0.09680407370509965,24.06297849342227,-92.24360919585227,84.22370748782159
2024-09-23 10:06:21.776264,40.31,12.227685,-0.003482159473966507,-0.023479709566915436,0.09680407370509965,24.06297849342227,-100.26678939585686,84.22370748782159
2024-09-23 10:06:21.820273,40.31,12.227685,-0.003482159473966507,-0.023479709566915436,0.09680407370509965,24.06297849342227,-96.25519929585457,80.21211738781929
2024-09-23 10:06:21.831496,40.31,12.227735,-0.002785727465249955,-0.02352945757203875,0.09680407370509965,24.06297849342227,-96.25519929585457,80.21211738781929
2024-09-23 10:06:21.873470,40.31,12.227786,-0.0028354659767690416,-0.02352945757203875,0.09720203344245934,28.07457030097246,-100.26678939585686,80.21211738781929
2024-09-23 10:06:21.915641,40.31,12.227786,-0.0028354659767690416,-0.02412639262114825,0.09725178296655933,28.07457030097246,-100.26678939585686,80.21211738781929
2024-09-23 10:06:21.927041,40.31,12.227873,-0.0028354659767690416,-0.02412639262114825,0.09725178296655933,36.09446859390736,-92.24360919585227,76.200527287817
2024-09-23 10:06:21.970038,40.31,12.227873,-0.003233425524256645,-0.023927417309398437,0.0970030596496862,36.09446859390736,-100.26678939585686,76.200527287817
2024-09-23 10:06:22.013118,40.31,12.227925,-0.003482159473966507,-0.023927417309398437,0.0970030596496862,36.09446859390736,-100.26678939585686,76.200527287817
2024-09-23 10:06:22.024172,40.31,12.227925,-0.003482159473966507,-0.023429960042815445,0.09720203344245934,44.11764879391193,-92.24360919585227,76.200527287817
2024-09-23 10:06:22.066867,40.31,12.227975,-0.0025369937054121774,-0.02362894446842532,0.09710254654607277,44.11764879391193,-92.24360919585227,80.21211738781929
2024-09-23 10:06:22.078863,40.31,12.227975,-0.0025369937054121774,-0.02362894446842532,0.09710254654607277,36.09446859390736,-92.24360919585227,80.21211738781929
2024-09-23 10:06:22.111047,40.31,12.227975,-0.0025369937054121774,-0.02362894446842532,0.09710254654607277,36.09446859390736,-92.24360919585227,80.21211738781929
2024-09-23 10:06:22.122645,40.31,12.228026,-0.0034324103296106863,-0.023230986250042305,0.09655535038822652,36.09446859390736,-92.24360919585227,80.21211738781929
2024-09-23 10:06:22.164901,40.31,12.228077,-0.0029349636958644295,-0.02338022115155219,0.09655535038822652,24.06297849342227,-96.25519929585457,76.200527287817
2024-09-23 10:06:22.207513,40.31,12.228077,-0.0029349636958644295,-0.02338022115155219,0.09680407370509965,28.07457030097246,-96.25519929585457,76.200527287817
2024-09-23 10:06:22.219087,40.31,12.228127,-0.0035816467500972456,-0.02338022115155219,0.09680407370509965,28.07457030097246,-96.25519929585457,76.200527287817
2024-09-23 10:06:22.261984,40.27,12.228127,-0.0035816467500972456,-0.02338022115155219,0.09725178296655933,36.09446859390736,-96.25519929585457,80.21211738781929
2024-09-23 10:06:22.273832,40.27,12.228214,-0.0035816467500972456,-0.02338022115155219,0.09725178296655933,36.09446859390736,-96.25519929585457,80.21211738781929
2024-09-23 10:06:22.306263,40.27,12.228214,-0.003382661564999035,-0.02352945757203875,0.09725178296655933,36.09446859390736,-96.25519929585457,80.21211738781929
2024-09-23 10:06:22.317694,40.27,12.228214,-0.003382661564999035,-0.02352945757203875,0.0973015264147526,48.12595698684454,-92.24360919585227,76.200527287817
2024-09-23 10:06:22.359795,40.27,12.228266,-0.003482159473966507,-0.023827930413011865,0.09750050628343246,48.12595698684454,-92.24360919585227,76.200527287817
2024-09-23 10:06:22.371477,40.27,12.228266,-0.003482159473966507,-0.023827930413011865,0.09750050628343246,48.12595698684454,-100.26678939585686,76.200527287817
2024-09-23 10:06:22.403735,40.27,12.228317,-0.003482159473966507,-0.023827930413011865,0.09750050628343246,48.12595698684454,-100.26678939585686,76.200527287817
2024-09-23 10:06:22.415498,40.27,12.228317,-0.0031339382481259063,-0.02278327698858263,0.09670458680871308,44.11764879391193,-100.26678939585686,76.200527287817
2024-09-23 10:06:22.458387,40.27,12.228367,-0.0033329230534799477,-0.02352945757203875,0.09670458680871308,44.11764879391193,-104.27510100388527,76.200527287817
2024-09-23 10:06:22.500181,40.27,12.228367,-0.0033329230534799477,-0.02352945757203875,0.09670458680871308,36.09446859390736,-96.25519929585457,76.200527287817
2024-09-23 10:06:22.511730,40.27,12.228418,-0.0035318979854855937,-0.023330473146428877,0.09670458680871308,36.09446859390736,-96.25519929585457,80.21211738781929
2024-09-23 10:06:22.555196,40.27,12.228469,-0.0034324103296106863,-0.023330473146428877,0.09680407370509965,36.09446859390736,-96.25519929585457,76.200527287817
2024-09-23 10:06:22.597265,40.27,12.228469,-0.0034324103296106863,-0.02362894446842532,0.09745075675933246,36.09446859390736,-96.25519929585457,76.200527287817
2024-09-23 10:06:22.608790,40.27,12.228556,-0.0034324103296106863,-0.02362894446842532,0.09745075675933246,24.06297849342227,-100.26678939585686,80.21211738781929
2024-09-23 10:06:22.651045,40.27,12.228556,-0.0032831742888682963,-0.023728432883788564,0.0973015264147526,32.08287849390507,-108.28669110388756,80.21211738781929
2024-09-23 10:06:22.663238,40.27,12.228556,-0.0032831742888682963,-0.023728432883788564,0.0973015264147526,32.08287849390507,-108.28669110388756,72.1922225099802
2024-09-23 10:06:22.695488,40.27,12.228607,-0.0032831742888682963,-0.023728432883788564,0.0973015264147526,32.08287849390507,-108.28669110388756,72.1922225099802
2024-09-23 10:06:22.707268,40.27,12.228607,-0.0031339382481259063,-0.023579196463302005,0.09750050628343246,44.11764879391193,-92.24360919585227,72.1922225099802
2024-09-23 10:06:22.749403,40.27,12.228658,-0.0029847020175114316,-0.024076653729884996,0.09740101331113918,44.11764879391193,-92.24360919585227,76.200527287817
2024-09-23 10:06:22.761716,40.27,12.228658,-0.0029847020175114316,-0.024076653729884996,0.09740101331113918,40.106058693909645,-92.24360919585227,76.200527287817
2024-09-23 10:06:22.794447,40.27,12.228709,-0.0029847020175114316,-0.024076653729884996,0.09740101331113918,40.106058693909645,-92.24360919585227,80.21211738781929
2024-09-23 10:06:22.805704,40.27,12.228709,-0.003482159473966507,-0.02367869399252531,0.09740101331113918,40.106058693909645,-92.24360919585227,80.21211738781929
2024-09-23 10:06:22.849941,40.27,12.22876,-0.0032831742888682963,-0.02367869399252531,0.0970030596496862,44.11764879391193,-100.26678939585686,80.21211738781929
2024-09-23 10:06:22.892645,40.27,12.22876,-0.0032831742888682963,-0.023728432883788564,0.0966050877605131,48.12595698684454,-100.26678939585686,80.21211738781929
2024-09-23 10:06:22.904463,40.27,12.22881,-0.0032831742888682963,-0.023728432883788564,0.0966050877605131,48.12595698684454,-104.27510100388527,72.1922225099802
2024-09-23 10:06:22.936659,40.27,12.22881,-0.003631395514708897,-0.023728432883788564,0.0966050877605131,48.12595698684454,-104.27510100388527,72.1922225099802
2024-09-23 10:06:22.948729,40.27,12.22881,-0.003631395514708897,-0.023479709566915436,0.09705279702197278,20.05138839341998,-96.25519929585457,84.22370748782159
2024-09-23 10:06:22.991612,40.27,12.228897,-0.0033329230534799477,-0.023479709566915436,0.09710254654607277,20.05138839341998,-96.25519929585457,84.22370748782159
2024-09-23 10:06:23.002675,40.27,12.228897,-0.0033329230534799477,-0.023479709566915436,0.09710254654607277,20.05138839341998,-100.26678939585686,84.22370748782159
2024-09-23 10:06:23.034987,40.27,12.228897,-0.0033329230534799477,-0.023479709566915436,0.09710254654607277,20.05138839341998,-100.26678939585686,80.21211738781929
2024-09-23 10:06:23.046409,40.27,12.228948,-0.0032831742888682963,-0.023429960042815445,0.09710254654607277,44.11764879391193,-100.26678939585686,80.21211738781929
2024-09-23 10:06:23.088315,40.27,12.228999,-0.0032831742888682963,-0.023429960042815445,0.09710254654607277,44.11764879391193,-100.26678939585686,84.22370748782159
2024-09-23 10:06:23.100066,40.27,12.228999,-0.0032831742888682963,-0.02338022115155219,0.09710254654607277,44.11764879391193,-100.26678939585686,84.22370748782159
2024-09-23 10:06:23.132260,40.27,12.228999,-0.0032831742888682963,-0.02338022115155219,0.09710254654607277,40.106058693909645,-100.26678939585686,84.22370748782159
2024-09-23 10:06:23.143458,40.27,12.22905,-0.0031339382481259063,-0.02367869399252531,0.09710254654607277,40.106058693909645,-100.26678939585686,80.21211738781929
2024-09-23 10:06:23.186218,40.27,12.22905,-0.0031339382481259063,-0.02367869399252531,0.09685382322919964,44.11764879391193,-96.25519929585457,84.22370748782159
2024-09-23 10:06:23.198161,40.27,12.2291,-0.0034324103296106863,-0.02367869399252531,0.09685382322919964,44.11764879391193,-96.25519929585457,84.22370748782159
2024-09-23 10:06:23.230955,40.27,12.2291,-0.0034324103296106863,-0.02397715620066169,0.09685382322919964,44.11764879391193,-96.25519929585457,84.22370748782159
2024-09-23 10:06:23.241863,40.27,12.229189,-0.0034324103296106863,-0.02397715620066169,0.0966050877605131,40.106058693909645,-100.26678939585686,76.200527287817
2024-09-23 10:06:23.285327,40.93,12.229189,-0.003482159473966507,-0.023429960042815445,0.09640611396773996,40.106058693909645,-100.26678939585686,76.200527287817
2024-09-23 10:06:23.328496,40.93,12.229189,-0.003482159473966507,-0.023429960042815445,0.09640611396773996,24.06297849342227,-96.25519929585457,76.200527287817
2024-09-23 10:06:23.340170,40.93,12.229241,-0.0034324103296106863,-0.02352945757203875,0.09640611396773996,24.06297849342227,-96.25519929585457,80.21211738781929
2024-09-23 10:06:23.382787,40.93,12.229241,-0.0034324103296106863,-0.02352945757203875,0.0970030596496862,24.06297849342227,-96.25519929585457,80.21211738781929
2024-09-23 10:06:23.425919,40.93,12.229241,-0.0034324103296106863,-0.02352945757203875,0.0970030596496862,24.06297849342227,-96.25519929585457,80.21211738781929
2024-09-23 10:06:23.437439,40.93,12.229292,-0.0031836870127375577,-0.023728432883788564,0.0970030596496862,24.06297849342227,-96.25519929585457,80.21211738781929
2024-09-23 10:06:23.480145,40.93,12.229342,-0.0031836870127375577,-0.023728432883788564,0.09725178296655933,32.08287849390507,-100.26678939585686,80.21211738781929
2024-09-23 10:06:23.492436,40.93,12.229342,-0.0026862297461545674,-0.023728432883788564,0.09725178296655933,32.08287849390507,-100.26678939585686,80.21211738781929
2024-09-23 10:06:23.525978,40.93,12.229342,-0.0026862297461545674,-0.02362894446842532,0.09715228999426605,40.106058693909645,-100.26678939585686,80.21211738781929
2024-09-23 10:06:23.537356,40.93,12.229393,-0.0026862297461545674,-0.02362894446842532,0.09715228999426605,40.106058693909645,-100.26678939585686,80.21211738781929
2024-09-23 10:06:23.580467,40.93,12.229393,-0.003233425524256645,-0.02352945757203875,0.09710254654607277,44.11764879391193,-100.26678939585686,80.21211738781929
2024-09-23 10:06:23.622633,40.93,12.229483,-0.0032831742888682963,-0.023330473146428877,0.09710254654607277,44.11764879391193,-100.26678939585686,80.21211738781929
2024-09-23 10:06:23.633935,40.93,12.229483,-0.0032831742888682963,-0.023330473146428877,0.09695331012558621,40.106058693909645,-92.24360919585227,80.21211738781929
2024-09-23 10:06:23.676486,40.93,12.22958,-0.0031339382481259063,-0.023479709566915436,0.0970030596496862,28.07457030097246,-92.24360919585227,80.21211738781929
2024-09-23 10:06:23.719095,40.93,12.22958,-0.0031339382481259063,-0.023479709566915436,0.0970030596496862,28.07457030097246,-100.26678939585686,76.200527287817
2024-09-23 10:06:23.730523,40.93,12.229632,-0.0030841997366068195,-0.024076653729884996,0.09655535038822652,28.07457030097246,-100.26678939585686,76.200527287817
2024-09-23 10:06:23.774022,40.93,12.229682,-0.003382661564999035,-0.023778180888911878,0.09655535038822652,24.06297849342227,-100.26678939585686,80.21211738781929
2024-09-23 10:06:23.816026,40.93,12.229682,-0.003382661564999035,-0.023778180888911878,0.09740101331113918,32.08287849390507,-100.26678939585686,80.21211738781929
2024-09-23 10:06:23.827706,40.93,12.229733,-0.002785727465249955,-0.023778180888911878,0.09740101331113918,32.08287849390507,-100.26678939585686,76.200527287817
2024-09-23 10:06:23.869775,40.93,12.229733,-0.002785727465249955,-0.02352945757203875,0.09715228999426605,44.11764879391193,-100.26678939585686,80.21211738781929
2024-09-23 10:06:23.881826,40.93,12.229823,-0.002785727465249955,-0.02352945757203875,0.09715228999426605,44.11764879391193,-100.26678939585686,80.21211738781929
2024-09-23 10:06:23.915024,40.93,12.229823,-0.0033329230534799477,-0.023330473146428877,0.09715228999426605,44.11764879391193,-100.26678939585686,80.21211738781929
2024-09-23 10:06:23.926299,40.93,12.229823,-0.0033329230534799477,-0.023330473146428877,0.09745075675933246,44.11764879391193,-100.26678939585686,80.21211738781929
2024-09-23 10:06:23.969998,40.93,12.229875,-0.0035318979854855937,-0.02367869399252531,0.0966050877605131,44.11764879391193,-92.24360919585227,80.21211738781929
2024-09-23 10:06:24.013329,40.93,12.229925,-0.0031836870127375577,-0.02367869399252531,0.0966050877605131,44.11764879391193,-92.24360919585227,76.200527287817
2024-09-23 10:06:24.024982,40.93,12.229925,-0.0031836870127375577,-0.02362894446842532,0.09750050628343246,28.07457030097246,-92.24360919585227,76.200527287817
2024-09-23 10:06:24.068571,40.93,12.229976,-0.0033329230534799477,-0.023280723622328886,0.09680407370509965,28.07457030097246,-100.26678939585686,80.21211738781929
2024-09-23 10:06:24.110413,40.93,12.229976,-0.0033329230534799477,-0.023280723622328886,0.09680407370509965,28.07457030097246,-104.27510100388527,84.22370748782159
2024-09-23 10:06:24.122077,40.93,12.230027,-0.0028354659767690416,-0.02397715620066169,0.09680407370509965,28.07457030097246,-104.27510100388527,84.22370748782159
2024-09-23 10:06:24.165282,40.93,12.230077,-0.0029349636958644295,-0.02397715620066169,0.09725178296655933,24.06297849342227,-100.26678939585686,76.200527287817
2024-09-23 10:06:24.208291,40.93,12.230077,-0.0029349636958644295,-0.023927417309398437,0.0973512698629459,32.08287849390507,-100.26678939585686,76.200527287817
2024-09-23 10:06:24.219780,40.93,12.230164,-0.0029349636958644295,-0.023927417309398437,0.0973512698629459,32.08287849390507,-100.26678939585686,76.200527287817
2024-09-23 10:06:24.302888,40.56,12.230164,-0.0033329230534799477,-0.023927417309398437,0.0973512698629459,32.08287849390507,-100.26678939585686,76.200527287817
2024-09-23 10:06:24.408789,40.56,12.230216,-0.0033329230534799477,-0.02303200030545576,0.09645586349183995,36.09446859390736,-104.27510100388527,80.21211738781929
2024-09-23 10:06:24.452080,40.56,12.230216,-0.003631395514708897,-0.023479709566915436,0.09675432418099966,36.09446859390736,-104.27510100388527,80.21211738781929
2024-09-23 10:06:24.463641,40.56,12.230216,-0.003631395514708897,-0.023479709566915436,0.09675432418099966,40.106058693909645,-100.26678939585686,68.18063240997792
2024-09-23 10:06:24.506614,40.56,12.230267,-0.0038801188315820256,-0.023579196463302005,0.09715228999426605,44.11764879391193,-104.27510100388527,68.18063240997792
2024-09-23 10:06:24.548309,40.56,12.230317,-0.0028852147413806935,-0.023579196463302005,0.09715228999426605,44.11764879391193,-104.27510100388527,76.200527287817
2024-09-23 10:06:24.560005,40.56,12.230317,-0.0028852147413806935,-0.023728432883788564,0.09690356060148622,36.09446859390736,-104.27510100388527,76.200527287817
2024-09-23 10:06:24.602513,40.56,12.230368,-0.003233425524256645,-0.02367869399252531,0.0973015264147526,36.09446859390736,-104.27510100388527,80.21211738781929
2024-09-23 10:06:24.645057,40.56,12.230368,-0.003233425524256645,-0.02367869399252531,0.0973015264147526,44.11764879391193,-100.26678939585686,80.21211738781929
2024-09-23 10:06:24.656485,40.56,12.230557,-0.003382661564999035,-0.02338022115155219,0.0973015264147526,44.11764879391193,-100.26678939585686,80.21211738781929
2024-09-23 10:06:24.700180,40.56,12.230607,-0.0033329230534799477,-0.02338022115155219,0.0973512698629459,48.12595698684454,-100.26678939585686,80.21211738781929
2024-09-23 10:06:24.743711,40.56,12.230607,-0.0033329230534799477,-0.023728432883788564,0.09695331012558621,48.12595698684454,-100.26678939585686,80.21211738781929
2024-09-23 10:06:24.755133,40.56,12.230701,-0.0033329230534799477,-0.023728432883788564,0.09695331012558621,40.106058693909645,-96.25519929585457,76.200527287817
2024-09-23 10:06:24.798748,40.56,12.230701,-0.0030841997366068195,-0.02338022115155219,0.09685382322919964,36.09446859390736,-96.25519929585457,80.21211738781929
2024-09-23 10:06:24.841790,40.56,12.230752,-0.0029847020175114316,-0.024026904205785005,0.09685382322919964,36.09446859390736,-96.25519929585457,80.21211738781929
2024-09-23 10:06:24.853335,40.56,12.230752,-0.0029847020175114316,-0.024026904205785005,0.09705279702197278,28.07457030097246,-104.27510100388527,80.21211738781929
2024-09-23 10:06:24.895255,40.56,12.230803,-0.0031836870127375577,-0.023579196463302005,0.09685382322919964,36.09446859390736,-104.27510100388527,80.21211738781929
2024-09-23 10:06:24.938063,40.56,12.230803,-0.0031836870127375577,-0.023579196463302005,0.09685382322919964,36.09446859390736,-96.25519929585457,84.22370748782159
2024-09-23 10:06:24.950193,40.56,12.230854,-0.0037308827908396356,-0.023230986250042305,0.09705279702197278,36.09446859390736,-96.25519929585457,84.22370748782159
2024-09-23 10:06:24.993652,40.56,12.230904,-0.003482159473966507,-0.023330473146428877,0.09705279702197278,32.08287849390507,-96.25519929585457,80.21211738781929
2024-09-23 10:06:25.037074,40.56,12.230904,-0.003482159473966507,-0.023330473146428877,0.09720203344245934,44.11764879391193,-104.27510100388527,80.21211738781929
2024-09-23 10:06:25.048567,40.56,12.230955,-0.0035816467500972456,-0.023330473146428877,0.09720203344245934,44.11764879391193,-104.27510100388527,84.22370748782159
2024-09-23 10:06:25.091723,40.56,12.231042,-0.0035816467500972456,-0.023927417309398437,0.0970030596496862,40.106058693909645,-100.26678939585686,84.22370748782159
2024-09-23 10:06:25.134898,40.56,12.231042,-0.0034324103296106863,-0.023429960042815445,0.09680407370509965,40.106058693909645,-100.26678939585686,84.22370748782159
2024-09-23 10:06:25.146041,40.56,12.231042,-0.0034324103296106863,-0.023429960042815445,0.09680407370509965,44.11764879391193,-96.25519929585457,76.200527287817
2024-09-23 10:06:25.189204,40.56,12.231093,-0.003780631555451287,-0.02308174982955575,0.09715228999426605,36.09446859390736,-96.25519929585457,76.200527287817
2024-09-23 10:06:25.233287,40.56,12.231144,-0.0029349636958644295,-0.023181236725942318,0.09715228999426605,36.09446859390736,-96.25519929585457,80.21211738781929
2024-09-23 10:06:25.244897,40.56,12.231144,-0.0029349636958644295,-0.023181236725942318,0.0966050877605131,32.08287849390507,-96.25519929585457,80.21211738781929
2024-09-23 10:06:25.379797,40.29,12.231195,-0.002785727465249955,-0.023181236725942318,0.0966050877605131,32.08287849390507,-100.26678939585686,84.22370748782159
2024-09-23 10:06:25.423605,40.29,12.231195,-0.002785727465249955,-0.024026904205785005,0.0966050877605131,32.08287849390507,-100.26678939585686,84.22370748782159
2024-09-23 10:06:25.436438,40.29,12.231245,-0.002785727465249955,-0.024026904205785005,0.09725178296655933,36.09446859390736,-100.26678939585686,80.21211738781929
2024-09-23 10:06:25.478326,40.29,12.231245,-0.0031836870127375577,-0.023479709566915436,0.09725178296655933,32.08287849390507,-100.26678939585686,80.21211738781929
2024-09-23 10:06:25.491287,40.29,12.231245,-0.0031836870127375577,-0.023479709566915436,0.09725178296655933,32.08287849390507,-100.26678939585686,84.22370748782159
2024-09-23 10:06:25.526321,40.29,12.231296,-0.003233425524256645,-0.023579196463302005,0.09725178296655933,32.08287849390507,-100.26678939585686,84.22370748782159
2024-09-23 10:06:25.537427,40.29,12.231296,-0.003233425524256645,-0.023579196463302005,0.09725178296655933,44.11764879391193,-96.25519929585457,84.22370748782159
2024-09-23 10:06:25.569132,40.29,12.231296,-0.003233425524256645,-0.023579196463302005,0.09725178296655933,44.11764879391193,-96.25519929585457,80.21211738781929
2024-09-23 10:06:25.580820,40.29,12.231383,-0.0035318979854855937,-0.023429960042815445,0.09650560086412653,32.08287849390507,-96.25519929585457,80.21211738781929
2024-09-23 10:06:25.622945,40.29,12.23153,-0.0027359787006383035,-0.023429960042815445,0.09650560086412653,32.08287849390507,-100.26678939585686,76.200527287817
2024-09-23 10:06:25.634788,40.29,12.23153,-0.0027359787006383035,-0.023877669304275123,0.09725178296655933,32.08287849390507,-100.26678939585686,76.200527287817
2024-09-23 10:06:25.667410,40.29,12.23153,-0.0027359787006383035,-0.023877669304275123,0.09725178296655933,28.07457030097246,-100.26678939585686,76.200527287817
2024-09-23 10:06:25.678879,40.29,12.231581,-0.0029847020175114316,-0.023579196463302005,0.09725178296655933,28.07457030097246,-96.25519929585457,84.22370748782159
2024-09-23 10:06:25.721228,40.29,12.231581,-0.0029847020175114316,-0.023579196463302005,0.09690356060148622,28.07457030097246,-96.25519929585457,80.21211738781929
2024-09-23 10:06:25.732507,40.29,12.231632,-0.0024872551938930902,-0.023579196463302005,0.09690356060148622,28.07457030097246,-96.25519929585457,80.21211738781929
2024-09-23 10:06:25.765700,40.29,12.231632,-0.0024872551938930902,-0.023579196463302005,0.09690356060148622,28.07457030097246,-96.25519929585457,80.21211738781929
2024-09-23 10:06:25.776779,40.29,12.231724,-0.0024872551938930902,-0.023579196463302005,0.0973015264147526,44.11764879391193,-96.25519929585457,80.21211738781929
2024-09-23 10:06:25.818927,40.29,12.231724,-0.0030344509719951677,-0.02397715620066169,0.09695331012558621,44.11764879391193,-96.25519929585457,80.21211738781929
2024-09-23 10:06:25.830748,40.29,12.231724,-0.0030344509719951677,-0.02397715620066169,0.09695331012558621,44.11764879391193,-96.25519929585457,76.200527287817
2024-09-23 10:06:25.863212,40.29,12.231776,-0.0030344509719951677,-0.02397715620066169,0.09695331012558621,44.11764879391193,-96.25519929585457,76.200527287817
2024-09-23 10:06:25.875109,40.29,12.231776,-0.0033329230534799477,-0.02338022115155219,0.09794820946898543,36.09446859390736,-100.26678939585686,76.200527287817
2024-09-23 10:06:25.918172,40.29,12.231827,-0.0032831742888682963,-0.023330473146428877,0.09645586349183995,36.09446859390736,-100.26678939585686,80.21211738781929
2024-09-23 10:06:25.930257,40.29,12.231827,-0.0032831742888682963,-0.023330473146428877,0.09645586349183995,36.09446859390736,-100.26678939585686,80.21211738781929
2024-09-23 10:06:25.962894,40.29,12.231877,-0.0032831742888682963,-0.023330473146428877,0.09645586349183995,36.09446859390736,-104.27510100388527,76.200527287817
2024-09-23 10:06:25.974066,40.29,12.231877,-0.003929857343101113,-0.023728432883788564,0.09680407370509965,36.09446859390736,-104.27510100388527,76.200527287817
2024-09-23 10:06:26.016462,40.29,12.231928,-0.003482159473966507,-0.02278327698858263,0.09680407370509965,36.09446859390736,-96.25519929585457,80.21211738781929
2024-09-23 10:06:26.058797,40.29,12.231928,-0.003482159473966507,-0.02278327698858263,0.09720203344245934,32.08287849390507,-96.25519929585457,80.21211738781929
2024-09-23 10:06:26.070176,40.29,12.231979,-0.0035816467500972456,-0.02278327698858263,0.09720203344245934,32.08287849390507,-96.25519929585457,80.21211738781929
2024-09-23 10:06:26.112082,40.29,12.231979,-0.0035816467500972456,-0.02338022115155219,0.09655535038822652,36.09446859390736,-96.25519929585457,80.21211738781929
2024-09-23 10:06:26.123552,40.29,12.232066,-0.0035816467500972456,-0.02338022115155219,0.09655535038822652,36.09446859390736,-96.25519929585457,80.21211738781929
2024-09-23 10:06:26.155741,40.29,12.232066,-0.0030841997366068195,-0.02338022115155219,0.09655535038822652,36.09446859390736,-96.25519929585457,80.21211738781929
2024-09-23 10:06:26.167087,40.29,12.232066,-0.0030841997366068195,-0.024026904205785005,0.09670458680871308,48.12595698684454,-92.24360919585227,88.23529758782387
2024-09-23 10:06:26.209715,40.29,12.232117,-0.0032831742888682963,-0.023479709566915436,0.0973512698629459,48.12595698684454,-92.24360919585227,88.23529758782387
2024-09-23 10:06:26.221740,40.29,12.232117,-0.0032831742888682963,-0.023479709566915436,0.0973512698629459,48.12595698684454,-88.23529758782387,88.23529758782387
2024-09-23 10:06:26.255514,40.29,12.232168,-0.0032831742888682963,-0.023479709566915436,0.0973512698629459,48.12595698684454,-88.23529758782387,88.23529758782387
2024-09-23 10:06:26.267342,40.29,12.232168,-0.0038303700669703737,-0.02362894446842532,0.09710254654607277,48.12595698684454,-88.23529758782387,88.23529758782387
2024-09-23 10:06:26.310142,40.29,12.232219,-0.0037308827908396356,-0.023181236725942318,0.09740101331113918,48.12595698684454,-92.24360919585227,84.22370748782159
2024-09-23 10:06:26.352763,40.29,12.232219,-0.0037308827908396356,-0.023181236725942318,0.09740101331113918,32.08287849390507,-100.26678939585686,84.22370748782159
2024-09-23 10:06:26.364985,40.29,12.232269,-0.0029847020175114316,-0.024325377046758124,0.09740101331113918,32.08287849390507,-100.26678939585686,84.22370748782159
2024-09-23 10:06:26.407657,40.94,12.23232,-0.0029349636958644295,-0.024325377046758124,0.09705279702197278,28.07457030097246,-96.25519929585457,84.22370748782159
2024-09-23 10:06:26.451943,40.94,12.23232,-0.0029349636958644295,-0.023181236725942318,0.09675432418099966,36.09446859390736,-96.25519929585457,84.22370748782159
2024-09-23 10:06:26.463573,40.94,12.232407,-0.0029349636958644295,-0.023181236725942318,0.09675432418099966,36.09446859390736,-100.26678939585686,76.200527287817
2024-09-23 10:06:26.495538,40.94,12.232407,-0.003482159473966507,-0.023181236725942318,0.09675432418099966,36.09446859390736,-100.26678939585686,76.200527287817
2024-09-23 10:06:26.508170,40.94,12.232407,-0.003482159473966507,-0.023330473146428877,0.09710254654607277,36.09446859390736,-100.26678939585686,80.21211738781929
2024-09-23 10:06:26.550239,40.94,12.232458,-0.0034324103296106863,-0.023181236725942318,0.09789846602079214,36.09446859390736,-100.26678939585686,80.21211738781929
2024-09-23 10:06:26.562912,40.94,12.232458,-0.0034324103296106863,-0.023181236725942318,0.09789846602079214,56.14914060194492,-96.25519929585457,80.21211738781929
2024-09-23 10:06:26.595804,40.94,12.232509,-0.0034324103296106863,-0.023181236725942318,0.09789846602079214,56.14914060194492,-96.25519929585457,80.21211738781929
2024-09-23 10:06:26.607465,40.94,12.232509,-0.0037308827908396356,-0.02412639262114825,0.09789846602079214,52.137550501942634,-96.25519929585457,80.21211738781929
2024-09-23 10:06:26.650632,40.94,12.23256,-0.0033329230534799477,-0.02313149783467906,0.09789846602079214,52.137550501942634,-92.24360919585227,80.21211738781929
2024-09-23 10:06:26.662071,40.94,12.23256,-0.0033329230534799477,-0.02313149783467906,0.09695331012558621,52.137550501942634,-92.24360919585227,80.21211738781929
2024-09-23 10:06:26.694114,40.94,12.23256,-0.0033329230534799477,-0.02313149783467906,0.09695331012558621,44.11764879391193,-100.26678939585686,80.21211738781929
2024-09-23 10:06:26.705974,40.94,12.23261,-0.0033329230534799477,-0.02352945757203875,0.09695331012558621,44.11764879391193,-100.26678939585686,80.21211738781929
2024-09-23 10:06:26.748858,40.94,12.232661,-0.003233425524256645,-0.02352945757203875,0.09764974270391902,24.06297849342227,-108.28669110388756,80.21211738781929
2024-09-23 10:06:26.791701,40.94,12.232661,-0.003233425524256645,-0.023280723622328886,0.09715228999426605,32.08287849390507,-108.28669110388756,80.21211738781929
2024-09-23 10:06:26.804217,40.94,12.232748,-0.003233425524256645,-0.023280723622328886,0.09715228999426605,32.08287849390507,-92.24360919585227,76.200527287817
2024-09-23 10:06:26.846416,40.94,12.232748,-0.0031339382481259063,-0.023330473146428877,0.0973015264147526,40.106058693909645,-88.23529758782387,76.200527287817
2024-09-23 10:06:26.889859,40.94,12.2328,-0.0038801188315820256,-0.023330473146428877,0.0973015264147526,40.106058693909645,-88.23529758782387,80.21211738781929
2024-09-23 10:06:26.901357,40.94,12.2328,-0.0038801188315820256,-0.02362894446842532,0.09720203344245934,48.12595698684454,-88.23529758782387,80.21211738781929
2024-09-23 10:06:26.943785,40.94,12.23285,-0.003233425524256645,-0.02367869399252531,0.09725178296655933,48.12595698684454,-104.27510100388527,72.1922225099802
2024-09-23 10:06:26.987062,40.94,12.23285,-0.003233425524256645,-0.02367869399252531,0.09725178296655933,48.12595698684454,-96.25519929585457,80.21211738781929
2024-09-23 10:06:26.998285,40.94,12.232901,-0.0029349636958644295,-0.02352945757203875,0.09725178296655933,48.12595698684454,-96.25519929585457,80.21211738781929
2024-09-23 10:06:27.041666,40.94,12.232901,-0.0029349636958644295,-0.02352945757203875,0.09695331012558621,48.12595698684454,-96.25519929585457,80.21211738781929
2024-09-23 10:06:27.083786,40.94,12.232901,-0.0029349636958644295,-0.02352945757203875,0.09695331012558621,44.11764879391193,-96.25519929585457,80.21211738781929
2024-09-23 10:06:27.094746,40.94,12.232952,-0.002785727465249955,-0.023778180888911878,0.09695331012558621,44.11764879391193,-96.25519929585457,80.21211738781929
2024-09-23 10:06:27.137746,40.94,12.233002,-0.002785727465249955,-0.023778180888911878,0.09710254654607277,32.08287849390507,-100.26678939585686,80.21211738781929
2024-09-23 10:06:27.149662,40.94,12.233002,-0.0031836870127375577,-0.023778180888911878,0.09710254654607277,32.08287849390507,-100.26678939585686,80.21211738781929
2024-09-23 10:06:27.182095,40.94,12.233002,-0.0031836870127375577,-0.023728432883788564,0.09670458680871308,32.08287849390507,-100.26678939585686,80.21211738781929
2024-09-23 10:06:27.193563,40.94,12.23309,-0.0031836870127375577,-0.023728432883788564,0.09670458680871308,32.08287849390507,-100.26678939585686,76.200527287817
2024-09-23 10:06:27.236482,40.94,12.23309,-0.0029847020175114316,-0.02338022115155219,0.0973512698629459,40.106058693909645,-96.25519929585457,76.200527287817
2024-09-23 10:06:27.279842,40.94,12.233141,-0.004128842528199323,-0.02293251340906919,0.0973512698629459,40.106058693909645,-96.25519929585457,76.200527287817
2024-09-23 10:06:27.291131,40.94,12.233141,-0.004128842528199323,-0.02293251340906919,0.09695331012558621,44.11764879391193,-96.25519929585457,76.200527287817
2024-09-23 10:06:27.333841,40.94,12.233237,-0.003631395514708897,-0.023230986250042305,0.09690356060148622,48.12595698684454,-96.25519929585457,76.200527287817
2024-09-23 10:06:27.427667,40.86,12.233288,-0.003631395514708897,-0.023230986250042305,0.09690356060148622,48.12595698684454,-96.25519929585457,80.21211738781929
2024-09-23 10:06:27.481027,40.86,12.233288,-0.003482159473966507,-0.02397715620066169,0.09670458680871308,48.12595698684454,-92.24360919585227,72.1922225099802
2024-09-23 10:06:27.523287,40.86,12.233338,-0.0030841997366068195,-0.023429960042815445,0.09670458680871308,48.12595698684454,-92.24360919585227,72.1922225099802
2024-09-23 10:06:27.534707,40.86,12.233338,-0.0030841997366068195,-0.023429960042815445,0.09665483728461309,36.09446859390736,-100.26678939585686,72.1922225099802
2024-09-23 10:06:27.578570,40.86,12.233389,-0.0031339382481259063,-0.0228827638849692,0.09759999317981902,24.06297849342227,-100.26678939585686,80.21211738781929
2024-09-23 10:06:27.620989,40.86,12.233479,-0.0031339382481259063,-0.0228827638849692,0.09759999317981902,24.06297849342227,-100.26678939585686,76.200527287817
2024-09-23 10:06:27.632716,40.86,12.233479,-0.0029847020175114316,-0.02338022115155219,0.09755024973162574,24.06297849342227,-100.26678939585686,76.200527287817
2024-09-23 10:06:27.676672,40.86,12.233577,-0.0034324103296106863,-0.023728432883788564,0.09755024973162574,40.106058693909645,-100.26678939585686,88.23529758782387
2024-09-23 10:06:27.720040,40.86,12.233577,-0.0034324103296106863,-0.023728432883788564,0.09695331012558621,40.106058693909645,-100.26678939585686,80.21211738781929
2024-09-23 10:06:27.732029,40.86,12.233629,-0.0033329230534799477,-0.023728432883788564,0.09695331012558621,40.106058693909645,-100.26678939585686,80.21211738781929
2024-09-23 10:06:27.765328,40.86,12.233629,-0.0033329230534799477,-0.02367869399252531,0.09715228999426605,40.106058693909645,-100.26678939585686,80.21211738781929
2024-09-23 10:06:27.776778,40.86,12.233723,-0.0033329230534799477,-0.02367869399252531,0.09715228999426605,52.137550501942634,-100.26678939585686,76.200527287817
2024-09-23 10:06:27.819955,40.86,12.233723,-0.0026862297461545674,-0.023778180888911878,0.0973015264147526,36.09446859390736,-100.26678939585686,72.1922225099802
2024-09-23 10:06:27.862483,40.86,12.233775,-0.0038303700669703737,-0.023778180888911878,0.0973015264147526,36.09446859390736,-100.26678939585686,72.1922225099802
2024-09-23 10:06:27.874010,40.86,12.233775,-0.0038303700669703737,-0.023728432883788564,0.09665483728461309,36.09446859390736,-100.26678939585686,72.1922225099802
2024-09-23 10:06:27.916663,40.86,12.233825,-0.0029349636958644295,-0.023429960042815445,0.09750050628343246,36.09446859390736,-100.26678939585686,76.200527287817
2024-09-23 10:06:27.928723,40.86,12.233825,-0.0029349636958644295,-0.023429960042815445,0.09750050628343246,32.08287849390507,-100.26678939585686,76.200527287817
2024-09-23 10:06:27.962972,40.86,12.233876,-0.0029349636958644295,-0.023429960042815445,0.09750050628343246,32.08287849390507,-92.24360919585227,80.21211738781929
2024-09-23 10:06:27.974868,40.86,12.233876,-0.0035318979854855937,-0.023181236725942318,0.09774922960030558,32.08287849390507,-92.24360919585227,80.21211738781929
2024-09-23 10:06:28.006885,40.86,12.233876,-0.0035318979854855937,-0.023181236725942318,0.09774922960030558,28.07457030097246,-92.24360919585227,80.21211738781929
2024-09-23 10:06:28.018082,40.86,12.233927,-0.003382661564999035,-0.023181236725942318,0.09774922960030558,28.07457030097246,-104.27510100388527,80.21211738781929
2024-09-23 10:06:28.060677,40.86,12.233927,-0.003382661564999035,-0.023181236725942318,0.09710254654607277,36.09446859390736,-96.25519929585457,80.21211738781929
2024-09-23 10:06:28.074868,40.86,12.233977,-0.0031339382481259063,-0.023181236725942318,0.09710254654607277,36.09446859390736,-96.25519929585457,76.200527287817
2024-09-23 10:06:28.107747,40.86,12.233977,-0.0031339382481259063,-0.023280723622328886,0.09695331012558621,36.09446859390736,-96.25519929585457,76.200527287817
2024-09-23 10:06:28.119697,40.86,12.234064,-0.0031339382481259063,-0.023280723622328886,0.09695331012558621,44.11764879391193,-96.25519929585457,72.1922225099802
2024-09-23 10:06:28.163311,40.86,12.234064,-0.0035318979854855937,-0.023728432883788564,0.09715228999426605,48.12595698684454,-96.25519929585457,68.18063240997792
2024-09-23 10:06:28.206758,40.86,12.234116,-0.0035816467500972456,-0.023827930413011865,0.09685382322919964,48.12595698684454,-96.25519929585457,68.18063240997792
2024-09-23 10:06:28.218396,40.86,12.234116,-0.0035816467500972456,-0.023827930413011865,0.09685382322919964,36.09446859390736,-96.25519929585457,68.18063240997792
2024-09-23 10:06:28.250467,40.86,12.234116,-0.0035816467500972456,-0.023827930413011865,0.09685382322919964,36.09446859390736,-96.25519929585457,80.21211738781929
2024-09-23 10:06:28.262227,40.86,12.234167,-0.0031836870127375577,-0.02338022115155219,0.09705279702197278,24.06297849342227,-96.25519929585457,80.21211738781929
2024-09-23 10:06:28.305090,40.86,12.234217,-0.003233425524256645,-0.02338022115155219,0.09705279702197278,24.06297849342227,-100.26678939585686,80.21211738781929
2024-09-23 10:06:28.316999,40.86,12.234217,-0.003233425524256645,-0.023877669304275123,0.09720203344245934,24.06297849342227,-100.26678939585686,80.21211738781929
2024-09-23 10:06:28.349771,40.86,12.234217,-0.003233425524256645,-0.023877669304275123,0.09720203344245934,24.06297849342227,-100.26678939585686,80.21211738781929
2024-09-23 10:06:28.360814,40.86,12.234268,-0.0035816467500972456,-0.02367869399252531,0.09720203344245934,24.06297849342227,-100.26678939585686,76.200527287817
2024-09-23 10:06:28.403971,40.86,12.234319,-0.0035816467500972456,-0.02367869399252531,0.09750050628343246,32.08287849390507,-104.27510100388527,72.1922225099802
2024-09-23 10:06:28.415608,40.86,12.234319,-0.0036811340262279837,-0.02367869399252531,0.09750050628343246,32.08287849390507,-104.27510100388527,72.1922225099802
2024-09-23 10:06:28.447933,40.8,12.234319,-0.0036811340262279837,-0.02367869399252531,0.09745075675933246,32.08287849390507,-104.27510100388527,72.1922225099802
2024-09-23 10:06:28.459178,40.8,12.234406,-0.0036811340262279837,-0.02367869399252531,0.09745075675933246,48.12595698684454,-96.25519929585457,76.200527287817
2024-09-23 10:06:28.501298,40.8,12.234406,-0.002586742470023829,-0.02362894446842532,0.09675432418099966,44.11764879391193,-100.26678939585686,76.200527287817
2024-09-23 10:06:28.513178,40.8,12.234406,-0.002586742470023829,-0.02362894446842532,0.09675432418099966,44.11764879391193,-100.26678939585686,80.21211738781929
2024-09-23 10:06:28.545552,40.8,12.234457,-0.0035318979854855937,-0.02362894446842532,0.09675432418099966,44.11764879391193,-100.26678939585686,80.21211738781929
2024-09-23 10:06:28.557880,40.8,12.234457,-0.0035318979854855937,-0.02352945757203875,0.09675432418099966,44.11764879391193,-100.26678939585686,80.21211738781929
2024-09-23 10:06:28.601089,40.8,12.234508,-0.0035816467500972456,-0.02313149783467906,0.0973512698629459,40.106058693909645,-100.26678939585686,80.21211738781929
2024-09-23 10:06:28.644115,40.8,12.234559,-0.0035816467500972456,-0.02313149783467906,0.0973512698629459,40.106058693909645,-96.25519929585457,84.22370748782159
2024-09-23 10:06:28.655099,40.8,12.234559,-0.0036811340262279837,-0.023280723622328886,0.0973512698629459,40.106058693909645,-96.25519929585457,84.22370748782159
2024-09-23 10:06:28.697641,40.8,12.234609,-0.0031339382481259063,-0.02352945757203875,0.0973512698629459,40.106058693909645,-96.25519929585457,84.22370748782159
2024-09-23 10:06:28.739833,40.8,12.234609,-0.0031339382481259063,-0.02352945757203875,0.09750050628343246,24.06297849342227,-96.25519929585457,84.22370748782159
2024-09-23 10:06:28.751456,40.8,12.234609,-0.0031339382481259063,-0.02352945757203875,0.09750050628343246,24.06297849342227,-92.24360919585227,84.22370748782159
2024-09-23 10:06:28.793107,40.8,12.23466,-0.0028852147413806935,-0.023330473146428877,0.09750050628343246,24.06297849342227,-92.24360919585227,80.21211738781929
2024-09-23 10:06:28.805246,40.8,12.23466,-0.0028852147413806935,-0.023330473146428877,0.09725178296655933,44.11764879391193,-92.24360919585227,80.21211738781929
2024-09-23 10:06:28.838057,40.8,12.23466,-0.0028852147413806935,-0.023330473146428877,0.09725178296655933,44.11764879391193,-96.25519929585457,84.22370748782159
2024-09-23 10:06:28.849591,40.8,12.234747,-0.0031836870127375577,-0.02338022115155219,0.09755024973162574,44.11764879391193,-96.25519929585457,84.22370748782159
2024-09-23 10:06:28.934299,40.8,12.234747,-0.0031836870127375577,-0.02338022115155219,0.09755024973162574,40.106058693909645,-96.25519929585457,84.22370748782159
2024-09-23 10:06:28.946084,40.8,12.234747,-0.0031836870127375577,-0.02338022115155219,0.09755024973162574,40.106058693909645,-96.25519929585457,84.22370748782159
2024-09-23 10:06:28.988998,40.8,12.234747,-0.0031836870127375577,-0.02338022115155219,0.09755024973162574,40.106058693909645,-96.25519929585457,76.200527287817
2024-09-23 10:06:29.031960,40.8,12.234799,-0.0031836870127375577,-0.02338022115155219,0.09755024973162574,40.106058693909645,-96.25519929585457,76.200527287817
2024-09-23 10:06:29.043427,40.8,12.234799,-0.003780631555451287,-0.023778180888911878,0.09705279702197278,40.106058693909645,-96.25519929585457,76.200527287817
2024-09-23 10:06:29.086458,40.8,12.234849,-0.0031836870127375577,-0.023927417309398437,0.09705279702197278,40.106058693909645,-96.25519929585457,76.200527287817
2024-09-23 10:06:29.099107,40.8,12.234849,-0.0031836870127375577,-0.023927417309398437,0.09725178296655933,40.106058693909645,-96.25519929585457,76.200527287817
2024-09-23 10:06:29.131889,40.8,12.2349,-0.0031836870127375577,-0.023927417309398437,0.09725178296655933,40.106058693909645,-100.26678939585686,80.21211738781929
2024-09-23 10:06:29.143362,40.8,12.2349,-0.0030344509719951677,-0.023728432883788564,0.09750050628343246,40.106058693909645,-100.26678939585686,80.21211738781929
2024-09-23 10:06:29.185298,40.8,12.234991,-0.0035318979854855937,-0.02338022115155219,0.09750050628343246,36.09446859390736,-96.25519929585457,84.22370748782159
2024-09-23 10:06:29.228866,40.8,12.234991,-0.0035318979854855937,-0.02338022115155219,0.09715228999426605,44.11764879391193,-96.25519929585457,84.22370748782159
2024-09-23 10:06:29.240110,40.8,12.235137,-0.003631395514708897,-0.02338022115155219,0.09715228999426605,44.11764879391193,-96.25519929585457,76.200527287817
2024-09-23 10:06:29.282011,40.8,12.235137,-0.003631395514708897,-0.02308174982955575,0.0976994861521123,48.12595698684454,-92.24360919585227,80.21211738781929
2024-09-23 10:06:29.293425,40.8,12.235234,-0.003631395514708897,-0.02308174982955575,0.0976994861521123,48.12595698684454,-92.24360919585227,80.21211738781929
2024-09-23 10:06:29.326655,40.8,12.235234,-0.0036811340262279837,-0.023728432883788564,0.09710254654607277,48.12595698684454,-92.24360919585227,80.21211738781929
2024-09-23 10:06:29.337717,40.8,12.235234,-0.0036811340262279837,-0.023728432883788564,0.09710254654607277,40.106058693909645,-100.26678939585686,84.22370748782159
2024-09-23 10:06:29.379844,40.8,12.235286,-0.0031836870127375577,-0.023827930413011865,0.0976994861521123,40.106058693909645,-96.25519929585457,84.22370748782159
2024-09-23 10:06:29.422454,40.8,12.235337,-0.0031836870127375577,-0.023827930413011865,0.0976994861521123,40.106058693909645,-96.25519929585457,84.22370748782159
2024-09-23 10:06:29.434761,40.8,12.235337,-0.0032831742888682963,-0.023479709566915436,0.09680407370509965,40.106058693909645,-96.25519929585457,84.22370748782159
2024-09-23 10:06:29.478132,40.87,12.235387,-0.0030344509719951677,-0.023827930413011865,0.09680407370509965,40.106058693909645,-100.26678939585686,84.22370748782159
2024-09-23 10:06:29.489567,40.87,12.235387,-0.0030344509719951677,-0.023827930413011865,0.09725178296655933,40.106058693909645,-100.26678939585686,84.22370748782159
2024-09-23 10:06:29.522736,40.87,12.235387,-0.0030344509719951677,-0.023827930413011865,0.09725178296655933,20.05138839341998,-96.25519929585457,68.18063240997792
2024-09-23 10:06:29.534113,40.87,12.235438,-0.0034324103296106863,-0.02412639262114825,0.09725178296655933,20.05138839341998,-96.25519929585457,68.18063240997792
2024-09-23 10:06:29.577548,40.87,12.235489,-0.0030344509719951677,-0.02412639262114825,0.0970030596496862,32.08287849390507,-96.25519929585457,76.200527287817
2024-09-23 10:06:29.620438,40.87,12.235489,-0.0030344509719951677,-0.023579196463302005,0.09750050628343246,48.12595698684454,-100.26678939585686,76.200527287817
2024-09-23 10:06:29.631907,40.87,12.235576,-0.0030344509719951677,-0.023579196463302005,0.09750050628343246,48.12595698684454,-100.26678939585686,80.21211738781929
2024-09-23 10:06:29.663999,40.87,12.235576,-0.003382661564999035,-0.023579196463302005,0.09750050628343246,48.12595698684454,-100.26678939585686,80.21211738781929
2024-09-23 10:06:29.675880,40.87,12.235576,-0.003382661564999035,-0.023230986250042305,0.09695331012558621,48.12595698684454,-108.28669110388756,76.200527287817
2024-09-23 10:06:29.718113,40.87,12.235627,-0.0032831742888682963,-0.02303200030545576,0.09725178296655933,48.12595698684454,-108.28669110388756,76.200527287817
2024-09-23 10:06:29.729550,40.87,12.235627,-0.0032831742888682963,-0.02303200030545576,0.09725178296655933,36.09446859390736,-100.26678939585686,76.200527287817
2024-09-23 10:06:29.761812,40.87,12.235627,-0.0032831742888682963,-0.02303200030545576,0.09725178296655933,36.09446859390736,-100.26678939585686,80.21211738781929
2024-09-23 10:06:29.774059,40.87,12.235678,-0.0032831742888682963,-0.02303200030545576,0.09725178296655933,36.09446859390736,-100.26678939585686,80.21211738781929
2024-09-23 10:06:29.817995,40.87,12.235678,-0.0031836870127375577,-0.02352945757203875,0.09745075675933246,36.09446859390736,-96.25519929585457,80.21211738781929
2024-09-23 10:06:29.830647,40.87,12.235678,-0.0031836870127375577,-0.02352945757203875,0.09745075675933246,36.09446859390736,-96.25519929585457,76.200527287817
2024-09-23 10:06:29.863003,40.87,12.235729,-0.0030344509719951677,-0.023827930413011865,0.09745075675933246,36.09446859390736,-96.25519929585457,76.200527287817
2024-09-23 10:06:29.874825,40.87,12.235729,-0.0030344509719951677,-0.023827930413011865,0.09720203344245934,36.09446859390736,-96.25519929585457,76.200527287817
2024-09-23 10:06:29.917951,40.87,12.235779,-0.0030841997366068195,-0.02362894446842532,0.09720203344245934,32.08287849390507,-96.25519929585457,80.21211738781929
2024-09-23 10:06:29.961248,40.87,12.23583,-0.0030841997366068195,-0.02362894446842532,0.09720203344245934,32.08287849390507,-104.27510100388527,80.21211738781929
2024-09-23 10:06:29.972196,40.87,12.23583,-0.0032831742888682963,-0.023728432883788564,0.0973512698629459,32.08287849390507,-104.27510100388527,80.21211738781929
2024-09-23 10:06:30.014941,40.87,12.235917,-0.003631395514708897,-0.023579196463302005,0.0973512698629459,36.09446859390736,-100.26678939585686,80.21211738781929
2024-09-23 10:06:30.058869,40.87,12.235917,-0.003631395514708897,-0.023579196463302005,0.09764974270391902,40.106058693909645,-92.24360919585227,80.21211738781929
2024-09-23 10:06:30.070900,40.87,12.235968,-0.0029349636958644295,-0.023579196463302005,0.09764974270391902,40.106058693909645,-92.24360919585227,88.23529758782387
2024-09-23 10:06:30.103144,40.87,12.235968,-0.0029349636958644295,-0.023330473146428877,0.09764974270391902,40.106058693909645,-92.24360919585227,88.23529758782387
2024-09-23 10:06:30.114562,40.87,12.236063,-0.0029349636958644295,-0.023330473146428877,0.09685382322919964,32.08287849390507,-100.26678939585686,76.200527287817
2024-09-23 10:06:30.157570,40.87,12.236063,-0.0032831742888682963,-0.02338022115155219,0.0973015264147526,36.09446859390736,-100.26678939585686,76.200527287817
2024-09-23 10:06:30.169538,40.87,12.236063,-0.0032831742888682963,-0.02338022115155219,0.0973015264147526,36.09446859390736,-100.26678939585686,80.21211738781929
2024-09-23 10:06:30.203687,40.87,12.236115,-0.003233425524256645,-0.02338022115155219,0.0973015264147526,36.09446859390736,-100.26678939585686,80.21211738781929
2024-09-23 10:06:30.215181,40.87,12.236115,-0.003233425524256645,-0.02362894446842532,0.09740101331113918,32.08287849390507,-92.24360919585227,80.21211738781929
2024-09-23 10:06:30.257425,40.87,12.236165,-0.0030344509719951677,-0.023280723622328886,0.09740101331113918,32.08287849390507,-92.24360919585227,92.24360919585227
2024-09-23 10:06:30.299853,40.87,12.236165,-0.0030344509719951677,-0.023280723622328886,0.09680407370509965,36.09446859390736,-92.24360919585227,92.24360919585227
2024-09-23 10:06:30.311858,40.87,12.236216,-0.0031339382481259063,-0.023280723622328886,0.09680407370509965,36.09446859390736,-96.25519929585457,84.22370748782159
2024-09-23 10:06:30.354188,40.87,12.236216,-0.0031339382481259063,-0.023728432883788564,0.0976994861521123,36.09446859390736,-100.26678939585686,84.22370748782159
2024-09-23 10:06:30.365915,40.87,12.236267,-0.0031339382481259063,-0.023728432883788564,0.0976994861521123,36.09446859390736,-100.26678939585686,84.22370748782159
2024-09-23 10:06:30.398007,40.87,12.236267,-0.0035816467500972456,-0.02338022115155219,0.0976994861521123,36.09446859390736,-100.26678939585686,84.22370748782159
2024-09-23 10:06:30.409070,40.87,12.236267,-0.0035816467500972456,-0.02338022115155219,0.09680407370509965,40.106058693909645,-92.24360919585227,80.21211738781929
2024-09-23 10:06:30.453087,40.87,12.236317,-0.0038303700669703737,-0.02352945757203875,0.09680407370509965,44.11764879391193,-96.25519929585457,80.21211738781929
2024-09-23 10:06:30.494985,41.27,12.236405,-0.0038303700669703737,-0.02352945757203875,0.09680407370509965,44.11764879391193,-96.25519929585457,80.21211738781929
2024-09-23 10:06:30.506448,41.27,12.236405,-0.0035816467500972456,-0.02352945757203875,0.09690356060148622,36.09446859390736,-96.25519929585457,80.21211738781929
2024-09-23 10:06:30.548526,41.27,12.236456,-0.0031836870127375577,-0.023579196463302005,0.09690356060148622,36.09446859390736,-96.25519929585457,76.200527287817
2024-09-23 10:06:30.560875,41.27,12.236456,-0.0031836870127375577,-0.023579196463302005,0.09725178296655933,36.09446859390736,-96.25519929585457,76.200527287817
2024-09-23 10:06:30.593714,41.27,12.236456,-0.0031836870127375577,-0.023579196463302005,0.09725178296655933,36.09446859390736,-100.26678939585686,76.200527287817
2024-09-23 10:06:30.604879,41.27,12.236507,-0.0031836870127375577,-0.023479709566915436,0.09725178296655933,36.09446859390736,-100.26678939585686,72.1922225099802
2024-09-23 10:06:30.647919,41.27,12.236557,-0.0031836870127375577,-0.023479709566915436,0.09695331012558621,28.07457030097246,-92.24360919585227,76.200527287817
2024-09-23 10:06:30.659322,41.27,12.236557,-0.0026862297461545674,-0.023479709566915436,0.09695331012558621,28.07457030097246,-92.24360919585227,76.200527287817
2024-09-23 10:06:30.693077,41.27,12.236557,-0.0026862297461545674,-0.02397715620066169,0.09675432418099966,36.09446859390736,-92.24360919585227,76.200527287817
2024-09-23 10:06:30.704947,41.27,12.236648,-0.0026862297461545674,-0.02397715620066169,0.09675432418099966,36.09446859390736,-104.27510100388527,80.21211738781929
2024-09-23 10:06:30.736573,41.27,12.236648,-0.0036811340262279837,-0.02397715620066169,0.09675432418099966,36.09446859390736,-104.27510100388527,80.21211738781929
2024-09-23 10:06:30.748084,41.27,12.236648,-0.0036811340262279837,-0.023579196463302005,0.09710254654607277,44.11764879391193,-100.26678939585686,80.21211738781929
2024-09-23 10:06:30.790158,41.27,12.2367,-0.0038801188315820256,-0.023579196463302005,0.09759999317981902,44.11764879391193,-100.26678939585686,80.21211738781929
2024-09-23 10:06:30.802173,41.27,12.2367,-0.0038801188315820256,-0.023579196463302005,0.09759999317981902,40.106058693909645,-96.25519929585457,80.21211738781929
2024-09-23 10:06:30.834230,41.27,12.2367,-0.0038801188315820256,-0.023579196463302005,0.09759999317981902,40.106058693909645,-96.25519929585457,80.21211738781929
2024-09-23 10:06:30.845704,41.27,12.23675,-0.003631395514708897,-0.02367869399252531,0.09720203344245934,44.11764879391193,-96.25519929585457,80.21211738781929
2024-09-23 10:06:30.888766,41.27,12.236801,-0.0030344509719951677,-0.02367869399252531,0.09720203344245934,44.11764879391193,-96.25519929585457,80.21211738781929
2024-09-23 10:06:30.899938,41.27,12.236801,-0.0030344509719951677,-0.023429960042815445,0.09705279702197278,44.11764879391193,-96.25519929585457,80.21211738781929
2024-09-23 10:06:30.932069,41.27,12.236801,-0.0030344509719951677,-0.023429960042815445,0.09705279702197278,36.09446859390736,-96.25519929585457,80.21211738781929
2024-09-23 10:06:30.943534,41.27,12.236852,-0.0030841997366068195,-0.023230986250042305,0.09705279702197278,36.09446859390736,-96.25519929585457,72.1922225099802
2024-09-23 10:06:30.986132,41.27,12.236852,-0.0030841997366068195,-0.023230986250042305,0.09745075675933246,28.07457030097246,-104.27510100388527,76.200527287817
2024-09-23 10:06:30.997237,41.27,12.236902,-0.003382661564999035,-0.023230986250042305,0.09745075675933246,28.07457030097246,-104.27510100388527,76.200527287817
2024-09-23 10:06:31.029258,41.27,12.236902,-0.003382661564999035,-0.023429960042815445,0.09745075675933246,28.07457030097246,-104.27510100388527,76.200527287817
2024-09-23 10:06:31.041091,41.27,12.236989,-0.003382661564999035,-0.023429960042815445,0.09645586349183995,32.08287849390507,-100.26678939585686,76.200527287817
2024-09-23 10:06:31.083958,41.27,12.236989,-0.0028354659767690416,-0.022982261414192504,0.09779897304849887,32.08287849390507,-100.26678939585686,76.200527287817
2024-09-23 10:06:31.137613,41.27,12.237041,-0.003482159473966507,-0.022982261414192504,0.09779897304849887,44.11764879391193,-96.25519929585457,76.200527287817
2024-09-23 10:06:31.180818,41.27,12.237041,-0.003482159473966507,-0.023280723622328886,0.09725178296655933,48.12595698684454,-96.25519929585457,76.200527287817
2024-09-23 10:06:31.192739,41.27,12.237092,-0.003482159473966507,-0.023280723622328886,0.09725178296655933,48.12595698684454,-96.25519929585457,76.200527287817
2024-09-23 10:06:31.224367,41.27,12.237092,-0.0038303700669703737,-0.023280723622328886,0.09725178296655933,48.12595698684454,-96.25519929585457,76.200527287817
2024-09-23 10:06:31.235666,41.27,12.237092,-0.0038303700669703737,-0.023877669304275123,0.09695331012558621,52.137550501942634,-100.26678939585686,80.21211738781929
2024-09-23 10:06:31.277466,41.27,12.237142,-0.003482159473966507,-0.023728432883788564,0.09695331012558621,52.137550501942634,-100.26678939585686,80.21211738781929
2024-09-23 10:06:31.289759,41.27,12.237142,-0.003482159473966507,-0.023728432883788564,0.09670458680871308,48.12595698684454,-100.26678939585686,80.21211738781929
2024-09-23 10:06:31.322026,41.27,12.237142,-0.003482159473966507,-0.023728432883788564,0.09670458680871308,48.12595698684454,-100.26678939585686,80.21211738781929
2024-09-23 10:06:31.333975,41.27,12.237193,-0.0027359787006383035,-0.02367869399252531,0.09670458680871308,24.06297849342227,-100.26678939585686,80.21211738781929
2024-09-23 10:06:31.375836,41.27,12.237283,-0.0033329230534799477,-0.02367869399252531,0.09670458680871308,24.06297849342227,-96.25519929585457,84.22370748782159
2024-09-23 10:06:31.387337,41.27,12.237283,-0.0033329230534799477,-0.023479709566915436,0.09705279702197278,24.06297849342227,-96.25519929585457,84.22370748782159
2024-09-23 10:06:31.421232,41.27,12.237283,-0.0033329230534799477,-0.023479709566915436,0.09705279702197278,36.09446859390736,-96.25519929585457,84.22370748782159
2024-09-23 10:06:31.433016,41.27,12.237334,-0.0031339382481259063,-0.023877669304275123,0.09705279702197278,36.09446859390736,-104.27510100388527,76.200527287817
2024-09-23 10:06:31.476438,41.27,12.237385,-0.0031339382481259063,-0.023877669304275123,0.09755024973162574,24.06297849342227,-104.27510100388527,80.21211738781929
2024-09-23 10:06:31.488296,41.27,12.237385,-0.0031836870127375577,-0.023877669304275123,0.09755024973162574,24.06297849342227,-104.27510100388527,80.21211738781929
2024-09-23 10:06:31.522334,42.23,12.237385,-0.0031836870127375577,-0.023181236725942318,0.09720203344245934,48.12595698684454,-104.27510100388527,80.21211738781929
2024-09-23 10:06:31.533311,42.23,12.237477,-0.0031836870127375577,-0.023181236725942318,0.09720203344245934,48.12595698684454,-96.25519929585457,76.200527287817
2024-09-23 10:06:31.567001,42.23,12.237477,-0.0034324103296106863,-0.023181236725942318,0.09720203344245934,48.12595698684454,-96.25519929585457,76.200527287817
2024-09-23 10:06:31.578888,42.23,12.237477,-0.0034324103296106863,-0.023778180888911878,0.09725178296655933,44.11764879391193,-100.26678939585686,80.21211738781929
2024-09-23 10:06:31.621017,42.23,12.237528,-0.003382661564999035,-0.023429960042815445,0.09690356060148622,44.11764879391193,-100.26678939585686,80.21211738781929
2024-09-23 10:06:31.633207,42.23,12.237528,-0.003382661564999035,-0.023429960042815445,0.09690356060148622,44.11764879391193,-96.25519929585457,80.21211738781929
2024-09-23 10:06:31.665337,42.23,12.237579,-0.003382661564999035,-0.023429960042815445,0.09690356060148622,44.11764879391193,-96.25519929585457,76.200527287817
2024-09-23 10:06:31.677173,42.23,12.237579,-0.0038801188315820256,-0.02362894446842532,0.09640611396773996,28.07457030097246,-96.25519929585457,76.200527287817
2024-09-23 10:06:31.719408,42.23,12.23763,-0.0030841997366068195,-0.02352945757203875,0.09675432418099966,28.07457030097246,-100.26678939585686,80.21211738781929
2024-09-23 10:06:31.761716,42.23,12.23763,-0.0030841997366068195,-0.02352945757203875,0.09675432418099966,24.06297849342227,-100.26678939585686,80.21211738781929
2024-09-23 10:06:31.772785,42.23,12.23768,-0.002785727465249955,-0.023330473146428877,0.09675432418099966,24.06297849342227,-96.25519929585457,80.21211738781929
2024-09-23 10:06:31.816844,42.23,12.23768,-0.002785727465249955,-0.023330473146428877,0.09755024973162574,32.08287849390507,-100.26678939585686,80.21211738781929
2024-09-23 10:06:31.828983,42.23,12.237731,-0.0031836870127375577,-0.023330473146428877,0.09755024973162574,32.08287849390507,-100.26678939585686,80.21211738781929
2024-09-23 10:06:31.860581,42.23,12.237731,-0.0031836870127375577,-0.023778180888911878,0.09645586349183995,32.08287849390507,-100.26678939585686,80.21211738781929
2024-09-23 10:06:31.871876,42.23,12.237818,-0.0031836870127375577,-0.023778180888911878,0.09645586349183995,48.12595698684454,-104.27510100388527,72.1922225099802
2024-09-23 10:06:31.915269,42.23,12.237818,-0.0031836870127375577,-0.023579196463302005,0.0970030596496862,44.11764879391193,-104.27510100388527,84.22370748782159
2024-09-23 10:06:31.957990,42.23,12.23787,-0.0031836870127375577,-0.023579196463302005,0.0970030596496862,44.11764879391193,-104.27510100388527,84.22370748782159
2024-09-23 10:06:31.969006,42.23,12.23787,-0.0031836870127375577,-0.023330473146428877,0.0970030596496862,44.11764879391193,-96.25519929585457,84.22370748782159
2024-09-23 10:06:32.010886,42.23,12.237921,-0.0035816467500972456,-0.023827930413011865,0.09720203344245934,44.11764879391193,-96.25519929585457,84.22370748782159
2024-09-23 10:06:32.022703,42.23,12.237921,-0.0035816467500972456,-0.023827930413011865,0.09720203344245934,40.106058693909645,-96.25519929585457,84.22370748782159
2024-09-23 10:06:32.056332,42.23,12.237921,-0.0035816467500972456,-0.023827930413011865,0.09720203344245934,40.106058693909645,-88.23529758782387,80.21211738781929
2024-09-23 10:06:32.067933,42.23,12.237972,-0.0028852147413806935,-0.023778180888911878,0.09759999317981902,40.106058693909645,-88.23529758782387,80.21211738781929
2024-09-23 10:06:32.110985,42.23,12.238022,-0.0030841997366068195,-0.023877669304275123,0.09759999317981902,28.07457030097246,-100.26678939585686,80.21211738781929
2024-09-23 10:06:32.152881,42.23,12.238022,-0.0030841997366068195,-0.023877669304275123,0.09690356060148622,28.07457030097246,-100.26678939585686,80.21211738781929
2024-09-23 10:06:32.165138,42.23,12.238073,-0.003631395514708897,-0.023877669304275123,0.09690356060148622,28.07457030097246,-96.25519929585457,76.200527287817
2024-09-23 10:06:32.208728,42.23,12.238159,-0.003631395514708897,-0.023479709566915436,0.0973512698629459,32.08287849390507,-104.27510100388527,84.22370748782159
2024-09-23 10:06:32.251919,42.23,12.238159,-0.003780631555451287,-0.023877669304275123,0.09720203344245934,32.08287849390507,-104.27510100388527,84.22370748782159
2024-09-23 10:06:32.263433,42.23,12.238159,-0.003780631555451287,-0.023877669304275123,0.09720203344245934,40.106058693909645,-100.26678939585686,84.22370748782159
2024-09-23 10:06:32.306696,42.23,12.238211,-0.003382661564999035,-0.023280723622328886,0.09675432418099966,56.14914060194492,-92.24360919585227,84.22370748782159
2024-09-23 10:06:32.349136,42.23,12.238262,-0.003382661564999035,-0.023280723622328886,0.09675432418099966,56.14914060194492,-92.24360919585227,80.21211738781929
2024-09-23 10:06:32.401412,42.23,12.238262,-0.003233425524256645,-0.023429960042815445,0.09690356060148622,48.12595698684454,-96.25519929585457,80.21211738781929
2024-09-23 10:06:32.413794,42.23,12.238262,-0.003233425524256645,-0.023429960042815445,0.09690356060148622,48.12595698684454,-96.25519929585457,80.21211738781929
2024-09-23 10:06:32.446072,42.23,12.238312,-0.0032831742888682963,-0.023429960042815445,0.09690356060148622,48.12595698684454,-96.25519929585457,80.21211738781929
2024-09-23 10:06:32.499199,42.23,12.238312,-0.0032831742888682963,-0.023429960042815445,0.09695331012558621,36.09446859390736,-100.26678939585686,76.200527287817
2024-09-23 10:06:32.511292,42.23,12.238363,-0.0032831742888682963,-0.023429960042815445,0.09695331012558621,36.09446859390736,-100.26678939585686,76.200527287817
2024-09-23 10:06:32.546315,42.43,12.238363,-0.0034324103296106863,-0.023330473146428877,0.09695331012558621,36.09446859390736,-100.26678939585686,76.200527287817
2024-09-23 10:06:32.560480,42.43,12.238363,-0.0034324103296106863,-0.023330473146428877,0.09695331012558621,20.05138839341998,-100.26678939585686,80.21211738781929
2024-09-23 10:06:32.593592,42.43,12.238414,-0.0028354659767690416,-0.023479709566915436,0.09695331012558621,20.05138839341998,-100.26678939585686,80.21211738781929
2024-09-23 10:06:32.604981,42.43,12.238414,-0.0028354659767690416,-0.023479709566915436,0.09710254654607277,36.09446859390736,-104.27510100388527,80.21211738781929
2024-09-23 10:06:32.647375,42.43,12.238501,-0.0035318979854855937,-0.023330473146428877,0.09705279702197278,48.12595698684454,-104.27510100388527,76.200527287817
2024-09-23 10:06:32.690018,42.43,12.238552,-0.0035318979854855937,-0.023330473146428877,0.09705279702197278,48.12595698684454,-96.25519929585457,72.1922225099802
2024-09-23 10:06:32.701769,42.43,12.238552,-0.0031836870127375577,-0.023927417309398437,0.09695331012558621,48.12595698684454,-96.25519929585457,72.1922225099802
2024-09-23 10:06:32.744766,42.43,12.238649,-0.0032831742888682963,-0.023479709566915436,0.09695331012558621,44.11764879391193,-96.25519929585457,72.1922225099802
2024-09-23 10:06:32.788501,42.43,12.238649,-0.0032831742888682963,-0.023479709566915436,0.0973512698629459,44.11764879391193,-100.26678939585686,72.1922225099802
2024-09-23 10:06:32.801698,42.43,12.2387,-0.0030841997366068195,-0.023479709566915436,0.0973512698629459,44.11764879391193,-100.26678939585686,76.200527287817
2024-09-23 10:06:32.836260,42.43,12.2387,-0.0030841997366068195,-0.02397715620066169,0.09715228999426605,24.06297849342227,-100.26678939585686,76.200527287817
2024-09-23 10:06:32.847508,42.43,12.238793,-0.0030841997366068195,-0.02397715620066169,0.09715228999426605,24.06297849342227,-100.26678939585686,76.200527287817
2024-09-23 10:06:32.889139,42.43,12.238793,-0.003382661564999035,-0.023479709566915436,0.09750050628343246,24.06297849342227,-92.24360919585227,76.200527287817
2024-09-23 10:06:32.901300,42.43,12.238793,-0.003382661564999035,-0.023479709566915436,0.09750050628343246,24.06297849342227,-92.24360919585227,76.200527287817
2024-09-23 10:06:32.933480,42.43,12.238845,-0.003382661564999035,-0.023479709566915436,0.09750050628343246,24.06297849342227,-92.24360919585227,76.200527287817
2024-09-23 10:06:32.986065,42.43,12.238845,-0.0034324103296106863,-0.023479709566915436,0.09750050628343246,24.06297849342227,-92.24360919585227,76.200527287817
2024-09-23 10:06:33.029597,42.43,12.238845,-0.0034324103296106863,-0.02367869399252531,0.09750050628343246,24.06297849342227,-92.24360919585227,76.200527287817
2024-09-23 10:06:33.041632,42.43,12.238895,-0.0034324103296106863,-0.02367869399252531,0.0970030596496862,32.08287849390507,-96.25519929585457,80.21211738781929
2024-09-23 10:06:33.085368,42.43,12.238895,-0.0028852147413806935,-0.023927417309398437,0.0973512698629459,40.106058693909645,-100.26678939585686,80.21211738781929
2024-09-23 10:06:33.097822,42.43,12.238895,-0.0028852147413806935,-0.023927417309398437,0.0973512698629459,40.106058693909645,-100.26678939585686,72.1922225099802
2024-09-23 10:06:33.130593,42.43,12.238946,-0.0032831742888682963,-0.02308174982955575,0.09764974270391902,40.106058693909645,-100.26678939585686,72.1922225099802
2024-09-23 10:06:33.142276,42.43,12.238946,-0.0032831742888682963,-0.02308174982955575,0.09764974270391902,44.11764879391193,-104.27510100388527,72.1922225099802
2024-09-23 10:06:33.174709,42.43,12.238946,-0.0032831742888682963,-0.02308174982955575,0.09764974270391902,44.11764879391193,-104.27510100388527,76.200527287817
2024-09-23 10:06:33.185790,42.43,12.238997,-0.003482159473966507,-0.02303200030545576,0.0973015264147526,36.09446859390736,-104.27510100388527,76.200527287817
2024-09-23 10:06:33.228491,42.43,12.239047,-0.0030344509719951677,-0.02303200030545576,0.0973015264147526,36.09446859390736,-96.25519929585457,84.22370748782159
2024-09-23 10:06:33.239417,42.43,12.239047,-0.0030344509719951677,-0.02367869399252531,0.09764974270391902,36.09446859390736,-96.25519929585457,84.22370748782159
2024-09-23 10:06:33.272171,42.43,12.239047,-0.0030344509719951677,-0.02367869399252531,0.09764974270391902,32.08287849390507,-96.25519929585457,84.22370748782159
2024-09-23 10:06:33.284026,42.43,12.239185,-0.0030344509719951677,-0.02367869399252531,0.09764974270391902,32.08287849390507,-104.27510100388527,80.21211738781929
2024-09-23 10:06:33.325835,42.43,12.239185,-0.0031836870127375577,-0.023280723622328886,0.09695331012558621,28.07457030097246,-104.27510100388527,80.21211738781929
2024-09-23 10:06:33.337145,42.43,12.239185,-0.0031836870127375577,-0.023280723622328886,0.09695331012558621,28.07457030097246,-100.26678939585686,84.22370748782159
2024-09-23 10:06:33.369017,42.43,12.239236,-0.0031836870127375577,-0.023280723622328886,0.09695331012558621,28.07457030097246,-100.26678939585686,84.22370748782159
2024-09-23 10:06:33.380487,42.43,12.239236,-0.003482159473966507,-0.023579196463302005,0.09715228999426605,48.12595698684454,-92.24360919585227,84.22370748782159
2024-09-23 10:06:33.424967,42.43,12.239329,-0.0034324103296106863,-0.023579196463302005,0.09715228999426605,48.12595698684454,-92.24360919585227,76.200527287817
2024-09-23 10:06:33.436671,42.43,12.239329,-0.0034324103296106863,-0.023579196463302005,0.09710254654607277,56.14914060194492,-92.24360919585227,76.200527287817
2024-09-23 10:06:33.468749,42.43,12.239329,-0.0034324103296106863,-0.023579196463302005,0.09710254654607277,56.14914060194492,-96.25519929585457,80.21211738781929
2024-09-23 10:06:33.480412,42.43,12.239381,-0.0033329230534799477,-0.023579196463302005,0.09690356060148622,56.14914060194492,-96.25519929585457,80.21211738781929
2024-09-23 10:06:33.524889,42.43,12.239432,-0.0030841997366068195,-0.023579196463302005,0.09690356060148622,56.14914060194492,-92.24360919585227,80.21211738781929
2024-09-23 10:06:33.568038,42.15,12.239432,-0.0030841997366068195,-0.023579196463302005,0.09695331012558621,32.08287849390507,-100.26678939585686,80.21211738781929
2024-09-23 10:06:33.579710,42.15,12.239482,-0.0038303700669703737,-0.023579196463302005,0.09695331012558621,32.08287849390507,-100.26678939585686,80.21211738781929
2024-09-23 10:06:33.622236,42.15,12.239573,-0.0038303700669703737,-0.023827930413011865,0.09715228999426605,32.08287849390507,-92.24360919585227,84.22370748782159
2024-09-23 10:06:33.664583,42.15,12.239573,-0.0031836870127375577,-0.023877669304275123,0.09655535038822652,32.08287849390507,-92.24360919585227,84.22370748782159
2024-09-23 10:06:33.719017,42.15,12.239625,-0.0035318979854855937,-0.02268379009219606,0.09655535038822652,28.07457030097246,-100.26678939585686,80.21211738781929
2024-09-23 10:06:33.761765,42.15,12.239625,-0.0035318979854855937,-0.02268379009219606,0.09745075675933246,40.106058693909645,-100.26678939585686,80.21211738781929
2024-09-23 10:06:33.774010,42.15,12.239675,-0.0036811340262279837,-0.02268379009219606,0.09745075675933246,40.106058693909645,-100.26678939585686,80.21211738781929
2024-09-23 10:06:33.816712,42.15,12.239675,-0.0036811340262279837,-0.023827930413011865,0.09710254654607277,40.106058693909645,-100.26678939585686,76.200527287817
2024-09-23 10:06:33.828222,42.15,12.239726,-0.0036811340262279837,-0.023827930413011865,0.09710254654607277,40.106058693909645,-100.26678939585686,76.200527287817
2024-09-23 10:06:33.859984,42.15,12.239726,-0.003631395514708897,-0.023728432883788564,0.09779897304849887,40.106058693909645,-100.26678939585686,76.200527287817
2024-09-23 10:06:33.870983,42.15,12.239726,-0.003631395514708897,-0.023728432883788564,0.09779897304849887,44.11764879391193,-96.25519929585457,84.22370748782159
2024-09-23 10:06:33.913470,42.15,12.239777,-0.0028354659767690416,-0.02352945757203875,0.09720203344245934,36.09446859390736,-96.25519929585457,84.22370748782159
2024-09-23 10:06:33.925760,42.15,12.239777,-0.0028354659767690416,-0.02352945757203875,0.09720203344245934,36.09446859390736,-96.25519929585457,84.22370748782159
2024-09-23 10:06:33.957163,42.15,12.239867,-0.0028354659767690416,-0.02352945757203875,0.09720203344245934,36.09446859390736,-96.25519929585457,76.200527287817
2024-09-23 10:06:33.968942,42.15,12.239867,-0.0030344509719951677,-0.023778180888911878,0.09740101331113918,28.07457030097246,-96.25519929585457,76.200527287817
2024-09-23 10:06:34.011706,42.15,12.239918,-0.0028852147413806935,-0.02397715620066169,0.09740101331113918,28.07457030097246,-100.26678939585686,80.21211738781929
2024-09-23 10:06:34.054358,42.15,12.239918,-0.0028852147413806935,-0.02397715620066169,0.0970030596496862,28.07457030097246,-100.26678939585686,80.21211738781929
2024-09-23 10:06:34.065611,42.15,12.239969,-0.003382661564999035,-0.02397715620066169,0.0970030596496862,28.07457030097246,-100.26678939585686,72.1922225099802
2024-09-23 10:06:34.108903,42.15,12.239969,-0.003382661564999035,-0.023429960042815445,0.09715228999426605,40.106058693909645,-96.25519929585457,88.23529758782387
2024-09-23 10:06:34.121946,42.15,12.240019,-0.003382661564999035,-0.023429960042815445,0.09715228999426605,40.106058693909645,-96.25519929585457,88.23529758782387
2024-09-23 10:06:34.154428,42.15,12.240019,-0.003482159473966507,-0.02303200030545576,0.0966050877605131,32.08287849390507,-96.25519929585457,88.23529758782387
2024-09-23 10:06:34.166029,42.15,12.240019,-0.003482159473966507,-0.02303200030545576,0.0966050877605131,32.08287849390507,-100.26678939585686,76.200527287817
2024-09-23 10:06:34.197910,42.15,12.240109,-0.003482159473966507,-0.02303200030545576,0.0966050877605131,32.08287849390507,-100.26678939585686,76.200527287817
2024-09-23 10:06:34.209339,42.15,12.240109,-0.0031836870127375577,-0.02338022115155219,0.09740101331113918,36.09446859390736,-96.25519929585457,76.200527287817
2024-09-23 10:06:34.251924,42.15,12.240161,-0.0030841997366068195,-0.02308174982955575,0.09740101331113918,36.09446859390736,-96.25519929585457,72.1922225099802
2024-09-23 10:06:34.263240,42.15,12.240161,-0.0030841997366068195,-0.02308174982955575,0.0970030596496862,44.11764879391193,-96.25519929585457,72.1922225099802
2024-09-23 10:06:34.295858,42.15,12.240161,-0.0030841997366068195,-0.02308174982955575,0.0970030596496862,44.11764879391193,-84.22370748782159,72.1922225099802
2024-09-23 10:06:34.306908,42.15,12.240212,-0.003780631555451287,-0.02338022115155219,0.09745075675933246,44.11764879391193,-84.22370748782159,88.23529758782387
2024-09-23 10:06:34.349178,42.15,12.240212,-0.003780631555451287,-0.02338022115155219,0.09745075675933246,36.09446859390736,-92.24360919585227,84.22370748782159
2024-09-23 10:06:34.360277,42.15,12.240262,-0.0033329230534799477,-0.02338022115155219,0.09745075675933246,36.09446859390736,-92.24360919585227,84.22370748782159
2024-09-23 10:06:34.403698,42.15,12.240313,-0.003233425524256645,-0.02338022115155219,0.09685382322919964,32.08287849390507,-96.25519929585457,76.200527287817
2024-09-23 10:06:34.445240,42.15,12.240313,-0.003233425524256645,-0.023927417309398437,0.0966050877605131,28.07457030097246,-96.25519929585457,76.200527287817
2024-09-23 10:06:34.456308,42.15,12.240402,-0.003233425524256645,-0.023927417309398437,0.0966050877605131,28.07457030097246,-100.26678939585686,80.21211738781929
2024-09-23 10:06:34.498778,42.15,12.240402,-0.0031836870127375577,-0.023330473146428877,0.09755024973162574,32.08287849390507,-100.26678939585686,80.21211738781929
2024-09-23 10:06:34.541680,42.15,12.240454,-0.0026862297461545674,-0.023330473146428877,0.09755024973162574,32.08287849390507,-100.26678939585686,80.21211738781929
2024-09-23 10:06:34.552658,42.15,12.240454,-0.0026862297461545674,-0.023778180888911878,0.09695331012558621,52.137550501942634,-92.24360919585227,80.21211738781929
2024-09-23 10:06:34.594620,42.6,12.240504,-0.002636491424507565,-0.02338022115155219,0.09705279702197278,52.137550501942634,-92.24360919585227,80.21211738781929
2024-09-23 10:06:34.606354,42.6,12.240504,-0.002636491424507565,-0.02338022115155219,0.09705279702197278,48.12595698684454,-92.24360919585227,80.21211738781929
2024-09-23 10:06:34.638945,42.6,12.240504,-0.002636491424507565,-0.02338022115155219,0.09705279702197278,48.12595698684454,-92.24360919585227,84.22370748782159
2024-09-23 10:06:34.651304,42.6,12.240555,-0.0028354659767690416,-0.02362894446842532,0.09710254654607277,48.12595698684454,-92.24360919585227,84.22370748782159
2024-09-23 10:06:34.693769,42.6,12.240606,-0.0035816467500972456,-0.023778180888911878,0.09710254654607277,44.11764879391193,-92.24360919585227,80.21211738781929
2024-09-23 10:06:34.736876,42.6,12.240606,-0.0035816467500972456,-0.023778180888911878,0.09720203344245934,36.09446859390736,-92.24360919585227,80.21211738781929
2024-09-23 10:06:34.748470,42.6,12.240657,-0.003233425524256645,-0.023778180888911878,0.09720203344245934,36.09446859390736,-100.26678939585686,80.21211738781929
2024-09-23 10:06:34.792542,42.6,12.240743,-0.003233425524256645,-0.023280723622328886,0.09705279702197278,28.07457030097246,-104.27510100388527,80.21211738781929
2024-09-23 10:06:34.836102,42.6,12.240743,-0.0037308827908396356,-0.023579196463302005,0.09745075675933246,28.07457030097246,-104.27510100388527,80.21211738781929
2024-09-23 10:06:34.847481,42.6,12.240743,-0.0037308827908396356,-0.023579196463302005,0.09745075675933246,28.07457030097246,-100.26678939585686,76.200527287817
2024-09-23 10:06:34.890767,42.6,12.240795,-0.003382661564999035,-0.02367869399252531,0.09740101331113918,36.09446859390736,-100.26678939585686,76.200527287817
