Ayaan's Suite
Timestamp,Sample Rate (Hz),Time,Ax,Ay,Az,Gx,Gy,Gz
2024-09-23 15:12:17.214539,0,30.583534,-0.0028852147413806935,-0.023280723622328886,0.09715228999426605,40.106058693909645,-100.26678939585686,80.21211738781929
2024-09-23 15:12:17.226191,0,30.583534,-0.0028852147413806935,-0.023280723622328886,0.09725178296655933,36.09446859390736,-100.26678939585686,80.21211738781929
2024-09-23 15:12:17.258532,0,30.583534,-0.0028852147413806935,-0.023280723622328886,0.09725178296655933,36.09446859390736,-96.25519929585457,80.21211738781929
2024-09-23 15:12:17.270129,0,30.583584,-0.0031339382481259063,-0.023280723622328886,0.09705279702197278,36.09446859390736,-96.25519929585457,80.21211738781929
2024-09-23 15:12:17.312224,0,30.583635,-0.0031339382481259063,-0.023280723622328886,0.09705279702197278,36.09446859390736,-100.26678939585686,76.200527287817
2024-09-23 15:12:17.323554,0,30.583635,-0.003631395514708897,-0.0228827638849692,0.09705279702197278,36.09446859390736,-100.26678939585686,76.200527287817
2024-09-23 15:12:17.366359,0,30.583686,-0.0033329230534799477,-0.0228827638849692,0.09784872257259886,36.09446859390736,-104.27510100388527,76.200527287817
2024-09-23 15:12:17.409376,0,30.583686,-0.0033329230534799477,-0.023479709566915436,0.09745075675933246,36.09446859390736,-104.27510100388527,76.200527287817
2024-09-23 15:12:17.420504,0,30.583774,-0.0033329230534799477,-0.023479709566915436,0.09745075675933246,36.09446859390736,-100.26678939585686,80.21211738781929
2024-09-23 15:12:17.462776,0,30.583774,-0.003482159473966507,-0.023330473146428877,0.09695331012558621,40.106058693909645,-108.28669110388756,68.18063240997792
2024-09-23 15:12:17.506321,0,30.583826,-0.0030344509719951677,-0.02352945757203875,0.09695331012558621,40.106058693909645,-108.28669110388756,68.18063240997792
2024-09-23 15:12:17.517801,0,30.583826,-0.0030344509719951677,-0.02352945757203875,0.0976994861521123,36.09446859390736,-100.26678939585686,68.18063240997792
2024-09-23 15:12:17.560211,0,30.583876,-0.0031836870127375577,-0.02397715620066169,0.09710254654607277,32.08287849390507,-100.26678939585686,80.21211738781929
2024-09-23 15:12:17.602253,0,30.583876,-0.0031836870127375577,-0.02397715620066169,0.09710254654607277,32.08287849390507,-96.25519929585457,88.23529758782387
2024-09-23 15:12:17.613539,0,30.583927,-0.003233425524256645,-0.023479709566915436,0.0970030596496862,32.08287849390507,-96.25519929585457,88.23529758782387
2024-09-23 15:12:17.656640,0,30.583978,-0.003382661564999035,-0.023429960042815445,0.0970030596496862,32.08287849390507,-88.23529758782387,84.22370748782159
2024-09-23 15:12:17.699837,0,30.583978,-0.003382661564999035,-0.023429960042815445,0.09720203344245934,32.08287849390507,-88.23529758782387,84.22370748782159
2024-09-23 15:12:17.711314,0,30.584029,-0.0031339382481259063,-0.023429960042815445,0.09720203344245934,32.08287849390507,-100.26678939585686,76.200527287817
2024-09-23 15:12:17.754686,0,30.584115,-0.0031339382481259063,-0.023429960042815445,0.09685382322919964,32.08287849390507,-96.25519929585457,76.200527287817
2024-09-23 15:12:17.797188,0,30.584115,-0.0030841997366068195,-0.02308174982955575,0.09685382322919964,32.08287849390507,-96.25519929585457,76.200527287817
2024-09-23 15:12:17.808867,0,30.584115,-0.0030841997366068195,-0.02308174982955575,0.09755024973162574,28.07457030097246,-108.28669110388756,80.21211738781929
2024-09-23 15:12:17.851458,0,30.584167,-0.0029847020175114316,-0.02278327698858263,0.09670458680871308,36.09446859390736,-108.28669110388756,80.21211738781929
2024-09-23 15:12:17.863647,0,30.584167,-0.0029847020175114316,-0.02278327698858263,0.09670458680871308,36.09446859390736,-92.24360919585227,80.21211738781929
2024-09-23 15:12:17.895924,0,30.584218,-0.003482159473966507,-0.02278327698858263,0.09670458680871308,36.09446859390736,-92.24360919585227,80.21211738781929
2024-09-23 15:12:17.949158,0,30.584218,-0.003482159473966507,-0.02303200030545576,0.09690356060148622,40.106058693909645,-100.26678939585686,80.21211738781929
2024-09-23 15:12:17.961149,0,30.584268,-0.003482159473966507,-0.02303200030545576,0.09690356060148622,40.106058693909645,-100.26678939585686,80.21211738781929
2024-09-23 15:12:17.994526,0,30.584268,-0.0030841997366068195,-0.023230986250042305,0.09705279702197278,40.106058693909645,-100.26678939585686,80.21211738781929
2024-09-23 15:12:18.005790,0,30.584268,-0.0030841997366068195,-0.023230986250042305,0.09705279702197278,32.08287849390507,-96.25519929585457,84.22370748782159
2024-09-23 15:12:18.047945,0,30.584319,-0.0033329230534799477,-0.02303200030545576,0.0973015264147526,32.08287849390507,-104.27510100388527,84.22370748782159
2024-09-23 15:12:18.091364,0,30.58437,-0.0030344509719951677,-0.02303200030545576,0.0973015264147526,32.08287849390507,-104.27510100388527,76.200527287817
2024-09-23 15:12:18.102798,0,30.58437,-0.0030344509719951677,-0.02303200030545576,0.09710254654607277,28.07457030097246,-104.27510100388527,76.200527287817
2024-09-23 15:12:18.145438,0,30.584457,-0.0035816467500972456,-0.023181236725942318,0.0976994861521123,28.07457030097246,-100.26678939585686,76.200527287817
2024-09-23 15:12:18.187582,40.35,30.584457,-0.0035816467500972456,-0.023181236725942318,0.0976994861521123,36.09446859390736,-100.26678939585686,76.200527287817
2024-09-23 15:12:18.198810,40.35,30.584508,-0.003382661564999035,-0.0228827638849692,0.0976994861521123,36.09446859390736,-100.26678939585686,80.21211738781929
2024-09-23 15:12:18.242309,40.35,30.584508,-0.003382661564999035,-0.0228827638849692,0.09715228999426605,40.106058693909645,-96.25519929585457,88.23529758782387
2024-09-23 15:12:18.253792,40.35,30.584559,-0.0032831742888682963,-0.0228827638849692,0.09715228999426605,40.106058693909645,-96.25519929585457,88.23529758782387
2024-09-23 15:12:18.285846,40.35,30.584559,-0.0032831742888682963,-0.023181236725942318,0.09705279702197278,40.106058693909645,-96.25519929585457,88.23529758782387
2024-09-23 15:12:18.297030,40.35,30.584652,-0.0032831742888682963,-0.023181236725942318,0.09705279702197278,40.106058693909645,-96.25519929585457,72.1922225099802
2024-09-23 15:12:18.339109,40.35,30.584652,-0.0035816467500972456,-0.022833026512682618,0.09690356060148622,36.09446859390736,-96.25519929585457,80.21211738781929
2024-09-23 15:12:18.381874,40.35,30.584703,-0.0035318979854855937,-0.022833026512682618,0.09690356060148622,36.09446859390736,-96.25519929585457,80.21211738781929
2024-09-23 15:12:18.392840,40.35,30.584703,-0.0035318979854855937,-0.023330473146428877,0.09705279702197278,24.06297849342227,-96.25519929585457,80.21211738781929
2024-09-23 15:12:18.434504,40.35,30.584754,-0.0036811340262279837,-0.02313149783467906,0.09705279702197278,24.06297849342227,-96.25519929585457,88.23529758782387
2024-09-23 15:12:18.446110,40.35,30.584754,-0.0036811340262279837,-0.02313149783467906,0.09695331012558621,32.08287849390507,-96.25519929585457,88.23529758782387
2024-09-23 15:12:18.478707,40.35,30.584754,-0.0036811340262279837,-0.02313149783467906,0.09695331012558621,32.08287849390507,-100.26678939585686,88.23529758782387
2024-09-23 15:12:18.490263,40.35,30.584805,-0.0032831742888682963,-0.022982261414192504,0.09695331012558621,32.08287849390507,-100.26678939585686,84.22370748782159
2024-09-23 15:12:18.532069,40.35,30.584855,-0.0031836870127375577,-0.022982261414192504,0.09695331012558621,40.106058693909645,-104.27510100388527,80.21211738781929
2024-09-23 15:12:18.585152,40.35,30.584855,-0.0031836870127375577,-0.023181236725942318,0.09695331012558621,40.106058693909645,-104.27510100388527,80.21211738781929
2024-09-23 15:12:18.629197,40.35,30.584855,-0.0031836870127375577,-0.023181236725942318,0.0976994861521123,28.07457030097246,-100.26678939585686,80.21211738781929
2024-09-23 15:12:18.641035,40.35,30.584906,-0.003382661564999035,-0.023181236725942318,0.0976994861521123,28.07457030097246,-100.26678939585686,80.21211738781929
2024-09-23 15:12:18.673798,40.35,30.584906,-0.003382661564999035,-0.023429960042815445,0.0976994861521123,28.07457030097246,-100.26678939585686,80.21211738781929
2024-09-23 15:12:18.685835,40.35,30.584993,-0.003382661564999035,-0.023429960042815445,0.09720203344245934,40.106058693909645,-104.27510100388527,84.22370748782159
2024-09-23 15:12:18.730621,40.35,30.584993,-0.0030344509719951677,-0.023479709566915436,0.0973015264147526,36.09446859390736,-96.25519929585457,80.21211738781929
2024-09-23 15:12:18.773875,40.35,30.585045,-0.0035318979854855937,-0.022484804147609512,0.0973015264147526,36.09446859390736,-96.25519929585457,80.21211738781929
2024-09-23 15:12:18.785803,40.35,30.585045,-0.0035318979854855937,-0.022484804147609512,0.09710254654607277,44.11764879391193,-96.25519929585457,80.21211738781929
2024-09-23 15:12:18.828352,40.35,30.585095,-0.0031339382481259063,-0.023429960042815445,0.09740101331113918,32.08287849390507,-96.25519929585457,80.21211738781929
2024-09-23 15:12:18.872314,40.35,30.58519,-0.0028852147413806935,-0.023429960042815445,0.09740101331113918,32.08287849390507,-100.26678939585686,76.200527287817
2024-09-23 15:12:18.883610,40.35,30.58519,-0.0028852147413806935,-0.02308174982955575,0.09710254654607277,32.08287849390507,-100.26678939585686,76.200527287817
2024-09-23 15:12:18.926483,40.35,30.58524,-0.0028852147413806935,-0.02308174982955575,0.09710254654607277,24.06297849342227,-100.26678939585686,76.200527287817
2024-09-23 15:12:18.970842,40.35,30.58524,-0.0029847020175114316,-0.02293251340906919,0.09750050628343246,40.106058693909645,-100.26678939585686,76.200527287817
2024-09-23 15:12:18.983530,40.35,30.58524,-0.0029847020175114316,-0.02293251340906919,0.09750050628343246,40.106058693909645,-96.25519929585457,80.21211738781929
2024-09-23 15:12:19.015790,40.35,30.585291,-0.0035318979854855937,-0.02293251340906919,0.09750050628343246,40.106058693909645,-96.25519929585457,80.21211738781929
2024-09-23 15:12:19.026843,40.35,30.585291,-0.0035318979854855937,-0.023181236725942318,0.0970030596496862,40.106058693909645,-100.26678939585686,80.21211738781929
2024-09-23 15:12:19.069677,40.35,30.585383,-0.0035816467500972456,-0.022982261414192504,0.09665483728461309,40.106058693909645,-100.26678939585686,84.22370748782159
2024-09-23 15:12:19.082225,40.35,30.585383,-0.0035816467500972456,-0.022982261414192504,0.09665483728461309,44.11764879391193,-100.26678939585686,84.22370748782159
2024-09-23 15:12:19.114487,40.35,30.585435,-0.0035816467500972456,-0.022982261414192504,0.09665483728461309,44.11764879391193,-96.25519929585457,80.21211738781929
2024-09-23 15:12:19.125568,40.35,30.585435,-0.0035318979854855937,-0.02362894446842532,0.09710254654607277,44.11764879391193,-96.25519929585457,80.21211738781929
2024-09-23 15:12:19.167652,40.35,30.585485,-0.0030841997366068195,-0.02362894446842532,0.09710254654607277,44.11764879391193,-100.26678939585686,72.1922225099802
2024-09-23 15:12:19.179933,40.35,30.585485,-0.0030841997366068195,-0.023429960042815445,0.09710254654607277,44.11764879391193,-100.26678939585686,72.1922225099802
2024-09-23 15:12:19.212287,41.64,30.585485,-0.0030841997366068195,-0.023429960042815445,0.09690356060148622,36.09446859390736,-96.25519929585457,72.1922225099802
2024-09-23 15:12:19.224568,41.64,30.585485,-0.0030841997366068195,-0.023429960042815445,0.09690356060148622,36.09446859390736,-96.25519929585457,76.200527287817
2024-09-23 15:12:19.267389,41.64,30.585536,-0.002586742470023829,-0.023479709566915436,0.0973512698629459,40.106058693909645,-100.26678939585686,76.200527287817
2024-09-23 15:12:19.310538,41.64,30.585627,-0.0030344509719951677,-0.023479709566915436,0.0973512698629459,40.106058693909645,-100.26678939585686,80.21211738781929
2024-09-23 15:12:19.322151,41.64,30.585627,-0.0030344509719951677,-0.0228827638849692,0.09690356060148622,40.106058693909645,-100.26678939585686,80.21211738781929
2024-09-23 15:12:19.365559,41.64,30.585678,-0.003482159473966507,-0.023877669304275123,0.09695331012558621,40.106058693909645,-104.27510100388527,88.23529758782387
2024-09-23 15:12:19.408982,41.64,30.585729,-0.003482159473966507,-0.023877669304275123,0.09695331012558621,44.11764879391193,-104.27510100388527,80.21211738781929
2024-09-23 15:12:19.420815,41.64,30.585729,-0.0035318979854855937,-0.02362894446842532,0.09695331012558621,44.11764879391193,-104.27510100388527,80.21211738781929
2024-09-23 15:12:19.452412,41.64,30.585729,-0.0035318979854855937,-0.02362894446842532,0.09725178296655933,44.11764879391193,-104.27510100388527,80.21211738781929
2024-09-23 15:12:19.463989,41.64,30.58578,-0.0031836870127375577,-0.02362894446842532,0.09725178296655933,40.106058693909645,-100.26678939585686,76.200527287817
2024-09-23 15:12:19.506314,41.64,30.58578,-0.0031836870127375577,-0.02303200030545576,0.0973512698629459,40.106058693909645,-96.25519929585457,76.200527287817
2024-09-23 15:12:19.517887,41.64,30.585871,-0.0031836870127375577,-0.02303200030545576,0.0973512698629459,40.106058693909645,-96.25519929585457,80.21211738781929
2024-09-23 15:12:19.549943,41.64,30.585871,-0.003382661564999035,-0.02303200030545576,0.0973512698629459,40.106058693909645,-96.25519929585457,80.21211738781929
2024-09-23 15:12:19.561888,41.64,30.585871,-0.003382661564999035,-0.022982261414192504,0.09670458680871308,36.09446859390736,-96.25519929585457,76.200527287817
2024-09-23 15:12:19.606017,41.64,30.585922,-0.0032831742888682963,-0.02293251340906919,0.09750050628343246,32.08287849390507,-100.26678939585686,76.200527287817
2024-09-23 15:12:19.649618,41.64,30.585973,-0.0032831742888682963,-0.02293251340906919,0.09750050628343246,32.08287849390507,-100.26678939585686,80.21211738781929
2024-09-23 15:12:19.661234,41.64,30.585973,-0.0037308827908396356,-0.02313149783467906,0.09740101331113918,36.09446859390736,-100.26678939585686,80.21211738781929
2024-09-23 15:12:19.703785,41.64,30.586023,-0.0031339382481259063,-0.022833026512682618,0.09650560086412653,36.09446859390736,-96.25519929585457,80.21211738781929
2024-09-23 15:12:19.746494,41.64,30.586023,-0.0031339382481259063,-0.022833026512682618,0.09650560086412653,32.08287849390507,-92.24360919585227,80.21211738781929
2024-09-23 15:12:19.758129,41.64,30.586074,-0.0031339382481259063,-0.023230986250042305,0.09650560086412653,32.08287849390507,-92.24360919585227,76.200527287817
2024-09-23 15:12:19.800526,41.64,30.586074,-0.0031339382481259063,-0.023230986250042305,0.0973015264147526,32.08287849390507,-92.24360919585227,76.200527287817
2024-09-23 15:12:19.842610,41.64,30.586074,-0.0031339382481259063,-0.023230986250042305,0.0973015264147526,32.08287849390507,-92.24360919585227,76.200527287817
2024-09-23 15:12:19.854984,41.64,30.586125,-0.0038303700669703737,-0.023230986250042305,0.0973015264147526,32.08287849390507,-96.25519929585457,84.22370748782159
2024-09-23 15:12:19.898278,41.64,30.586125,-0.0038303700669703737,-0.02308174982955575,0.09720203344245934,36.09446859390736,-96.25519929585457,80.21211738781929
2024-09-23 15:12:19.910301,41.64,30.586212,-0.0038303700669703737,-0.02308174982955575,0.09720203344245934,36.09446859390736,-96.25519929585457,80.21211738781929
2024-09-23 15:12:19.943891,41.64,30.586212,-0.0029847020175114316,-0.023429960042815445,0.09789846602079214,36.09446859390736,-96.25519929585457,80.21211738781929
2024-09-23 15:12:19.956109,41.64,30.586212,-0.0029847020175114316,-0.023429960042815445,0.09789846602079214,40.106058693909645,-96.25519929585457,80.21211738781929
2024-09-23 15:12:19.989814,41.64,30.586212,-0.0029847020175114316,-0.023429960042815445,0.09789846602079214,40.106058693909645,-100.26678939585686,80.21211738781929
2024-09-23 15:12:20.001660,41.64,30.586263,-0.003631395514708897,-0.023330473146428877,0.09745075675933246,40.106058693909645,-100.26678939585686,80.21211738781929
2024-09-23 15:12:20.044240,41.64,30.586314,-0.003631395514708897,-0.023330473146428877,0.09745075675933246,40.106058693909645,-96.25519929585457,80.21211738781929
2024-09-23 15:12:20.056005,41.64,30.586314,-0.003979606107712764,-0.02308174982955575,0.09745075675933246,40.106058693909645,-96.25519929585457,80.21211738781929
2024-09-23 15:12:20.087738,41.64,30.586314,-0.003979606107712764,-0.02308174982955575,0.09740101331113918,36.09446859390736,-96.25519929585457,80.21211738781929
2024-09-23 15:12:20.099504,41.64,30.586408,-0.0032831742888682963,-0.02308174982955575,0.09740101331113918,36.09446859390736,-96.25519929585457,84.22370748782159
2024-09-23 15:12:20.141902,41.64,30.586408,-0.0032831742888682963,-0.02303200030545576,0.09710254654607277,32.08287849390507,-92.24360919585227,84.22370748782159
2024-09-23 15:12:20.153632,41.64,30.586459,-0.0032831742888682963,-0.02303200030545576,0.09710254654607277,32.08287849390507,-92.24360919585227,84.22370748782159
2024-09-23 15:12:20.186814,41.64,30.586459,-0.0035816467500972456,-0.02303200030545576,0.09705279702197278,32.08287849390507,-92.24360919585227,84.22370748782159
2024-09-23 15:12:20.197866,41.64,30.586459,-0.0035816467500972456,-0.02303200030545576,0.09705279702197278,48.12595698684454,-100.26678939585686,76.200527287817
2024-09-23 15:12:20.240751,42.67,30.586554,-0.0037308827908396356,-0.023280723622328886,0.09715228999426605,40.106058693909645,-96.25519929585457,76.200527287817
2024-09-23 15:12:20.282840,42.67,30.586605,-0.0037308827908396356,-0.023280723622328886,0.09715228999426605,40.106058693909645,-96.25519929585457,84.22370748782159
2024-09-23 15:12:20.294447,42.67,30.586605,-0.0036811340262279837,-0.02308174982955575,0.09720203344245934,36.09446859390736,-96.25519929585457,84.22370748782159
2024-09-23 15:12:20.336753,42.67,30.586605,-0.0036811340262279837,-0.02308174982955575,0.09720203344245934,36.09446859390736,-96.25519929585457,80.21211738781929
2024-09-23 15:12:20.380300,42.67,30.586656,-0.0036811340262279837,-0.02308174982955575,0.09720203344245934,36.09446859390736,-96.25519929585457,80.21211738781929
2024-09-23 15:12:20.391719,42.67,30.586656,-0.0032831742888682963,-0.023827930413011865,0.0970030596496862,36.09446859390736,-96.25519929585457,80.21211738781929
2024-09-23 15:12:20.434635,42.67,30.586706,-0.0035318979854855937,-0.02278327698858263,0.09710254654607277,36.09446859390736,-96.25519929585457,76.200527287817
2024-09-23 15:12:20.446424,42.67,30.586706,-0.0035318979854855937,-0.02278327698858263,0.09710254654607277,32.08287849390507,-96.25519929585457,76.200527287817
2024-09-23 15:12:20.478280,42.67,30.586706,-0.0035318979854855937,-0.02278327698858263,0.09710254654607277,32.08287849390507,-100.26678939585686,80.21211738781929
2024-09-23 15:12:20.489336,42.67,30.586757,-0.0028852147413806935,-0.023230986250042305,0.09710254654607277,32.08287849390507,-100.26678939585686,80.21211738781929
2024-09-23 15:12:20.531741,42.67,30.586757,-0.0028852147413806935,-0.023230986250042305,0.09680407370509965,32.08287849390507,-100.26678939585686,80.21211738781929
2024-09-23 15:12:20.574949,42.67,30.586757,-0.0028852147413806935,-0.023230986250042305,0.09680407370509965,40.106058693909645,-100.26678939585686,80.21211738781929
2024-09-23 15:12:20.586788,42.67,30.586846,-0.0026862297461545674,-0.02367869399252531,0.09680407370509965,40.106058693909645,-104.27510100388527,80.21211738781929
2024-09-23 15:12:20.629975,42.67,30.586896,-0.0026862297461545674,-0.02367869399252531,0.09759999317981902,40.106058693909645,-100.26678939585686,76.200527287817
2024-09-23 15:12:20.641740,42.67,30.586896,-0.0038303700669703737,-0.02367869399252531,0.09759999317981902,40.106058693909645,-100.26678939585686,76.200527287817
2024-09-23 15:12:20.675581,42.67,30.586896,-0.0038303700669703737,-0.023230986250042305,0.09755024973162574,32.08287849390507,-100.26678939585686,76.200527287817
2024-09-23 15:12:20.687366,42.67,30.586992,-0.0038303700669703737,-0.023230986250042305,0.09755024973162574,32.08287849390507,-100.26678939585686,76.200527287817
2024-09-23 15:12:20.730593,42.67,30.586992,-0.003382661564999035,-0.023330473146428877,0.09725178296655933,32.08287849390507,-104.27510100388527,76.200527287817
2024-09-23 15:12:20.741794,42.67,30.586992,-0.003382661564999035,-0.023330473146428877,0.09725178296655933,32.08287849390507,-104.27510100388527,76.200527287817
2024-09-23 15:12:20.774593,42.67,30.587043,-0.0029847020175114316,-0.02367869399252531,0.09655535038822652,32.08287849390507,-104.27510100388527,76.200527287817
2024-09-23 15:12:20.786018,42.67,30.587043,-0.0029847020175114316,-0.02367869399252531,0.09655535038822652,40.106058693909645,-88.23529758782387,76.200527287817
2024-09-23 15:12:20.818656,42.67,30.587043,-0.0029847020175114316,-0.02367869399252531,0.09655535038822652,40.106058693909645,-88.23529758782387,88.23529758782387
2024-09-23 15:12:20.830426,42.67,30.587139,-0.0031339382481259063,-0.023429960042815445,0.0973015264147526,28.07457030097246,-88.23529758782387,88.23529758782387
2024-09-23 15:12:20.874016,42.67,30.58719,-0.003482159473966507,-0.023280723622328886,0.0973015264147526,28.07457030097246,-100.26678939585686,88.23529758782387
2024-09-23 15:12:20.885758,42.67,30.58719,-0.003482159473966507,-0.023280723622328886,0.0973512698629459,28.07457030097246,-100.26678939585686,88.23529758782387
2024-09-23 15:12:20.918343,42.67,30.58719,-0.003482159473966507,-0.023280723622328886,0.0973512698629459,32.08287849390507,-96.25519929585457,88.23529758782387
2024-09-23 15:12:20.929970,42.67,30.587241,-0.0031836870127375577,-0.023330473146428877,0.0973512698629459,32.08287849390507,-96.25519929585457,84.22370748782159
2024-09-23 15:12:20.972547,42.67,30.587292,-0.0033329230534799477,-0.023330473146428877,0.09745075675933246,36.09446859390736,-92.24360919585227,84.22370748782159
2024-09-23 15:12:21.014382,42.67,30.587292,-0.0033329230534799477,-0.02313149783467906,0.09720203344245934,36.09446859390736,-92.24360919585227,84.22370748782159
2024-09-23 15:12:21.026089,42.67,30.587382,-0.0033329230534799477,-0.02313149783467906,0.09720203344245934,36.09446859390736,-96.25519929585457,72.1922225099802
2024-09-23 15:12:21.068384,42.67,30.587382,-0.0038801188315820256,-0.023479709566915436,0.09650560086412653,44.11764879391193,-88.23529758782387,72.1922225099802
2024-09-23 15:12:21.080439,42.67,30.587382,-0.0038801188315820256,-0.023479709566915436,0.09650560086412653,44.11764879391193,-88.23529758782387,80.21211738781929
2024-09-23 15:12:21.111996,42.67,30.587433,-0.0028354659767690416,-0.023479709566915436,0.09650560086412653,44.11764879391193,-88.23529758782387,80.21211738781929
2024-09-23 15:12:21.123140,42.67,30.587433,-0.0028354659767690416,-0.0228827638849692,0.09705279702197278,44.11764879391193,-100.26678939585686,80.21211738781929
2024-09-23 15:12:21.165313,42.67,30.587484,-0.0032831742888682963,-0.02308174982955575,0.09715228999426605,44.11764879391193,-100.26678939585686,80.21211738781929
2024-09-23 15:12:21.177076,42.67,30.587484,-0.0032831742888682963,-0.02308174982955575,0.09715228999426605,32.08287849390507,-100.26678939585686,80.21211738781929
2024-09-23 15:12:21.209877,42.67,30.587484,-0.0032831742888682963,-0.02308174982955575,0.09715228999426605,32.08287849390507,-100.26678939585686,84.22370748782159
2024-09-23 15:12:21.220948,42.67,30.587535,-0.003482159473966507,-0.023230986250042305,0.0973015264147526,32.08287849390507,-100.26678939585686,84.22370748782159
2024-09-23 15:12:21.262713,43.26,30.587585,-0.0030841997366068195,-0.023230986250042305,0.0973015264147526,36.09446859390736,-92.24360919585227,84.22370748782159
2024-09-23 15:12:21.274707,43.26,30.587585,-0.0030841997366068195,-0.023429960042815445,0.0973015264147526,36.09446859390736,-92.24360919585227,84.22370748782159
2024-09-23 15:12:21.306689,43.26,30.587585,-0.0030841997366068195,-0.023429960042815445,0.09705279702197278,36.09446859390736,-92.24360919585227,84.22370748782159
2024-09-23 15:12:21.318111,43.26,30.587636,-0.0030344509719951677,-0.023429960042815445,0.09705279702197278,36.09446859390736,-96.25519929585457,76.200527287817
2024-09-23 15:12:21.360055,43.26,30.587636,-0.0030344509719951677,-0.023579196463302005,0.0976994861521123,32.08287849390507,-96.25519929585457,76.200527287817
2024-09-23 15:12:21.371444,43.26,30.587723,-0.0030344509719951677,-0.023579196463302005,0.0976994861521123,32.08287849390507,-96.25519929585457,84.22370748782159
2024-09-23 15:12:21.404897,43.26,30.587723,-0.0030841997366068195,-0.02308174982955575,0.0976994861521123,32.08287849390507,-96.25519929585457,84.22370748782159
2024-09-23 15:12:21.416574,43.26,30.587723,-0.0030841997366068195,-0.02308174982955575,0.0973512698629459,40.106058693909645,-96.25519929585457,80.21211738781929
2024-09-23 15:12:21.460117,43.26,30.587775,-0.0028354659767690416,-0.022733528983459317,0.0966050877605131,44.11764879391193,-100.26678939585686,80.21211738781929
2024-09-23 15:12:21.503487,43.26,30.587825,-0.0032831742888682963,-0.022733528983459317,0.0966050877605131,44.11764879391193,-100.26678939585686,76.200527287817
2024-09-23 15:12:21.516201,43.26,30.587825,-0.0032831742888682963,-0.02278327698858263,0.09720203344245934,36.09446859390736,-100.26678939585686,76.200527287817
2024-09-23 15:12:21.548289,43.26,30.587825,-0.0032831742888682963,-0.02278327698858263,0.09720203344245934,36.09446859390736,-100.26678939585686,76.200527287817
2024-09-23 15:12:21.559732,43.26,30.587876,-0.0034324103296106863,-0.02278327698858263,0.09670458680871308,36.09446859390736,-100.26678939585686,80.21211738781929
2024-09-23 15:12:21.601798,43.26,30.587927,-0.0034324103296106863,-0.02278327698858263,0.09670458680871308,28.07457030097246,-96.25519929585457,80.21211738781929
2024-09-23 15:12:21.613693,43.26,30.587927,-0.0036811340262279837,-0.022982261414192504,0.09670458680871308,28.07457030097246,-96.25519929585457,80.21211738781929
2024-09-23 15:12:21.647515,43.26,30.587927,-0.0036811340262279837,-0.022982261414192504,0.0973512698629459,28.07457030097246,-96.25519929585457,80.21211738781929
2024-09-23 15:12:21.658571,43.26,30.587977,-0.003482159473966507,-0.022982261414192504,0.0973512698629459,32.08287849390507,-96.25519929585457,80.21211738781929
2024-09-23 15:12:21.701880,43.26,30.587977,-0.003482159473966507,-0.022833026512682618,0.09690356060148622,36.09446859390736,-100.26678939585686,76.200527287817
2024-09-23 15:12:21.713912,43.26,30.588064,-0.003482159473966507,-0.022833026512682618,0.09690356060148622,36.09446859390736,-100.26678939585686,76.200527287817
2024-09-23 15:12:21.745751,43.26,30.588064,-0.0035816467500972456,-0.022833026512682618,0.09690356060148622,36.09446859390736,-100.26678939585686,76.200527287817
2024-09-23 15:12:21.799580,43.26,30.588064,-0.0035816467500972456,-0.02268379009219606,0.09784872257259886,32.08287849390507,-100.26678939585686,80.21211738781929
2024-09-23 15:12:21.811683,43.26,30.588116,-0.0035816467500972456,-0.02268379009219606,0.09784872257259886,32.08287849390507,-100.26678939585686,80.21211738781929
2024-09-23 15:12:21.843498,43.26,30.588116,-0.0024872551938930902,-0.023280723622328886,0.09784872257259886,32.08287849390507,-100.26678939585686,80.21211738781929
2024-09-23 15:12:21.855375,43.26,30.588116,-0.0024872551938930902,-0.023280723622328886,0.09745075675933246,36.09446859390736,-96.25519929585457,80.21211738781929
2024-09-23 15:12:21.898873,43.26,30.588167,-0.003382661564999035,-0.023280723622328886,0.09745075675933246,36.09446859390736,-96.25519929585457,80.21211738781929
2024-09-23 15:12:21.940775,43.26,30.588167,-0.003382661564999035,-0.023280723622328886,0.09740101331113918,36.09446859390736,-96.25519929585457,80.21211738781929
2024-09-23 15:12:21.951797,43.26,30.588218,-0.003382661564999035,-0.023280723622328886,0.09740101331113918,36.09446859390736,-88.23529758782387,80.21211738781929
2024-09-23 15:12:21.994566,43.26,30.588218,-0.0029847020175114316,-0.02313149783467906,0.09720203344245934,40.106058693909645,-96.25519929585457,80.21211738781929
2024-09-23 15:12:22.006819,43.26,30.588218,-0.0029847020175114316,-0.02313149783467906,0.09720203344245934,40.106058693909645,-96.25519929585457,80.21211738781929
2024-09-23 15:12:22.040211,43.26,30.588269,-0.0031836870127375577,-0.023330473146428877,0.09720203344245934,40.106058693909645,-96.25519929585457,80.21211738781929
2024-09-23 15:12:22.051240,43.26,30.588269,-0.0031836870127375577,-0.023330473146428877,0.09715228999426605,32.08287849390507,-100.26678939585686,80.21211738781929
2024-09-23 15:12:22.094531,43.26,30.588359,-0.0033329230534799477,-0.02308174982955575,0.09675432418099966,40.106058693909645,-100.26678939585686,80.21211738781929
2024-09-23 15:12:22.138374,43.26,30.58841,-0.0031836870127375577,-0.02308174982955575,0.09675432418099966,40.106058693909645,-108.28669110388756,80.21211738781929
2024-09-23 15:12:22.149364,43.26,30.58841,-0.0031836870127375577,-0.023181236725942318,0.09740101331113918,40.106058693909645,-108.28669110388756,80.21211738781929
2024-09-23 15:12:22.191618,43.26,30.588505,-0.003631395514708897,-0.02352945757203875,0.09740101331113918,36.09446859390736,-100.26678939585686,84.22370748782159
2024-09-23 15:12:22.234626,43.26,30.588505,-0.003631395514708897,-0.02352945757203875,0.09695331012558621,40.106058693909645,-96.25519929585457,84.22370748782159
2024-09-23 15:12:22.246744,43.26,30.588556,-0.0031339382481259063,-0.02352945757203875,0.09695331012558621,40.106058693909645,-96.25519929585457,76.200527287817
2024-09-23 15:12:22.289188,43.57,30.588649,-0.0031339382481259063,-0.023429960042815445,0.09755024973162574,40.106058693909645,-100.26678939585686,80.21211738781929
2024-09-23 15:12:22.382820,43.57,30.588649,-0.003482159473966507,-0.023479709566915436,0.09745075675933246,32.08287849390507,-100.26678939585686,80.21211738781929
2024-09-23 15:12:22.394881,43.57,30.588649,-0.003482159473966507,-0.023479709566915436,0.09745075675933246,32.08287849390507,-104.27510100388527,80.21211738781929
2024-09-23 15:12:22.427610,43.57,30.588701,-0.003482159473966507,-0.023479709566915436,0.09745075675933246,32.08287849390507,-104.27510100388527,80.21211738781929
2024-09-23 15:12:22.439330,43.57,30.588701,-0.003382661564999035,-0.022833026512682618,0.09745075675933246,32.08287849390507,-100.26678939585686,80.21211738781929
2024-09-23 15:12:22.482068,43.57,30.588752,-0.0033329230534799477,-0.023230986250042305,0.09745075675933246,32.08287849390507,-100.26678939585686,84.22370748782159
2024-09-23 15:12:22.494124,43.57,30.588752,-0.0033329230534799477,-0.023230986250042305,0.09745075675933246,44.11764879391193,-100.26678939585686,84.22370748782159
2024-09-23 15:12:22.526807,43.57,30.588752,-0.0033329230534799477,-0.023230986250042305,0.09745075675933246,44.11764879391193,-100.26678939585686,84.22370748782159
2024-09-23 15:12:22.579523,43.57,30.588802,-0.0028354659767690416,-0.023728432883788564,0.0976994861521123,44.11764879391193,-100.26678939585686,76.200527287817
2024-09-23 15:12:22.622164,43.57,30.588802,-0.0028354659767690416,-0.023728432883788564,0.0976994861521123,32.08287849390507,-100.26678939585686,76.200527287817
2024-09-23 15:12:22.675558,43.57,30.588853,-0.0035318979854855937,-0.023728432883788564,0.0976994861521123,32.08287849390507,-100.26678939585686,80.21211738781929
2024-09-23 15:12:22.687549,43.57,30.588853,-0.0035318979854855937,-0.0228827638849692,0.09690356060148622,32.08287849390507,-100.26678939585686,80.21211738781929
2024-09-23 15:12:22.721194,43.57,30.588853,-0.0035318979854855937,-0.0228827638849692,0.09690356060148622,36.09446859390736,-92.24360919585227,80.21211738781929
2024-09-23 15:12:22.733204,43.57,30.588945,-0.003382661564999035,-0.02278327698858263,0.09690356060148622,36.09446859390736,-92.24360919585227,84.22370748782159
2024-09-23 15:12:22.776743,43.57,30.58904,-0.0029349636958644295,-0.02278327698858263,0.0966050877605131,32.08287849390507,-100.26678939585686,84.22370748782159
2024-09-23 15:12:22.818374,43.57,30.58904,-0.0029349636958644295,-0.02338022115155219,0.09705279702197278,32.08287849390507,-100.26678939585686,84.22370748782159
2024-09-23 15:12:22.829820,43.57,30.589091,-0.0029349636958644295,-0.02338022115155219,0.09705279702197278,36.09446859390736,-100.26678939585686,80.21211738781929
2024-09-23 15:12:22.872316,43.57,30.589091,-0.0030841997366068195,-0.023230986250042305,0.09695331012558621,36.09446859390736,-100.26678939585686,80.21211738781929
2024-09-23 15:12:22.884726,43.57,30.589091,-0.0030841997366068195,-0.023230986250042305,0.09695331012558621,36.09446859390736,-100.26678939585686,80.21211738781929
2024-09-23 15:12:22.918222,43.57,30.589235,-0.0035816467500972456,-0.02338022115155219,0.09695331012558621,36.09446859390736,-100.26678939585686,80.21211738781929
2024-09-23 15:12:22.929248,43.57,30.589235,-0.0035816467500972456,-0.02338022115155219,0.09680407370509965,36.09446859390736,-104.27510100388527,80.21211738781929
2024-09-23 15:12:22.973901,43.57,30.589286,-0.0030344509719951677,-0.022584292562972758,0.0973512698629459,36.09446859390736,-104.27510100388527,84.22370748782159
2024-09-23 15:12:23.016967,43.57,30.589286,-0.0030344509719951677,-0.022584292562972758,0.0973512698629459,36.09446859390736,-92.24360919585227,84.22370748782159
2024-09-23 15:12:23.069863,43.57,30.589337,-0.0038303700669703737,-0.022833026512682618,0.09720203344245934,36.09446859390736,-92.24360919585227,80.21211738781929
2024-09-23 15:12:23.112478,43.57,30.589388,-0.0038303700669703737,-0.022833026512682618,0.09720203344245934,36.09446859390736,-88.23529758782387,80.21211738781929
2024-09-23 15:12:23.123765,43.57,30.589388,-0.003382661564999035,-0.023280723622328886,0.09655535038822652,36.09446859390736,-88.23529758782387,80.21211738781929
2024-09-23 15:12:23.166694,43.57,30.589438,-0.0030344509719951677,-0.022982261414192504,0.09655535038822652,32.08287849390507,-96.25519929585457,80.21211738781929
2024-09-23 15:12:23.210236,43.57,30.589438,-0.0030344509719951677,-0.022982261414192504,0.09705279702197278,44.11764879391193,-104.27510100388527,80.21211738781929
2024-09-23 15:12:23.221377,43.57,30.589527,-0.0028852147413806935,-0.022982261414192504,0.09705279702197278,44.11764879391193,-104.27510100388527,80.21211738781929
2024-09-23 15:12:23.264300,43.57,30.589624,-0.0028852147413806935,-0.023181236725942318,0.09789846602079214,36.09446859390736,-92.24360919585227,80.21211738781929
2024-09-23 15:12:23.306906,42.53,30.589624,-0.0035816467500972456,-0.02308174982955575,0.09715228999426605,36.09446859390736,-92.24360919585227,80.21211738781929
2024-09-23 15:12:23.317989,42.53,30.589624,-0.0035816467500972456,-0.02308174982955575,0.09715228999426605,44.11764879391193,-96.25519929585457,76.200527287817
2024-09-23 15:12:23.360415,42.53,30.589676,-0.0032831742888682963,-0.023429960042815445,0.0976994861521123,32.08287849390507,-96.25519929585457,76.200527287817
2024-09-23 15:12:23.372470,42.53,30.589676,-0.0032831742888682963,-0.023429960042815445,0.0976994861521123,32.08287849390507,-104.27510100388527,76.200527287817
2024-09-23 15:12:23.404918,42.53,30.589727,-0.0034324103296106863,-0.023429960042815445,0.0976994861521123,32.08287849390507,-104.27510100388527,76.200527287817
2024-09-23 15:12:23.416461,42.53,30.589727,-0.0034324103296106863,-0.02308174982955575,0.09685382322919964,36.09446859390736,-104.27510100388527,76.200527287817
2024-09-23 15:12:23.459128,42.53,30.589777,-0.0035816467500972456,-0.02278327698858263,0.0973015264147526,36.09446859390736,-96.25519929585457,76.200527287817
2024-09-23 15:12:23.502016,42.53,30.589777,-0.0035816467500972456,-0.02278327698858263,0.0973015264147526,44.11764879391193,-104.27510100388527,76.200527287817
2024-09-23 15:12:23.513242,42.53,30.589828,-0.0033329230534799477,-0.02278327698858263,0.0973015264147526,44.11764879391193,-104.27510100388527,76.200527287817
2024-09-23 15:12:23.556296,42.53,30.589879,-0.0034324103296106863,-0.02278327698858263,0.0973512698629459,36.09446859390736,-100.26678939585686,88.23529758782387
2024-09-23 15:12:23.597935,42.53,30.589879,-0.0034324103296106863,-0.022982261414192504,0.0970030596496862,36.09446859390736,-100.26678939585686,88.23529758782387
2024-09-23 15:12:23.609212,42.53,30.589966,-0.0034324103296106863,-0.022982261414192504,0.0970030596496862,28.07457030097246,-104.27510100388527,80.21211738781929
2024-09-23 15:12:23.651627,42.53,30.589966,-0.0034324103296106863,-0.023280723622328886,0.09705279702197278,44.11764879391193,-100.26678939585686,80.21211738781929
2024-09-23 15:12:23.663257,42.53,30.589966,-0.0034324103296106863,-0.023280723622328886,0.09705279702197278,44.11764879391193,-100.26678939585686,84.22370748782159
2024-09-23 15:12:23.695156,42.53,30.590017,-0.0034324103296106863,-0.023280723622328886,0.09705279702197278,44.11764879391193,-100.26678939585686,84.22370748782159
2024-09-23 15:12:23.706812,42.53,30.590017,-0.0033329230534799477,-0.023280723622328886,0.09695331012558621,32.08287849390507,-104.27510100388527,84.22370748782159
2024-09-23 15:12:23.749682,42.53,30.590068,-0.0032831742888682963,-0.023181236725942318,0.09715228999426605,32.08287849390507,-104.27510100388527,76.200527287817
2024-09-23 15:12:23.761895,42.53,30.590068,-0.0032831742888682963,-0.023181236725942318,0.09715228999426605,36.09446859390736,-104.27510100388527,76.200527287817
2024-09-23 15:12:23.794723,42.53,30.590119,-0.0032831742888682963,-0.023181236725942318,0.09715228999426605,36.09446859390736,-100.26678939585686,76.200527287817
2024-09-23 15:12:23.805728,42.53,30.590119,-0.003631395514708897,-0.022982261414192504,0.09725178296655933,36.09446859390736,-100.26678939585686,76.200527287817
2024-09-23 15:12:23.847782,42.53,30.59017,-0.003382661564999035,-0.023181236725942318,0.09725178296655933,44.11764879391193,-104.27510100388527,76.200527287817
2024-09-23 15:12:23.890857,42.53,30.59017,-0.003382661564999035,-0.023181236725942318,0.0973015264147526,48.12595698684454,-104.27510100388527,76.200527287817
2024-09-23 15:12:23.902206,42.53,30.59022,-0.0035816467500972456,-0.023181236725942318,0.0973015264147526,48.12595698684454,-92.24360919585227,76.200527287817
2024-09-23 15:12:23.945269,42.53,30.590307,-0.0035816467500972456,-0.023330473146428877,0.09705279702197278,40.106058693909645,-100.26678939585686,76.200527287817
2024-09-23 15:12:23.988005,42.53,30.590307,-0.003233425524256645,-0.023280723622328886,0.09705279702197278,40.106058693909645,-100.26678939585686,76.200527287817
2024-09-23 15:12:23.999624,42.53,30.590307,-0.003233425524256645,-0.023280723622328886,0.09710254654607277,36.09446859390736,-100.26678939585686,80.21211738781929
2024-09-23 15:12:24.043058,42.53,30.590358,-0.0038303700669703737,-0.02293251340906919,0.09690356060148622,36.09446859390736,-104.27510100388527,80.21211738781929
2024-09-23 15:12:24.086008,42.53,30.590409,-0.0038303700669703737,-0.02293251340906919,0.09690356060148622,36.09446859390736,-104.27510100388527,80.21211738781929
2024-09-23 15:12:24.097883,42.53,30.590409,-0.003631395514708897,-0.023181236725942318,0.09750050628343246,36.09446859390736,-104.27510100388527,80.21211738781929
2024-09-23 15:12:24.140379,42.53,30.59046,-0.0031339382481259063,-0.023181236725942318,0.09740101331113918,36.09446859390736,-108.28669110388756,72.1922225099802
2024-09-23 15:12:24.183443,42.53,30.59046,-0.0031339382481259063,-0.023181236725942318,0.09740101331113918,40.106058693909645,-100.26678939585686,72.1922225099802
2024-09-23 15:12:24.194570,42.53,30.59051,-0.0029349636958644295,-0.02293251340906919,0.09740101331113918,40.106058693909645,-100.26678939585686,76.200527287817
2024-09-23 15:12:24.236385,42.53,30.590561,-0.0029349636958644295,-0.02293251340906919,0.09690356060148622,32.08287849390507,-96.25519929585457,80.21211738781929
2024-09-23 15:12:24.248087,42.53,30.590561,-0.0031339382481259063,-0.02293251340906919,0.09690356060148622,32.08287849390507,-96.25519929585457,80.21211738781929
2024-09-23 15:12:24.281757,42.53,30.590561,-0.0031339382481259063,-0.02313149783467906,0.09755024973162574,32.08287849390507,-96.25519929585457,80.21211738781929
2024-09-23 15:12:24.293291,42.53,30.590648,-0.0031339382481259063,-0.02313149783467906,0.09755024973162574,36.09446859390736,-96.25519929585457,80.21211738781929
2024-09-23 15:12:24.335370,42.57,30.590648,-0.0031339382481259063,-0.02352945757203875,0.0970030596496862,40.106058693909645,-100.26678939585686,84.22370748782159
2024-09-23 15:12:24.378658,42.57,30.5907,-0.0031836870127375577,-0.02352945757203875,0.0970030596496862,40.106058693909645,-100.26678939585686,84.22370748782159
2024-09-23 15:12:24.390004,42.57,30.5907,-0.0031836870127375577,-0.02352945757203875,0.0970030596496862,36.09446859390736,-92.24360919585227,84.22370748782159
2024-09-23 15:12:24.433969,42.57,30.59075,-0.0028852147413806935,-0.02367869399252531,0.09680407370509965,36.09446859390736,-92.24360919585227,80.21211738781929
2024-09-23 15:12:24.476120,42.57,30.59075,-0.0028852147413806935,-0.02367869399252531,0.09680407370509965,36.09446859390736,-96.25519929585457,88.23529758782387
2024-09-23 15:12:24.488218,42.57,30.590801,-0.0035318979854855937,-0.02367869399252531,0.09720203344245934,36.09446859390736,-96.25519929585457,88.23529758782387
2024-09-23 15:12:24.531909,42.57,30.590852,-0.0029847020175114316,-0.02263404056809607,0.09720203344245934,36.09446859390736,-96.25519929585457,84.22370748782159
2024-09-23 15:12:24.575075,42.57,30.590852,-0.0029847020175114316,-0.02263404056809607,0.0970030596496862,44.11764879391193,-108.28669110388756,84.22370748782159
2024-09-23 15:12:24.586738,42.57,30.590902,-0.003780631555451287,-0.02263404056809607,0.0970030596496862,44.11764879391193,-108.28669110388756,80.21211738781929
2024-09-23 15:12:24.630492,42.57,30.590989,-0.003780631555451287,-0.02352945757203875,0.09675432418099966,36.09446859390736,-100.26678939585686,84.22370748782159
2024-09-23 15:12:24.673407,42.57,30.590989,-0.003482159473966507,-0.023280723622328886,0.09710254654607277,48.12595698684454,-100.26678939585686,84.22370748782159
2024-09-23 15:12:24.685047,42.57,30.590989,-0.003482159473966507,-0.023280723622328886,0.09710254654607277,48.12595698684454,-100.26678939585686,80.21211738781929
2024-09-23 15:12:24.717396,42.57,30.591041,-0.003482159473966507,-0.023280723622328886,0.09710254654607277,48.12595698684454,-100.26678939585686,80.21211738781929
2024-09-23 15:12:24.728973,42.57,30.591041,-0.0028354659767690416,-0.023230986250042305,0.09690356060148622,40.106058693909645,-100.26678939585686,80.21211738781929
2024-09-23 15:12:24.771372,42.57,30.591092,-0.003382661564999035,-0.023230986250042305,0.09690356060148622,40.106058693909645,-100.26678939585686,80.21211738781929
2024-09-23 15:12:24.785933,42.57,30.591092,-0.003382661564999035,-0.023230986250042305,0.09725178296655933,40.106058693909645,-100.26678939585686,80.21211738781929
2024-09-23 15:12:24.818841,42.57,30.591142,-0.003382661564999035,-0.023230986250042305,0.09725178296655933,40.106058693909645,-100.26678939585686,80.21211738781929
2024-09-23 15:12:24.829787,42.57,30.591142,-0.0034324103296106863,-0.023778180888911878,0.09680407370509965,40.106058693909645,-100.26678939585686,80.21211738781929
2024-09-23 15:12:24.872802,42.57,30.591193,-0.0029847020175114316,-0.023181236725942318,0.09680407370509965,40.106058693909645,-88.23529758782387,88.23529758782387
2024-09-23 15:12:24.916071,42.57,30.591193,-0.0029847020175114316,-0.023181236725942318,0.0973015264147526,40.106058693909645,-96.25519929585457,88.23529758782387
2024-09-23 15:12:24.927579,42.57,30.591244,-0.0027359787006383035,-0.023181236725942318,0.0973015264147526,40.106058693909645,-96.25519929585457,84.22370748782159
2024-09-23 15:12:24.970453,42.57,30.591331,-0.0027359787006383035,-0.02338022115155219,0.09665483728461309,36.09446859390736,-100.26678939585686,80.21211738781929
2024-09-23 15:12:25.013477,42.57,30.591331,-0.002636491424507565,-0.023280723622328886,0.09705279702197278,36.09446859390736,-100.26678939585686,80.21211738781929
2024-09-23 15:12:25.025660,42.57,30.591331,-0.002636491424507565,-0.023280723622328886,0.09705279702197278,28.07457030097246,-104.27510100388527,72.1922225099802
2024-09-23 15:12:25.068730,42.57,30.591382,-0.0035816467500972456,-0.023230986250042305,0.09705279702197278,28.07457030097246,-104.27510100388527,72.1922225099802
2024-09-23 15:12:25.111341,42.57,30.591382,-0.0035816467500972456,-0.023230986250042305,0.09715228999426605,32.08287849390507,-104.27510100388527,72.1922225099802
2024-09-23 15:12:25.123137,42.57,30.591433,-0.0036811340262279837,-0.023230986250042305,0.09715228999426605,32.08287849390507,-104.27510100388527,76.200527287817
2024-09-23 15:12:25.166034,42.57,30.591483,-0.0036811340262279837,-0.02352945757203875,0.09690356060148622,32.08287849390507,-100.26678939585686,80.21211738781929
2024-09-23 15:12:25.208965,42.57,30.591483,-0.003233425524256645,-0.0228827638849692,0.0970030596496862,32.08287849390507,-100.26678939585686,80.21211738781929
2024-09-23 15:12:25.220338,42.57,30.591483,-0.003233425524256645,-0.0228827638849692,0.0970030596496862,44.11764879391193,-88.23529758782387,80.21211738781929
2024-09-23 15:12:25.262843,42.57,30.591534,-0.003482159473966507,-0.023181236725942318,0.0970030596496862,40.106058693909645,-96.25519929585457,80.21211738781929
2024-09-23 15:12:25.305825,42.57,30.591585,-0.0032831742888682963,-0.023181236725942318,0.0970030596496862,40.106058693909645,-96.25519929585457,80.21211738781929
2024-09-23 15:12:25.316810,42.57,30.591585,-0.0032831742888682963,-0.02268379009219606,0.09720203344245934,44.11764879391193,-96.25519929585457,80.21211738781929
2024-09-23 15:12:25.359867,42.25,30.591674,-0.0027359787006383035,-0.023230986250042305,0.09720203344245934,44.11764879391193,-92.24360919585227,80.21211738781929
2024-09-23 15:12:25.371995,42.25,30.591674,-0.0027359787006383035,-0.023230986250042305,0.09740101331113918,44.11764879391193,-92.24360919585227,80.21211738781929
2024-09-23 15:12:25.404349,42.25,30.591674,-0.0027359787006383035,-0.023230986250042305,0.09740101331113918,40.106058693909645,-100.26678939585686,80.21211738781929
2024-09-23 15:12:25.415666,42.25,30.591724,-0.003382661564999035,-0.02338022115155219,0.09740101331113918,40.106058693909645,-100.26678939585686,80.21211738781929
2024-09-23 15:12:25.458046,42.25,30.591775,-0.0032831742888682963,-0.02338022115155219,0.09690356060148622,40.106058693909645,-92.24360919585227,84.22370748782159
2024-09-23 15:12:25.499640,42.25,30.591775,-0.0032831742888682963,-0.023728432883788564,0.09670458680871308,40.106058693909645,-92.24360919585227,84.22370748782159
2024-09-23 15:12:25.511854,42.25,30.591867,-0.0032831742888682963,-0.023728432883788564,0.09670458680871308,40.106058693909645,-96.25519929585457,84.22370748782159
2024-09-23 15:12:25.555135,42.25,30.591867,-0.0035816467500972456,-0.02263404056809607,0.09690356060148622,44.11764879391193,-100.26678939585686,72.1922225099802
2024-09-23 15:12:25.598700,42.25,30.591918,-0.0031836870127375577,-0.02303200030545576,0.09690356060148622,44.11764879391193,-100.26678939585686,72.1922225099802
2024-09-23 15:12:25.610315,42.25,30.591918,-0.0031836870127375577,-0.02303200030545576,0.09685382322919964,32.08287849390507,-100.26678939585686,72.1922225099802
2024-09-23 15:12:25.653896,42.25,30.591969,-0.002288270198666964,-0.023429960042815445,0.09720203344245934,36.09446859390736,-100.26678939585686,80.21211738781929
2024-09-23 15:12:25.695677,42.25,30.59202,-0.002288270198666964,-0.023429960042815445,0.09720203344245934,36.09446859390736,-92.24360919585227,80.21211738781929
2024-09-23 15:12:25.706733,42.25,30.59202,-0.003233425524256645,-0.023778180888911878,0.09710254654607277,36.09446859390736,-92.24360919585227,80.21211738781929
2024-09-23 15:12:25.790102,42.25,30.59202,-0.003233425524256645,-0.023778180888911878,0.09710254654607277,40.106058693909645,-92.24360919585227,80.21211738781929
2024-09-23 15:12:25.805739,42.25,30.59207,-0.0033329230534799477,-0.023181236725942318,0.09710254654607277,40.106058693909645,-96.25519929585457,80.21211738781929
2024-09-23 15:12:25.848878,42.25,30.592121,-0.003233425524256645,-0.023181236725942318,0.09705279702197278,24.06297849342227,-100.26678939585686,76.200527287817
2024-09-23 15:12:25.892930,42.25,30.592121,-0.003233425524256645,-0.022833026512682618,0.09755024973162574,28.07457030097246,-100.26678939585686,76.200527287817
2024-09-23 15:12:25.904392,42.25,30.592208,-0.003233425524256645,-0.022833026512682618,0.09755024973162574,28.07457030097246,-104.27510100388527,84.22370748782159
2024-09-23 15:12:25.938000,42.25,30.592208,-0.0032831742888682963,-0.022982261414192504,0.09755024973162574,28.07457030097246,-104.27510100388527,84.22370748782159
2024-09-23 15:12:25.949458,42.25,30.592208,-0.0032831742888682963,-0.022982261414192504,0.09720203344245934,44.11764879391193,-100.26678939585686,84.22370748782159
2024-09-23 15:12:25.992547,42.25,30.59226,-0.003382661564999035,-0.023181236725942318,0.09685382322919964,40.106058693909645,-100.26678939585686,84.22370748782159
2024-09-23 15:12:26.004330,42.25,30.59226,-0.003382661564999035,-0.023181236725942318,0.09685382322919964,40.106058693909645,-96.25519929585457,84.22370748782159
2024-09-23 15:12:26.037663,42.25,30.592355,-0.0029349636958644295,-0.023181236725942318,0.09685382322919964,40.106058693909645,-96.25519929585457,80.21211738781929
2024-09-23 15:12:26.049146,42.25,30.592355,-0.0029349636958644295,-0.023479709566915436,0.09725178296655933,36.09446859390736,-96.25519929585457,80.21211738781929
2024-09-23 15:12:26.091576,42.25,30.592407,-0.003631395514708897,-0.02308174982955575,0.0973512698629459,36.09446859390736,-100.26678939585686,80.21211738781929
2024-09-23 15:12:26.135144,42.25,30.592407,-0.003631395514708897,-0.02308174982955575,0.0973512698629459,36.09446859390736,-96.25519929585457,76.200527287817
2024-09-23 15:12:26.146634,42.25,30.592457,-0.0034324103296106863,-0.023429960042815445,0.0973512698629459,36.09446859390736,-96.25519929585457,76.200527287817
2024-09-23 15:12:26.189080,42.25,30.592508,-0.0035816467500972456,-0.023429960042815445,0.09650560086412653,36.09446859390736,-104.27510100388527,76.200527287817
2024-09-23 15:12:26.231002,42.25,30.592508,-0.0035816467500972456,-0.023579196463302005,0.0973015264147526,36.09446859390736,-104.27510100388527,76.200527287817
2024-09-23 15:12:26.242285,42.25,30.592598,-0.0035816467500972456,-0.023579196463302005,0.0973015264147526,32.08287849390507,-96.25519929585457,80.21211738781929
2024-09-23 15:12:26.284924,42.25,30.592598,-0.0032831742888682963,-0.02362894446842532,0.09670458680871308,32.08287849390507,-96.25519929585457,80.21211738781929
2024-09-23 15:12:26.326756,42.25,30.592598,-0.0032831742888682963,-0.02362894446842532,0.09670458680871308,36.09446859390736,-96.25519929585457,80.21211738781929
2024-09-23 15:12:26.337961,42.25,30.59265,-0.003482159473966507,-0.023230986250042305,0.09670458680871308,36.09446859390736,-104.27510100388527,76.200527287817
2024-09-23 15:12:26.379944,42.02,30.59265,-0.003482159473966507,-0.023230986250042305,0.09690356060148622,36.09446859390736,-100.26678939585686,76.200527287817
2024-09-23 15:12:26.393992,42.02,30.592701,-0.0035816467500972456,-0.023230986250042305,0.09690356060148622,36.09446859390736,-100.26678939585686,80.21211738781929
2024-09-23 15:12:26.426056,42.02,30.592701,-0.0035816467500972456,-0.02338022115155219,0.09710254654607277,36.09446859390736,-100.26678939585686,80.21211738781929
2024-09-23 15:12:26.437880,42.02,30.592752,-0.0035816467500972456,-0.02338022115155219,0.09710254654607277,40.106058693909645,-88.23529758782387,84.22370748782159
2024-09-23 15:12:26.480361,42.02,30.592752,-0.0036811340262279837,-0.02313149783467906,0.09675432418099966,40.106058693909645,-96.25519929585457,80.21211738781929
2024-09-23 15:12:26.522991,42.02,30.592802,-0.0032831742888682963,-0.02313149783467906,0.09675432418099966,40.106058693909645,-96.25519929585457,80.21211738781929
2024-09-23 15:12:26.534763,42.02,30.592802,-0.0032831742888682963,-0.02313149783467906,0.09705279702197278,28.07457030097246,-108.28669110388756,80.21211738781929
2024-09-23 15:12:26.577086,42.02,30.592892,-0.0030344509719951677,-0.02303200030545576,0.09720203344245934,28.07457030097246,-108.28669110388756,84.22370748782159
2024-09-23 15:12:26.589243,42.02,30.592892,-0.0030344509719951677,-0.02303200030545576,0.09720203344245934,36.09446859390736,-108.28669110388756,84.22370748782159
2024-09-23 15:12:26.621030,42.02,30.592892,-0.0030344509719951677,-0.02303200030545576,0.09720203344245934,36.09446859390736,-100.26678939585686,84.22370748782159
2024-09-23 15:12:26.633440,42.02,30.592943,-0.0034324103296106863,-0.022733528983459317,0.0976994861521123,36.09446859390736,-100.26678939585686,84.22370748782159
2024-09-23 15:12:26.677071,42.02,30.592994,-0.0034324103296106863,-0.0228827638849692,0.0976994861521123,36.09446859390736,-100.26678939585686,84.22370748782159
2024-09-23 15:12:26.719070,42.02,30.592994,-0.0034324103296106863,-0.0228827638849692,0.09755024973162574,48.12595698684454,-100.26678939585686,84.22370748782159
2024-09-23 15:12:26.730151,42.02,30.593044,-0.0035318979854855937,-0.0228827638849692,0.09755024973162574,48.12595698684454,-100.26678939585686,76.200527287817
2024-09-23 15:12:26.772551,42.02,30.593134,-0.0035318979854855937,-0.023728432883788564,0.09720203344245934,40.106058693909645,-104.27510100388527,76.200527287817
2024-09-23 15:12:26.815208,42.02,30.593134,-0.0029349636958644295,-0.023479709566915436,0.09720203344245934,40.106058693909645,-104.27510100388527,76.200527287817
2024-09-23 15:12:26.826745,42.02,30.593134,-0.0029349636958644295,-0.023479709566915436,0.09745075675933246,36.09446859390736,-96.25519929585457,80.21211738781929
2024-09-23 15:12:26.869734,42.02,30.593186,-0.0032831742888682963,-0.023280723622328886,0.09665483728461309,28.07457030097246,-96.25519929585457,80.21211738781929
2024-09-23 15:12:26.881380,42.02,30.593186,-0.0032831742888682963,-0.023280723622328886,0.09665483728461309,28.07457030097246,-100.26678939585686,80.21211738781929
2024-09-23 15:12:26.913427,42.02,30.593237,-0.0032831742888682963,-0.023280723622328886,0.09665483728461309,28.07457030097246,-100.26678939585686,80.21211738781929
2024-09-23 15:12:26.924918,42.02,30.593237,-0.0038303700669703737,-0.023479709566915436,0.09680407370509965,40.106058693909645,-100.26678939585686,80.21211738781929
2024-09-23 15:12:26.967773,42.02,30.593287,-0.0030344509719951677,-0.023280723622328886,0.09680407370509965,40.106058693909645,-100.26678939585686,80.21211738781929
2024-09-23 15:12:27.010600,42.02,30.593287,-0.0030344509719951677,-0.023280723622328886,0.09680407370509965,36.09446859390736,-100.26678939585686,80.21211738781929
2024-09-23 15:12:27.022378,42.02,30.593338,-0.0030841997366068195,-0.02303200030545576,0.09680407370509965,36.09446859390736,-100.26678939585686,84.22370748782159
2024-09-23 15:12:27.064859,42.02,30.593389,-0.0030841997366068195,-0.02303200030545576,0.0973512698629459,36.09446859390736,-96.25519929585457,80.21211738781929
2024-09-23 15:12:27.076635,42.02,30.593389,-0.0026862297461545674,-0.02303200030545576,0.0973512698629459,36.09446859390736,-96.25519929585457,80.21211738781929
2024-09-23 15:12:27.108355,42.02,30.593389,-0.0026862297461545674,-0.0228827638849692,0.09740101331113918,36.09446859390736,-96.25519929585457,80.21211738781929
2024-09-23 15:12:27.119532,42.02,30.593476,-0.0026862297461545674,-0.0228827638849692,0.09740101331113918,40.106058693909645,-100.26678939585686,80.21211738781929
2024-09-23 15:12:27.163046,42.02,30.593476,-0.0030841997366068195,-0.023330473146428877,0.09690356060148622,36.09446859390736,-96.25519929585457,80.21211738781929
2024-09-23 15:12:27.174438,42.02,30.593476,-0.0030841997366068195,-0.023330473146428877,0.09690356060148622,36.09446859390736,-96.25519929585457,76.200527287817
2024-09-23 15:12:27.207069,42.02,30.593527,-0.0031836870127375577,-0.02278327698858263,0.09690356060148622,36.09446859390736,-96.25519929585457,76.200527287817
2024-09-23 15:12:27.218143,42.02,30.593527,-0.0031836870127375577,-0.02278327698858263,0.09740101331113918,32.08287849390507,-108.28669110388756,76.200527287817
2024-09-23 15:12:27.260245,42.02,30.593578,-0.0030344509719951677,-0.02338022115155219,0.09665483728461309,32.08287849390507,-108.28669110388756,76.200527287817
2024-09-23 15:12:27.277154,42.02,30.593578,-0.0030344509719951677,-0.02338022115155219,0.09665483728461309,36.09446859390736,-108.28669110388756,76.200527287817
2024-09-23 15:12:27.310588,42.02,30.593629,-0.003233425524256645,-0.0228827638849692,0.0973512698629459,36.09446859390736,-108.28669110388756,80.21211738781929
2024-09-23 15:12:27.354408,42.02,30.593629,-0.003233425524256645,-0.0228827638849692,0.0973512698629459,40.106058693909645,-100.26678939585686,80.21211738781929
2024-09-23 15:12:27.365377,42.02,30.593679,-0.0033329230534799477,-0.02352945757203875,0.0973512698629459,40.106058693909645,-100.26678939585686,80.21211738781929
2024-09-23 15:12:27.408989,42.29,30.59373,-0.0034324103296106863,-0.02352945757203875,0.09690356060148622,28.07457030097246,-100.26678939585686,84.22370748782159
2024-09-23 15:12:27.452090,42.29,30.59373,-0.0034324103296106863,-0.02278327698858263,0.09690356060148622,40.106058693909645,-92.24360919585227,84.22370748782159
2024-09-23 15:12:27.463680,42.29,30.593817,-0.0034324103296106863,-0.02278327698858263,0.09690356060148622,40.106058693909645,-92.24360919585227,76.200527287817
2024-09-23 15:12:27.506369,42.29,30.593817,-0.0032831742888682963,-0.02293251340906919,0.09690356060148622,40.106058693909645,-92.24360919585227,80.21211738781929
2024-09-23 15:12:27.549669,42.29,30.593868,-0.002387757474797703,-0.02308174982955575,0.09725178296655933,40.106058693909645,-92.24360919585227,80.21211738781929
2024-09-23 15:12:27.561237,42.29,30.593868,-0.002387757474797703,-0.02308174982955575,0.09725178296655933,40.106058693909645,-96.25519929585457,80.21211738781929
2024-09-23 15:12:27.603994,42.29,30.593919,-0.0033329230534799477,-0.023181236725942318,0.09690356060148622,36.09446859390736,-96.25519929585457,76.200527287817
2024-09-23 15:12:27.646663,42.29,30.59397,-0.0033329230534799477,-0.023181236725942318,0.09690356060148622,36.09446859390736,-100.26678939585686,84.22370748782159
2024-09-23 15:12:27.658768,42.29,30.59397,-0.0033329230534799477,-0.023181236725942318,0.0970030596496862,36.09446859390736,-100.26678939585686,84.22370748782159
2024-09-23 15:12:27.691506,42.29,30.59397,-0.0033329230534799477,-0.023181236725942318,0.0970030596496862,28.07457030097246,-100.26678939585686,84.22370748782159
2024-09-23 15:12:27.703450,42.29,30.59402,-0.0026862297461545674,-0.023230986250042305,0.0970030596496862,28.07457030097246,-100.26678939585686,76.200527287817
2024-09-23 15:12:27.745606,42.29,30.59402,-0.0026862297461545674,-0.023230986250042305,0.09764974270391902,32.08287849390507,-104.27510100388527,80.21211738781929
2024-09-23 15:12:27.757167,42.29,30.594071,-0.003233425524256645,-0.023230986250042305,0.09764974270391902,32.08287849390507,-104.27510100388527,80.21211738781929
2024-09-23 15:12:27.790014,42.29,30.594071,-0.003233425524256645,-0.023230986250042305,0.09764974270391902,32.08287849390507,-104.27510100388527,80.21211738781929
2024-09-23 15:12:27.801165,42.29,30.594158,-0.003233425524256645,-0.023230986250042305,0.09710254654607277,36.09446859390736,-104.27510100388527,76.200527287817
2024-09-23 15:12:27.843840,42.29,30.594158,-0.0031339382481259063,-0.023330473146428877,0.09675432418099966,40.106058693909645,-104.27510100388527,76.200527287817
2024-09-23 15:12:27.855256,42.29,30.594158,-0.0031339382481259063,-0.023330473146428877,0.09675432418099966,40.106058693909645,-104.27510100388527,76.200527287817
2024-09-23 15:12:27.888558,42.29,30.59421,-0.003482159473966507,-0.023330473146428877,0.09675432418099966,40.106058693909645,-104.27510100388527,76.200527287817
2024-09-23 15:12:27.900527,42.29,30.59421,-0.003482159473966507,-0.023330473146428877,0.09695331012558621,36.09446859390736,-100.26678939585686,76.200527287817
2024-09-23 15:12:27.943874,42.29,30.59426,-0.0034324103296106863,-0.02308174982955575,0.09715228999426605,40.106058693909645,-100.26678939585686,76.200527287817
2024-09-23 15:12:27.987324,42.29,30.594311,-0.0034324103296106863,-0.02308174982955575,0.09715228999426605,40.106058693909645,-84.22370748782159,92.24360919585227
2024-09-23 15:12:27.998795,42.29,30.594311,-0.0038303700669703737,-0.023579196463302005,0.0973512698629459,40.106058693909645,-84.22370748782159,92.24360919585227
2024-09-23 15:12:28.041690,42.29,30.594362,-0.0034324103296106863,-0.0228827638849692,0.0973512698629459,36.09446859390736,-96.25519929585457,84.22370748782159
2024-09-23 15:12:28.084298,42.29,30.594362,-0.0034324103296106863,-0.0228827638849692,0.0973015264147526,44.11764879391193,-100.26678939585686,84.22370748782159
2024-09-23 15:12:28.095404,42.29,30.594412,-0.0034324103296106863,-0.0228827638849692,0.0973015264147526,44.11764879391193,-100.26678939585686,80.21211738781929
2024-09-23 15:12:28.138008,42.29,30.594499,-0.0034324103296106863,-0.022982261414192504,0.09675432418099966,40.106058693909645,-92.24360919585227,84.22370748782159
2024-09-23 15:12:28.180840,42.29,30.594499,-0.0028852147413806935,-0.022733528983459317,0.09675432418099966,40.106058693909645,-92.24360919585227,84.22370748782159
2024-09-23 15:12:28.191763,42.29,30.594499,-0.0028852147413806935,-0.022733528983459317,0.09665483728461309,44.11764879391193,-88.23529758782387,84.22370748782159
2024-09-23 15:12:28.234633,42.29,30.594552,-0.0032831742888682963,-0.02303200030545576,0.09695331012558621,44.11764879391193,-88.23529758782387,84.22370748782159
2024-09-23 15:12:28.246158,42.29,30.594552,-0.0032831742888682963,-0.02303200030545576,0.09695331012558621,36.09446859390736,-88.23529758782387,84.22370748782159
2024-09-23 15:12:28.278257,42.29,30.594552,-0.0032831742888682963,-0.02303200030545576,0.09695331012558621,36.09446859390736,-96.25519929585457,84.22370748782159
2024-09-23 15:12:28.289339,42.29,30.594602,-0.0032831742888682963,-0.023230986250042305,0.09685382322919964,36.09446859390736,-96.25519929585457,84.22370748782159
2024-09-23 15:12:28.332087,42.29,30.594653,-0.003233425524256645,-0.023230986250042305,0.09685382322919964,36.09446859390736,-100.26678939585686,84.22370748782159
2024-09-23 15:12:28.343751,42.29,30.594653,-0.003233425524256645,-0.02308174982955575,0.09685382322919964,36.09446859390736,-100.26678939585686,84.22370748782159
2024-09-23 15:12:28.376195,42.29,30.594653,-0.003233425524256645,-0.02308174982955575,0.09645586349183995,32.08287849390507,-100.26678939585686,84.22370748782159
2024-09-23 15:12:28.387827,42.29,30.594704,-0.0033329230534799477,-0.02308174982955575,0.09645586349183995,32.08287849390507,-96.25519929585457,80.21211738781929
2024-09-23 15:12:28.430551,42.56,30.594792,-0.0033329230534799477,-0.02303200030545576,0.09745075675933246,32.08287849390507,-92.24360919585227,80.21211738781929
2024-09-23 15:12:28.472790,42.56,30.594792,-0.0033329230534799477,-0.02268379009219606,0.09745075675933246,32.08287849390507,-92.24360919585227,80.21211738781929
2024-09-23 15:12:28.484312,42.56,30.594792,-0.0033329230534799477,-0.02268379009219606,0.09710254654607277,36.09446859390736,-92.24360919585227,84.22370748782159
2024-09-23 15:12:28.527043,42.56,30.594843,-0.003631395514708897,-0.023181236725942318,0.09725178296655933,36.09446859390736,-92.24360919585227,84.22370748782159
2024-09-23 15:12:28.539063,42.56,30.594843,-0.003631395514708897,-0.023181236725942318,0.09725178296655933,36.09446859390736,-96.25519929585457,84.22370748782159
2024-09-23 15:12:28.570929,42.56,30.594894,-0.003631395514708897,-0.023181236725942318,0.09725178296655933,36.09446859390736,-96.25519929585457,80.21211738781929
2024-09-23 15:12:28.582147,42.56,30.594894,-0.0032831742888682963,-0.02338022115155219,0.09720203344245934,40.106058693909645,-96.25519929585457,80.21211738781929
2024-09-23 15:12:28.624059,42.56,30.594945,-0.0036811340262279837,-0.023181236725942318,0.09720203344245934,40.106058693909645,-92.24360919585227,80.21211738781929
2024-09-23 15:12:28.636122,42.56,30.594945,-0.0036811340262279837,-0.023181236725942318,0.09705279702197278,40.106058693909645,-92.24360919585227,80.21211738781929
2024-09-23 15:12:28.669890,42.56,30.594945,-0.0036811340262279837,-0.023181236725942318,0.09705279702197278,32.08287849390507,-92.24360919585227,84.22370748782159
2024-09-23 15:12:28.682254,42.56,30.594995,-0.0029349636958644295,-0.02352945757203875,0.09705279702197278,32.08287849390507,-92.24360919585227,84.22370748782159
2024-09-23 15:12:28.724926,42.56,30.595046,-0.003382661564999035,-0.02352945757203875,0.09685382322919964,36.09446859390736,-100.26678939585686,76.200527287817
2024-09-23 15:12:28.768250,42.56,30.595046,-0.003382661564999035,-0.02308174982955575,0.09774922960030558,44.11764879391193,-88.23529758782387,76.200527287817
2024-09-23 15:12:28.780047,42.56,30.595133,-0.003382661564999035,-0.02308174982955575,0.09774922960030558,44.11764879391193,-88.23529758782387,80.21211738781929
2024-09-23 15:12:28.812141,42.56,30.595133,-0.003382661564999035,-0.02308174982955575,0.09774922960030558,44.11764879391193,-88.23529758782387,80.21211738781929
2024-09-23 15:12:28.823431,42.56,30.595133,-0.003382661564999035,-0.023479709566915436,0.09740101331113918,44.11764879391193,-100.26678939585686,80.21211738781929
2024-09-23 15:12:28.865840,42.56,30.595185,-0.0029847020175114316,-0.02293251340906919,0.09685382322919964,44.11764879391193,-100.26678939585686,80.21211738781929
2024-09-23 15:12:28.877439,42.56,30.595185,-0.0029847020175114316,-0.02293251340906919,0.09685382322919964,36.09446859390736,-108.28669110388756,80.21211738781929
2024-09-23 15:12:28.909933,42.56,30.595185,-0.0029847020175114316,-0.02293251340906919,0.09685382322919964,36.09446859390736,-108.28669110388756,72.1922225099802
2024-09-23 15:12:28.921041,42.56,30.595235,-0.0034324103296106863,-0.02308174982955575,0.09670458680871308,28.07457030097246,-108.28669110388756,72.1922225099802
2024-09-23 15:12:28.963814,42.56,30.595286,-0.0033329230534799477,-0.02308174982955575,0.09670458680871308,28.07457030097246,-96.25519929585457,80.21211738781929
2024-09-23 15:12:28.975650,42.56,30.595286,-0.0033329230534799477,-0.0228827638849692,0.09745075675933246,28.07457030097246,-96.25519929585457,80.21211738781929
2024-09-23 15:12:29.008801,42.56,30.595286,-0.0033329230534799477,-0.0228827638849692,0.09745075675933246,32.08287849390507,-96.25519929585457,80.21211738781929
2024-09-23 15:12:29.020027,42.56,30.595337,-0.0030841997366068195,-0.022982261414192504,0.09745075675933246,32.08287849390507,-100.26678939585686,84.22370748782159
2024-09-23 15:12:29.062196,42.56,30.595337,-0.0030841997366068195,-0.022982261414192504,0.0970030596496862,40.106058693909645,-96.25519929585457,80.21211738781929
2024-09-23 15:12:29.073572,42.56,30.595387,-0.003482159473966507,-0.022982261414192504,0.0970030596496862,40.106058693909645,-96.25519929585457,80.21211738781929
2024-09-23 15:12:29.105988,42.56,30.595387,-0.003482159473966507,-0.02313149783467906,0.0970030596496862,40.106058693909645,-96.25519929585457,80.21211738781929
2024-09-23 15:12:29.117592,42.56,30.595474,-0.003482159473966507,-0.02313149783467906,0.09794820946898543,40.106058693909645,-100.26678939585686,80.21211738781929
2024-09-23 15:12:29.161026,42.56,30.595474,-0.003382661564999035,-0.02367869399252531,0.0973512698629459,28.07457030097246,-104.27510100388527,80.21211738781929
2024-09-23 15:12:29.172881,42.56,30.595474,-0.003382661564999035,-0.02367869399252531,0.0973512698629459,28.07457030097246,-104.27510100388527,84.22370748782159
2024-09-23 15:12:29.205368,42.56,30.595526,-0.0031836870127375577,-0.023479709566915436,0.0973512698629459,28.07457030097246,-104.27510100388527,84.22370748782159
2024-09-23 15:12:29.216481,42.56,30.595526,-0.0031836870127375577,-0.023479709566915436,0.09690356060148622,40.106058693909645,-96.25519929585457,84.22370748782159
2024-09-23 15:12:29.259380,42.56,30.595577,-0.003382661564999035,-0.023429960042815445,0.09740101331113918,32.08287849390507,-96.25519929585457,80.21211738781929
2024-09-23 15:12:29.302415,42.56,30.595577,-0.003382661564999035,-0.023429960042815445,0.09740101331113918,32.08287849390507,-96.25519929585457,80.21211738781929
2024-09-23 15:12:29.314143,42.56,30.595627,-0.0028354659767690416,-0.023230986250042305,0.0973015264147526,32.08287849390507,-96.25519929585457,80.21211738781929
2024-09-23 15:12:29.356790,42.56,30.595678,-0.0036811340262279837,-0.023230986250042305,0.0973015264147526,32.08287849390507,-100.26678939585686,72.1922225099802
2024-09-23 15:12:29.368777,42.56,30.595678,-0.0036811340262279837,-0.02362894446842532,0.0973015264147526,32.08287849390507,-100.26678939585686,72.1922225099802
2024-09-23 15:12:29.401081,42.56,30.595678,-0.0036811340262279837,-0.02362894446842532,0.09680407370509965,36.09446859390736,-96.25519929585457,72.1922225099802
2024-09-23 15:12:29.412953,42.56,30.595729,-0.0037308827908396356,-0.02362894446842532,0.09680407370509965,36.09446859390736,-96.25519929585457,80.21211738781929
2024-09-23 15:12:29.455035,42.85,30.595816,-0.0037308827908396356,-0.023230986250042305,0.09764974270391902,40.106058693909645,-92.24360919585227,80.21211738781929
2024-09-23 15:12:29.498348,42.85,30.595816,-0.0032831742888682963,-0.02308174982955575,0.09680407370509965,40.106058693909645,-92.24360919585227,80.21211738781929
2024-09-23 15:12:29.510370,42.85,30.595816,-0.0032831742888682963,-0.02308174982955575,0.09680407370509965,44.11764879391193,-100.26678939585686,76.200527287817
2024-09-23 15:12:29.553316,42.85,30.595867,-0.0029349636958644295,-0.023778180888911878,0.09740101331113918,40.106058693909645,-104.27510100388527,76.200527287817
2024-09-23 15:12:29.596059,42.85,30.595918,-0.003233425524256645,-0.023778180888911878,0.09740101331113918,40.106058693909645,-104.27510100388527,76.200527287817
2024-09-23 15:12:29.608029,42.85,30.595918,-0.003233425524256645,-0.023280723622328886,0.09789846602079214,40.106058693909645,-104.27510100388527,76.200527287817
2024-09-23 15:12:29.651298,42.85,30.595968,-0.0030344509719951677,-0.023280723622328886,0.0973512698629459,40.106058693909645,-104.27510100388527,80.21211738781929
2024-09-23 15:12:29.693426,42.85,30.595968,-0.0030344509719951677,-0.023280723622328886,0.0973512698629459,36.09446859390736,-104.27510100388527,80.21211738781929
2024-09-23 15:12:29.704577,42.85,30.596019,-0.003631395514708897,-0.023827930413011865,0.0973512698629459,36.09446859390736,-104.27510100388527,80.21211738781929
2024-09-23 15:12:29.746697,42.85,30.59607,-0.003382661564999035,-0.023827930413011865,0.09750050628343246,44.11764879391193,-104.27510100388527,80.21211738781929
2024-09-23 15:12:29.789858,42.85,30.59607,-0.003382661564999035,-0.023330473146428877,0.0970030596496862,44.11764879391193,-104.27510100388527,80.21211738781929
2024-09-23 15:12:29.800869,42.85,30.596157,-0.003382661564999035,-0.023330473146428877,0.0970030596496862,32.08287849390507,-88.23529758782387,80.21211738781929
2024-09-23 15:12:29.843357,42.85,30.596157,-0.0024872551938930902,-0.02313149783467906,0.09720203344245934,36.09446859390736,-96.25519929585457,80.21211738781929
2024-09-23 15:12:29.855437,42.85,30.596157,-0.0024872551938930902,-0.02313149783467906,0.09720203344245934,36.09446859390736,-96.25519929585457,80.21211738781929
2024-09-23 15:12:29.889229,42.85,30.596209,-0.0030841997366068195,-0.022982261414192504,0.09720203344245934,36.09446859390736,-96.25519929585457,80.21211738781929
2024-09-23 15:12:29.900519,42.85,30.596209,-0.0030841997366068195,-0.022982261414192504,0.09740101331113918,48.12595698684454,-96.25519929585457,80.21211738781929
2024-09-23 15:12:29.943490,42.85,30.59626,-0.0027359787006383035,-0.023230986250042305,0.09710254654607277,36.09446859390736,-96.25519929585457,80.21211738781929
2024-09-23 15:12:29.986470,42.85,30.59631,-0.0028852147413806935,-0.023230986250042305,0.09710254654607277,36.09446859390736,-96.25519929585457,84.22370748782159
2024-09-23 15:12:29.998123,42.85,30.59631,-0.0028852147413806935,-0.02303200030545576,0.09665483728461309,36.09446859390736,-96.25519929585457,84.22370748782159
2024-09-23 15:12:30.041941,42.85,30.596361,-0.0029349636958644295,-0.02367869399252531,0.09665483728461309,36.09446859390736,-92.24360919585227,80.21211738781929
2024-09-23 15:12:30.084063,42.85,30.596361,-0.0029349636958644295,-0.02367869399252531,0.09740101331113918,44.11764879391193,-92.24360919585227,80.21211738781929
2024-09-23 15:12:30.095181,42.85,30.596412,-0.0032831742888682963,-0.02367869399252531,0.09740101331113918,44.11764879391193,-92.24360919585227,80.21211738781929
2024-09-23 15:12:30.139038,42.85,30.596498,-0.0032831742888682963,-0.023579196463302005,0.0973512698629459,28.07457030097246,-100.26678939585686,76.200527287817
2024-09-23 15:12:30.181614,42.85,30.596498,-0.0033329230534799477,-0.023429960042815445,0.09710254654607277,28.07457030097246,-100.26678939585686,76.200527287817
2024-09-23 15:12:30.193350,42.85,30.596498,-0.0033329230534799477,-0.023429960042815445,0.09710254654607277,36.09446859390736,-100.26678939585686,76.200527287817
2024-09-23 15:12:30.277977,42.85,30.596498,-0.0033329230534799477,-0.023429960042815445,0.09710254654607277,36.09446859390736,-100.26678939585686,80.21211738781929
2024-09-23 15:12:30.289325,42.85,30.59655,-0.0032831742888682963,-0.023479709566915436,0.09725178296655933,36.09446859390736,-100.26678939585686,80.21211738781929
2024-09-23 15:12:30.332910,42.85,30.5966,-0.0031836870127375577,-0.02278327698858263,0.09725178296655933,36.09446859390736,-100.26678939585686,72.1922225099802
2024-09-23 15:12:30.376142,42.85,30.5966,-0.0031836870127375577,-0.02278327698858263,0.09695331012558621,32.08287849390507,-100.26678939585686,72.1922225099802
2024-09-23 15:12:30.387584,42.85,30.596651,-0.0033329230534799477,-0.02278327698858263,0.09695331012558621,32.08287849390507,-100.26678939585686,80.21211738781929
2024-09-23 15:12:30.430995,42.85,30.596702,-0.0033329230534799477,-0.022833026512682618,0.09685382322919964,32.08287849390507,-100.26678939585686,80.21211738781929
2024-09-23 15:12:30.473139,42.21,30.596702,-0.003631395514708897,-0.023479709566915436,0.09685382322919964,32.08287849390507,-100.26678939585686,80.21211738781929
2024-09-23 15:12:30.484609,42.21,30.596702,-0.003631395514708897,-0.023479709566915436,0.09710254654607277,36.09446859390736,-108.28669110388756,84.22370748782159
2024-09-23 15:12:30.526777,42.21,30.59684,-0.0028354659767690416,-0.02362894446842532,0.0973015264147526,36.09446859390736,-92.24360919585227,84.22370748782159
2024-09-23 15:12:30.570538,42.21,30.596891,-0.003382661564999035,-0.02362894446842532,0.0973015264147526,36.09446859390736,-92.24360919585227,84.22370748782159
2024-09-23 15:12:30.581701,42.21,30.596891,-0.003382661564999035,-0.023728432883788564,0.09675432418099966,28.07457030097246,-92.24360919585227,84.22370748782159
2024-09-23 15:12:30.624275,42.21,30.596942,-0.0031339382481259063,-0.02238531725122294,0.09630662707135339,28.07457030097246,-88.23529758782387,84.22370748782159
2024-09-23 15:12:30.666893,42.21,30.596942,-0.0031339382481259063,-0.02238531725122294,0.09630662707135339,36.09446859390736,-96.25519929585457,84.22370748782159
2024-09-23 15:12:30.679035,42.21,30.596993,-0.0033329230534799477,-0.022982261414192504,0.09630662707135339,36.09446859390736,-96.25519929585457,84.22370748782159
2024-09-23 15:12:30.722110,42.21,30.597043,-0.0033329230534799477,-0.022982261414192504,0.09750050628343246,32.08287849390507,-100.26678939585686,84.22370748782159
2024-09-23 15:12:30.733476,42.21,30.597043,-0.0033329230534799477,-0.022982261414192504,0.09750050628343246,32.08287849390507,-100.26678939585686,84.22370748782159
2024-09-23 15:12:30.765875,42.21,30.597043,-0.0033329230534799477,-0.02352945757203875,0.09695331012558621,36.09446859390736,-100.26678939585686,84.22370748782159
2024-09-23 15:12:30.777603,42.21,30.597132,-0.0033329230534799477,-0.02352945757203875,0.09695331012558621,36.09446859390736,-100.26678939585686,80.21211738781929
2024-09-23 15:12:30.821140,42.21,30.597132,-0.0038801188315820256,-0.02338022115155219,0.09750050628343246,36.09446859390736,-96.25519929585457,84.22370748782159
2024-09-23 15:12:30.862822,42.21,30.597183,-0.0033329230534799477,-0.022982261414192504,0.09750050628343246,36.09446859390736,-96.25519929585457,84.22370748782159
2024-09-23 15:12:30.874659,42.21,30.597183,-0.0033329230534799477,-0.022982261414192504,0.09705279702197278,32.08287849390507,-100.26678939585686,84.22370748782159
2024-09-23 15:12:30.916627,42.21,30.597234,-0.0033329230534799477,-0.022982261414192504,0.09705279702197278,32.08287849390507,-100.26678939585686,80.21211738781929
2024-09-23 15:12:30.959721,42.21,30.597234,-0.0033329230534799477,-0.022982261414192504,0.09705279702197278,32.08287849390507,-100.26678939585686,80.21211738781929
2024-09-23 15:12:30.971628,42.21,30.597285,-0.0028354659767690416,-0.02352945757203875,0.09740101331113918,32.08287849390507,-100.26678939585686,80.21211738781929
2024-09-23 15:12:31.014745,42.21,30.597335,-0.0028354659767690416,-0.022982261414192504,0.09740101331113918,32.08287849390507,-100.26678939585686,84.22370748782159
2024-09-23 15:12:31.057001,42.21,30.597335,-0.0028354659767690416,-0.022982261414192504,0.09740101331113918,40.106058693909645,-100.26678939585686,84.22370748782159
2024-09-23 15:12:31.069103,42.21,30.597386,-0.0030841997366068195,-0.022982261414192504,0.09740101331113918,40.106058693909645,-96.25519929585457,80.21211738781929
2024-09-23 15:12:31.112531,42.21,30.597473,-0.0030841997366068195,-0.02352945757203875,0.0970030596496862,36.09446859390736,-96.25519929585457,84.22370748782159
2024-09-23 15:12:31.154687,42.21,30.597473,-0.0031836870127375577,-0.0228827638849692,0.0970030596496862,36.09446859390736,-96.25519929585457,84.22370748782159
2024-09-23 15:12:31.165886,42.21,30.597473,-0.0031836870127375577,-0.0228827638849692,0.09665483728461309,32.08287849390507,-100.26678939585686,76.200527287817
2024-09-23 15:12:31.210009,42.21,30.597525,-0.0032831742888682963,-0.022982261414192504,0.09740101331113918,40.106058693909645,-96.25519929585457,76.200527287817
2024-09-23 15:12:31.253661,42.21,30.597575,-0.0030841997366068195,-0.022982261414192504,0.09740101331113918,40.106058693909645,-96.25519929585457,76.200527287817
2024-09-23 15:12:31.265136,42.21,30.597575,-0.0030841997366068195,-0.02278327698858263,0.09755024973162574,36.09446859390736,-96.25519929585457,76.200527287817
2024-09-23 15:12:31.307956,42.21,30.597626,-0.0033329230534799477,-0.02308174982955575,0.0970030596496862,36.09446859390736,-104.27510100388527,72.1922225099802
2024-09-23 15:12:31.350350,42.21,30.597626,-0.0033329230534799477,-0.02308174982955575,0.0970030596496862,32.08287849390507,-104.27510100388527,80.21211738781929
2024-09-23 15:12:31.361305,42.21,30.597677,-0.003631395514708897,-0.02338022115155219,0.0970030596496862,32.08287849390507,-104.27510100388527,80.21211738781929
2024-09-23 15:12:31.404129,42.21,30.597727,-0.0034324103296106863,-0.02338022115155219,0.0973512698629459,32.08287849390507,-100.26678939585686,88.23529758782387
2024-09-23 15:12:31.446687,42.21,30.597727,-0.0034324103296106863,-0.02278327698858263,0.09720203344245934,32.08287849390507,-100.26678939585686,88.23529758782387
2024-09-23 15:12:31.458258,42.21,30.597814,-0.0034324103296106863,-0.02278327698858263,0.09720203344245934,40.106058693909645,-108.28669110388756,76.200527287817
2024-09-23 15:12:31.500626,41.7,30.597814,-0.0028852147413806935,-0.022982261414192504,0.09690356060148622,40.106058693909645,-108.28669110388756,76.200527287817
2024-09-23 15:12:31.543766,41.7,30.597814,-0.0028852147413806935,-0.022982261414192504,0.09690356060148622,36.09446859390736,-100.26678939585686,76.200527287817
2024-09-23 15:12:31.555491,41.7,30.597814,-0.0028852147413806935,-0.022982261414192504,0.09690356060148622,36.09446859390736,-100.26678939585686,76.200527287817
2024-09-23 15:12:31.598401,41.7,30.597866,-0.0034324103296106863,-0.0225345536717095,0.09745075675933246,40.106058693909645,-100.26678939585686,76.200527287817
2024-09-23 15:12:31.610231,41.7,30.597866,-0.0034324103296106863,-0.0225345536717095,0.09745075675933246,40.106058693909645,-100.26678939585686,76.200527287817
2024-09-23 15:12:31.642371,41.7,30.597917,-0.0034324103296106863,-0.0225345536717095,0.09745075675933246,40.106058693909645,-100.26678939585686,80.21211738781929
2024-09-23 15:12:31.654284,41.7,30.597917,-0.0034324103296106863,-0.02293251340906919,0.09710254654607277,36.09446859390736,-100.26678939585686,80.21211738781929
2024-09-23 15:12:31.696682,41.7,30.597968,-0.003631395514708897,-0.02308174982955575,0.0973512698629459,36.09446859390736,-100.26678939585686,80.21211738781929
2024-09-23 15:12:31.739235,41.7,30.597968,-0.003631395514708897,-0.02308174982955575,0.0973512698629459,32.08287849390507,-88.23529758782387,80.21211738781929
2024-09-23 15:12:31.750614,41.7,30.598019,-0.003929857343101113,-0.02268379009219606,0.0973512698629459,32.08287849390507,-88.23529758782387,80.21211738781929
2024-09-23 15:12:31.793282,41.7,30.598108,-0.003929857343101113,-0.02268379009219606,0.09695331012558621,32.08287849390507,-96.25519929585457,80.21211738781929
2024-09-23 15:12:31.805290,41.7,30.598108,-0.0031836870127375577,-0.02268379009219606,0.09695331012558621,32.08287849390507,-96.25519929585457,80.21211738781929
2024-09-23 15:12:31.838502,41.7,30.598108,-0.0031836870127375577,-0.023479709566915436,0.09670458680871308,36.09446859390736,-96.25519929585457,80.21211738781929
2024-09-23 15:12:31.850067,41.7,30.598204,-0.0031836870127375577,-0.023479709566915436,0.09670458680871308,36.09446859390736,-100.26678939585686,76.200527287817
2024-09-23 15:12:31.892749,41.7,30.598204,-0.003233425524256645,-0.023330473146428877,0.09740101331113918,36.09446859390736,-104.27510100388527,80.21211738781929
2024-09-23 15:12:31.936141,41.7,30.598256,-0.0035318979854855937,-0.02268379009219606,0.09740101331113918,36.09446859390736,-104.27510100388527,80.21211738781929
2024-09-23 15:12:31.947775,41.7,30.598256,-0.0035318979854855937,-0.02268379009219606,0.0973015264147526,40.106058693909645,-104.27510100388527,80.21211738781929
2024-09-23 15:12:31.990311,41.7,30.598307,-0.002785727465249955,-0.02308174982955575,0.0966050877605131,40.106058693909645,-104.27510100388527,72.1922225099802
2024-09-23 15:12:32.032517,41.7,30.598357,-0.002785727465249955,-0.02308174982955575,0.0966050877605131,40.106058693909645,-104.27510100388527,76.200527287817
2024-09-23 15:12:32.044259,41.7,30.598357,-0.0029847020175114316,-0.02308174982955575,0.0966050877605131,40.106058693909645,-104.27510100388527,76.200527287817
2024-09-23 15:12:32.088288,41.7,30.598357,-0.0029847020175114316,-0.023429960042815445,0.0966050877605131,40.106058693909645,-104.27510100388527,76.200527287817
2024-09-23 15:12:32.131075,41.7,30.598357,-0.0029847020175114316,-0.023429960042815445,0.0973015264147526,44.11764879391193,-100.26678939585686,76.200527287817
2024-09-23 15:12:32.142598,41.7,30.598408,-0.0029847020175114316,-0.023429960042815445,0.0973015264147526,44.11764879391193,-100.26678939585686,80.21211738781929
2024-09-23 15:12:32.185340,41.7,30.598408,-0.0032831742888682963,-0.023330473146428877,0.0973015264147526,44.11764879391193,-96.25519929585457,80.21211738781929
2024-09-23 15:12:32.229077,41.7,30.598459,-0.003482159473966507,-0.023429960042815445,0.0973015264147526,44.11764879391193,-96.25519929585457,80.21211738781929
2024-09-23 15:12:32.240328,41.7,30.598459,-0.003482159473966507,-0.023429960042815445,0.09685382322919964,28.07457030097246,-100.26678939585686,80.21211738781929
2024-09-23 15:12:32.282360,41.7,30.598546,-0.0037308827908396356,-0.023479709566915436,0.09675432418099966,44.11764879391193,-100.26678939585686,80.21211738781929
2024-09-23 15:12:32.324447,41.7,30.598546,-0.0037308827908396356,-0.023479709566915436,0.09675432418099966,44.11764879391193,-96.25519929585457,76.200527287817
2024-09-23 15:12:32.335769,41.7,30.598598,-0.0031836870127375577,-0.0228827638849692,0.09650560086412653,44.11764879391193,-96.25519929585457,76.200527287817
2024-09-23 15:12:32.379055,41.7,30.598694,-0.0035318979854855937,-0.023230986250042305,0.09650560086412653,40.106058693909645,-96.25519929585457,80.21211738781929
2024-09-23 15:12:32.421989,41.7,30.598694,-0.0035318979854855937,-0.023230986250042305,0.09690356060148622,32.08287849390507,-96.25519929585457,80.21211738781929
2024-09-23 15:12:32.433746,41.7,30.598744,-0.0034324103296106863,-0.023230986250042305,0.09690356060148622,32.08287849390507,-96.25519929585457,80.21211738781929
2024-09-23 15:12:32.476622,41.7,30.598838,-0.0034324103296106863,-0.023330473146428877,0.09705279702197278,44.11764879391193,-96.25519929585457,84.22370748782159
2024-09-23 15:12:32.519431,41.24,30.598838,-0.0034324103296106863,-0.02362894446842532,0.09705279702197278,44.11764879391193,-96.25519929585457,84.22370748782159
2024-09-23 15:12:32.531318,41.24,30.598838,-0.0034324103296106863,-0.02362894446842532,0.09685382322919964,36.09446859390736,-100.26678939585686,84.22370748782159
2024-09-23 15:12:32.573067,41.24,30.59889,-0.0029847020175114316,-0.022833026512682618,0.09745075675933246,40.106058693909645,-100.26678939585686,84.22370748782159
2024-09-23 15:12:32.585340,41.24,30.59889,-0.0029847020175114316,-0.022833026512682618,0.09745075675933246,40.106058693909645,-92.24360919585227,84.22370748782159
2024-09-23 15:12:32.617234,41.24,30.59894,-0.0029847020175114316,-0.022833026512682618,0.09745075675933246,40.106058693909645,-92.24360919585227,84.22370748782159
2024-09-23 15:12:32.628937,41.24,30.59894,-0.0035318979854855937,-0.023280723622328886,0.09655535038822652,36.09446859390736,-92.24360919585227,84.22370748782159
2024-09-23 15:12:32.671550,41.24,30.598991,-0.003929857343101113,-0.02313149783467906,0.09740101331113918,36.09446859390736,-96.25519929585457,80.21211738781929
2024-09-23 15:12:32.714473,41.24,30.598991,-0.003929857343101113,-0.02313149783467906,0.09740101331113918,40.106058693909645,-92.24360919585227,80.21211738781929
2024-09-23 15:12:32.726223,41.24,30.599042,-0.0031339382481259063,-0.02352945757203875,0.09740101331113918,40.106058693909645,-92.24360919585227,80.21211738781929
2024-09-23 15:12:32.770138,41.24,30.599092,-0.003631395514708897,-0.02352945757203875,0.09720203344245934,36.09446859390736,-100.26678939585686,76.200527287817
2024-09-23 15:12:32.812388,41.24,30.599092,-0.003631395514708897,-0.023181236725942318,0.09685382322919964,36.09446859390736,-100.26678939585686,76.200527287817
2024-09-23 15:12:32.864702,41.24,30.599179,-0.0031836870127375577,-0.023181236725942318,0.09685382322919964,32.08287849390507,-92.24360919585227,80.21211738781929
2024-09-23 15:12:32.876712,41.24,30.599179,-0.0031836870127375577,-0.0228827638849692,0.09685382322919964,32.08287849390507,-92.24360919585227,80.21211738781929
2024-09-23 15:12:32.910051,41.24,30.599179,-0.0031836870127375577,-0.0228827638849692,0.09710254654607277,44.11764879391193,-92.24360919585227,80.21211738781929
2024-09-23 15:12:32.921673,41.24,30.599231,-0.0033329230534799477,-0.0228827638849692,0.09710254654607277,44.11764879391193,-88.23529758782387,84.22370748782159
2024-09-23 15:12:32.963648,41.24,30.599231,-0.0033329230534799477,-0.02268379009219606,0.09680407370509965,32.08287849390507,-100.26678939585686,76.200527287817
2024-09-23 15:12:32.975164,41.24,30.599282,-0.0033329230534799477,-0.02268379009219606,0.09680407370509965,32.08287849390507,-100.26678939585686,76.200527287817
2024-09-23 15:12:33.008135,41.24,30.599282,-0.0034324103296106863,-0.023280723622328886,0.09710254654607277,32.08287849390507,-100.26678939585686,76.200527287817
2024-09-23 15:12:33.020275,41.24,30.599282,-0.0034324103296106863,-0.023280723622328886,0.09710254654607277,36.09446859390736,-100.26678939585686,80.21211738781929
2024-09-23 15:12:33.062484,41.24,30.599332,-0.0029847020175114316,-0.023479709566915436,0.0973015264147526,32.08287849390507,-104.27510100388527,80.21211738781929
2024-09-23 15:12:33.106318,41.24,30.599424,-0.0029847020175114316,-0.023479709566915436,0.0973015264147526,32.08287849390507,-104.27510100388527,76.200527287817
2024-09-23 15:12:33.118233,41.24,30.599424,-0.003382661564999035,-0.02313149783467906,0.09715228999426605,36.09446859390736,-104.27510100388527,76.200527287817
2024-09-23 15:12:33.161318,41.24,30.599475,-0.0031339382481259063,-0.02293251340906919,0.09774922960030558,36.09446859390736,-104.27510100388527,80.21211738781929
2024-09-23 15:12:33.203702,41.24,30.599475,-0.0031339382481259063,-0.02293251340906919,0.09774922960030558,44.11764879391193,-100.26678939585686,80.21211738781929
2024-09-23 15:12:33.214670,41.24,30.599526,-0.0028852147413806935,-0.022833026512682618,0.09774922960030558,44.11764879391193,-100.26678939585686,80.21211738781929
2024-09-23 15:12:33.257656,41.24,30.599577,-0.003382661564999035,-0.022833026512682618,0.0973015264147526,32.08287849390507,-104.27510100388527,88.23529758782387
2024-09-23 15:12:33.300437,41.24,30.599577,-0.003382661564999035,-0.023429960042815445,0.09680407370509965,32.08287849390507,-104.27510100388527,88.23529758782387
2024-09-23 15:12:33.312401,41.24,30.599667,-0.003382661564999035,-0.023429960042815445,0.09680407370509965,32.08287849390507,-96.25519929585457,76.200527287817
2024-09-23 15:12:33.355148,41.24,30.599667,-0.003780631555451287,-0.023330473146428877,0.09740101331113918,36.09446859390736,-100.26678939585686,76.200527287817
2024-09-23 15:12:33.398373,41.24,30.599718,-0.003382661564999035,-0.02352945757203875,0.09740101331113918,36.09446859390736,-100.26678939585686,76.200527287817
2024-09-23 15:12:33.409830,41.24,30.599718,-0.003382661564999035,-0.02352945757203875,0.09640611396773996,36.09446859390736,-92.24360919585227,76.200527287817
2024-09-23 15:12:33.453177,41.24,30.599718,-0.003382661564999035,-0.02352945757203875,0.09640611396773996,36.09446859390736,-92.24360919585227,80.21211738781929
2024-09-23 15:12:33.495317,41.24,30.599769,-0.003979606107712764,-0.023181236725942318,0.09640611396773996,36.09446859390736,-92.24360919585227,80.21211738781929
2024-09-23 15:12:33.506560,41.24,30.599769,-0.003979606107712764,-0.023181236725942318,0.09710254654607277,36.09446859390736,-92.24360919585227,80.21211738781929
2024-09-23 15:12:33.550154,41.58,30.59982,-0.0035318979854855937,-0.0228827638849692,0.0976994861521123,36.09446859390736,-92.24360919585227,80.21211738781929
2024-09-23 15:12:33.592026,41.58,30.59982,-0.0035318979854855937,-0.0228827638849692,0.0976994861521123,36.09446859390736,-96.25519929585457,72.1922225099802
2024-09-23 15:12:33.603093,41.58,30.59987,-0.0038303700669703737,-0.0228827638849692,0.09705279702197278,36.09446859390736,-96.25519929585457,72.1922225099802
2024-09-23 15:12:33.646228,41.58,30.599921,-0.0037308827908396356,-0.02313149783467906,0.09705279702197278,28.07457030097246,-100.26678939585686,80.21211738781929
2024-09-23 15:12:33.688864,41.58,30.599921,-0.0037308827908396356,-0.02313149783467906,0.09720203344245934,32.08287849390507,-100.26678939585686,80.21211738781929
2024-09-23 15:12:33.699906,41.58,30.600008,-0.003631395514708897,-0.02313149783467906,0.09720203344245934,32.08287849390507,-108.28669110388756,76.200527287817
2024-09-23 15:12:33.742392,41.58,30.600008,-0.003631395514708897,-0.022733528983459317,0.09745075675933246,36.09446859390736,-100.26678939585686,76.200527287817
2024-09-23 15:12:33.753897,41.58,30.600106,-0.003631395514708897,-0.022733528983459317,0.09745075675933246,36.09446859390736,-100.26678939585686,80.21211738781929
2024-09-23 15:12:33.787210,41.58,30.600106,-0.003233425524256645,-0.023579196463302005,0.09745075675933246,36.09446859390736,-100.26678939585686,80.21211738781929
2024-09-23 15:12:33.798230,41.58,30.600106,-0.003233425524256645,-0.023579196463302005,0.09764974270391902,32.08287849390507,-100.26678939585686,80.21211738781929
2024-09-23 15:12:33.840516,41.58,30.600157,-0.003780631555451287,-0.02278327698858263,0.09695331012558621,32.08287849390507,-100.26678939585686,80.21211738781929
2024-09-23 15:12:33.852309,41.58,30.600157,-0.003780631555451287,-0.02278327698858263,0.09695331012558621,36.09446859390736,-104.27510100388527,80.21211738781929
2024-09-23 15:12:33.885003,41.58,30.600208,-0.003780631555451287,-0.02278327698858263,0.09695331012558621,36.09446859390736,-104.27510100388527,76.200527287817
2024-09-23 15:12:33.896142,41.58,30.600208,-0.0031339382481259063,-0.02352945757203875,0.09774922960030558,36.09446859390736,-104.27510100388527,76.200527287817
2024-09-23 15:12:33.939256,41.58,30.600259,-0.0038303700669703737,-0.02303200030545576,0.09705279702197278,36.09446859390736,-108.28669110388756,84.22370748782159
2024-09-23 15:12:33.982217,41.58,30.600259,-0.0038303700669703737,-0.02303200030545576,0.09705279702197278,24.06297849342227,-108.28669110388756,84.22370748782159
2024-09-23 15:12:33.993411,41.58,30.600309,-0.003382661564999035,-0.023330473146428877,0.09705279702197278,24.06297849342227,-108.28669110388756,80.21211738781929
2024-09-23 15:12:34.036539,41.58,30.60036,-0.003382661564999035,-0.023330473146428877,0.09750050628343246,32.08287849390507,-92.24360919585227,80.21211738781929
2024-09-23 15:12:34.048568,41.58,30.60036,-0.0034324103296106863,-0.023330473146428877,0.09750050628343246,32.08287849390507,-92.24360919585227,80.21211738781929
2024-09-23 15:12:34.082452,41.58,30.60036,-0.0034324103296106863,-0.0228827638849692,0.09740101331113918,40.106058693909645,-92.24360919585227,80.21211738781929
2024-09-23 15:12:34.094784,41.58,30.60036,-0.0034324103296106863,-0.0228827638849692,0.09740101331113918,40.106058693909645,-96.25519929585457,80.21211738781929
2024-09-23 15:12:34.128027,41.58,30.600447,-0.0035816467500972456,-0.0228827638849692,0.09740101331113918,40.106058693909645,-96.25519929585457,80.21211738781929
2024-09-23 15:12:34.139341,41.58,30.600447,-0.0035816467500972456,-0.02313149783467906,0.09759999317981902,32.08287849390507,-92.24360919585227,80.21211738781929
2024-09-23 15:12:34.181100,41.58,30.600499,-0.003382661564999035,-0.0228827638849692,0.09705279702197278,32.08287849390507,-92.24360919585227,84.22370748782159
2024-09-23 15:12:34.192745,41.58,30.600499,-0.003382661564999035,-0.0228827638849692,0.09705279702197278,40.106058693909645,-92.24360919585227,84.22370748782159
2024-09-23 15:12:34.225865,41.58,30.600499,-0.003382661564999035,-0.0228827638849692,0.09705279702197278,40.106058693909645,-96.25519929585457,84.22370748782159
2024-09-23 15:12:34.236920,41.58,30.600549,-0.0030841997366068195,-0.02303200030545576,0.09750050628343246,40.106058693909645,-96.25519929585457,84.22370748782159
2024-09-23 15:12:34.279454,41.58,30.6006,-0.0030841997366068195,-0.02303200030545576,0.09750050628343246,36.09446859390736,-96.25519929585457,84.22370748782159
2024-09-23 15:12:34.291367,41.58,30.6006,-0.0033329230534799477,-0.02308174982955575,0.09750050628343246,36.09446859390736,-96.25519929585457,84.22370748782159
2024-09-23 15:12:34.323972,41.58,30.6006,-0.0033329230534799477,-0.02308174982955575,0.09685382322919964,40.106058693909645,-96.25519929585457,84.22370748782159
2024-09-23 15:12:34.336259,41.58,30.600651,-0.0028354659767690416,-0.02308174982955575,0.09685382322919964,40.106058693909645,-100.26678939585686,80.21211738781929
2024-09-23 15:12:34.378615,41.58,30.600651,-0.0028354659767690416,-0.02313149783467906,0.0973015264147526,36.09446859390736,-100.26678939585686,80.21211738781929
2024-09-23 15:12:34.390657,41.58,30.600739,-0.0028354659767690416,-0.02313149783467906,0.0973015264147526,36.09446859390736,-100.26678939585686,80.21211738781929
2024-09-23 15:12:34.422236,41.58,30.600739,-0.0031836870127375577,-0.02303200030545576,0.09740101331113918,36.09446859390736,-100.26678939585686,80.21211738781929
2024-09-23 15:12:34.433405,41.58,30.600739,-0.0031836870127375577,-0.02303200030545576,0.09740101331113918,40.106058693909645,-92.24360919585227,76.200527287817
2024-09-23 15:12:34.476732,41.58,30.600791,-0.0029847020175114316,-0.02338022115155219,0.0973015264147526,40.106058693909645,-96.25519929585457,76.200527287817
2024-09-23 15:12:34.519181,41.58,30.600842,-0.0032831742888682963,-0.02338022115155219,0.0973015264147526,40.106058693909645,-96.25519929585457,80.21211738781929
2024-09-23 15:12:34.530587,41.58,30.600842,-0.0032831742888682963,-0.02303200030545576,0.0970030596496862,36.09446859390736,-96.25519929585457,80.21211738781929
2024-09-23 15:12:34.573114,41.8,30.600892,-0.0033329230534799477,-0.02303200030545576,0.09750050628343246,36.09446859390736,-96.25519929585457,80.21211738781929
2024-09-23 15:12:34.616269,41.8,30.600892,-0.0033329230534799477,-0.02303200030545576,0.09750050628343246,40.106058693909645,-96.25519929585457,84.22370748782159
2024-09-23 15:12:34.627428,41.8,30.600943,-0.0029349636958644295,-0.02367869399252531,0.09750050628343246,40.106058693909645,-96.25519929585457,84.22370748782159
2024-09-23 15:12:34.670068,41.8,30.600994,-0.0028354659767690416,-0.02367869399252531,0.0973512698629459,36.09446859390736,-96.25519929585457,80.21211738781929
2024-09-23 15:12:34.712499,41.8,30.600994,-0.0028354659767690416,-0.02313149783467906,0.0973512698629459,36.09446859390736,-96.25519929585457,80.21211738781929
2024-09-23 15:12:34.723927,41.8,30.601081,-0.0028354659767690416,-0.02313149783467906,0.0970030596496862,36.09446859390736,-104.27510100388527,80.21211738781929
2024-09-23 15:12:34.766845,41.8,30.601081,-0.0034324103296106863,-0.02268379009219606,0.09710254654607277,32.08287849390507,-104.27510100388527,80.21211738781929
2024-09-23 15:12:34.778806,41.8,30.601081,-0.0034324103296106863,-0.02268379009219606,0.09710254654607277,32.08287849390507,-104.27510100388527,80.21211738781929
2024-09-23 15:12:34.810917,41.8,30.601132,-0.0028852147413806935,-0.02268379009219606,0.09710254654607277,32.08287849390507,-104.27510100388527,80.21211738781929
2024-09-23 15:12:34.822768,41.8,30.601132,-0.0028852147413806935,-0.023728432883788564,0.09720203344245934,36.09446859390736,-100.26678939585686,80.21211738781929
2024-09-23 15:12:34.866158,41.8,30.601183,-0.003233425524256645,-0.023479709566915436,0.09750050628343246,40.106058693909645,-100.26678939585686,76.200527287817
2024-09-23 15:12:34.908459,41.8,30.601183,-0.003233425524256645,-0.023479709566915436,0.09750050628343246,40.106058693909645,-96.25519929585457,80.21211738781929
2024-09-23 15:12:34.920114,41.8,30.601234,-0.002387757474797703,-0.023330473146428877,0.0973512698629459,40.106058693909645,-96.25519929585457,80.21211738781929
2024-09-23 15:12:34.962546,41.8,30.601284,-0.0034324103296106863,-0.023330473146428877,0.0973512698629459,40.106058693909645,-100.26678939585686,84.22370748782159
2024-09-23 15:12:34.974611,41.8,30.601284,-0.0034324103296106863,-0.022733528983459317,0.0973512698629459,40.106058693909645,-100.26678939585686,84.22370748782159
2024-09-23 15:12:35.007265,41.8,30.601284,-0.0034324103296106863,-0.022733528983459317,0.09725178296655933,36.09446859390736,-100.26678939585686,84.22370748782159
2024-09-23 15:12:35.018762,41.8,30.601335,-0.0037308827908396356,-0.022733528983459317,0.09725178296655933,36.09446859390736,-100.26678939585686,80.21211738781929
2024-09-23 15:12:35.061310,41.8,30.601422,-0.0037308827908396356,-0.02308174982955575,0.09725178296655933,36.09446859390736,-96.25519929585457,80.21211738781929
2024-09-23 15:12:35.103634,41.8,30.601422,-0.0027359787006383035,-0.02303200030545576,0.09725178296655933,36.09446859390736,-96.25519929585457,80.21211738781929
2024-09-23 15:12:35.115785,41.8,30.601422,-0.0027359787006383035,-0.02303200030545576,0.0973015264147526,40.106058693909645,-92.24360919585227,88.23529758782387
2024-09-23 15:12:35.158510,41.8,30.601473,-0.003233425524256645,-0.0228827638849692,0.09645586349183995,36.09446859390736,-92.24360919585227,88.23529758782387
2024-09-23 15:12:35.170258,41.8,30.601473,-0.003233425524256645,-0.0228827638849692,0.09645586349183995,36.09446859390736,-100.26678939585686,88.23529758782387
2024-09-23 15:12:35.203514,41.8,30.601524,-0.0033329230534799477,-0.0228827638849692,0.09645586349183995,36.09446859390736,-100.26678939585686,88.23529758782387
2024-09-23 15:12:35.215055,41.8,30.601524,-0.0033329230534799477,-0.023280723622328886,0.09789846602079214,36.09446859390736,-100.26678939585686,88.23529758782387
2024-09-23 15:12:35.247553,41.8,30.601524,-0.0033329230534799477,-0.023280723622328886,0.09789846602079214,36.09446859390736,-92.24360919585227,88.23529758782387
2024-09-23 15:12:35.258699,41.8,30.601575,-0.003233425524256645,-0.023280723622328886,0.09685382322919964,36.09446859390736,-92.24360919585227,80.21211738781929
2024-09-23 15:12:35.300407,41.8,30.601625,-0.003233425524256645,-0.023280723622328886,0.09685382322919964,36.09446859390736,-96.25519929585457,84.22370748782159
2024-09-23 15:12:35.312092,41.8,30.601625,-0.003382661564999035,-0.023280723622328886,0.09685382322919964,36.09446859390736,-96.25519929585457,84.22370748782159
2024-09-23 15:12:35.354298,41.8,30.601676,-0.003382661564999035,-0.023280723622328886,0.09680407370509965,40.106058693909645,-100.26678939585686,72.1922225099802
2024-09-23 15:12:35.397158,41.8,30.601676,-0.003382661564999035,-0.023728432883788564,0.09720203344245934,36.09446859390736,-100.26678939585686,72.1922225099802
2024-09-23 15:12:35.408871,41.8,30.601763,-0.003382661564999035,-0.023728432883788564,0.09720203344245934,36.09446859390736,-100.26678939585686,80.21211738781929
2024-09-23 15:12:35.451234,41.8,30.601763,-0.003482159473966507,-0.023280723622328886,0.09720203344245934,28.07457030097246,-100.26678939585686,88.23529758782387
2024-09-23 15:12:35.494102,41.8,30.601815,-0.003482159473966507,-0.02367869399252531,0.09720203344245934,28.07457030097246,-100.26678939585686,88.23529758782387
2024-09-23 15:12:35.505333,41.8,30.601815,-0.003482159473966507,-0.02367869399252531,0.09745075675933246,28.07457030097246,-96.25519929585457,88.23529758782387
2024-09-23 15:12:35.547845,41.8,30.601865,-0.0029349636958644295,-0.023429960042815445,0.0973512698629459,32.08287849390507,-96.25519929585457,80.21211738781929
2024-09-23 15:12:35.590782,42.03,30.601865,-0.0029349636958644295,-0.023429960042815445,0.0973512698629459,32.08287849390507,-92.24360919585227,80.21211738781929
2024-09-23 15:12:35.602591,42.03,30.601916,-0.0029847020175114316,-0.02367869399252531,0.0973015264147526,32.08287849390507,-92.24360919585227,80.21211738781929
2024-09-23 15:12:35.645347,42.03,30.601967,-0.0036811340262279837,-0.023330473146428877,0.0973015264147526,40.106058693909645,-100.26678939585686,80.21211738781929
2024-09-23 15:12:35.688300,42.03,30.601967,-0.0036811340262279837,-0.023330473146428877,0.09759999317981902,36.09446859390736,-100.26678939585686,80.21211738781929
2024-09-23 15:12:35.699484,42.03,30.602017,-0.0031836870127375577,-0.023330473146428877,0.09759999317981902,36.09446859390736,-104.27510100388527,76.200527287817
2024-09-23 15:12:35.742627,42.03,30.602017,-0.0031836870127375577,-0.023827930413011865,0.09680407370509965,28.07457030097246,-100.26678939585686,80.21211738781929
2024-09-23 15:12:35.754757,42.03,30.602105,-0.0031836870127375577,-0.023827930413011865,0.09680407370509965,28.07457030097246,-100.26678939585686,80.21211738781929
2024-09-23 15:12:35.787271,42.03,30.602105,-0.004029355252068585,-0.022833026512682618,0.09715228999426605,28.07457030097246,-100.26678939585686,80.21211738781929
2024-09-23 15:12:35.798716,42.03,30.602105,-0.004029355252068585,-0.022833026512682618,0.09715228999426605,28.07457030097246,-104.27510100388527,76.200527287817
2024-09-23 15:12:35.842010,42.03,30.602156,-0.004029355252068585,-0.022833026512682618,0.09715228999426605,28.07457030097246,-104.27510100388527,76.200527287817
2024-09-23 15:12:35.885308,42.03,30.602156,-0.0029847020175114316,-0.02367869399252531,0.0970030596496862,28.07457030097246,-104.27510100388527,76.200527287817
2024-09-23 15:12:35.897182,42.03,30.602156,-0.0029847020175114316,-0.02367869399252531,0.0970030596496862,36.09446859390736,-108.28669110388756,76.200527287817
2024-09-23 15:12:35.929771,42.03,30.602207,-0.0029847020175114316,-0.02367869399252531,0.0970030596496862,36.09446859390736,-108.28669110388756,76.200527287817
2024-09-23 15:12:35.941797,42.03,30.602207,-0.003382661564999035,-0.02367869399252531,0.0970030596496862,36.09446859390736,-108.28669110388756,76.200527287817
2024-09-23 15:12:35.984212,42.03,30.602207,-0.003382661564999035,-0.023230986250042305,0.09745075675933246,24.06297849342227,-92.24360919585227,76.200527287817
2024-09-23 15:12:35.996160,42.03,30.602258,-0.003382661564999035,-0.023230986250042305,0.09745075675933246,24.06297849342227,-92.24360919585227,80.21211738781929
2024-09-23 15:12:36.029106,42.03,30.602258,-0.0030344509719951677,-0.023230986250042305,0.09745075675933246,24.06297849342227,-92.24360919585227,80.21211738781929
2024-09-23 15:12:36.040267,42.03,30.602258,-0.0030344509719951677,-0.023429960042815445,0.09715228999426605,32.08287849390507,-100.26678939585686,84.22370748782159
2024-09-23 15:12:36.082870,42.03,30.602308,-0.0034324103296106863,-0.023579196463302005,0.09665483728461309,48.12595698684454,-100.26678939585686,84.22370748782159
2024-09-23 15:12:36.094015,42.03,30.602308,-0.0034324103296106863,-0.023579196463302005,0.09665483728461309,48.12595698684454,-100.26678939585686,84.22370748782159
2024-09-23 15:12:36.126536,42.03,30.602359,-0.0034324103296106863,-0.023579196463302005,0.09665483728461309,48.12595698684454,-100.26678939585686,80.21211738781929
2024-09-23 15:12:36.138038,42.03,30.602359,-0.0033329230534799477,-0.023280723622328886,0.09680407370509965,36.09446859390736,-100.26678939585686,80.21211738781929
2024-09-23 15:12:36.180822,42.03,30.602448,-0.0033329230534799477,-0.02308174982955575,0.09680407370509965,36.09446859390736,-96.25519929585457,84.22370748782159
2024-09-23 15:12:36.192751,42.03,30.602448,-0.0033329230534799477,-0.02308174982955575,0.09680407370509965,36.09446859390736,-96.25519929585457,84.22370748782159
2024-09-23 15:12:36.226699,42.03,30.602448,-0.0033329230534799477,-0.02308174982955575,0.09680407370509965,32.08287849390507,-92.24360919585227,88.23529758782387
2024-09-23 15:12:36.237838,42.03,30.602545,-0.0035318979854855937,-0.02352945757203875,0.09680407370509965,32.08287849390507,-92.24360919585227,88.23529758782387
2024-09-23 15:12:36.281294,42.03,30.602596,-0.003631395514708897,-0.02352945757203875,0.09750050628343246,40.106058693909645,-108.28669110388756,68.18063240997792
2024-09-23 15:12:36.323304,42.03,30.602596,-0.003631395514708897,-0.023330473146428877,0.09710254654607277,44.11764879391193,-108.28669110388756,68.18063240997792
2024-09-23 15:12:36.334991,42.03,30.602689,-0.003631395514708897,-0.023330473146428877,0.09710254654607277,44.11764879391193,-88.23529758782387,76.200527287817
2024-09-23 15:12:36.377124,42.03,30.602689,-0.0033329230534799477,-0.022833026512682618,0.09705279702197278,48.12595698684454,-88.23529758782387,80.21211738781929
2024-09-23 15:12:36.421173,42.03,30.602741,-0.003382661564999035,-0.02293251340906919,0.09705279702197278,48.12595698684454,-88.23529758782387,80.21211738781929
2024-09-23 15:12:36.432446,42.03,30.602741,-0.003382661564999035,-0.02293251340906919,0.09720203344245934,40.106058693909645,-92.24360919585227,80.21211738781929
2024-09-23 15:12:36.475047,42.03,30.602792,-0.0031339382481259063,-0.02308174982955575,0.09725178296655933,36.09446859390736,-92.24360919585227,80.21211738781929
2024-09-23 15:12:36.518044,42.03,30.602842,-0.0031339382481259063,-0.02308174982955575,0.09725178296655933,36.09446859390736,-92.24360919585227,84.22370748782159
2024-09-23 15:12:36.530217,42.03,30.602842,-0.003382661564999035,-0.023579196463302005,0.09715228999426605,36.09446859390736,-92.24360919585227,84.22370748782159
2024-09-23 15:12:36.573186,42.03,30.602893,-0.003382661564999035,-0.023579196463302005,0.09715228999426605,36.09446859390736,-96.25519929585457,80.21211738781929
2024-09-23 15:12:36.615649,42.3,30.602893,-0.0026862297461545674,-0.023579196463302005,0.09655535038822652,36.09446859390736,-96.25519929585457,80.21211738781929
2024-09-23 15:12:36.627380,42.3,30.602893,-0.0026862297461545674,-0.023579196463302005,0.09655535038822652,28.07457030097246,-104.27510100388527,80.21211738781929
2024-09-23 15:12:36.670717,42.3,30.602944,-0.0036811340262279837,-0.02313149783467906,0.0973512698629459,40.106058693909645,-92.24360919585227,80.21211738781929
2024-09-23 15:12:36.713997,42.3,30.603031,-0.0036811340262279837,-0.02313149783467906,0.0973512698629459,40.106058693909645,-92.24360919585227,84.22370748782159
2024-09-23 15:12:36.725643,42.3,30.603031,-0.0028852147413806935,-0.023280723622328886,0.09720203344245934,40.106058693909645,-92.24360919585227,84.22370748782159
2024-09-23 15:12:36.770073,42.3,30.603082,-0.0029847020175114316,-0.023330473146428877,0.09695331012558621,40.106058693909645,-88.23529758782387,80.21211738781929
2024-09-23 15:12:36.813270,42.3,30.603133,-0.0029847020175114316,-0.023330473146428877,0.09695331012558621,24.06297849342227,-108.28669110388756,80.21211738781929
2024-09-23 15:12:36.824990,42.3,30.603133,-0.0030841997366068195,-0.0228827638849692,0.09695331012558621,24.06297849342227,-108.28669110388756,80.21211738781929
2024-09-23 15:12:36.857481,42.3,30.603133,-0.0030841997366068195,-0.0228827638849692,0.09720203344245934,24.06297849342227,-108.28669110388756,80.21211738781929
2024-09-23 15:12:36.869430,42.3,30.603184,-0.0034324103296106863,-0.0228827638849692,0.09720203344245934,36.09446859390736,-104.27510100388527,84.22370748782159
2024-09-23 15:12:36.911717,42.3,30.603184,-0.0034324103296106863,-0.022733528983459317,0.09740101331113918,40.106058693909645,-100.26678939585686,76.200527287817
2024-09-23 15:12:36.925900,42.3,30.603274,-0.0034324103296106863,-0.022733528983459317,0.09740101331113918,40.106058693909645,-100.26678939585686,76.200527287817
2024-09-23 15:12:36.959798,42.3,30.603274,-0.003382661564999035,-0.023181236725942318,0.09695331012558621,40.106058693909645,-100.26678939585686,76.200527287817
2024-09-23 15:12:36.971119,42.3,30.603274,-0.003382661564999035,-0.023181236725942318,0.09695331012558621,40.106058693909645,-92.24360919585227,88.23529758782387
2024-09-23 15:12:37.002952,42.3,30.603326,-0.003382661564999035,-0.023181236725942318,0.09695331012558621,40.106058693909645,-92.24360919585227,88.23529758782387
2024-09-23 15:12:37.014585,42.3,30.603326,-0.003482159473966507,-0.02293251340906919,0.09645586349183995,48.12595698684454,-96.25519929585457,88.23529758782387
2024-09-23 15:12:37.057280,42.3,30.603377,-0.0028354659767690416,-0.023479709566915436,0.0973015264147526,48.12595698684454,-96.25519929585457,80.21211738781929
2024-09-23 15:12:37.069043,42.3,30.603377,-0.0028354659767690416,-0.023479709566915436,0.0973015264147526,48.12595698684454,-96.25519929585457,80.21211738781929
2024-09-23 15:12:37.101343,42.3,30.603377,-0.0028354659767690416,-0.023479709566915436,0.0973015264147526,48.12595698684454,-96.25519929585457,80.21211738781929
2024-09-23 15:12:37.112971,42.3,30.603428,-0.003482159473966507,-0.02303200030545576,0.09740101331113918,48.12595698684454,-96.25519929585457,80.21211738781929
2024-09-23 15:12:37.154999,42.3,30.603478,-0.0035318979854855937,-0.02303200030545576,0.09740101331113918,44.11764879391193,-100.26678939585686,80.21211738781929
2024-09-23 15:12:37.166950,42.3,30.603478,-0.0035318979854855937,-0.02352945757203875,0.09740101331113918,44.11764879391193,-100.26678939585686,80.21211738781929
2024-09-23 15:12:37.199469,42.3,30.603478,-0.0035318979854855937,-0.02352945757203875,0.09725178296655933,32.08287849390507,-100.26678939585686,80.21211738781929
2024-09-23 15:12:37.211015,42.3,30.603529,-0.0029847020175114316,-0.02352945757203875,0.09725178296655933,32.08287849390507,-92.24360919585227,88.23529758782387
2024-09-23 15:12:37.253787,42.3,30.603616,-0.0029847020175114316,-0.02308174982955575,0.09755024973162574,40.106058693909645,-92.24360919585227,76.200527287817
2024-09-23 15:12:37.296268,42.3,30.603616,-0.0030344509719951677,-0.0228827638849692,0.09755024973162574,40.106058693909645,-92.24360919585227,76.200527287817
2024-09-23 15:12:37.307843,42.3,30.603616,-0.0030344509719951677,-0.0228827638849692,0.09685382322919964,32.08287849390507,-104.27510100388527,76.200527287817
2024-09-23 15:12:37.350343,42.3,30.603667,-0.003631395514708897,-0.023429960042815445,0.0973512698629459,32.08287849390507,-104.27510100388527,76.200527287817
2024-09-23 15:12:37.362530,42.3,30.603667,-0.003631395514708897,-0.023429960042815445,0.0973512698629459,32.08287849390507,-96.25519929585457,76.200527287817
2024-09-23 15:12:37.394502,42.3,30.603718,-0.003631395514708897,-0.023429960042815445,0.0973512698629459,32.08287849390507,-96.25519929585457,80.21211738781929
2024-09-23 15:12:37.406476,42.3,30.603718,-0.002785727465249955,-0.02303200030545576,0.0973015264147526,36.09446859390736,-96.25519929585457,80.21211738781929
2024-09-23 15:12:37.449356,42.3,30.603769,-0.0031339382481259063,-0.02362894446842532,0.09690356060148622,36.09446859390736,-100.26678939585686,76.200527287817
2024-09-23 15:12:37.492537,42.3,30.603769,-0.0031339382481259063,-0.02362894446842532,0.09690356060148622,36.09446859390736,-104.27510100388527,76.200527287817
2024-09-23 15:12:37.503736,42.3,30.603819,-0.0030841997366068195,-0.02308174982955575,0.09690356060148622,36.09446859390736,-104.27510100388527,76.200527287817
2024-09-23 15:12:37.546713,42.3,30.60387,-0.0030841997366068195,-0.02308174982955575,0.09774922960030558,28.07457030097246,-88.23529758782387,84.22370748782159
2024-09-23 15:12:37.589210,42.3,30.60387,-0.0030841997366068195,-0.023280723622328886,0.0970030596496862,28.07457030097246,-88.23529758782387,84.22370748782159
2024-09-23 15:12:37.600687,42.3,30.603957,-0.0030841997366068195,-0.023280723622328886,0.0970030596496862,36.09446859390736,-104.27510100388527,76.200527287817
2024-09-23 15:12:37.643592,42.21,30.603957,-0.0035816467500972456,-0.022484804147609512,0.09685382322919964,36.09446859390736,-104.27510100388527,76.200527287817
2024-09-23 15:12:37.686040,42.21,30.603957,-0.0035816467500972456,-0.022484804147609512,0.09685382322919964,36.09446859390736,-104.27510100388527,76.200527287817
2024-09-23 15:12:37.697996,42.21,30.604008,-0.0032831742888682963,-0.023479709566915436,0.09685382322919964,36.09446859390736,-104.27510100388527,80.21211738781929
2024-09-23 15:12:37.740185,42.21,30.604008,-0.0032831742888682963,-0.023479709566915436,0.09809744588947199,36.09446859390736,-96.25519929585457,80.21211738781929
2024-09-23 15:12:37.751377,42.21,30.604059,-0.003631395514708897,-0.023479709566915436,0.09809744588947199,36.09446859390736,-96.25519929585457,80.21211738781929
2024-09-23 15:12:37.783778,42.21,30.604059,-0.003631395514708897,-0.023429960042815445,0.09809744588947199,36.09446859390736,-96.25519929585457,80.21211738781929
2024-09-23 15:12:37.795043,42.21,30.60411,-0.003631395514708897,-0.023429960042815445,0.09720203344245934,36.09446859390736,-100.26678939585686,80.21211738781929
2024-09-23 15:12:37.838305,42.21,30.60411,-0.003382661564999035,-0.02352945757203875,0.09755024973162574,44.11764879391193,-100.26678939585686,80.21211738781929
2024-09-23 15:12:37.850258,42.21,30.60411,-0.003382661564999035,-0.02352945757203875,0.09755024973162574,44.11764879391193,-100.26678939585686,84.22370748782159
2024-09-23 15:12:37.883706,42.21,30.60416,-0.0029847020175114316,-0.023827930413011865,0.09755024973162574,44.11764879391193,-100.26678939585686,84.22370748782159
2024-09-23 15:12:37.895073,42.21,30.60416,-0.0029847020175114316,-0.023827930413011865,0.0973015264147526,40.106058693909645,-104.27510100388527,84.22370748782159
2024-09-23 15:12:37.937592,42.21,30.604251,-0.0031836870127375577,-0.02313149783467906,0.09685382322919964,36.09446859390736,-104.27510100388527,84.22370748782159
2024-09-23 15:12:37.980632,42.21,30.604302,-0.0031836870127375577,-0.02313149783467906,0.09685382322919964,36.09446859390736,-100.26678939585686,80.21211738781929
2024-09-23 15:12:37.991969,42.21,30.604302,-0.003233425524256645,-0.02362894446842532,0.09710254654607277,36.09446859390736,-100.26678939585686,80.21211738781929
2024-09-23 15:12:38.035602,42.21,30.604353,-0.003382661564999035,-0.022982261414192504,0.09710254654607277,44.11764879391193,-92.24360919585227,80.21211738781929
2024-09-23 15:12:38.079233,42.21,30.604353,-0.003382661564999035,-0.022982261414192504,0.09759999317981902,44.11764879391193,-100.26678939585686,80.21211738781929
2024-09-23 15:12:38.092244,42.21,30.604403,-0.002785727465249955,-0.022982261414192504,0.09759999317981902,44.11764879391193,-100.26678939585686,80.21211738781929
2024-09-23 15:12:38.124866,42.21,30.604403,-0.002785727465249955,-0.02313149783467906,0.09759999317981902,44.11764879391193,-100.26678939585686,80.21211738781929
2024-09-23 15:12:38.136818,42.21,30.604493,-0.002785727465249955,-0.02313149783467906,0.09710254654607277,40.106058693909645,-96.25519929585457,80.21211738781929
2024-09-23 15:12:38.179455,42.21,30.604493,-0.0031339382481259063,-0.023230986250042305,0.09665483728461309,36.09446859390736,-96.25519929585457,80.21211738781929
2024-09-23 15:12:38.191946,42.21,30.604493,-0.0031339382481259063,-0.023230986250042305,0.09665483728461309,36.09446859390736,-96.25519929585457,80.21211738781929
2024-09-23 15:12:38.225375,42.21,30.604545,-0.003929857343101113,-0.023280723622328886,0.09665483728461309,36.09446859390736,-96.25519929585457,80.21211738781929
2024-09-23 15:12:38.236482,42.21,30.604545,-0.003929857343101113,-0.023280723622328886,0.09705279702197278,32.08287849390507,-100.26678939585686,80.21211738781929
2024-09-23 15:12:38.278675,42.21,30.604595,-0.0037308827908396356,-0.023230986250042305,0.09670458680871308,36.09446859390736,-100.26678939585686,80.21211738781929
2024-09-23 15:12:38.322041,42.21,30.604646,-0.0037308827908396356,-0.023230986250042305,0.09670458680871308,36.09446859390736,-100.26678939585686,80.21211738781929
2024-09-23 15:12:38.333718,42.21,30.604646,-0.0033329230534799477,-0.02362894446842532,0.09715228999426605,36.09446859390736,-100.26678939585686,80.21211738781929
2024-09-23 15:12:38.377311,42.21,30.604697,-0.0030344509719951677,-0.02303200030545576,0.09715228999426605,36.09446859390736,-96.25519929585457,76.200527287817
2024-09-23 15:12:38.419731,42.21,30.604697,-0.0030344509719951677,-0.02303200030545576,0.0973015264147526,36.09446859390736,-96.25519929585457,76.200527287817
2024-09-23 15:12:38.513098,42.21,30.604697,-0.0030344509719951677,-0.02303200030545576,0.0973015264147526,36.09446859390736,-96.25519929585457,76.200527287817
2024-09-23 15:12:38.524554,42.21,30.604747,-0.0030344509719951677,-0.02303200030545576,0.0973015264147526,36.09446859390736,-104.27510100388527,80.21211738781929
2024-09-23 15:12:38.568605,42.21,30.604747,-0.002785727465249955,-0.023479709566915436,0.09690356060148622,44.11764879391193,-104.27510100388527,80.21211738781929
2024-09-23 15:12:38.580405,42.21,30.604747,-0.002785727465249955,-0.023479709566915436,0.09690356060148622,44.11764879391193,-100.26678939585686,80.21211738781929
2024-09-23 15:12:38.612694,42.21,30.604834,-0.002785727465249955,-0.023479709566915436,0.09690356060148622,44.11764879391193,-100.26678939585686,80.21211738781929
2024-09-23 15:12:38.624049,42.21,30.604834,-0.0029847020175114316,-0.02338022115155219,0.0973512698629459,40.106058693909645,-96.25519929585457,80.21211738781929
2024-09-23 15:12:38.666351,42.01,30.604886,-0.004178591292810975,-0.02352945757203875,0.0973512698629459,40.106058693909645,-96.25519929585457,76.200527287817
