Ayaan's Suite
Timestamp,Sample Rate (Hz),Time,Ax,Ay,Az,Gx,Gy,Gz
2024-09-23 21:24:21.704298,0,52.908545,0.0006466830067647949,-0.02338022115155219,0.09675432418099966,44.11764879391193,-92.24360919585227,72.1922225099802
2024-09-23 21:24:21.715905,0,52.908545,0.0006466830067647949,-0.02338022115155219,0.09675432418099966,44.11764879391193,-92.24360919585227,72.1922225099802
2024-09-23 21:24:21.748918,0,52.908596,0.0007959191899112484,-0.02338022115155219,0.09675432418099966,44.11764879391193,-92.24360919585227,72.1922225099802
2024-09-23 21:24:21.800964,0,52.908596,0.0007959191899112484,-0.024076653729884996,0.09799795899308542,40.106058693909645,-92.24360919585227,72.1922225099802
2024-09-23 21:24:21.812846,0,52.908647,0.0007959191899112484,-0.024076653729884996,0.09799795899308542,40.106058693909645,-96.25519929585457,76.200527287817
2024-09-23 21:24:21.845086,0,52.908647,0.0008954064660419869,-0.024076653729884996,0.09799795899308542,40.106058693909645,-96.25519929585457,76.200527287817
2024-09-23 21:24:21.857795,0,52.908647,0.0008954064660419869,-0.023479709566915436,0.09720203344245934,44.11764879391193,-92.24360919585227,80.21211738781929
2024-09-23 21:24:21.900058,0,52.908697,0.0007959191899112484,-0.023280723622328886,0.09740101331113918,44.11764879391193,-92.24360919585227,80.21211738781929
2024-09-23 21:24:21.911231,0,52.908697,0.0007959191899112484,-0.023280723622328886,0.09740101331113918,48.12595698684454,-96.25519929585457,80.21211738781929
2024-09-23 21:24:21.944432,0,52.908748,0.0007959191899112484,-0.023280723622328886,0.09740101331113918,48.12595698684454,-96.25519929585457,84.22370748782159
2024-09-23 21:24:21.955742,0,52.908748,0.0004974468710863627,-0.023230986250042305,0.09764974270391902,40.106058693909645,-96.25519929585457,84.22370748782159
2024-09-23 21:24:21.997724,0,52.908799,0.0005969341946851222,-0.023230986250042305,0.09764974270391902,40.106058693909645,-92.24360919585227,72.1922225099802
2024-09-23 21:24:22.008937,0,52.908799,0.0005969341946851222,-0.02293251340906919,0.09725178296655933,40.106058693909645,-92.24360919585227,72.1922225099802
2024-09-23 21:24:22.041253,0,52.908799,0.0005969341946851222,-0.02293251340906919,0.09725178296655933,48.12595698684454,-92.24360919585227,72.1922225099802
2024-09-23 21:24:22.053386,0,52.908888,0.0005969341946851222,-0.023429960042815445,0.09725178296655933,48.12595698684454,-100.26678939585686,80.21211738781929
2024-09-23 21:24:22.095515,0,52.908939,0.0005969341946851222,-0.023429960042815445,0.09784872257259886,48.12595698684454,-100.26678939585686,76.200527287817
2024-09-23 21:24:22.107792,0,52.908939,0.0007461703303635545,-0.023429960042815445,0.09784872257259886,48.12595698684454,-100.26678939585686,76.200527287817
2024-09-23 21:24:22.139670,0,52.908939,0.0007461703303635545,-0.022982261414192504,0.09759999317981902,48.12595698684454,-100.26678939585686,76.200527287817
2024-09-23 21:24:22.150836,0,52.909032,0.0007461703303635545,-0.022982261414192504,0.09759999317981902,28.07457030097246,-100.26678939585686,84.22370748782159
2024-09-23 21:24:22.193911,0,52.909032,0.0008954064660419869,-0.02338022115155219,0.0976994861521123,40.106058693909645,-96.25519929585457,84.22370748782159
2024-09-23 21:24:22.205717,0,52.909032,0.0008954064660419869,-0.02338022115155219,0.0976994861521123,40.106058693909645,-96.25519929585457,80.21211738781929
2024-09-23 21:24:22.238125,0,52.909084,0.0008954064660419869,-0.02338022115155219,0.0976994861521123,40.106058693909645,-96.25519929585457,80.21211738781929
2024-09-23 21:24:22.250071,0,52.909084,0.0008954064660419869,-0.023479709566915436,0.09720203344245934,48.12595698684454,-100.26678939585686,80.21211738781929
2024-09-23 21:24:22.293280,0,52.909134,0.0010943914612681128,-0.02293251340906919,0.09710254654607277,52.137550501942634,-100.26678939585686,72.1922225099802
2024-09-23 21:24:22.336235,0,52.909134,0.0010943914612681128,-0.02293251340906919,0.09710254654607277,52.137550501942634,-96.25519929585457,76.200527287817
2024-09-23 21:24:22.347817,0,52.909185,0.0003979595949556242,-0.02293251340906919,0.09755024973162574,52.137550501942634,-96.25519929585457,76.200527287817
2024-09-23 21:24:22.390644,0,52.909236,0.0013928637326249774,-0.022584292562972758,0.09755024973162574,44.11764879391193,-96.25519929585457,72.1922225099802
2024-09-23 21:24:22.484426,0,52.909236,0.0013928637326249774,-0.022584292562972758,0.09764974270391902,48.12595698684454,-92.24360919585227,72.1922225099802
2024-09-23 21:24:22.497601,0,52.909286,0.00024872343554318134,-0.022584292562972758,0.09764974270391902,48.12595698684454,-92.24360919585227,72.1922225099802
2024-09-23 21:24:22.530060,0,52.909286,0.00024872343554318134,-0.02362894446842532,0.09715228999426605,48.12595698684454,-92.24360919585227,72.1922225099802
2024-09-23 21:24:22.541005,0,52.909373,0.00024872343554318134,-0.02362894446842532,0.09715228999426605,44.11764879391193,-100.26678939585686,72.1922225099802
2024-09-23 21:24:22.583403,0,52.909373,0.001044642601720419,-0.02362894446842532,0.0973512698629459,40.106058693909645,-100.26678939585686,72.1922225099802
2024-09-23 21:24:22.594718,0,52.909373,0.001044642601720419,-0.02362894446842532,0.0973512698629459,40.106058693909645,-92.24360919585227,84.22370748782159
2024-09-23 21:24:22.627520,0,52.909425,0.00029846189959424716,-0.02362894446842532,0.0973512698629459,40.106058693909645,-92.24360919585227,84.22370748782159
2024-09-23 21:24:22.639218,0,52.909425,0.00029846189959424716,-0.023330473146428877,0.09784872257259886,40.106058693909645,-96.25519929585457,84.22370748782159
2024-09-23 21:24:22.681443,43.12,52.909476,0.0011938787373988514,-0.023579196463302005,0.09759999317981902,40.106058693909645,-96.25519929585457,76.200527287817
2024-09-23 21:24:22.693297,43.12,52.909476,0.0011938787373988514,-0.023579196463302005,0.09759999317981902,48.12595698684454,-96.25519929585457,76.200527287817
2024-09-23 21:24:22.724607,43.12,52.909476,0.0011938787373988514,-0.023579196463302005,0.09759999317981902,48.12595698684454,-100.26678939585686,68.18063240997792
2024-09-23 21:24:22.736292,43.12,52.90957,0.0006466830067647949,-0.02263404056809607,0.0973512698629459,48.12595698684454,-100.26678939585686,68.18063240997792
2024-09-23 21:24:22.779474,43.12,52.909621,0.0009451553255896806,-0.023230986250042305,0.0973512698629459,48.12595698684454,-96.25519929585457,76.200527287817
2024-09-23 21:24:22.822604,43.12,52.909621,0.0009451553255896806,-0.023230986250042305,0.0973015264147526,40.106058693909645,-96.25519929585457,76.200527287817
2024-09-23 21:24:22.834367,43.12,52.909671,0.0006964318663124887,-0.023230986250042305,0.0973015264147526,40.106058693909645,-88.23529758782387,76.200527287817
2024-09-23 21:24:22.877873,43.12,52.909763,0.0006964318663124887,-0.02268379009219606,0.09725178296655933,40.106058693909645,-92.24360919585227,68.18063240997792
2024-09-23 21:24:22.919591,43.12,52.909763,0.0006964318663124887,-0.022982261414192504,0.09725178296655933,40.106058693909645,-92.24360919585227,68.18063240997792
2024-09-23 21:24:22.931488,43.12,52.909763,0.0006964318663124887,-0.022982261414192504,0.09720203344245934,44.11764879391193,-88.23529758782387,76.200527287817
2024-09-23 21:24:22.974589,43.12,52.909815,0.0005969341946851222,-0.022982261414192504,0.0973512698629459,36.09446859390736,-88.23529758782387,76.200527287817
2024-09-23 21:24:23.018264,43.12,52.909865,0.0004974468710863627,-0.022982261414192504,0.0973512698629459,36.09446859390736,-88.23529758782387,72.1922225099802
2024-09-23 21:24:23.029907,43.12,52.909865,0.0004974468710863627,-0.02338022115155219,0.0973512698629459,36.09446859390736,-88.23529758782387,72.1922225099802
2024-09-23 21:24:23.073156,43.12,52.909916,0.0004974468710863627,-0.02338022115155219,0.0976994861521123,48.12595698684454,-92.24360919585227,76.200527287817
2024-09-23 21:24:23.116367,43.12,52.909916,0.0004974468710863627,-0.022982261414192504,0.09750050628343246,40.106058693909645,-92.24360919585227,76.200527287817
2024-09-23 21:24:23.128684,43.12,52.909916,0.0004974468710863627,-0.022982261414192504,0.09750050628343246,40.106058693909645,-96.25519929585457,76.200527287817
2024-09-23 21:24:23.172276,43.12,52.909967,0.0003979595949556242,-0.02278327698858263,0.09740101331113918,44.11764879391193,-96.25519929585457,76.200527287817
2024-09-23 21:24:23.216151,43.12,52.910017,0.0005969341946851222,-0.02278327698858263,0.09740101331113918,44.11764879391193,-92.24360919585227,80.21211738781929
2024-09-23 21:24:23.227565,43.12,52.910017,0.0005969341946851222,-0.023181236725942318,0.09740101331113918,44.11764879391193,-92.24360919585227,80.21211738781929
2024-09-23 21:24:23.260996,43.12,52.910017,0.0005969341946851222,-0.023181236725942318,0.09740101331113918,56.14914060194492,-96.25519929585457,80.21211738781929
2024-09-23 21:24:23.272572,43.12,52.910105,0.0006964318663124887,-0.023230986250042305,0.09740101331113918,56.14914060194492,-96.25519929585457,76.200527287817
2024-09-23 21:24:23.315540,43.12,52.910156,0.0009451553255896806,-0.023230986250042305,0.09779897304849887,40.106058693909645,-92.24360919585227,80.21211738781929
2024-09-23 21:24:23.358114,43.12,52.910156,0.0009451553255896806,-0.023429960042815445,0.09784872257259886,40.106058693909645,-92.24360919585227,80.21211738781929
2024-09-23 21:24:23.369830,43.12,52.910207,0.0009451553255896806,-0.023429960042815445,0.09784872257259886,36.09446859390736,-100.26678939585686,76.200527287817
2024-09-23 21:24:23.412314,43.12,52.910207,0.0007959191899112484,-0.023330473146428877,0.0976994861521123,48.12595698684454,-92.24360919585227,76.200527287817
2024-09-23 21:24:23.424297,43.12,52.910207,0.0007959191899112484,-0.023330473146428877,0.0976994861521123,48.12595698684454,-92.24360919585227,76.200527287817
2024-09-23 21:24:23.456226,43.12,52.9103,0.000845657606494293,-0.023330473146428877,0.0976994861521123,48.12595698684454,-92.24360919585227,76.200527287817
2024-09-23 21:24:23.467990,43.12,52.9103,0.000845657606494293,-0.023181236725942318,0.09725178296655933,36.09446859390736,-92.24360919585227,76.200527287817
2024-09-23 21:24:23.510675,43.12,52.910351,0.0007959191899112484,-0.02278327698858263,0.09789846602079214,40.106058693909645,-92.24360919585227,80.21211738781929
2024-09-23 21:24:23.552834,43.12,52.910351,0.0007959191899112484,-0.02278327698858263,0.09789846602079214,40.106058693909645,-92.24360919585227,80.21211738781929
2024-09-23 21:24:23.563774,43.12,52.910402,0.0007461703303635545,-0.023330473146428877,0.09774922960030558,40.106058693909645,-92.24360919585227,76.200527287817
2024-09-23 21:24:23.605316,43.12,52.910453,0.0007461703303635545,-0.023330473146428877,0.09774922960030558,36.09446859390736,-100.26678939585686,72.1922225099802
2024-09-23 21:24:23.616688,43.12,52.910453,0.0006466830067647949,-0.023181236725942318,0.09774922960030558,36.09446859390736,-100.26678939585686,72.1922225099802
2024-09-23 21:24:23.648662,43.12,52.910453,0.0006466830067647949,-0.023181236725942318,0.0973015264147526,36.09446859390736,-100.26678939585686,72.1922225099802
2024-09-23 21:24:23.660930,43.12,52.910503,0.0009948937421727254,-0.023181236725942318,0.0973015264147526,44.11764879391193,-96.25519929585457,76.200527287817
2024-09-23 21:24:23.703614,42.6,52.910503,0.0009948937421727254,-0.023280723622328886,0.09715228999426605,36.09446859390736,-96.25519929585457,76.200527287817
2024-09-23 21:24:23.757000,42.6,52.910592,0.0008954064660419869,-0.02313149783467906,0.0976994861521123,36.09446859390736,-92.24360919585227,76.200527287817
2024-09-23 21:24:23.800555,42.6,52.910644,0.0008954064660419869,-0.02313149783467906,0.0976994861521123,40.106058693909645,-104.27510100388527,80.21211738781929
2024-09-23 21:24:23.812421,42.6,52.910644,0.0010943914612681128,-0.023429960042815445,0.0976994861521123,40.106058693909645,-104.27510100388527,80.21211738781929
2024-09-23 21:24:23.845947,42.6,52.910644,0.0010943914612681128,-0.023429960042815445,0.0973512698629459,40.106058693909645,-104.27510100388527,80.21211738781929
2024-09-23 21:24:23.856971,42.6,52.910694,0.000845657606494293,-0.023429960042815445,0.0973512698629459,40.106058693909645,-100.26678939585686,76.200527287817
2024-09-23 21:24:23.899138,42.6,52.910694,0.000845657606494293,-0.02362894446842532,0.09725178296655933,48.12595698684454,-96.25519929585457,72.1922225099802
2024-09-23 21:24:23.911039,42.6,52.910745,0.000845657606494293,-0.02362894446842532,0.09725178296655933,48.12595698684454,-96.25519929585457,72.1922225099802
2024-09-23 21:24:23.942847,42.6,52.910745,0.0006964318663124887,-0.023728432883788564,0.09725178296655933,48.12595698684454,-96.25519929585457,72.1922225099802
2024-09-23 21:24:23.953827,42.6,52.910745,0.0006964318663124887,-0.023728432883788564,0.0976994861521123,40.106058693909645,-96.25519929585457,72.1922225099802
2024-09-23 21:24:23.996476,42.6,52.910836,0.00034821073540793035,-0.022733528983459317,0.09720203344245934,40.106058693909645,-96.25519929585457,72.1922225099802
2024-09-23 21:24:24.007634,42.6,52.910836,0.00034821073540793035,-0.022733528983459317,0.09720203344245934,44.11764879391193,-96.25519929585457,72.1922225099802
2024-09-23 21:24:24.040569,42.6,52.910836,0.00034821073540793035,-0.022733528983459317,0.09720203344245934,44.11764879391193,-96.25519929585457,76.200527287817
2024-09-23 21:24:24.052362,42.6,52.910888,0.0007461703303635545,-0.02268379009219606,0.0973015264147526,40.106058693909645,-96.25519929585457,76.200527287817
2024-09-23 21:24:24.094823,42.6,52.910938,0.0008954064660419869,-0.022733528983459317,0.0973015264147526,40.106058693909645,-92.24360919585227,76.200527287817
2024-09-23 21:24:24.106768,42.6,52.910938,0.0008954064660419869,-0.022733528983459317,0.0973015264147526,40.106058693909645,-92.24360919585227,76.200527287817
2024-09-23 21:24:24.138714,42.6,52.910938,0.0008954064660419869,-0.022733528983459317,0.0973015264147526,36.09446859390736,-96.25519929585457,76.200527287817
2024-09-23 21:24:24.151022,42.6,52.910989,0.001044642601720419,-0.023280723622328886,0.0973015264147526,36.09446859390736,-96.25519929585457,80.21211738781929
2024-09-23 21:24:24.193284,42.6,52.91104,0.0005471957306340564,-0.023280723622328886,0.09789846602079214,36.09446859390736,-96.25519929585457,68.18063240997792
2024-09-23 21:24:24.235750,42.6,52.91104,0.0005471957306340564,-0.02367869399252531,0.09680407370509965,36.09446859390736,-96.25519929585457,68.18063240997792
2024-09-23 21:24:24.247112,42.6,52.911128,0.0005471957306340564,-0.02367869399252531,0.09680407370509965,48.12595698684454,-96.25519929585457,76.200527287817
2024-09-23 21:24:24.290088,42.6,52.911128,0.001044642601720419,-0.02313149783467906,0.09710254654607277,56.14914060194492,-84.22370748782159,76.200527287817
2024-09-23 21:24:24.302003,42.6,52.911128,0.001044642601720419,-0.02313149783467906,0.09710254654607277,56.14914060194492,-84.22370748782159,88.23529758782387
2024-09-23 21:24:24.334348,42.6,52.91118,0.0010943914612681128,-0.02313149783467906,0.09710254654607277,56.14914060194492,-84.22370748782159,88.23529758782387
2024-09-23 21:24:24.346081,42.6,52.91118,0.0010943914612681128,-0.023181236725942318,0.0973015264147526,40.106058693909645,-96.25519929585457,88.23529758782387
2024-09-23 21:24:24.389615,42.6,52.911231,0.000845657606494293,-0.023181236725942318,0.098047696365372,40.106058693909645,-96.25519929585457,80.21211738781929
2024-09-23 21:24:24.432869,42.6,52.911282,0.000845657606494293,-0.023181236725942318,0.098047696365372,40.106058693909645,-92.24360919585227,76.200527287817
2024-09-23 21:24:24.444467,42.6,52.911282,0.0006964318663124887,-0.023181236725942318,0.0973015264147526,40.106058693909645,-92.24360919585227,76.200527287817
2024-09-23 21:24:24.486999,42.6,52.911332,0.0007959191899112484,-0.02352945757203875,0.0973015264147526,40.106058693909645,-92.24360919585227,76.200527287817
2024-09-23 21:24:24.529717,42.6,52.911332,0.0007959191899112484,-0.02352945757203875,0.09759999317981902,40.106058693909645,-88.23529758782387,76.200527287817
2024-09-23 21:24:24.541829,42.6,52.911383,0.0006964318663124887,-0.02352945757203875,0.09759999317981902,40.106058693909645,-88.23529758782387,84.22370748782159
2024-09-23 21:24:24.585422,42.6,52.91147,0.0006964318663124887,-0.02293251340906919,0.09764974270391902,40.106058693909645,-88.23529758782387,72.1922225099802
2024-09-23 21:24:24.627534,42.6,52.91147,0.00034821073540793035,-0.023181236725942318,0.09764974270391902,40.106058693909645,-88.23529758782387,72.1922225099802
2024-09-23 21:24:24.639399,42.6,52.91147,0.00034821073540793035,-0.023181236725942318,0.09784872257259886,44.11764879391193,-92.24360919585227,72.1922225099802
2024-09-23 21:24:24.682265,42.6,52.911521,0.0006466830067647949,-0.023230986250042305,0.09745075675933246,36.09446859390736,-92.24360919585227,72.1922225099802
2024-09-23 21:24:24.724933,42.43,52.911572,0.00014922575204880957,-0.023230986250042305,0.09745075675933246,36.09446859390736,-92.24360919585227,80.21211738781929
2024-09-23 21:24:24.736394,42.43,52.911572,0.00014922575204880957,-0.023181236725942318,0.09764974270391902,40.106058693909645,-92.24360919585227,80.21211738781929
2024-09-23 21:24:24.778296,42.43,52.911622,0.000845657606494293,-0.02308174982955575,0.09755024973162574,40.106058693909645,-96.25519929585457,76.200527287817
2024-09-23 21:24:24.821209,42.43,52.911622,0.000845657606494293,-0.02308174982955575,0.09755024973162574,44.11764879391193,-92.24360919585227,76.200527287817
2024-09-23 21:24:24.832407,42.43,52.911673,0.0009451553255896806,-0.02268379009219606,0.09755024973162574,44.11764879391193,-92.24360919585227,76.200527287817
2024-09-23 21:24:24.874884,42.43,52.911724,0.0009451553255896806,-0.02268379009219606,0.09750050628343246,44.11764879391193,-96.25519929585457,84.22370748782159
2024-09-23 21:24:24.886978,42.43,52.911724,0.00014922575204880957,-0.02268379009219606,0.09750050628343246,44.11764879391193,-96.25519929585457,84.22370748782159
2024-09-23 21:24:24.919849,42.43,52.911724,0.00014922575204880957,-0.022833026512682618,0.09784872257259886,44.11764879391193,-96.25519929585457,84.22370748782159
2024-09-23 21:24:24.930969,42.43,52.911811,0.00014922575204880957,-0.022833026512682618,0.09784872257259886,44.11764879391193,-100.26678939585686,72.1922225099802
2024-09-23 21:24:24.973182,42.43,52.911811,0.0007461703303635545,-0.02303200030545576,0.09764974270391902,44.11764879391193,-92.24360919585227,80.21211738781929
2024-09-23 21:24:25.016338,42.43,52.911862,0.0007461703303635545,-0.02303200030545576,0.09764974270391902,44.11764879391193,-92.24360919585227,80.21211738781929
2024-09-23 21:24:25.028572,42.43,52.911862,0.0007461703303635545,-0.02303200030545576,0.09720203344245934,44.11764879391193,-96.25519929585457,80.21211738781929
2024-09-23 21:24:25.072251,42.43,52.911913,0.0007959191899112484,-0.023330473146428877,0.0973015264147526,44.11764879391193,-96.25519929585457,72.1922225099802
2024-09-23 21:24:25.116534,42.43,52.911964,0.0004974468710863627,-0.023330473146428877,0.0973015264147526,44.11764879391193,-92.24360919585227,76.200527287817
2024-09-23 21:24:25.128437,42.43,52.911964,0.0004974468710863627,-0.023280723622328886,0.09750050628343246,44.11764879391193,-92.24360919585227,76.200527287817
2024-09-23 21:24:25.163411,42.43,52.911964,0.0004974468710863627,-0.023280723622328886,0.09750050628343246,36.09446859390736,-92.24360919585227,76.200527287817
2024-09-23 21:24:25.174660,42.43,52.912014,0.0007959191899112484,-0.022733528983459317,0.09750050628343246,36.09446859390736,-92.24360919585227,80.21211738781929
2024-09-23 21:24:25.216475,42.43,52.912065,0.0007959191899112484,-0.022733528983459317,0.09789846602079214,36.09446859390736,-92.24360919585227,76.200527287817
2024-09-23 21:24:25.228512,42.43,52.912065,0.0009451553255896806,-0.022733528983459317,0.09789846602079214,36.09446859390736,-92.24360919585227,76.200527287817
2024-09-23 21:24:25.261977,42.43,52.912065,0.0009451553255896806,-0.023330473146428877,0.09725178296655933,40.106058693909645,-92.24360919585227,76.200527287817
2024-09-23 21:24:25.273299,42.43,52.912152,0.0009451553255896806,-0.023330473146428877,0.09725178296655933,40.106058693909645,-88.23529758782387,76.200527287817
2024-09-23 21:24:25.316191,42.43,52.912152,0.0007959191899112484,-0.02263404056809607,0.09809744588947199,36.09446859390736,-92.24360919585227,76.200527287817
2024-09-23 21:24:25.358345,42.43,52.912204,0.0012436275969465451,-0.02362894446842532,0.09809744588947199,36.09446859390736,-92.24360919585227,76.200527287817
2024-09-23 21:24:25.369435,42.43,52.912204,0.0012436275969465451,-0.02362894446842532,0.09710254654607277,32.08287849390507,-92.24360919585227,76.200527287817
2024-09-23 21:24:25.413369,42.43,52.912254,0.0007461703303635545,-0.023230986250042305,0.09740101331113918,36.09446859390736,-92.24360919585227,80.21211738781929
2024-09-23 21:24:25.455503,42.43,52.912254,0.0007461703303635545,-0.023230986250042305,0.09740101331113918,36.09446859390736,-92.24360919585227,72.1922225099802
2024-09-23 21:24:25.466468,42.43,52.912305,0.0011441298778511575,-0.02313149783467906,0.09774922960030558,36.09446859390736,-92.24360919585227,72.1922225099802
2024-09-23 21:24:25.508892,42.43,52.912356,0.001044642601720419,-0.02313149783467906,0.09774922960030558,36.09446859390736,-92.24360919585227,72.1922225099802
2024-09-23 21:24:25.520990,42.43,52.912356,0.001044642601720419,-0.023728432883788564,0.09774922960030558,36.09446859390736,-92.24360919585227,72.1922225099802
2024-09-23 21:24:25.554001,42.43,52.912356,0.001044642601720419,-0.023728432883788564,0.09720203344245934,32.08287849390507,-96.25519929585457,72.1922225099802
2024-09-23 21:24:25.565434,42.43,52.912406,0.000845657606494293,-0.023728432883788564,0.09720203344245934,32.08287849390507,-96.25519929585457,76.200527287817
2024-09-23 21:24:25.608325,42.43,52.912493,0.000845657606494293,-0.02338022115155219,0.09740101331113918,40.106058693909645,-96.25519929585457,84.22370748782159
2024-09-23 21:24:25.651009,42.43,52.912493,0.0008954064660419869,-0.022982261414192504,0.09759999317981902,40.106058693909645,-96.25519929585457,84.22370748782159
2024-09-23 21:24:25.663159,42.43,52.912493,0.0008954064660419869,-0.022982261414192504,0.09759999317981902,44.11764879391193,-92.24360919585227,80.21211738781929
2024-09-23 21:24:25.706031,42.43,52.912545,0.0010943914612681128,-0.02308174982955575,0.09705279702197278,40.106058693909645,-88.23529758782387,80.21211738781929
2024-09-23 21:24:25.749157,42.32,52.912596,0.0011938787373988514,-0.02308174982955575,0.09705279702197278,40.106058693909645,-88.23529758782387,76.200527287817
2024-09-23 21:24:25.760625,42.32,52.912596,0.0011938787373988514,-0.022982261414192504,0.09784872257259886,40.106058693909645,-88.23529758782387,76.200527287817
2024-09-23 21:24:25.804393,42.32,52.912646,0.001044642601720419,-0.02308174982955575,0.09750050628343246,40.106058693909645,-80.21211738781929,76.200527287817
2024-09-23 21:24:25.847597,42.32,52.912697,0.001044642601720419,-0.02308174982955575,0.09750050628343246,36.09446859390736,-96.25519929585457,72.1922225099802
2024-09-23 21:24:25.859320,42.32,52.912697,0.0009948937421727254,-0.023280723622328886,0.09750050628343246,36.09446859390736,-96.25519929585457,72.1922225099802
2024-09-23 21:24:25.892077,42.32,52.912697,0.0009948937421727254,-0.023280723622328886,0.09774922960030558,36.09446859390736,-96.25519929585457,72.1922225099802
2024-09-23 21:24:25.903203,42.32,52.912748,0.0006466830067647949,-0.023280723622328886,0.09774922960030558,36.09446859390736,-100.26678939585686,76.200527287817
2024-09-23 21:24:25.946570,42.32,52.912748,0.0006466830067647949,-0.023429960042815445,0.0973015264147526,40.106058693909645,-88.23529758782387,76.200527287817
2024-09-23 21:24:25.958300,42.32,52.912835,0.0006466830067647949,-0.023429960042815445,0.0973015264147526,40.106058693909645,-88.23529758782387,76.200527287817
2024-09-23 21:24:25.990136,42.32,52.912835,0.0012436275969465451,-0.023429960042815445,0.0973015264147526,40.106058693909645,-88.23529758782387,76.200527287817
2024-09-23 21:24:26.001372,42.32,52.912835,0.0012436275969465451,-0.023579196463302005,0.09759999317981902,44.11764879391193,-96.25519929585457,80.21211738781929
2024-09-23 21:24:26.044782,42.32,52.912886,0.0009948937421727254,-0.023181236725942318,0.09764974270391902,36.09446859390736,-96.25519929585457,80.21211738781929
2024-09-23 21:24:26.057100,42.32,52.912886,0.0009948937421727254,-0.023181236725942318,0.09764974270391902,36.09446859390736,-100.26678939585686,80.21211738781929
2024-09-23 21:24:26.088798,42.32,52.912937,0.0009948937421727254,-0.023181236725942318,0.09764974270391902,36.09446859390736,-100.26678939585686,72.1922225099802
2024-09-23 21:24:26.099891,42.32,52.912937,0.0004974468710863627,-0.0225345536717095,0.09789846602079214,40.106058693909645,-100.26678939585686,72.1922225099802
2024-09-23 21:24:26.142482,42.32,52.912987,0.0007959191899112484,-0.02263404056809607,0.09789846602079214,40.106058693909645,-96.25519929585457,76.200527287817
2024-09-23 21:24:26.154639,42.32,52.912987,0.0007959191899112484,-0.02263404056809607,0.09755024973162574,40.106058693909645,-96.25519929585457,76.200527287817
2024-09-23 21:24:26.188149,42.32,52.912987,0.0007959191899112484,-0.02263404056809607,0.09755024973162574,44.11764879391193,-96.25519929585457,76.200527287817
2024-09-23 21:24:26.199448,42.32,52.913038,0.0009451553255896806,-0.02263404056809607,0.09755024973162574,44.11764879391193,-96.25519929585457,76.200527287817
2024-09-23 21:24:26.241822,42.32,52.913038,0.0009451553255896806,-0.02278327698858263,0.09745075675933246,44.11764879391193,-96.25519929585457,76.200527287817
2024-09-23 21:24:26.284416,42.32,52.913038,0.0009451553255896806,-0.02278327698858263,0.09745075675933246,48.12595698684454,-100.26678939585686,80.21211738781929
2024-09-23 21:24:26.295735,42.32,52.913089,0.0006466830067647949,-0.02367869399252531,0.09745075675933246,48.12595698684454,-100.26678939585686,80.21211738781929
2024-09-23 21:24:26.339478,42.32,52.913176,9.948729986474904e-05,-0.02367869399252531,0.09690356060148622,40.106058693909645,-96.25519929585457,80.21211738781929
2024-09-23 21:24:26.381413,42.32,52.913176,9.948729986474904e-05,-0.02313149783467906,0.09779897304849887,40.106058693909645,-96.25519929585457,80.21211738781929
2024-09-23 21:24:26.393434,42.32,52.913227,9.948729986474904e-05,-0.02313149783467906,0.09779897304849887,32.08287849390507,-96.25519929585457,80.21211738781929
2024-09-23 21:24:26.436980,42.32,52.913227,0.0011441298778511575,-0.02338022115155219,0.09755024973162574,44.11764879391193,-92.24360919585227,76.200527287817
2024-09-23 21:24:26.479724,42.32,52.913278,0.0006964318663124887,-0.023230986250042305,0.09755024973162574,44.11764879391193,-92.24360919585227,76.200527287817
2024-09-23 21:24:26.491067,42.32,52.913278,0.0006964318663124887,-0.023230986250042305,0.0970030596496862,44.11764879391193,-92.24360919585227,76.200527287817
2024-09-23 21:24:26.533156,42.32,52.913372,0.0005471957306340564,-0.023181236725942318,0.09695331012558621,36.09446859390736,-92.24360919585227,76.200527287817
2024-09-23 21:24:26.576105,42.32,52.913372,0.0005471957306340564,-0.023181236725942318,0.09695331012558621,36.09446859390736,-92.24360919585227,76.200527287817
2024-09-23 21:24:26.587284,42.32,52.913423,0.000845657606494293,-0.02303200030545576,0.09680407370509965,36.09446859390736,-92.24360919585227,76.200527287817
2024-09-23 21:24:26.629204,42.32,52.913474,0.000845657606494293,-0.02303200030545576,0.09680407370509965,44.11764879391193,-92.24360919585227,76.200527287817
2024-09-23 21:24:26.671746,42.32,52.913474,0.0009948937421727254,-0.02303200030545576,0.09680407370509965,44.11764879391193,-92.24360919585227,76.200527287817
2024-09-23 21:24:26.684066,42.32,52.913474,0.0009948937421727254,-0.02308174982955575,0.0973015264147526,40.106058693909645,-88.23529758782387,76.200527287817
2024-09-23 21:24:26.727036,42.32,52.913524,0.0009948937421727254,-0.02313149783467906,0.09710254654607277,36.09446859390736,-88.23529758782387,76.200527287817
2024-09-23 21:24:26.739403,42.32,52.913524,0.0009948937421727254,-0.02313149783467906,0.09710254654607277,36.09446859390736,-100.26678939585686,76.200527287817
2024-09-23 21:24:26.771398,42.46,52.913615,0.0009948937421727254,-0.02313149783467906,0.09710254654607277,36.09446859390736,-100.26678939585686,76.200527287817
2024-09-23 21:24:26.783583,42.46,52.913615,0.000845657606494293,-0.022833026512682618,0.09715228999426605,36.09446859390736,-100.26678939585686,76.200527287817
2024-09-23 21:24:26.827254,42.46,52.913666,0.0007461703303635545,-0.0228827638849692,0.09774922960030558,36.09446859390736,-96.25519929585457,88.23529758782387
2024-09-23 21:24:26.869977,42.46,52.913666,0.0007461703303635545,-0.0228827638849692,0.09774922960030558,44.11764879391193,-96.25519929585457,80.21211738781929
2024-09-23 21:24:26.923333,42.46,52.913717,0.0007461703303635545,-0.02303200030545576,0.09755024973162574,48.12595698684454,-96.25519929585457,80.21211738781929
2024-09-23 21:24:26.935341,42.46,52.913717,0.0007461703303635545,-0.02303200030545576,0.09755024973162574,48.12595698684454,-88.23529758782387,80.21211738781929
2024-09-23 21:24:26.968278,42.46,52.913767,0.00044769805900669,-0.02303200030545576,0.09755024973162574,48.12595698684454,-88.23529758782387,80.21211738781929
2024-09-23 21:24:26.979441,42.46,52.913767,0.00044769805900669,-0.023230986250042305,0.09755024973162574,44.11764879391193,-88.23529758782387,80.21211738781929
2024-09-23 21:24:27.022639,42.46,52.913858,0.0006964318663124887,-0.022733528983459317,0.09794820946898543,44.11764879391193,-96.25519929585457,72.1922225099802
2024-09-23 21:24:27.066047,42.46,52.913858,0.0006964318663124887,-0.022733528983459317,0.09794820946898543,44.11764879391193,-96.25519929585457,72.1922225099802
2024-09-23 21:24:27.077597,42.46,52.91391,0.0006466830067647949,-0.0228827638849692,0.09794820946898543,44.11764879391193,-96.25519929585457,76.200527287817
2024-09-23 21:24:27.111408,42.46,52.91391,0.0006466830067647949,-0.0228827638849692,0.09755024973162574,44.11764879391193,-96.25519929585457,76.200527287817
2024-09-23 21:24:27.123201,42.46,52.913961,0.0009948937421727254,-0.0228827638849692,0.09755024973162574,40.106058693909645,-100.26678939585686,72.1922225099802
2024-09-23 21:24:27.165265,42.46,52.913961,0.0009948937421727254,-0.02308174982955575,0.09740101331113918,36.09446859390736,-92.24360919585227,80.21211738781929
2024-09-23 21:24:27.177247,42.46,52.914053,0.0009948937421727254,-0.02308174982955575,0.09740101331113918,36.09446859390736,-92.24360919585227,80.21211738781929
2024-09-23 21:24:27.210841,42.46,52.914053,0.000845657606494293,-0.023230986250042305,0.09814718933766527,36.09446859390736,-92.24360919585227,80.21211738781929
2024-09-23 21:24:27.221925,42.46,52.914053,0.000845657606494293,-0.023230986250042305,0.09814718933766527,44.11764879391193,-84.22370748782159,80.21211738781929
2024-09-23 21:24:27.264683,42.46,52.914105,0.0007461703303635545,-0.02352945757203875,0.0973015264147526,32.08287849390507,-96.25519929585457,80.21211738781929
2024-09-23 21:24:27.307018,42.46,52.914156,0.0007461703303635545,-0.02352945757203875,0.0973015264147526,32.08287849390507,-96.25519929585457,80.21211738781929
2024-09-23 21:24:27.318343,42.46,52.914156,0.0011441298778511575,-0.023330473146428877,0.0973015264147526,32.08287849390507,-96.25519929585457,80.21211738781929
2024-09-23 21:24:27.360387,42.46,52.914206,0.0011441298778511575,-0.023330473146428877,0.0970030596496862,40.106058693909645,-92.24360919585227,76.200527287817
2024-09-23 21:24:27.372152,42.46,52.914206,0.0004974468710863627,-0.023330473146428877,0.0970030596496862,40.106058693909645,-92.24360919585227,76.200527287817
2024-09-23 21:24:27.404681,42.46,52.914206,0.0004974468710863627,-0.023479709566915436,0.0973015264147526,40.106058693909645,-92.24360919585227,76.200527287817
2024-09-23 21:24:27.415964,42.46,52.914257,0.0004974468710863627,-0.023479709566915436,0.0973015264147526,32.08287849390507,-96.25519929585457,76.200527287817
2024-09-23 21:24:27.459418,42.46,52.914257,0.0010943914612681128,-0.02303200030545576,0.09705279702197278,40.106058693909645,-100.26678939585686,76.200527287817
2024-09-23 21:24:27.501578,42.46,52.914257,0.0010943914612681128,-0.02303200030545576,0.09705279702197278,40.106058693909645,-100.26678939585686,72.1922225099802
2024-09-23 21:24:27.513806,42.46,52.914308,0.0007461703303635545,-0.022584292562972758,0.09784872257259886,48.12595698684454,-100.26678939585686,72.1922225099802
2024-09-23 21:24:27.556823,42.46,52.914395,0.0009451553255896806,-0.02352945757203875,0.09784872257259886,48.12595698684454,-100.26678939585686,76.200527287817
2024-09-23 21:24:27.568869,42.46,52.914395,0.0009451553255896806,-0.02352945757203875,0.09764974270391902,48.12595698684454,-100.26678939585686,76.200527287817
2024-09-23 21:24:27.601407,42.46,52.914395,0.0009451553255896806,-0.02352945757203875,0.09764974270391902,44.11764879391193,-100.26678939585686,80.21211738781929
2024-09-23 21:24:27.613070,42.46,52.914446,0.00044769805900669,-0.02308174982955575,0.09764974270391902,44.11764879391193,-100.26678939585686,80.21211738781929
2024-09-23 21:24:27.654942,42.46,52.914497,0.001044642601720419,-0.02308174982955575,0.09685382322919964,48.12595698684454,-100.26678939585686,72.1922225099802
2024-09-23 21:24:27.698254,42.46,52.914497,0.001044642601720419,-0.02293251340906919,0.0973015264147526,48.12595698684454,-100.26678939585686,72.1922225099802
2024-09-23 21:24:27.709858,42.46,52.91459,0.001044642601720419,-0.02293251340906919,0.0973015264147526,40.106058693909645,-100.26678939585686,76.200527287817
2024-09-23 21:24:27.752987,42.46,52.91459,0.0005471957306340564,-0.023330473146428877,0.09764974270391902,40.106058693909645,-100.26678939585686,76.200527287817
2024-09-23 21:24:27.796142,42.38,52.914641,0.00044769805900669,-0.023330473146428877,0.09764974270391902,40.106058693909645,-100.26678939585686,76.200527287817
2024-09-23 21:24:27.807432,42.38,52.914641,0.00044769805900669,-0.022833026512682618,0.0973015264147526,40.106058693909645,-88.23529758782387,76.200527287817
2024-09-23 21:24:27.850656,42.38,52.914692,0.001044642601720419,-0.023230986250042305,0.09764974270391902,48.12595698684454,-88.23529758782387,80.21211738781929
2024-09-23 21:24:27.892796,42.38,52.914692,0.001044642601720419,-0.023230986250042305,0.09764974270391902,48.12595698684454,-92.24360919585227,76.200527287817
2024-09-23 21:24:27.904568,42.38,52.914742,0.0009948937421727254,-0.02308174982955575,0.09705279702197278,48.12595698684454,-92.24360919585227,76.200527287817
2024-09-23 21:24:27.948210,42.38,52.914793,0.0006964318663124887,-0.022982261414192504,0.09705279702197278,44.11764879391193,-92.24360919585227,76.200527287817
2024-09-23 21:24:27.991279,42.38,52.914793,0.0006964318663124887,-0.022982261414192504,0.09740101331113918,36.09446859390736,-92.24360919585227,76.200527287817
2024-09-23 21:24:28.002181,42.38,52.914844,0.001044642601720419,-0.022982261414192504,0.09740101331113918,36.09446859390736,-92.24360919585227,80.21211738781929
2024-09-23 21:24:28.044058,42.38,52.914844,0.001044642601720419,-0.023429960042815445,0.09755024973162574,44.11764879391193,-88.23529758782387,76.200527287817
2024-09-23 21:24:28.086356,42.38,52.914931,0.001044642601720419,-0.023429960042815445,0.09755024973162574,44.11764879391193,-88.23529758782387,76.200527287817
2024-09-23 21:24:28.097896,42.38,52.914931,0.000845657606494293,-0.02303200030545576,0.098047696365372,40.106058693909645,-96.25519929585457,76.200527287817
2024-09-23 21:24:28.141322,42.38,52.914983,0.0004974468710863627,-0.02293251340906919,0.09755024973162574,40.106058693909645,-96.25519929585457,76.200527287817
2024-09-23 21:24:28.153424,42.38,52.914983,0.0004974468710863627,-0.02293251340906919,0.09755024973162574,40.106058693909645,-96.25519929585457,76.200527287817
2024-09-23 21:24:28.186621,42.38,52.915033,0.0004974468710863627,-0.02293251340906919,0.09755024973162574,40.106058693909645,-92.24360919585227,80.21211738781929
2024-09-23 21:24:28.198766,42.38,52.915033,0.0005471957306340564,-0.02293251340906919,0.09755024973162574,40.106058693909645,-92.24360919585227,80.21211738781929
2024-09-23 21:24:28.241181,42.38,52.915084,0.0005471957306340564,-0.02303200030545576,0.09750050628343246,40.106058693909645,-88.23529758782387,76.200527287817
2024-09-23 21:24:28.283771,42.38,52.915084,0.00044769805900669,-0.02313149783467906,0.0973512698629459,40.106058693909645,-88.23529758782387,76.200527287817
2024-09-23 21:24:28.294896,42.38,52.915084,0.00044769805900669,-0.02313149783467906,0.0973512698629459,44.11764879391193,-100.26678939585686,80.21211738781929
2024-09-23 21:24:28.338925,42.38,52.915135,0.00029846189959424716,-0.02308174982955575,0.098047696365372,36.09446859390736,-96.25519929585457,80.21211738781929
2024-09-23 21:24:28.382600,42.38,52.915223,0.00034821073540793035,-0.02308174982955575,0.098047696365372,36.09446859390736,-96.25519929585457,76.200527287817
2024-09-23 21:24:28.394518,42.38,52.915223,0.00034821073540793035,-0.023230986250042305,0.09759999317981902,32.08287849390507,-96.25519929585457,76.200527287817
2024-09-23 21:24:28.426302,42.38,52.915223,0.00034821073540793035,-0.023230986250042305,0.09759999317981902,32.08287849390507,-100.26678939585686,76.200527287817
2024-09-23 21:24:28.438428,42.38,52.915275,0.0009948937421727254,-0.02308174982955575,0.09819693278585856,32.08287849390507,-100.26678939585686,76.200527287817
2024-09-23 21:24:28.481819,42.38,52.915325,0.00029846189959424716,-0.02308174982955575,0.09819693278585856,40.106058693909645,-96.25519929585457,80.21211738781929
2024-09-23 21:24:28.493813,42.38,52.915325,0.00029846189959424716,-0.023230986250042305,0.09819693278585856,40.106058693909645,-96.25519929585457,80.21211738781929
2024-09-23 21:24:28.525834,42.38,52.915325,0.00029846189959424716,-0.023230986250042305,0.0976994861521123,36.09446859390736,-96.25519929585457,80.21211738781929
2024-09-23 21:24:28.537719,42.38,52.915376,0.0008954064660419869,-0.023230986250042305,0.0976994861521123,36.09446859390736,-96.25519929585457,76.200527287817
2024-09-23 21:24:28.580557,42.38,52.915376,0.0008954064660419869,-0.02278327698858263,0.09745075675933246,40.106058693909645,-96.25519929585457,76.200527287817
2024-09-23 21:24:28.592872,42.38,52.915467,0.0008954064660419869,-0.02278327698858263,0.09745075675933246,40.106058693909645,-96.25519929585457,76.200527287817
2024-09-23 21:24:28.625422,42.38,52.915467,0.0005969341946851222,-0.022982261414192504,0.0976994861521123,40.106058693909645,-96.25519929585457,76.200527287817
2024-09-23 21:24:28.637050,42.38,52.915467,0.0005969341946851222,-0.022982261414192504,0.0976994861521123,44.11764879391193,-96.25519929585457,72.1922225099802
2024-09-23 21:24:28.679531,42.38,52.915519,0.0006964318663124887,-0.023181236725942318,0.0973512698629459,44.11764879391193,-100.26678939585686,72.1922225099802
2024-09-23 21:24:28.723226,42.38,52.915569,0.0006964318663124887,-0.023181236725942318,0.0973512698629459,44.11764879391193,-100.26678939585686,68.18063240997792
2024-09-23 21:24:28.734653,42.38,52.915569,0.0003979595949556242,-0.023330473146428877,0.09764974270391902,48.12595698684454,-100.26678939585686,68.18063240997792
2024-09-23 21:24:28.776958,42.38,52.91562,0.0008954064660419869,-0.023181236725942318,0.09675432418099966,48.12595698684454,-92.24360919585227,72.1922225099802
2024-09-23 21:24:28.818981,42.33,52.91562,0.0008954064660419869,-0.023181236725942318,0.09675432418099966,36.09446859390736,-92.24360919585227,72.1922225099802
2024-09-23 21:24:28.831202,42.33,52.915671,0.00044769805900669,-0.023230986250042305,0.09675432418099966,36.09446859390736,-92.24360919585227,76.200527287817
2024-09-23 21:24:28.874410,42.33,52.915721,0.0006466830067647949,-0.023230986250042305,0.09715228999426605,44.11764879391193,-96.25519929585457,72.1922225099802
2024-09-23 21:24:28.916357,42.33,52.915721,0.0006466830067647949,-0.02308174982955575,0.09745075675933246,44.11764879391193,-96.25519929585457,72.1922225099802
2024-09-23 21:24:28.927413,42.33,52.915808,0.0006466830067647949,-0.02308174982955575,0.09745075675933246,48.12595698684454,-96.25519929585457,76.200527287817
2024-09-23 21:24:28.970217,42.33,52.915808,0.0009948937421727254,-0.023280723622328886,0.09695331012558621,40.106058693909645,-96.25519929585457,76.200527287817
2024-09-23 21:24:28.982445,42.33,52.915808,0.0009948937421727254,-0.023280723622328886,0.09695331012558621,40.106058693909645,-96.25519929585457,72.1922225099802
2024-09-23 21:24:29.014329,42.33,52.91586,0.0003979595949556242,-0.023280723622328886,0.09695331012558621,40.106058693909645,-96.25519929585457,72.1922225099802
2024-09-23 21:24:29.026297,42.33,52.91586,0.0003979595949556242,-0.023230986250042305,0.09720203344245934,40.106058693909645,-92.24360919585227,72.1922225099802
2024-09-23 21:24:29.068319,42.33,52.915911,0.0008954064660419869,-0.022982261414192504,0.0976994861521123,40.106058693909645,-92.24360919585227,72.1922225099802
2024-09-23 21:24:29.080711,42.33,52.915911,0.0008954064660419869,-0.022982261414192504,0.0976994861521123,40.106058693909645,-92.24360919585227,72.1922225099802
2024-09-23 21:24:29.112657,42.33,52.915961,0.0008954064660419869,-0.022982261414192504,0.0976994861521123,40.106058693909645,-100.26678939585686,80.21211738781929
2024-09-23 21:24:29.123727,42.33,52.915961,0.0006466830067647949,-0.023230986250042305,0.09789846602079214,40.106058693909645,-100.26678939585686,80.21211738781929
2024-09-23 21:24:29.166807,42.33,52.916012,0.0006466830067647949,-0.022584292562972758,0.09789846602079214,36.09446859390736,-92.24360919585227,80.21211738781929
2024-09-23 21:24:29.209747,42.33,52.916012,0.0006466830067647949,-0.022584292562972758,0.09755024973162574,36.09446859390736,-100.26678939585686,80.21211738781929
2024-09-23 21:24:29.221320,42.33,52.916063,0.0006466830067647949,-0.022584292562972758,0.09755024973162574,36.09446859390736,-100.26678939585686,76.200527287817
2024-09-23 21:24:29.264611,42.33,52.91615,0.0006466830067647949,-0.02313149783467906,0.09690356060148622,32.08287849390507,-96.25519929585457,76.200527287817
2024-09-23 21:24:29.307146,42.33,52.91615,0.000845657606494293,-0.02313149783467906,0.09690356060148622,32.08287849390507,-96.25519929585457,76.200527287817
2024-09-23 21:24:29.360165,42.33,52.91615,0.000845657606494293,-0.022982261414192504,0.09720203344245934,36.09446859390736,-96.25519929585457,72.1922225099802
2024-09-23 21:24:29.372513,42.33,52.916201,0.000845657606494293,-0.022982261414192504,0.09720203344245934,36.09446859390736,-96.25519929585457,72.1922225099802
2024-09-23 21:24:29.406332,42.33,52.916201,0.0008954064660419869,-0.02313149783467906,0.09755024973162574,36.09446859390736,-96.25519929585457,72.1922225099802
2024-09-23 21:24:29.418321,42.33,52.916201,0.0008954064660419869,-0.02313149783467906,0.09755024973162574,48.12595698684454,-84.22370748782159,76.200527287817
2024-09-23 21:24:29.450388,42.33,52.916252,0.0008954064660419869,-0.02313149783467906,0.09755024973162574,48.12595698684454,-84.22370748782159,76.200527287817
2024-09-23 21:24:29.461772,42.33,52.916252,0.001044642601720419,-0.02308174982955575,0.09685382322919964,36.09446859390736,-92.24360919585227,76.200527287817
2024-09-23 21:24:29.504902,42.33,52.916302,0.0007461703303635545,-0.02278327698858263,0.09685382322919964,36.09446859390736,-92.24360919585227,76.200527287817
2024-09-23 21:24:29.516753,42.33,52.916302,0.0007461703303635545,-0.02278327698858263,0.09789846602079214,36.09446859390736,-92.24360919585227,76.200527287817
2024-09-23 21:24:29.549644,42.33,52.916302,0.0007461703303635545,-0.02278327698858263,0.09789846602079214,36.09446859390736,-92.24360919585227,76.200527287817
2024-09-23 21:24:29.561170,42.33,52.916353,0.0006964318663124887,-0.02263404056809607,0.09740101331113918,36.09446859390736,-92.24360919585227,76.200527287817
2024-09-23 21:24:29.603340,42.33,52.916444,0.000845657606494293,-0.02263404056809607,0.09740101331113918,40.106058693909645,-92.24360919585227,76.200527287817
2024-09-23 21:24:29.615343,42.33,52.916444,0.000845657606494293,-0.02268379009219606,0.09740101331113918,40.106058693909645,-92.24360919585227,76.200527287817
2024-09-23 21:24:29.647776,42.33,52.916444,0.000845657606494293,-0.02268379009219606,0.09784872257259886,40.106058693909645,-92.24360919585227,76.200527287817
2024-09-23 21:24:29.658881,42.33,52.916495,0.0007461703303635545,-0.02268379009219606,0.09784872257259886,40.106058693909645,-88.23529758782387,80.21211738781929
2024-09-23 21:24:29.701684,42.33,52.916495,0.0007461703303635545,-0.023181236725942318,0.0973512698629459,44.11764879391193,-92.24360919585227,76.200527287817
2024-09-23 21:24:29.713394,42.33,52.916589,0.0007461703303635545,-0.023181236725942318,0.0973512698629459,44.11764879391193,-92.24360919585227,76.200527287817
2024-09-23 21:24:29.746817,42.33,52.916589,0.0005969341946851222,-0.023181236725942318,0.09774922960030558,44.11764879391193,-92.24360919585227,76.200527287817
2024-09-23 21:24:29.758140,42.33,52.916589,0.0005969341946851222,-0.023181236725942318,0.09774922960030558,44.11764879391193,-88.23529758782387,68.18063240997792
2024-09-23 21:24:29.800429,42.33,52.91664,0.0009948937421727254,-0.023280723622328886,0.0973512698629459,52.137550501942634,-96.25519929585457,68.18063240997792
2024-09-23 21:24:29.842684,42.53,52.916691,0.0009948937421727254,-0.023280723622328886,0.0973512698629459,52.137550501942634,-96.25519929585457,72.1922225099802
2024-09-23 21:24:29.855530,42.53,52.916691,0.0009948937421727254,-0.02313149783467906,0.09759999317981902,44.11764879391193,-96.25519929585457,72.1922225099802
2024-09-23 21:24:29.898257,42.53,52.916741,0.0008954064660419869,-0.02352945757203875,0.09690356060148622,44.11764879391193,-96.25519929585457,76.200527287817
2024-09-23 21:24:29.941613,42.53,52.916741,0.0008954064660419869,-0.02352945757203875,0.09690356060148622,40.106058693909645,-92.24360919585227,72.1922225099802
2024-09-23 21:24:29.953068,42.53,52.916792,0.00029846189959424716,-0.023230986250042305,0.09690356060148622,40.106058693909645,-92.24360919585227,72.1922225099802
2024-09-23 21:24:29.996492,42.53,52.916843,0.0010943914612681128,-0.023230986250042305,0.0976994861521123,44.11764879391193,-100.26678939585686,76.200527287817
2024-09-23 21:24:30.038317,42.53,52.916843,0.0010943914612681128,-0.023230986250042305,0.0973015264147526,44.11764879391193,-100.26678939585686,76.200527287817
2024-09-23 21:24:30.050271,42.53,52.91693,0.0010943914612681128,-0.023230986250042305,0.0973015264147526,44.11764879391193,-100.26678939585686,76.200527287817
2024-09-23 21:24:30.093801,42.53,52.91693,0.0006466830067647949,-0.02293251340906919,0.09779897304849887,40.106058693909645,-92.24360919585227,80.21211738781929
2024-09-23 21:24:30.136969,42.53,52.916981,0.0003979595949556242,-0.023230986250042305,0.09779897304849887,40.106058693909645,-92.24360919585227,80.21211738781929
2024-09-23 21:24:30.148980,42.53,52.916981,0.0003979595949556242,-0.023230986250042305,0.09705279702197278,32.08287849390507,-96.25519929585457,80.21211738781929
2024-09-23 21:24:30.191239,42.53,52.917032,0.0004974468710863627,-0.02338022115155219,0.09755024973162574,44.11764879391193,-96.25519929585457,80.21211738781929
2024-09-23 21:24:30.233479,42.53,52.917082,0.0004974468710863627,-0.02338022115155219,0.09755024973162574,44.11764879391193,-100.26678939585686,68.18063240997792
2024-09-23 21:24:30.244894,42.53,52.917082,0.0006466830067647949,-0.02338022115155219,0.09784872257259886,44.11764879391193,-100.26678939585686,68.18063240997792
2024-09-23 21:24:30.288313,42.53,52.917133,0.0010943914612681128,-0.023330473146428877,0.09784872257259886,44.11764879391193,-96.25519929585457,72.1922225099802
2024-09-23 21:24:30.330395,42.53,52.917133,0.0010943914612681128,-0.023330473146428877,0.0976994861521123,40.106058693909645,-96.25519929585457,72.1922225099802
2024-09-23 21:24:30.341622,42.53,52.917184,0.0008954064660419869,-0.023330473146428877,0.0976994861521123,40.106058693909645,-92.24360919585227,76.200527287817
2024-09-23 21:24:30.384309,42.53,52.917184,0.0008954064660419869,-0.023479709566915436,0.09715228999426605,44.11764879391193,-92.24360919585227,80.21211738781929
2024-09-23 21:24:30.396075,42.53,52.917271,0.0008954064660419869,-0.023479709566915436,0.09715228999426605,44.11764879391193,-92.24360919585227,80.21211738781929
2024-09-23 21:24:30.428993,42.53,52.917271,0.0010943914612681128,-0.02303200030545576,0.09715228999426605,44.11764879391193,-92.24360919585227,80.21211738781929
2024-09-23 21:24:30.440811,42.53,52.917271,0.0010943914612681128,-0.02303200030545576,0.09715228999426605,44.11764879391193,-88.23529758782387,76.200527287817
2024-09-23 21:24:30.483308,42.53,52.917322,0.0006466830067647949,-0.02278327698858263,0.09740101331113918,48.12595698684454,-96.25519929585457,76.200527287817
2024-09-23 21:24:30.526289,42.53,52.917373,0.0006466830067647949,-0.02278327698858263,0.09740101331113918,48.12595698684454,-96.25519929585457,84.22370748782159
2024-09-23 21:24:30.578567,42.53,52.917373,0.0004974468710863627,-0.023230986250042305,0.0976994861521123,40.106058693909645,-96.25519929585457,84.22370748782159
2024-09-23 21:24:30.590594,42.53,52.917373,0.0004974468710863627,-0.023230986250042305,0.0976994861521123,40.106058693909645,-96.25519929585457,76.200527287817
2024-09-23 21:24:30.623295,42.53,52.917424,0.0006964318663124887,-0.023230986250042305,0.0976994861521123,40.106058693909645,-96.25519929585457,76.200527287817
2024-09-23 21:24:30.634851,42.53,52.917424,0.0006964318663124887,-0.023181236725942318,0.09764974270391902,48.12595698684454,-96.25519929585457,76.200527287817
2024-09-23 21:24:30.677017,42.53,52.917475,0.0004974468710863627,-0.023330473146428877,0.09774922960030558,48.12595698684454,-96.25519929585457,76.200527287817
2024-09-23 21:24:30.688886,42.53,52.917475,0.0004974468710863627,-0.023330473146428877,0.09774922960030558,36.09446859390736,-96.25519929585457,76.200527287817
2024-09-23 21:24:30.720800,42.53,52.917475,0.0004974468710863627,-0.023330473146428877,0.09774922960030558,36.09446859390736,-100.26678939585686,80.21211738781929
2024-09-23 21:24:30.732991,42.53,52.917526,0.0005969341946851222,-0.022584292562972758,0.09779897304849887,36.09446859390736,-100.26678939585686,80.21211738781929
2024-09-23 21:24:30.776985,42.53,52.917612,0.0005969341946851222,-0.023330473146428877,0.09779897304849887,36.09446859390736,-92.24360919585227,76.200527287817
2024-09-23 21:24:30.819167,42.53,52.917612,0.0005969341946851222,-0.023330473146428877,0.09705279702197278,40.106058693909645,-92.24360919585227,76.200527287817
2024-09-23 21:24:30.830584,42.53,52.917664,0.0007959191899112484,-0.023330473146428877,0.09705279702197278,40.106058693909645,-92.24360919585227,84.22370748782159
2024-09-23 21:24:30.874168,42.44,52.917758,0.0007959191899112484,-0.023579196463302005,0.09725178296655933,40.106058693909645,-92.24360919585227,76.200527287817
2024-09-23 21:24:30.917750,42.44,52.917758,0.0009451553255896806,-0.023330473146428877,0.0970030596496862,40.106058693909645,-92.24360919585227,76.200527287817
2024-09-23 21:24:30.928900,42.44,52.917758,0.0009451553255896806,-0.023330473146428877,0.0970030596496862,44.11764879391193,-88.23529758782387,80.21211738781929
2024-09-23 21:24:30.971645,42.44,52.91781,0.0004974468710863627,-0.023280723622328886,0.09705279702197278,40.106058693909645,-88.23529758782387,80.21211738781929
2024-09-23 21:24:31.014283,42.44,52.917861,0.0011441298778511575,-0.023280723622328886,0.09705279702197278,40.106058693909645,-88.23529758782387,80.21211738781929
2024-09-23 21:24:31.026002,42.44,52.917861,0.0011441298778511575,-0.023479709566915436,0.09755024973162574,40.106058693909645,-88.23529758782387,80.21211738781929
2024-09-23 21:24:31.068459,42.44,52.917911,0.0008954064660419869,-0.02263404056809607,0.09764974270391902,40.106058693909645,-92.24360919585227,80.21211738781929
2024-09-23 21:24:31.110074,42.44,52.917911,0.0008954064660419869,-0.02263404056809607,0.09764974270391902,40.106058693909645,-96.25519929585457,80.21211738781929
2024-09-23 21:24:31.121586,42.44,52.917962,0.00034821073540793035,-0.023429960042815445,0.09764974270391902,40.106058693909645,-96.25519929585457,76.200527287817
2024-09-23 21:24:31.164493,42.44,52.918013,0.00034821073540793035,-0.023429960042815445,0.09755024973162574,36.09446859390736,-92.24360919585227,76.200527287817
2024-09-23 21:24:31.176273,42.44,52.918013,0.0001989745997294981,-0.023429960042815445,0.09755024973162574,36.09446859390736,-92.24360919585227,76.200527287817
2024-09-23 21:24:31.208308,42.44,52.918013,0.0001989745997294981,-0.022982261414192504,0.09725178296655933,40.106058693909645,-92.24360919585227,76.200527287817
2024-09-23 21:24:31.219415,42.44,52.9181,0.0001989745997294981,-0.022982261414192504,0.09725178296655933,40.106058693909645,-88.23529758782387,80.21211738781929
2024-09-23 21:24:31.262120,42.44,52.9181,0.0006466830067647949,-0.023181236725942318,0.0976994861521123,40.106058693909645,-88.23529758782387,80.21211738781929
2024-09-23 21:24:31.304959,42.44,52.918151,0.00034821073540793035,-0.023181236725942318,0.0976994861521123,40.106058693909645,-88.23529758782387,80.21211738781929
2024-09-23 21:24:31.316990,42.44,52.918151,0.00034821073540793035,-0.02338022115155219,0.09750050628343246,44.11764879391193,-88.23529758782387,80.21211738781929
2024-09-23 21:24:31.360094,42.44,52.918202,0.0007959191899112484,-0.023280723622328886,0.0973015264147526,44.11764879391193,-88.23529758782387,80.21211738781929
2024-09-23 21:24:31.372171,42.44,52.918202,0.0007959191899112484,-0.023280723622328886,0.0973015264147526,40.106058693909645,-88.23529758782387,80.21211738781929
2024-09-23 21:24:31.404501,42.44,52.918252,0.0007959191899112484,-0.023280723622328886,0.0973015264147526,40.106058693909645,-100.26678939585686,80.21211738781929
2024-09-23 21:24:31.415637,42.44,52.918252,0.0010943914612681128,-0.02338022115155219,0.09720203344245934,40.106058693909645,-100.26678939585686,80.21211738781929
2024-09-23 21:24:31.458381,42.44,52.918303,0.0007461703303635545,-0.022982261414192504,0.09720203344245934,44.11764879391193,-96.25519929585457,76.200527287817
2024-09-23 21:24:31.501204,42.44,52.918303,0.0007461703303635545,-0.022982261414192504,0.09725178296655933,40.106058693909645,-92.24360919585227,76.200527287817
2024-09-23 21:24:31.513834,42.44,52.918354,0.0011441298778511575,-0.022982261414192504,0.09725178296655933,40.106058693909645,-92.24360919585227,76.200527287817
2024-09-23 21:24:31.556860,42.44,52.918441,0.0011441298778511575,-0.02308174982955575,0.09755024973162574,36.09446859390736,-100.26678939585686,76.200527287817
2024-09-23 21:24:31.599470,42.44,52.918441,0.0006466830067647949,-0.023230986250042305,0.0973512698629459,36.09446859390736,-100.26678939585686,76.200527287817
2024-09-23 21:24:31.610886,42.44,52.918441,0.0006466830067647949,-0.023230986250042305,0.0973512698629459,44.11764879391193,-92.24360919585227,76.200527287817
2024-09-23 21:24:31.653943,42.44,52.918492,0.0008954064660419869,-0.02278327698858263,0.09764974270391902,40.106058693909645,-104.27510100388527,76.200527287817
2024-09-23 21:24:31.696557,42.44,52.918543,9.948729986474904e-05,-0.02278327698858263,0.09764974270391902,40.106058693909645,-104.27510100388527,68.18063240997792
2024-09-23 21:24:31.707519,42.44,52.918543,9.948729986474904e-05,-0.02338022115155219,0.09750050628343246,48.12595698684454,-104.27510100388527,68.18063240997792
2024-09-23 21:24:31.750650,42.44,52.918594,0.0005969341946851222,-0.022733528983459317,0.09750050628343246,48.12595698684454,-96.25519929585457,76.200527287817
2024-09-23 21:24:31.793461,42.44,52.918594,0.0005969341946851222,-0.022733528983459317,0.09675432418099966,32.08287849390507,-96.25519929585457,76.200527287817
2024-09-23 21:24:31.804630,42.44,52.918644,0.0006466830067647949,-0.022733528983459317,0.09675432418099966,32.08287849390507,-96.25519929585457,76.200527287817
2024-09-23 21:24:31.848330,42.44,52.918695,0.0006466830067647949,-0.02278327698858263,0.09740101331113918,32.08287849390507,-96.25519929585457,76.200527287817
2024-09-23 21:24:31.890386,42.13,52.918695,0.0001989745997294981,-0.02303200030545576,0.09740101331113918,32.08287849390507,-96.25519929585457,76.200527287817
2024-09-23 21:24:31.902057,42.13,52.918695,0.0001989745997294981,-0.02303200030545576,0.09750050628343246,48.12595698684454,-96.25519929585457,68.18063240997792
2024-09-23 21:24:31.944627,42.13,52.918782,0.00024872343554318134,-0.023230986250042305,0.09740101331113918,44.11764879391193,-84.22370748782159,68.18063240997792
2024-09-23 21:24:31.987374,42.13,52.918833,0.00024872343554318134,-0.023230986250042305,0.09740101331113918,44.11764879391193,-84.22370748782159,80.21211738781929
2024-09-23 21:24:31.998539,42.13,52.918833,0.000845657606494293,-0.02308174982955575,0.09745075675933246,40.106058693909645,-84.22370748782159,80.21211738781929
2024-09-23 21:24:32.041375,42.13,52.918884,0.0005969341946851222,-0.023429960042815445,0.09745075675933246,40.106058693909645,-84.22370748782159,76.200527287817
2024-09-23 21:24:32.053401,42.13,52.918884,0.0005969341946851222,-0.023429960042815445,0.0976994861521123,40.106058693909645,-84.22370748782159,76.200527287817
2024-09-23 21:24:32.085314,42.13,52.918884,0.0005969341946851222,-0.023429960042815445,0.0976994861521123,36.09446859390736,-96.25519929585457,76.200527287817
2024-09-23 21:24:32.096497,42.13,52.918935,0.0005471957306340564,-0.0228827638849692,0.0976994861521123,36.09446859390736,-96.25519929585457,76.200527287817
2024-09-23 21:24:32.139857,42.13,52.918985,0.0005471957306340564,-0.0228827638849692,0.09755024973162574,36.09446859390736,-96.25519929585457,80.21211738781929
2024-09-23 21:24:32.151794,42.13,52.918985,0.0007959191899112484,-0.0228827638849692,0.09755024973162574,36.09446859390736,-96.25519929585457,80.21211738781929
2024-09-23 21:24:32.185485,42.13,52.918985,0.0007959191899112484,-0.02338022115155219,0.0970030596496862,40.106058693909645,-96.25519929585457,80.21211738781929
2024-09-23 21:24:32.196602,42.13,52.919075,0.0007959191899112484,-0.02338022115155219,0.0970030596496862,40.106058693909645,-100.26678939585686,80.21211738781929
2024-09-23 21:24:32.239259,42.13,52.919075,0.00024872343554318134,-0.023280723622328886,0.0970030596496862,52.137550501942634,-88.23529758782387,72.1922225099802
2024-09-23 21:24:32.281697,42.13,52.919126,4.973845218406054e-05,-0.02293251340906919,0.0970030596496862,52.137550501942634,-88.23529758782387,72.1922225099802
2024-09-23 21:24:32.293656,42.13,52.919126,4.973845218406054e-05,-0.02293251340906919,0.09750050628343246,40.106058693909645,-88.23529758782387,72.1922225099802
2024-09-23 21:24:32.337061,42.13,52.919177,0.0006466830067647949,-0.02268379009219606,0.0973015264147526,44.11764879391193,-88.23529758782387,72.1922225099802
2024-09-23 21:24:32.379630,42.13,52.919227,0.0006466830067647949,-0.02268379009219606,0.0973015264147526,44.11764879391193,-96.25519929585457,76.200527287817
2024-09-23 21:24:32.390711,42.13,52.919227,0.0011441298778511575,-0.023181236725942318,0.0970030596496862,44.11764879391193,-96.25519929585457,76.200527287817
2024-09-23 21:24:32.475232,42.13,52.919227,0.0011441298778511575,-0.023181236725942318,0.0970030596496862,44.11764879391193,-92.24360919585227,76.200527287817
2024-09-23 21:24:32.486685,42.13,52.919278,0.000845657606494293,-0.023181236725942318,0.0970030596496862,44.11764879391193,-92.24360919585227,80.21211738781929
2024-09-23 21:24:32.530047,42.13,52.919278,0.000845657606494293,-0.022982261414192504,0.09759999317981902,48.12595698684454,-96.25519929585457,72.1922225099802
2024-09-23 21:24:32.541969,42.13,52.919329,0.000845657606494293,-0.022982261414192504,0.09759999317981902,48.12595698684454,-96.25519929585457,72.1922225099802
2024-09-23 21:24:32.574823,42.13,52.919329,0.0007461703303635545,-0.02303200030545576,0.09745075675933246,48.12595698684454,-96.25519929585457,72.1922225099802
2024-09-23 21:24:32.586206,42.13,52.919329,0.0007461703303635545,-0.02303200030545576,0.09745075675933246,52.137550501942634,-104.27510100388527,80.21211738781929
2024-09-23 21:24:32.628554,42.13,52.919416,0.00029846189959424716,-0.02308174982955575,0.09764974270391902,40.106058693909645,-92.24360919585227,80.21211738781929
2024-09-23 21:24:32.671511,42.13,52.919467,0.0010943914612681128,-0.02308174982955575,0.09764974270391902,40.106058693909645,-92.24360919585227,80.21211738781929
2024-09-23 21:24:32.683406,42.13,52.919467,0.0010943914612681128,-0.02367869399252531,0.09759999317981902,40.106058693909645,-92.24360919585227,80.21211738781929
2024-09-23 21:24:32.726358,42.13,52.919563,0.0007461703303635545,-0.02303200030545576,0.09759999317981902,40.106058693909645,-100.26678939585686,72.1922225099802
2024-09-23 21:24:32.768239,42.13,52.919563,0.0007461703303635545,-0.02303200030545576,0.09759999317981902,44.11764879391193,-96.25519929585457,72.1922225099802
2024-09-23 21:24:32.779776,42.13,52.919614,0.0009948937421727254,-0.02313149783467906,0.09759999317981902,44.11764879391193,-96.25519929585457,76.200527287817
2024-09-23 21:24:32.823104,42.13,52.919665,0.000845657606494293,-0.02313149783467906,0.09759999317981902,40.106058693909645,-96.25519929585457,76.200527287817
2024-09-23 21:24:32.864911,42.13,52.919665,0.000845657606494293,-0.023827930413011865,0.09799795899308542,40.106058693909645,-96.25519929585457,76.200527287817
2024-09-23 21:24:32.876481,42.13,52.919757,0.000845657606494293,-0.023827930413011865,0.09799795899308542,40.106058693909645,-92.24360919585227,76.200527287817
2024-09-23 21:24:32.918989,41.9,52.919757,0.0007461703303635545,-0.02293251340906919,0.09690356060148622,36.09446859390736,-92.24360919585227,76.200527287817
2024-09-23 21:24:32.931178,41.9,52.919757,0.0007461703303635545,-0.02293251340906919,0.09690356060148622,36.09446859390736,-92.24360919585227,72.1922225099802
2024-09-23 21:24:32.963263,41.9,52.919809,0.0007461703303635545,-0.02293251340906919,0.09690356060148622,36.09446859390736,-92.24360919585227,72.1922225099802
2024-09-23 21:24:32.974593,41.9,52.919809,0.0007461703303635545,-0.023330473146428877,0.09710254654607277,36.09446859390736,-88.23529758782387,72.1922225099802
2024-09-23 21:24:33.016447,41.9,52.919859,0.0008954064660419869,-0.02308174982955575,0.09740101331113918,36.09446859390736,-88.23529758782387,84.22370748782159
2024-09-23 21:24:33.028300,41.9,52.919859,0.0008954064660419869,-0.02308174982955575,0.09740101331113918,40.106058693909645,-88.23529758782387,84.22370748782159
2024-09-23 21:24:33.061931,41.9,52.91991,0.0008954064660419869,-0.02308174982955575,0.09740101331113918,40.106058693909645,-96.25519929585457,80.21211738781929
2024-09-23 21:24:33.073394,41.9,52.91991,0.0004974468710863627,-0.02303200030545576,0.09774922960030558,40.106058693909645,-96.25519929585457,80.21211738781929
2024-09-23 21:24:33.115814,41.9,52.919961,0.0007959191899112484,-0.023181236725942318,0.09774922960030558,40.106058693909645,-92.24360919585227,80.21211738781929
2024-09-23 21:24:33.157971,41.9,52.919961,0.0007959191899112484,-0.023181236725942318,0.09774922960030558,40.106058693909645,-92.24360919585227,80.21211738781929
2024-09-23 21:24:33.170048,41.9,52.920011,0.0007461703303635545,-0.023181236725942318,0.09774922960030558,40.106058693909645,-92.24360919585227,80.21211738781929
2024-09-23 21:24:33.213302,41.9,52.920098,0.0007461703303635545,-0.02338022115155219,0.09725178296655933,40.106058693909645,-92.24360919585227,76.200527287817
2024-09-23 21:24:33.255585,41.9,52.920098,0.00044769805900669,-0.02293251340906919,0.09725178296655933,40.106058693909645,-92.24360919585227,76.200527287817
2024-09-23 21:24:33.267514,41.9,52.920098,0.00044769805900669,-0.02293251340906919,0.09695331012558621,44.11764879391193,-96.25519929585457,80.21211738781929
2024-09-23 21:24:33.310985,41.9,52.92015,0.0008954064660419869,-0.0224350561424862,0.09695331012558621,40.106058693909645,-104.27510100388527,80.21211738781929
2024-09-23 21:24:33.353799,41.9,52.920201,0.0007959191899112484,-0.0224350561424862,0.09695331012558621,40.106058693909645,-104.27510100388527,72.1922225099802
2024-09-23 21:24:33.365021,41.9,52.920201,0.0007959191899112484,-0.02338022115155219,0.09710254654607277,40.106058693909645,-104.27510100388527,72.1922225099802
2024-09-23 21:24:33.407508,41.9,52.920251,0.0007959191899112484,-0.02268379009219606,0.0973015264147526,40.106058693909645,-100.26678939585686,80.21211738781929
2024-09-23 21:24:33.450383,41.9,52.920251,0.0007959191899112484,-0.02268379009219606,0.0973015264147526,36.09446859390736,-100.26678939585686,80.21211738781929
2024-09-23 21:24:33.461736,41.9,52.920302,0.0005471957306340564,-0.02278327698858263,0.0973015264147526,36.09446859390736,-88.23529758782387,80.21211738781929
2024-09-23 21:24:33.503905,41.9,52.920353,0.0005471957306340564,-0.02278327698858263,0.09745075675933246,40.106058693909645,-96.25519929585457,72.1922225099802
2024-09-23 21:24:33.515833,41.9,52.920353,0.0007959191899112484,-0.02278327698858263,0.09745075675933246,40.106058693909645,-96.25519929585457,72.1922225099802
2024-09-23 21:24:33.548680,41.9,52.920353,0.0007959191899112484,-0.02303200030545576,0.0976994861521123,40.106058693909645,-96.25519929585457,72.1922225099802
2024-09-23 21:24:33.560016,41.9,52.92044,0.0007959191899112484,-0.02303200030545576,0.0976994861521123,48.12595698684454,-96.25519929585457,72.1922225099802
2024-09-23 21:24:33.603233,41.9,52.92044,0.0009948937421727254,-0.02308174982955575,0.0973015264147526,44.11764879391193,-100.26678939585686,76.200527287817
2024-09-23 21:24:33.645306,41.9,52.920491,0.001044642601720419,-0.02308174982955575,0.0973015264147526,44.11764879391193,-100.26678939585686,76.200527287817
2024-09-23 21:24:33.656847,41.9,52.920491,0.001044642601720419,-0.02238531725122294,0.09725178296655933,44.11764879391193,-92.24360919585227,76.200527287817
2024-09-23 21:24:33.699767,41.9,52.920542,0.0005471957306340564,-0.02313149783467906,0.09745075675933246,36.09446859390736,-92.24360919585227,76.200527287817
2024-09-23 21:24:33.742330,41.9,52.920542,0.0005471957306340564,-0.02313149783467906,0.09745075675933246,36.09446859390736,-88.23529758782387,80.21211738781929
2024-09-23 21:24:33.754231,41.9,52.920592,0.00024872343554318134,-0.02268379009219606,0.09764974270391902,36.09446859390736,-88.23529758782387,80.21211738781929
2024-09-23 21:24:33.796678,41.9,52.920643,0.0009451553255896806,-0.02268379009219606,0.09764974270391902,40.106058693909645,-92.24360919585227,80.21211738781929
2024-09-23 21:24:33.808720,41.9,52.920643,0.0009451553255896806,-0.02338022115155219,0.09764974270391902,40.106058693909645,-92.24360919585227,80.21211738781929
2024-09-23 21:24:33.840459,41.9,52.920643,0.0009451553255896806,-0.02338022115155219,0.09759999317981902,40.106058693909645,-92.24360919585227,80.21211738781929
2024-09-23 21:24:33.852350,41.9,52.920694,-4.973845218406054e-05,-0.02338022115155219,0.09759999317981902,40.106058693909645,-92.24360919585227,76.200527287817
2024-09-23 21:24:33.894548,41.9,52.920694,-4.973845218406054e-05,-0.023330473146428877,0.09784872257259886,36.09446859390736,-100.26678939585686,80.21211738781929
2024-09-23 21:24:33.906763,41.9,52.920781,-4.973845218406054e-05,-0.023330473146428877,0.09784872257259886,36.09446859390736,-100.26678939585686,80.21211738781929
2024-09-23 21:24:33.939639,42.11,52.920781,0.001044642601720419,-0.02293251340906919,0.09799795899308542,36.09446859390736,-100.26678939585686,80.21211738781929
2024-09-23 21:24:33.951488,42.11,52.920781,0.001044642601720419,-0.02293251340906919,0.09799795899308542,48.12595698684454,-100.26678939585686,76.200527287817
2024-09-23 21:24:33.993752,42.11,52.920832,0.000845657606494293,-0.022833026512682618,0.09764974270391902,44.11764879391193,-100.26678939585686,76.200527287817
2024-09-23 21:24:34.035541,42.11,52.920883,0.000845657606494293,-0.022833026512682618,0.09764974270391902,44.11764879391193,-100.26678939585686,72.1922225099802
2024-09-23 21:24:34.047546,42.11,52.920883,0.0011938787373988514,-0.023429960042815445,0.09685382322919964,36.09446859390736,-100.26678939585686,72.1922225099802
2024-09-23 21:24:34.091008,42.11,52.920934,0.0004974468710863627,-0.02303200030545576,0.09715228999426605,36.09446859390736,-100.26678939585686,76.200527287817
2024-09-23 21:24:34.134450,42.11,52.920934,0.0004974468710863627,-0.02303200030545576,0.09715228999426605,40.106058693909645,-96.25519929585457,80.21211738781929
2024-09-23 21:24:34.145916,42.11,52.920984,0.0001989745997294981,-0.023181236725942318,0.09715228999426605,40.106058693909645,-96.25519929585457,80.21211738781929
2024-09-23 21:24:34.188678,42.11,52.921035,0.00044769805900669,-0.023181236725942318,0.09764974270391902,40.106058693909645,-88.23529758782387,80.21211738781929
2024-09-23 21:24:34.230388,42.11,52.921035,0.00044769805900669,-0.023728432883788564,0.0973512698629459,40.106058693909645,-88.23529758782387,80.21211738781929
2024-09-23 21:24:34.241465,42.11,52.921122,0.00044769805900669,-0.023728432883788564,0.0973512698629459,48.12595698684454,-92.24360919585227,80.21211738781929
2024-09-23 21:24:34.284371,42.11,52.921122,0.001044642601720419,-0.02338022115155219,0.0973512698629459,40.106058693909645,-88.23529758782387,80.21211738781929
2024-09-23 21:24:34.296708,42.11,52.921122,0.001044642601720419,-0.02338022115155219,0.0973512698629459,40.106058693909645,-88.23529758782387,80.21211738781929
2024-09-23 21:24:34.329313,42.11,52.921174,0.000845657606494293,-0.02338022115155219,0.0973512698629459,40.106058693909645,-88.23529758782387,80.21211738781929
2024-09-23 21:24:34.340535,42.11,52.921174,0.000845657606494293,-0.023181236725942318,0.0973015264147526,40.106058693909645,-92.24360919585227,80.21211738781929
2024-09-23 21:24:34.383489,42.11,52.921224,0.0006466830067647949,-0.023181236725942318,0.09779897304849887,44.11764879391193,-92.24360919585227,76.200527287817
2024-09-23 21:24:34.426694,42.11,52.921275,0.0006466830067647949,-0.023181236725942318,0.09779897304849887,44.11764879391193,-92.24360919585227,76.200527287817
2024-09-23 21:24:34.438299,42.11,52.921275,0.0007959191899112484,-0.02313149783467906,0.09720203344245934,44.11764879391193,-92.24360919585227,76.200527287817
2024-09-23 21:24:34.481127,42.11,52.921326,0.0011938787373988514,-0.023181236725942318,0.09720203344245934,36.09446859390736,-92.24360919585227,84.22370748782159
2024-09-23 21:24:34.523990,42.11,52.921326,0.0011938787373988514,-0.023181236725942318,0.0973512698629459,44.11764879391193,-96.25519929585457,84.22370748782159
2024-09-23 21:24:34.535172,42.11,52.921376,-9.948729986474904e-05,-0.023181236725942318,0.0973512698629459,44.11764879391193,-96.25519929585457,80.21211738781929
2024-09-23 21:24:34.578494,42.11,52.921463,-9.948729986474904e-05,-0.02238531725122294,0.09784872257259886,40.106058693909645,-96.25519929585457,76.200527287817
2024-09-23 21:24:34.620842,42.11,52.921463,0.0005969341946851222,-0.023181236725942318,0.09784872257259886,40.106058693909645,-96.25519929585457,76.200527287817
2024-09-23 21:24:34.632828,42.11,52.921463,0.0005969341946851222,-0.023181236725942318,0.09715228999426605,36.09446859390736,-96.25519929585457,80.21211738781929
2024-09-23 21:24:34.675538,42.11,52.921515,0.0005969341946851222,-0.022833026512682618,0.0976994861521123,44.11764879391193,-100.26678939585686,80.21211738781929
2024-09-23 21:24:34.718973,42.11,52.921566,0.0009451553255896806,-0.022833026512682618,0.0976994861521123,44.11764879391193,-100.26678939585686,80.21211738781929
2024-09-23 21:24:34.729967,42.11,52.921566,0.0009451553255896806,-0.02362894446842532,0.09764974270391902,44.11764879391193,-100.26678939585686,80.21211738781929
2024-09-23 21:24:34.772423,42.11,52.921616,0.0009451553255896806,-0.023330473146428877,0.09784872257259886,44.11764879391193,-92.24360919585227,76.200527287817
2024-09-23 21:24:34.814964,42.11,52.921616,0.0009451553255896806,-0.023330473146428877,0.09784872257259886,52.137550501942634,-92.24360919585227,76.200527287817
2024-09-23 21:24:34.826677,42.11,52.921667,0.001044642601720419,-0.023181236725942318,0.09784872257259886,52.137550501942634,-92.24360919585227,76.200527287817
2024-09-23 21:24:34.869174,42.11,52.921718,0.001044642601720419,-0.023181236725942318,0.09710254654607277,36.09446859390736,-88.23529758782387,76.200527287817
2024-09-23 21:24:34.880676,42.11,52.921718,0.00034821073540793035,-0.023181236725942318,0.09710254654607277,36.09446859390736,-88.23529758782387,76.200527287817
2024-09-23 21:24:34.913142,42.11,52.921718,0.00034821073540793035,-0.023728432883788564,0.09715228999426605,36.09446859390736,-88.23529758782387,76.200527287817
2024-09-23 21:24:34.924952,42.11,52.921805,0.00034821073540793035,-0.023728432883788564,0.09715228999426605,40.106058693909645,-92.24360919585227,76.200527287817
2024-09-23 21:24:34.967864,41.98,52.921805,0.0004974468710863627,-0.02303200030545576,0.09705279702197278,44.11764879391193,-88.23529758782387,84.22370748782159
2024-09-23 21:24:35.009926,41.98,52.921856,0.00034821073540793035,-0.02303200030545576,0.09705279702197278,44.11764879391193,-88.23529758782387,84.22370748782159
2024-09-23 21:24:35.021260,41.98,52.921856,0.00034821073540793035,-0.02308174982955575,0.09705279702197278,36.09446859390736,-92.24360919585227,84.22370748782159
2024-09-23 21:24:35.063320,41.98,52.921907,0.00044769805900669,-0.02338022115155219,0.09755024973162574,36.09446859390736,-92.24360919585227,80.21211738781929
2024-09-23 21:24:35.075243,41.98,52.921907,0.00044769805900669,-0.02338022115155219,0.09755024973162574,32.08287849390507,-92.24360919585227,80.21211738781929
2024-09-23 21:24:35.108055,41.98,52.921907,0.00044769805900669,-0.02338022115155219,0.09755024973162574,32.08287849390507,-100.26678939585686,72.1922225099802
2024-09-23 21:24:35.119151,41.98,52.921958,0.00044769805900669,-0.022982261414192504,0.0976994861521123,32.08287849390507,-100.26678939585686,72.1922225099802
2024-09-23 21:24:35.161749,41.98,52.922008,0.00034821073540793035,-0.022982261414192504,0.0976994861521123,40.106058693909645,-96.25519929585457,72.1922225099802
2024-09-23 21:24:35.173829,41.98,52.922008,0.00034821073540793035,-0.023429960042815445,0.0976994861521123,40.106058693909645,-96.25519929585457,72.1922225099802
2024-09-23 21:24:35.207147,41.98,52.922008,0.00034821073540793035,-0.023429960042815445,0.09715228999426605,44.11764879391193,-84.22370748782159,72.1922225099802
2024-09-23 21:24:35.218954,41.98,52.922059,0.0010943914612681128,-0.023429960042815445,0.09715228999426605,44.11764879391193,-84.22370748782159,80.21211738781929
2024-09-23 21:24:35.261964,41.98,52.922146,0.0010943914612681128,-0.022982261414192504,0.0970030596496862,40.106058693909645,-100.26678939585686,72.1922225099802
2024-09-23 21:24:35.304612,41.98,52.922146,0.001044642601720419,-0.0224350561424862,0.09779897304849887,40.106058693909645,-100.26678939585686,72.1922225099802
2024-09-23 21:24:35.316768,41.98,52.922146,0.001044642601720419,-0.0224350561424862,0.09779897304849887,44.11764879391193,-88.23529758782387,80.21211738781929
2024-09-23 21:24:35.350529,41.98,52.922197,0.001044642601720419,-0.0224350561424862,0.09779897304849887,44.11764879391193,-88.23529758782387,80.21211738781929
2024-09-23 21:24:35.362051,41.98,52.922197,0.0007461703303635545,-0.022833026512682618,0.0970030596496862,40.106058693909645,-96.25519929585457,80.21211738781929
2024-09-23 21:24:35.405448,41.98,52.922248,0.0001989745997294981,-0.023330473146428877,0.09764974270391902,40.106058693909645,-96.25519929585457,72.1922225099802
2024-09-23 21:24:35.417338,41.98,52.922248,0.0001989745997294981,-0.023330473146428877,0.09764974270391902,48.12595698684454,-96.25519929585457,72.1922225099802
2024-09-23 21:24:35.450751,41.98,52.922299,0.0001989745997294981,-0.023330473146428877,0.09764974270391902,48.12595698684454,-92.24360919585227,72.1922225099802
2024-09-23 21:24:35.462433,41.98,52.922299,0.001044642601720419,-0.022833026512682618,0.09779897304849887,48.12595698684454,-92.24360919585227,72.1922225099802
2024-09-23 21:24:35.505374,41.98,52.922349,0.000845657606494293,-0.023479709566915436,0.09779897304849887,48.12595698684454,-92.24360919585227,80.21211738781929
2024-09-23 21:24:35.547625,41.98,52.922349,0.000845657606494293,-0.023479709566915436,0.0970030596496862,48.12595698684454,-88.23529758782387,80.21211738781929
2024-09-23 21:24:35.561927,41.98,52.9224,0.0006466830067647949,-0.023479709566915436,0.0970030596496862,48.12595698684454,-88.23529758782387,76.200527287817
2024-09-23 21:24:35.594285,41.98,52.9224,0.0006466830067647949,-0.02313149783467906,0.0973015264147526,48.12595698684454,-88.23529758782387,76.200527287817
2024-09-23 21:24:35.646475,41.98,52.9224,0.0006466830067647949,-0.02313149783467906,0.0973015264147526,44.11764879391193,-84.22370748782159,80.21211738781929
2024-09-23 21:24:35.657593,41.98,52.922487,0.0007461703303635545,-0.023728432883788564,0.0973015264147526,44.11764879391193,-84.22370748782159,80.21211738781929
2024-09-23 21:24:35.700733,41.98,52.922539,0.0005471957306340564,-0.023728432883788564,0.09794820946898543,40.106058693909645,-92.24360919585227,76.200527287817
2024-09-23 21:24:35.743183,41.98,52.922539,0.0005471957306340564,-0.0228827638849692,0.09764974270391902,48.12595698684454,-92.24360919585227,76.200527287817
2024-09-23 21:24:35.754693,41.98,52.922589,0.0005471957306340564,-0.0228827638849692,0.09764974270391902,48.12595698684454,-92.24360919585227,84.22370748782159
2024-09-23 21:24:35.796829,41.98,52.922589,0.0003979595949556242,-0.0225345536717095,0.09794820946898543,44.11764879391193,-96.25519929585457,76.200527287817
2024-09-23 21:24:35.840091,41.98,52.92264,0.000845657606494293,-0.022982261414192504,0.09794820946898543,44.11764879391193,-96.25519929585457,76.200527287817
2024-09-23 21:24:35.851039,41.98,52.92264,0.000845657606494293,-0.022982261414192504,0.09774922960030558,40.106058693909645,-92.24360919585227,76.200527287817
2024-09-23 21:24:35.893604,41.98,52.922732,0.0012436275969465451,-0.023429960042815445,0.09755024973162574,44.11764879391193,-92.24360919585227,76.200527287817
2024-09-23 21:24:35.936221,41.98,52.922732,0.0012436275969465451,-0.023429960042815445,0.09755024973162574,44.11764879391193,-88.23529758782387,88.23529758782387
2024-09-23 21:24:35.947813,41.98,52.922783,0.0007461703303635545,-0.023181236725942318,0.09759999317981902,44.11764879391193,-88.23529758782387,88.23529758782387
2024-09-23 21:24:35.990582,41.99,52.922834,0.00034821073540793035,-0.023181236725942318,0.09759999317981902,36.09446859390736,-88.23529758782387,80.21211738781929
2024-09-23 21:24:36.001951,41.99,52.922834,0.00034821073540793035,-0.02303200030545576,0.09759999317981902,36.09446859390736,-88.23529758782387,80.21211738781929
2024-09-23 21:24:36.033799,41.99,52.922834,0.00034821073540793035,-0.02303200030545576,0.09715228999426605,36.09446859390736,-88.23529758782387,80.21211738781929
2024-09-23 21:24:36.045301,41.99,52.922884,0.000845657606494293,-0.02303200030545576,0.09715228999426605,44.11764879391193,-92.24360919585227,72.1922225099802
2024-09-23 21:24:36.088621,41.99,52.922884,0.000845657606494293,-0.023230986250042305,0.0976994861521123,44.11764879391193,-84.22370748782159,76.200527287817
2024-09-23 21:24:36.100484,41.99,52.922975,0.000845657606494293,-0.023230986250042305,0.0976994861521123,44.11764879391193,-84.22370748782159,76.200527287817
2024-09-23 21:24:36.133343,41.99,52.922975,0.0010943914612681128,-0.023280723622328886,0.09755024973162574,44.11764879391193,-84.22370748782159,76.200527287817
2024-09-23 21:24:36.145019,41.99,52.922975,0.0010943914612681128,-0.023280723622328886,0.09755024973162574,40.106058693909645,-92.24360919585227,76.200527287817
2024-09-23 21:24:36.187597,41.99,52.923026,0.0006466830067647949,-0.02303200030545576,0.09740101331113918,44.11764879391193,-92.24360919585227,76.200527287817
2024-09-23 21:24:36.231429,41.99,52.923077,0.0006466830067647949,-0.02303200030545576,0.09740101331113918,44.11764879391193,-92.24360919585227,76.200527287817
2024-09-23 21:24:36.242793,41.99,52.923077,0.0011938787373988514,-0.02278327698858263,0.09755024973162574,44.11764879391193,-92.24360919585227,76.200527287817
2024-09-23 21:24:36.285905,41.99,52.923128,0.0013431148730772837,-0.023181236725942318,0.0973512698629459,44.11764879391193,-88.23529758782387,84.22370748782159
2024-09-23 21:24:36.328872,41.99,52.923128,0.0013431148730772837,-0.023181236725942318,0.0973512698629459,36.09446859390736,-88.23529758782387,80.21211738781929
2024-09-23 21:24:36.340631,41.99,52.923179,0.00044769805900669,-0.023181236725942318,0.0973512698629459,36.09446859390736,-88.23529758782387,80.21211738781929
2024-09-23 21:24:36.372950,41.99,52.923179,0.00044769805900669,-0.023181236725942318,0.0973015264147526,36.09446859390736,-88.23529758782387,80.21211738781929
2024-09-23 21:24:36.384548,41.99,52.923229,0.000845657606494293,-0.023181236725942318,0.0973015264147526,44.11764879391193,-88.23529758782387,80.21211738781929
2024-09-23 21:24:36.426370,41.99,52.923229,0.000845657606494293,-0.023181236725942318,0.09715228999426605,48.12595698684454,-96.25519929585457,80.21211738781929
2024-09-23 21:24:36.437955,41.99,52.923316,0.000845657606494293,-0.023181236725942318,0.09715228999426605,48.12595698684454,-96.25519929585457,76.200527287817
2024-09-23 21:24:36.481201,41.99,52.923316,0.000845657606494293,-0.02313149783467906,0.0970030596496862,44.11764879391193,-96.25519929585457,80.21211738781929
2024-09-23 21:24:36.523276,41.99,52.923367,0.00029846189959424716,-0.02313149783467906,0.0970030596496862,44.11764879391193,-96.25519929585457,80.21211738781929
2024-09-23 21:24:36.535030,41.99,52.923367,0.00029846189959424716,-0.02352945757203875,0.09745075675933246,48.12595698684454,-92.24360919585227,80.21211738781929
2024-09-23 21:24:36.578537,41.99,52.923418,0.0007959191899112484,-0.02367869399252531,0.0973512698629459,40.106058693909645,-92.24360919585227,76.200527287817
2024-09-23 21:24:36.620994,41.99,52.923469,0.0007959191899112484,-0.02367869399252531,0.0973512698629459,40.106058693909645,-96.25519929585457,80.21211738781929
2024-09-23 21:24:36.632523,41.99,52.923469,0.000845657606494293,-0.022833026512682618,0.09794820946898543,40.106058693909645,-96.25519929585457,80.21211738781929
2024-09-23 21:24:36.675003,41.99,52.923519,0.0006466830067647949,-0.02293251340906919,0.09794820946898543,32.08287849390507,-76.200527287817,88.23529758782387
2024-09-23 21:24:36.719050,41.99,52.923519,0.0006466830067647949,-0.02293251340906919,0.09755024973162574,32.08287849390507,-88.23529758782387,88.23529758782387
2024-09-23 21:24:36.730336,41.99,52.92357,0.0004974468710863627,-0.02293251340906919,0.09755024973162574,32.08287849390507,-88.23529758782387,76.200527287817
2024-09-23 21:24:36.762939,41.99,52.92357,0.0004974468710863627,-0.02278327698858263,0.09755024973162574,32.08287849390507,-88.23529758782387,76.200527287817
2024-09-23 21:24:36.775535,41.99,52.923657,0.0004974468710863627,-0.02278327698858263,0.09710254654607277,40.106058693909645,-92.24360919585227,80.21211738781929
2024-09-23 21:24:36.818418,41.99,52.923657,0.0006466830067647949,-0.0228827638849692,0.0976994861521123,48.12595698684454,-92.24360919585227,80.21211738781929
2024-09-23 21:24:36.830351,41.99,52.923657,0.0006466830067647949,-0.0228827638849692,0.0976994861521123,48.12595698684454,-92.24360919585227,88.23529758782387
2024-09-23 21:24:36.862556,41.99,52.923709,0.0006964318663124887,-0.0228827638849692,0.0976994861521123,48.12595698684454,-92.24360919585227,88.23529758782387
2024-09-23 21:24:36.873977,41.99,52.923709,0.0006964318663124887,-0.023479709566915436,0.09755024973162574,40.106058693909645,-92.24360919585227,88.23529758782387
2024-09-23 21:24:36.916800,41.99,52.923759,0.0004974468710863627,-0.023429960042815445,0.0973015264147526,40.106058693909645,-92.24360919585227,80.21211738781929
2024-09-23 21:24:36.928248,41.99,52.923759,0.0004974468710863627,-0.023429960042815445,0.0973015264147526,40.106058693909645,-92.24360919585227,80.21211738781929
2024-09-23 21:24:36.960599,41.99,52.923759,0.0004974468710863627,-0.023429960042815445,0.0973015264147526,40.106058693909645,-96.25519929585457,76.200527287817
2024-09-23 21:24:36.971841,41.99,52.92381,0.0001989745997294981,-0.02293251340906919,0.09745075675933246,40.106058693909645,-96.25519929585457,76.200527287817
2024-09-23 21:24:37.014026,42.08,52.923861,0.0009451553255896806,-0.02293251340906919,0.09745075675933246,32.08287849390507,-92.24360919585227,76.200527287817
2024-09-23 21:24:37.026227,42.08,52.923861,0.0009451553255896806,-0.022982261414192504,0.09745075675933246,32.08287849390507,-92.24360919585227,76.200527287817
2024-09-23 21:24:37.057943,42.08,52.923861,0.0009451553255896806,-0.022982261414192504,0.0970030596496862,36.09446859390736,-92.24360919585227,76.200527287817
2024-09-23 21:24:37.068976,42.08,52.923911,0.000845657606494293,-0.022982261414192504,0.0970030596496862,36.09446859390736,-88.23529758782387,80.21211738781929
2024-09-23 21:24:37.112406,42.08,52.923998,0.000845657606494293,-0.023230986250042305,0.09774922960030558,40.106058693909645,-100.26678939585686,68.18063240997792
2024-09-23 21:24:37.155371,42.08,52.923998,0.001044642601720419,-0.02303200030545576,0.09774922960030558,40.106058693909645,-100.26678939585686,68.18063240997792
2024-09-23 21:24:37.166477,42.08,52.923998,0.001044642601720419,-0.02303200030545576,0.09755024973162574,44.11764879391193,-92.24360919585227,68.18063240997792
2024-09-23 21:24:37.209179,42.08,52.92405,0.0005969341946851222,-0.02303200030545576,0.09799795899308542,44.11764879391193,-92.24360919585227,80.21211738781929
2024-09-23 21:24:37.221572,42.08,52.92405,0.0005969341946851222,-0.02303200030545576,0.09799795899308542,44.11764879391193,-92.24360919585227,80.21211738781929
2024-09-23 21:24:37.253401,42.08,52.92405,0.0005969341946851222,-0.02303200030545576,0.09799795899308542,44.11764879391193,-92.24360919585227,76.200527287817
2024-09-23 21:24:37.265130,42.08,52.924101,0.0007461703303635545,-0.02293251340906919,0.09720203344245934,44.11764879391193,-92.24360919585227,76.200527287817
2024-09-23 21:24:37.307072,42.08,52.924151,0.0007461703303635545,-0.02293251340906919,0.09720203344245934,48.12595698684454,-92.24360919585227,76.200527287817
2024-09-23 21:24:37.319233,42.08,52.924151,0.0007461703303635545,-0.02278327698858263,0.09720203344245934,48.12595698684454,-92.24360919585227,76.200527287817
2024-09-23 21:24:37.352175,42.08,52.924151,0.0007461703303635545,-0.02278327698858263,0.09784872257259886,36.09446859390736,-92.24360919585227,76.200527287817
2024-09-23 21:24:37.363856,42.08,52.924202,0.001044642601720419,-0.02278327698858263,0.09784872257259886,36.09446859390736,-92.24360919585227,76.200527287817
2024-09-23 21:24:37.406299,42.08,52.924252,0.001044642601720419,-0.02278327698858263,0.0973512698629459,44.11764879391193,-96.25519929585457,72.1922225099802
2024-09-23 21:24:37.448211,42.08,52.924252,0.0009948937421727254,-0.02338022115155219,0.0973512698629459,44.11764879391193,-96.25519929585457,72.1922225099802
2024-09-23 21:24:37.459721,42.08,52.924252,0.0009948937421727254,-0.02338022115155219,0.09764974270391902,48.12595698684454,-92.24360919585227,76.200527287817
2024-09-23 21:24:37.502016,42.08,52.92434,0.00014922575204880957,-0.02308174982955575,0.0973015264147526,40.106058693909645,-92.24360919585227,76.200527287817
2024-09-23 21:24:37.514012,42.08,52.92434,0.00014922575204880957,-0.02308174982955575,0.0973015264147526,40.106058693909645,-92.24360919585227,76.200527287817
2024-09-23 21:24:37.546503,42.08,52.924392,0.0001989745997294981,-0.02308174982955575,0.0973015264147526,40.106058693909645,-92.24360919585227,76.200527287817
2024-09-23 21:24:37.557581,42.08,52.924392,0.0001989745997294981,-0.02278327698858263,0.09750050628343246,36.09446859390736,-92.24360919585227,76.200527287817
2024-09-23 21:24:37.600412,42.08,52.924442,0.0007461703303635545,-0.023280723622328886,0.0973015264147526,36.09446859390736,-92.24360919585227,68.18063240997792
2024-09-23 21:24:37.642712,42.08,52.924442,0.0007461703303635545,-0.023280723622328886,0.0973015264147526,40.106058693909645,-92.24360919585227,68.18063240997792
2024-09-23 21:24:37.654063,42.08,52.924493,0.00034821073540793035,-0.0228827638849692,0.0973015264147526,40.106058693909645,-92.24360919585227,76.200527287817
2024-09-23 21:24:37.696937,42.08,52.924544,0.00034821073540793035,-0.0228827638849692,0.09789846602079214,44.11764879391193,-92.24360919585227,76.200527287817
2024-09-23 21:24:37.709699,42.08,52.924544,0.000845657606494293,-0.0228827638849692,0.09789846602079214,44.11764879391193,-92.24360919585227,76.200527287817
2024-09-23 21:24:37.742280,42.08,52.924544,0.000845657606494293,-0.02313149783467906,0.09849540562683168,40.106058693909645,-92.24360919585227,76.200527287817
2024-09-23 21:24:37.753850,42.08,52.924632,0.000845657606494293,-0.02313149783467906,0.09849540562683168,40.106058693909645,-100.26678939585686,76.200527287817
2024-09-23 21:24:37.796140,42.08,52.924632,0.0013431148730772837,-0.02308174982955575,0.09799795899308542,40.106058693909645,-96.25519929585457,76.200527287817
2024-09-23 21:24:37.840593,42.08,52.924684,0.0005969341946851222,-0.023330473146428877,0.09799795899308542,40.106058693909645,-96.25519929585457,76.200527287817
2024-09-23 21:24:37.851919,42.08,52.924684,0.0005969341946851222,-0.023330473146428877,0.09705279702197278,40.106058693909645,-92.24360919585227,76.200527287817
2024-09-23 21:24:37.884282,42.08,52.924684,0.0005969341946851222,-0.023330473146428877,0.09705279702197278,40.106058693909645,-92.24360919585227,80.21211738781929
2024-09-23 21:24:37.895583,42.08,52.924734,0.000845657606494293,-0.0228827638849692,0.09705279702197278,40.106058693909645,-92.24360919585227,80.21211738781929
2024-09-23 21:24:37.938569,42.08,52.924785,0.000845657606494293,-0.0228827638849692,0.09705279702197278,40.106058693909645,-96.25519929585457,80.21211738781929
2024-09-23 21:24:37.950301,42.08,52.924785,0.000845657606494293,-0.022982261414192504,0.09690356060148622,40.106058693909645,-96.25519929585457,80.21211738781929
2024-09-23 21:24:37.983081,42.08,52.924785,0.000845657606494293,-0.022982261414192504,0.09690356060148622,44.11764879391193,-96.25519929585457,80.21211738781929
2024-09-23 21:24:37.994159,42.08,52.924836,0.0007461703303635545,-0.0228827638849692,0.09690356060148622,44.11764879391193,-92.24360919585227,80.21211738781929
2024-09-23 21:24:38.036411,42.38,52.924836,0.0007461703303635545,-0.0228827638849692,0.09675432418099966,36.09446859390736,-88.23529758782387,84.22370748782159
2024-09-23 21:24:38.048306,42.38,52.924887,0.0009451553255896806,-0.0228827638849692,0.09675432418099966,36.09446859390736,-88.23529758782387,84.22370748782159
2024-09-23 21:24:38.081330,42.38,52.924887,0.0009451553255896806,-0.023181236725942318,0.0973512698629459,36.09446859390736,-88.23529758782387,84.22370748782159
2024-09-23 21:24:38.093177,42.38,52.924973,0.0009451553255896806,-0.023181236725942318,0.0973512698629459,32.08287849390507,-96.25519929585457,76.200527287817
2024-09-23 21:24:38.136017,42.38,52.924973,0.0003979595949556242,-0.023181236725942318,0.0973512698629459,32.08287849390507,-96.25519929585457,76.200527287817
2024-09-23 21:24:38.178523,42.38,52.924973,0.0003979595949556242,-0.022584292562972758,0.0973512698629459,32.08287849390507,-96.25519929585457,76.200527287817
2024-09-23 21:24:38.189612,42.38,52.925025,0.0003979595949556242,-0.022584292562972758,0.0973015264147526,44.11764879391193,-92.24360919585227,80.21211738781929
2024-09-23 21:24:38.232858,42.38,52.925025,0.0004974468710863627,-0.023181236725942318,0.09794820946898543,52.137550501942634,-92.24360919585227,80.21211738781929
2024-09-23 21:24:38.244807,42.38,52.925025,0.0004974468710863627,-0.023181236725942318,0.09794820946898543,52.137550501942634,-92.24360919585227,76.200527287817
2024-09-23 21:24:38.276234,42.38,52.925076,0.0011938787373988514,-0.023181236725942318,0.09794820946898543,52.137550501942634,-92.24360919585227,76.200527287817
2024-09-23 21:24:38.288106,42.38,52.925076,0.0011938787373988514,-0.0224350561424862,0.09779897304849887,48.12595698684454,-92.24360919585227,76.200527287817
2024-09-23 21:24:38.330553,42.38,52.925126,0.0009451553255896806,-0.022833026512682618,0.09779897304849887,48.12595698684454,-92.24360919585227,72.1922225099802
2024-09-23 21:24:38.343091,42.38,52.925126,0.0009451553255896806,-0.022833026512682618,0.09774922960030558,36.09446859390736,-92.24360919585227,72.1922225099802
2024-09-23 21:24:38.376820,42.38,52.925177,0.0009451553255896806,-0.022833026512682618,0.09774922960030558,36.09446859390736,-96.25519929585457,80.21211738781929
2024-09-23 21:24:38.387936,42.38,52.925177,0.00029846189959424716,-0.02313149783467906,0.0970030596496862,36.09446859390736,-96.25519929585457,80.21211738781929
2024-09-23 21:24:38.431019,42.38,52.925268,0.0005969341946851222,-0.023429960042815445,0.0970030596496862,48.12595698684454,-92.24360919585227,80.21211738781929
2024-09-23 21:24:38.474753,42.38,52.925268,0.0005969341946851222,-0.023429960042815445,0.09740101331113918,44.11764879391193,-92.24360919585227,76.200527287817
2024-09-23 21:24:38.485867,42.38,52.925319,0.0011938787373988514,-0.023429960042815445,0.09740101331113918,44.11764879391193,-92.24360919585227,76.200527287817
2024-09-23 21:24:38.518045,42.38,52.925319,0.0011938787373988514,-0.02268379009219606,0.09740101331113918,44.11764879391193,-92.24360919585227,76.200527287817
2024-09-23 21:24:38.529654,42.38,52.925412,0.0011938787373988514,-0.02268379009219606,0.09740101331113918,44.11764879391193,-92.24360919585227,72.1922225099802
2024-09-23 21:24:38.573852,42.38,52.925412,0.0004974468710863627,-0.023330473146428877,0.09745075675933246,48.12595698684454,-92.24360919585227,72.1922225099802
2024-09-23 21:24:38.586345,42.38,52.925412,0.0004974468710863627,-0.023330473146428877,0.09745075675933246,48.12595698684454,-100.26678939585686,76.200527287817
2024-09-23 21:24:38.618305,42.38,52.925464,0.0009451553255896806,-0.023330473146428877,0.09745075675933246,48.12595698684454,-100.26678939585686,76.200527287817
2024-09-23 21:24:38.629361,42.38,52.925464,0.0009451553255896806,-0.023429960042815445,0.09755024973162574,32.08287849390507,-100.26678939585686,76.200527287817
2024-09-23 21:24:38.672061,42.38,52.925514,0.0009451553255896806,-0.02303200030545576,0.09764974270391902,32.08287849390507,-100.26678939585686,76.200527287817
2024-09-23 21:24:38.684075,42.38,52.925514,0.0009451553255896806,-0.02303200030545576,0.09764974270391902,44.11764879391193,-100.26678939585686,76.200527287817
2024-09-23 21:24:38.718683,42.38,52.925565,0.0009451553255896806,-0.02303200030545576,0.09764974270391902,44.11764879391193,-96.25519929585457,72.1922225099802
2024-09-23 21:24:38.729906,42.38,52.925565,0.0004974468710863627,-0.022982261414192504,0.0970030596496862,44.11764879391193,-96.25519929585457,72.1922225099802
2024-09-23 21:24:38.762088,42.38,52.925565,0.0004974468710863627,-0.022982261414192504,0.0970030596496862,44.11764879391193,-96.25519929585457,72.1922225099802
2024-09-23 21:24:38.773851,42.38,52.925565,0.0004974468710863627,-0.022982261414192504,0.0970030596496862,44.11764879391193,-92.24360919585227,76.200527287817
2024-09-23 21:24:38.816290,42.38,52.925616,0.0003979595949556242,-0.02313149783467906,0.09764974270391902,44.11764879391193,-92.24360919585227,76.200527287817
2024-09-23 21:24:38.828445,42.38,52.925616,0.0003979595949556242,-0.02313149783467906,0.09764974270391902,44.11764879391193,-96.25519929585457,76.200527287817
2024-09-23 21:24:38.861284,42.38,52.925616,0.0003979595949556242,-0.02313149783467906,0.09764974270391902,44.11764879391193,-96.25519929585457,76.200527287817
2024-09-23 21:24:38.873113,42.38,52.925666,0.0011938787373988514,-0.022982261414192504,0.098047696365372,44.11764879391193,-96.25519929585457,76.200527287817
2024-09-23 21:24:38.916116,42.38,52.925753,0.0009451553255896806,-0.022982261414192504,0.098047696365372,44.11764879391193,-88.23529758782387,80.21211738781929
2024-09-23 21:24:38.929121,42.38,52.925753,0.0009451553255896806,-0.023579196463302005,0.09745075675933246,44.11764879391193,-88.23529758782387,80.21211738781929
2024-09-23 21:24:38.962223,42.38,52.925805,0.0009451553255896806,-0.023579196463302005,0.09745075675933246,44.11764879391193,-92.24360919585227,80.21211738781929
2024-09-23 21:24:38.973715,42.38,52.925805,0.0009451553255896806,-0.02303200030545576,0.09745075675933246,44.11764879391193,-92.24360919585227,80.21211738781929
2024-09-23 21:24:39.005629,42.38,52.925805,0.0009451553255896806,-0.02303200030545576,0.09779897304849887,44.11764879391193,-92.24360919585227,80.21211738781929
2024-09-23 21:24:39.016804,42.38,52.925856,0.0009451553255896806,-0.02303200030545576,0.09779897304849887,36.09446859390736,-92.24360919585227,76.200527287817
2024-09-23 21:24:39.059243,42.87,52.925856,0.0009451553255896806,-0.022833026512682618,0.09794820946898543,48.12595698684454,-92.24360919585227,76.200527287817
2024-09-23 21:24:39.070788,42.87,52.925948,0.0009451553255896806,-0.022833026512682618,0.09794820946898543,48.12595698684454,-92.24360919585227,72.1922225099802
2024-09-23 21:24:39.103880,42.87,52.925948,0.0005471957306340564,-0.022833026512682618,0.09794820946898543,48.12595698684454,-92.24360919585227,72.1922225099802
2024-09-23 21:24:39.115792,42.87,52.925948,0.0005471957306340564,-0.0228827638849692,0.09720203344245934,44.11764879391193,-92.24360919585227,76.200527287817
2024-09-23 21:24:39.158442,42.87,52.926,0.0011938787373988514,-0.0228827638849692,0.09764974270391902,40.106058693909645,-92.24360919585227,76.200527287817
2024-09-23 21:24:39.169995,42.87,52.926,0.0011938787373988514,-0.0228827638849692,0.09764974270391902,40.106058693909645,-92.24360919585227,76.200527287817
2024-09-23 21:24:39.203057,42.87,52.926051,0.0011938787373988514,-0.0228827638849692,0.09764974270391902,40.106058693909645,-92.24360919585227,76.200527287817
2024-09-23 21:24:39.214425,42.87,52.926051,0.0006964318663124887,-0.02313149783467906,0.0976994861521123,48.12595698684454,-92.24360919585227,76.200527287817
2024-09-23 21:24:39.256346,42.87,52.926101,0.0011441298778511575,-0.02313149783467906,0.0976994861521123,48.12595698684454,-100.26678939585686,68.18063240997792
2024-09-23 21:24:39.269194,42.87,52.926101,0.0011441298778511575,-0.02308174982955575,0.0976994861521123,48.12595698684454,-100.26678939585686,68.18063240997792
2024-09-23 21:24:39.301092,42.87,52.926101,0.0011441298778511575,-0.02308174982955575,0.0976994861521123,44.11764879391193,-100.26678939585686,68.18063240997792
2024-09-23 21:24:39.313435,42.87,52.926152,0.0007461703303635545,-0.023230986250042305,0.0976994861521123,44.11764879391193,-100.26678939585686,68.18063240997792
2024-09-23 21:24:39.356515,42.87,52.926203,0.00044769805900669,-0.023230986250042305,0.09764974270391902,44.11764879391193,-92.24360919585227,80.21211738781929
2024-09-23 21:24:39.398976,42.87,52.926203,0.00044769805900669,-0.023330473146428877,0.09764974270391902,40.106058693909645,-92.24360919585227,80.21211738781929
2024-09-23 21:24:39.410163,42.87,52.92629,0.00044769805900669,-0.023330473146428877,0.09764974270391902,40.106058693909645,-92.24360919585227,84.22370748782159
2024-09-23 21:24:39.453436,42.87,52.92629,0.0006964318663124887,-0.023479709566915436,0.09745075675933246,40.106058693909645,-92.24360919585227,76.200527287817
2024-09-23 21:24:39.495181,42.87,52.926341,0.0009451553255896806,-0.023479709566915436,0.09745075675933246,40.106058693909645,-92.24360919585227,76.200527287817
2024-09-23 21:24:39.506468,42.87,52.926341,0.0009451553255896806,-0.023181236725942318,0.09705279702197278,52.137550501942634,-96.25519929585457,76.200527287817
2024-09-23 21:24:39.548683,42.87,52.926392,0.0006964318663124887,-0.023280723622328886,0.0976994861521123,52.137550501942634,-96.25519929585457,72.1922225099802
2024-09-23 21:24:39.560812,42.87,52.926392,0.0006964318663124887,-0.023280723622328886,0.0976994861521123,40.106058693909645,-96.25519929585457,72.1922225099802
2024-09-23 21:24:39.592611,42.87,52.926392,0.0006964318663124887,-0.023280723622328886,0.0976994861521123,40.106058693909645,-92.24360919585227,76.200527287817
2024-09-23 21:24:39.604371,42.87,52.926443,0.0009948937421727254,-0.02278327698858263,0.09750050628343246,40.106058693909645,-92.24360919585227,76.200527287817
2024-09-23 21:24:39.646189,42.87,52.926494,0.0010943914612681128,-0.02278327698858263,0.09750050628343246,48.12595698684454,-92.24360919585227,76.200527287817
2024-09-23 21:24:39.657796,42.87,52.926494,0.0010943914612681128,-0.023230986250042305,0.09750050628343246,48.12595698684454,-92.24360919585227,76.200527287817
2024-09-23 21:24:39.690904,42.87,52.926494,0.0010943914612681128,-0.023230986250042305,0.09740101331113918,40.106058693909645,-92.24360919585227,76.200527287817
2024-09-23 21:24:39.701901,42.87,52.926544,0.00044769805900669,-0.023230986250042305,0.09740101331113918,40.106058693909645,-96.25519929585457,80.21211738781929
2024-09-23 21:24:39.744045,42.87,52.926544,0.00044769805900669,-0.023280723622328886,0.09695331012558621,40.106058693909645,-96.25519929585457,72.1922225099802
2024-09-23 21:24:39.756168,42.87,52.926631,0.00044769805900669,-0.023280723622328886,0.09695331012558621,40.106058693909645,-96.25519929585457,72.1922225099802
2024-09-23 21:24:39.787867,42.87,52.926631,0.0005471957306340564,-0.023330473146428877,0.09695331012558621,40.106058693909645,-96.25519929585457,72.1922225099802
2024-09-23 21:24:39.799508,42.87,52.926631,0.0005471957306340564,-0.023330473146428877,0.09764974270391902,40.106058693909645,-88.23529758782387,76.200527287817
2024-09-23 21:24:39.841453,42.87,52.926682,0.0007959191899112484,-0.02308174982955575,0.09745075675933246,40.106058693909645,-88.23529758782387,76.200527287817
2024-09-23 21:24:39.852991,42.87,52.926682,0.0007959191899112484,-0.02308174982955575,0.09745075675933246,40.106058693909645,-92.24360919585227,76.200527287817
2024-09-23 21:24:39.885692,42.87,52.926733,0.0007959191899112484,-0.02308174982955575,0.09745075675933246,40.106058693909645,-92.24360919585227,76.200527287817
2024-09-23 21:24:39.897457,42.87,52.926733,0.00014922575204880957,-0.022733528983459317,0.09774922960030558,44.11764879391193,-92.24360919585227,76.200527287817
2024-09-23 21:24:39.940374,42.87,52.926784,0.0006466830067647949,-0.023579196463302005,0.09774922960030558,44.11764879391193,-96.25519929585457,80.21211738781929
2024-09-23 21:24:39.952073,42.87,52.926784,0.0006466830067647949,-0.023579196463302005,0.09759999317981902,44.11764879391193,-96.25519929585457,80.21211738781929
2024-09-23 21:24:39.983832,42.87,52.926784,0.0006466830067647949,-0.023579196463302005,0.09759999317981902,36.09446859390736,-80.21211738781929,80.21211738781929
2024-09-23 21:24:39.994747,42.87,52.926834,0.0008954064660419869,-0.022982261414192504,0.09759999317981902,36.09446859390736,-80.21211738781929,88.23529758782387
2024-09-23 21:24:40.036730,42.87,52.926834,0.0008954064660419869,-0.022982261414192504,0.09750050628343246,44.11764879391193,-80.21211738781929,88.23529758782387
2024-09-23 21:24:40.080732,43.17,52.926834,0.0008954064660419869,-0.022982261414192504,0.09750050628343246,44.11764879391193,-92.24360919585227,80.21211738781929
2024-09-23 21:24:40.091695,43.17,52.926885,0.0006964318663124887,-0.023230986250042305,0.09715228999426605,44.11764879391193,-92.24360919585227,80.21211738781929
2024-09-23 21:24:40.134573,43.17,52.926972,0.0007461703303635545,-0.023230986250042305,0.09715228999426605,36.09446859390736,-92.24360919585227,76.200527287817
2024-09-23 21:24:40.146370,43.17,52.926972,0.0007461703303635545,-0.023280723622328886,0.09715228999426605,36.09446859390736,-92.24360919585227,76.200527287817
2024-09-23 21:24:40.179209,43.17,52.926972,0.0007461703303635545,-0.023280723622328886,0.09750050628343246,44.11764879391193,-92.24360919585227,76.200527287817
2024-09-23 21:24:40.190654,43.17,52.927024,0.00044769805900669,-0.023280723622328886,0.09750050628343246,44.11764879391193,-84.22370748782159,76.200527287817
2024-09-23 21:24:40.233345,43.17,52.927074,0.00044769805900669,-0.023230986250042305,0.09784872257259886,44.11764879391193,-88.23529758782387,76.200527287817
2024-09-23 21:24:40.275378,43.17,52.927074,-4.973845218406054e-05,-0.02313149783467906,0.09784872257259886,44.11764879391193,-88.23529758782387,76.200527287817
2024-09-23 21:24:40.287016,43.17,52.927074,-4.973845218406054e-05,-0.02313149783467906,0.09690356060148622,44.11764879391193,-100.26678939585686,76.200527287817
2024-09-23 21:24:40.330537,43.17,52.927168,0.00034821073540793035,-0.023429960042815445,0.09720203344245934,44.11764879391193,-100.26678939585686,76.200527287817
2024-09-23 21:24:40.341988,43.17,52.927168,0.00034821073540793035,-0.023429960042815445,0.09720203344245934,44.11764879391193,-100.26678939585686,76.200527287817
2024-09-23 21:24:40.373322,43.17,52.927219,0.00034821073540793035,-0.023429960042815445,0.09720203344245934,44.11764879391193,-100.26678939585686,72.1922225099802
2024-09-23 21:24:40.384452,43.17,52.927219,0.0011441298778511575,-0.02352945757203875,0.09750050628343246,36.09446859390736,-100.26678939585686,72.1922225099802
2024-09-23 21:24:40.427725,43.17,52.92727,0.0006964318663124887,-0.02367869399252531,0.09759999317981902,36.09446859390736,-96.25519929585457,76.200527287817
2024-09-23 21:24:40.470632,43.17,52.92727,0.0006964318663124887,-0.02367869399252531,0.09759999317981902,48.12595698684454,-92.24360919585227,76.200527287817
2024-09-23 21:24:40.482217,43.17,52.92732,0.0011441298778511575,-0.023181236725942318,0.09759999317981902,48.12595698684454,-92.24360919585227,76.200527287817
2024-09-23 21:24:40.524785,43.17,52.927371,0.0011441298778511575,-0.023181236725942318,0.09750050628343246,40.106058693909645,-92.24360919585227,80.21211738781929
2024-09-23 21:24:40.536961,43.17,52.927371,0.0006964318663124887,-0.023181236725942318,0.09750050628343246,40.106058693909645,-92.24360919585227,80.21211738781929
2024-09-23 21:24:40.568808,43.17,52.927371,0.0006964318663124887,-0.02293251340906919,0.09745075675933246,40.106058693909645,-92.24360919585227,80.21211738781929
2024-09-23 21:24:40.580019,43.17,52.92746,0.0006964318663124887,-0.02293251340906919,0.09745075675933246,40.106058693909645,-96.25519929585457,80.21211738781929
2024-09-23 21:24:40.663614,43.17,52.92746,0.0007461703303635545,-0.02293251340906919,0.09745075675933246,40.106058693909645,-96.25519929585457,80.21211738781929
2024-09-23 21:24:40.675222,43.17,52.92746,0.0007461703303635545,-0.02293251340906919,0.09784872257259886,36.09446859390736,-96.25519929585457,80.21211738781929
2024-09-23 21:24:40.717613,43.17,52.927511,0.0007461703303635545,-0.02293251340906919,0.09784872257259886,36.09446859390736,-100.26678939585686,76.200527287817
2024-09-23 21:24:40.729032,43.17,52.927511,0.0006964318663124887,-0.023280723622328886,0.09745075675933246,36.09446859390736,-100.26678939585686,76.200527287817
2024-09-23 21:24:40.760799,43.17,52.927511,0.0006964318663124887,-0.023280723622328886,0.09745075675933246,36.09446859390736,-100.26678939585686,76.200527287817
2024-09-23 21:24:40.771763,43.17,52.927562,0.0004974468710863627,-0.02362894446842532,0.09745075675933246,36.09446859390736,-88.23529758782387,80.21211738781929
2024-09-23 21:24:40.815118,43.17,52.927562,0.0004974468710863627,-0.02362894446842532,0.0976994861521123,40.106058693909645,-96.25519929585457,80.21211738781929
2024-09-23 21:24:40.826736,43.17,52.927613,0.0006964318663124887,-0.02362894446842532,0.0976994861521123,40.106058693909645,-96.25519929585457,80.21211738781929
2024-09-23 21:24:40.858289,43.17,52.927613,0.0006964318663124887,-0.022733528983459317,0.0976994861521123,40.106058693909645,-96.25519929585457,80.21211738781929
2024-09-23 21:24:40.869712,43.17,52.927663,0.0006964318663124887,-0.022733528983459317,0.09685382322919964,44.11764879391193,-96.25519929585457,76.200527287817
2024-09-23 21:24:40.911596,43.17,52.927663,0.0007959191899112484,-0.02303200030545576,0.09680407370509965,44.11764879391193,-96.25519929585457,76.200527287817
2024-09-23 21:24:40.923692,43.17,52.927663,0.0007959191899112484,-0.02303200030545576,0.09680407370509965,40.106058693909645,-92.24360919585227,80.21211738781929
2024-09-23 21:24:40.957192,43.17,52.927801,0.0007959191899112484,-0.02303200030545576,0.09680407370509965,40.106058693909645,-92.24360919585227,80.21211738781929
2024-09-23 21:24:40.968373,43.17,52.927801,0.00029846189959424716,-0.022982261414192504,0.09794820946898543,36.09446859390736,-92.24360919585227,80.21211738781929
2024-09-23 21:24:41.012091,43.17,52.927853,0.0010943914612681128,-0.022982261414192504,0.0973015264147526,36.09446859390736,-92.24360919585227,80.21211738781929
2024-09-23 21:24:41.024204,43.17,52.927853,0.0010943914612681128,-0.022982261414192504,0.0973015264147526,36.09446859390736,-92.24360919585227,80.21211738781929
2024-09-23 21:24:41.057440,43.17,52.927904,0.0010943914612681128,-0.022982261414192504,0.0973015264147526,36.09446859390736,-96.25519929585457,80.21211738781929
2024-09-23 21:24:41.069009,43.17,52.927904,0.001044642601720419,-0.0228827638849692,0.09789846602079214,36.09446859390736,-96.25519929585457,80.21211738781929
2024-09-23 21:24:41.111321,43.47,52.927954,0.0009948937421727254,-0.02308174982955575,0.09789846602079214,36.09446859390736,-96.25519929585457,76.200527287817
2024-09-23 21:24:41.153704,43.47,52.927954,0.0009948937421727254,-0.02308174982955575,0.09759999317981902,36.09446859390736,-96.25519929585457,76.200527287817
2024-09-23 21:24:41.165801,43.47,52.928005,0.0007959191899112484,-0.02308174982955575,0.09759999317981902,36.09446859390736,-100.26678939585686,76.200527287817
2024-09-23 21:24:41.209167,43.47,52.928093,0.0007959191899112484,-0.023280723622328886,0.09794820946898543,44.11764879391193,-92.24360919585227,72.1922225099802
2024-09-23 21:24:41.251474,43.47,52.928093,0.0007959191899112484,-0.0228827638849692,0.09745075675933246,44.11764879391193,-92.24360919585227,72.1922225099802
2024-09-23 21:24:41.304091,43.47,52.928145,0.00044769805900669,-0.0228827638849692,0.09745075675933246,44.11764879391193,-88.23529758782387,72.1922225099802
2024-09-23 21:24:41.316373,43.47,52.928145,0.00044769805900669,-0.02308174982955575,0.09745075675933246,44.11764879391193,-88.23529758782387,72.1922225099802
2024-09-23 21:24:41.348322,43.47,52.928145,0.00044769805900669,-0.02308174982955575,0.09690356060148622,44.11764879391193,-88.23529758782387,72.1922225099802
2024-09-23 21:24:41.359481,43.47,52.928196,0.0009948937421727254,-0.02308174982955575,0.09690356060148622,44.11764879391193,-104.27510100388527,76.200527287817
2024-09-23 21:24:41.402264,43.47,52.928196,0.0009948937421727254,-0.02367869399252531,0.09750050628343246,48.12595698684454,-100.26678939585686,68.18063240997792
2024-09-23 21:24:41.413976,43.47,52.928246,0.0009948937421727254,-0.02367869399252531,0.09750050628343246,48.12595698684454,-100.26678939585686,68.18063240997792
2024-09-23 21:24:41.446184,43.47,52.928246,0.0009451553255896806,-0.02308174982955575,0.09750050628343246,48.12595698684454,-100.26678939585686,68.18063240997792
2024-09-23 21:24:41.457788,43.47,52.928246,0.0009451553255896806,-0.02308174982955575,0.0973512698629459,44.11764879391193,-92.24360919585227,80.21211738781929
2024-09-23 21:24:41.500994,43.47,52.928297,0.00029846189959424716,-0.02313149783467906,0.09725178296655933,40.106058693909645,-96.25519929585457,80.21211738781929
2024-09-23 21:24:41.544820,43.47,52.928387,0.0011441298778511575,-0.02313149783467906,0.09725178296655933,40.106058693909645,-96.25519929585457,76.200527287817
2024-09-23 21:24:41.561307,43.47,52.928387,0.0011441298778511575,-0.023230986250042305,0.09695331012558621,40.106058693909645,-96.25519929585457,76.200527287817
2024-09-23 21:24:41.592886,43.47,52.928438,0.0011441298778511575,-0.023230986250042305,0.09695331012558621,40.106058693909645,-88.23529758782387,80.21211738781929
2024-09-23 21:24:41.604268,43.47,52.928438,0.0005969341946851222,-0.02303200030545576,0.09695331012558621,40.106058693909645,-88.23529758782387,80.21211738781929
2024-09-23 21:24:41.647392,43.47,52.928489,0.0004974468710863627,-0.02338022115155219,0.09695331012558621,44.11764879391193,-96.25519929585457,68.18063240997792
2024-09-23 21:24:41.691250,43.47,52.928489,0.0004974468710863627,-0.02338022115155219,0.09789846602079214,44.11764879391193,-92.24360919585227,68.18063240997792
2024-09-23 21:24:41.702700,43.47,52.928539,0.0010943914612681128,-0.02338022115155219,0.09789846602079214,44.11764879391193,-92.24360919585227,80.21211738781929
2024-09-23 21:24:41.746014,43.47,52.92863,0.0010943914612681128,-0.023330473146428877,0.09705279702197278,36.09446859390736,-96.25519929585457,80.21211738781929
2024-09-23 21:24:41.788950,43.47,52.92863,0.0010943914612681128,-0.02293251340906919,0.09755024973162574,36.09446859390736,-96.25519929585457,80.21211738781929
2024-09-23 21:24:41.801034,43.47,52.92863,0.0010943914612681128,-0.02293251340906919,0.09755024973162574,44.11764879391193,-96.25519929585457,80.21211738781929
2024-09-23 21:24:41.833130,43.47,52.928681,0.0010943914612681128,-0.02293251340906919,0.09755024973162574,44.11764879391193,-96.25519929585457,80.21211738781929
2024-09-23 21:24:41.845177,43.47,52.928681,0.0007959191899112484,-0.02352945757203875,0.09670458680871308,44.11764879391193,-92.24360919585227,80.21211738781929
2024-09-23 21:24:41.887402,43.47,52.928732,0.0006964318663124887,-0.02303200030545576,0.09670458680871308,44.11764879391193,-92.24360919585227,76.200527287817
2024-09-23 21:24:41.898684,43.47,52.928732,0.0006964318663124887,-0.02303200030545576,0.0973512698629459,44.11764879391193,-92.24360919585227,76.200527287817
2024-09-23 21:24:41.931067,43.47,52.928732,0.0006964318663124887,-0.02303200030545576,0.0973512698629459,44.11764879391193,-96.25519929585457,76.200527287817
2024-09-23 21:24:41.942864,43.47,52.928783,0.0005969341946851222,-0.023330473146428877,0.09690356060148622,44.11764879391193,-96.25519929585457,76.200527287817
2024-09-23 21:24:41.984936,43.47,52.928833,0.0005969341946851222,-0.023330473146428877,0.09690356060148622,44.11764879391193,-92.24360919585227,76.200527287817
2024-09-23 21:24:41.996252,43.47,52.928833,0.0007461703303635545,-0.02293251340906919,0.09690356060148622,44.11764879391193,-92.24360919585227,76.200527287817
2024-09-23 21:24:42.028400,43.47,52.928833,0.0007461703303635545,-0.02293251340906919,0.09794820946898543,44.11764879391193,-92.24360919585227,76.200527287817
2024-09-23 21:24:42.040049,43.47,52.928884,0.0007959191899112484,-0.02293251340906919,0.09794820946898543,40.106058693909645,-96.25519929585457,84.22370748782159
2024-09-23 21:24:42.083202,43.47,52.928884,0.0007959191899112484,-0.023778180888911878,0.0973015264147526,44.11764879391193,-96.25519929585457,84.22370748782159
2024-09-23 21:24:42.095128,43.47,52.928971,0.0007959191899112484,-0.023778180888911878,0.0973015264147526,44.11764879391193,-96.25519929585457,72.1922225099802
2024-09-23 21:24:42.128006,43.86,52.928971,0.0007959191899112484,-0.02268379009219606,0.0973015264147526,44.11764879391193,-96.25519929585457,72.1922225099802
2024-09-23 21:24:42.139317,43.86,52.928971,0.0007959191899112484,-0.02268379009219606,0.09759999317981902,40.106058693909645,-100.26678939585686,72.1922225099802
2024-09-23 21:24:42.182529,43.86,52.929023,0.000845657606494293,-0.0228827638849692,0.0973512698629459,40.106058693909645,-100.26678939585686,72.1922225099802
2024-09-23 21:24:42.194181,43.86,52.929023,0.000845657606494293,-0.0228827638849692,0.0973512698629459,40.106058693909645,-96.25519929585457,72.1922225099802
2024-09-23 21:24:42.225587,43.86,52.929073,0.000845657606494293,-0.0228827638849692,0.0973512698629459,40.106058693909645,-96.25519929585457,80.21211738781929
2024-09-23 21:24:42.237822,43.86,52.929073,0.0005969341946851222,-0.02263404056809607,0.09784872257259886,40.106058693909645,-96.25519929585457,80.21211738781929
2024-09-23 21:24:42.280233,43.86,52.929124,0.0007461703303635545,-0.02293251340906919,0.0973512698629459,40.106058693909645,-96.25519929585457,76.200527287817
2024-09-23 21:24:42.323235,43.86,52.929124,0.0007461703303635545,-0.02293251340906919,0.0973512698629459,44.11764879391193,-88.23529758782387,76.200527287817
2024-09-23 21:24:42.334538,43.86,52.929174,0.0012933660135295898,-0.023479709566915436,0.0973512698629459,44.11764879391193,-88.23529758782387,80.21211738781929
2024-09-23 21:24:42.376308,43.86,52.929225,0.0012933660135295898,-0.023479709566915436,0.0973512698629459,40.106058693909645,-100.26678939585686,64.16903547978401
2024-09-23 21:24:42.388676,43.86,52.929225,0.0009948937421727254,-0.023479709566915436,0.0973512698629459,40.106058693909645,-100.26678939585686,64.16903547978401
2024-09-23 21:24:42.421755,43.86,52.929225,0.0009948937421727254,-0.02338022115155219,0.09745075675933246,40.106058693909645,-100.26678939585686,64.16903547978401
2024-09-23 21:24:42.432918,43.86,52.929312,0.0009948937421727254,-0.02338022115155219,0.09745075675933246,44.11764879391193,-100.26678939585686,72.1922225099802
2024-09-23 21:24:42.475280,43.86,52.929312,0.0006466830067647949,-0.02308174982955575,0.09750050628343246,44.11764879391193,-100.26678939585686,76.200527287817
2024-09-23 21:24:42.518075,43.86,52.929364,0.0009948937421727254,-0.02308174982955575,0.09750050628343246,44.11764879391193,-100.26678939585686,76.200527287817
2024-09-23 21:24:42.529694,43.86,52.929364,0.0009948937421727254,-0.02278327698858263,0.09774922960030558,40.106058693909645,-104.27510100388527,76.200527287817
2024-09-23 21:24:42.572383,43.86,52.929414,0.000845657606494293,-0.023579196463302005,0.0973512698629459,40.106058693909645,-104.27510100388527,72.1922225099802
2024-09-23 21:24:42.584001,43.86,52.929414,0.000845657606494293,-0.023579196463302005,0.0973512698629459,48.12595698684454,-104.27510100388527,72.1922225099802
2024-09-23 21:24:42.615307,43.86,52.929414,0.000845657606494293,-0.023579196463302005,0.0973512698629459,48.12595698684454,-100.26678939585686,76.200527287817
2024-09-23 21:24:42.626970,43.86,52.929465,0.0007461703303635545,-0.02352945757203875,0.09750050628343246,48.12595698684454,-100.26678939585686,76.200527287817
2024-09-23 21:24:42.670172,43.86,52.929516,0.0004974468710863627,-0.02352945757203875,0.09750050628343246,48.12595698684454,-100.26678939585686,72.1922225099802
2024-09-23 21:24:42.681906,43.86,52.929516,0.0004974468710863627,-0.023579196463302005,0.09750050628343246,48.12595698684454,-100.26678939585686,72.1922225099802
2024-09-23 21:24:42.714910,43.86,52.929516,0.0004974468710863627,-0.023579196463302005,0.09720203344245934,52.137550501942634,-96.25519929585457,72.1922225099802
2024-09-23 21:24:42.726503,43.86,52.929566,0.0012436275969465451,-0.023579196463302005,0.09720203344245934,52.137550501942634,-96.25519929585457,72.1922225099802
2024-09-23 21:24:42.768895,43.86,52.929654,0.0012436275969465451,-0.023230986250042305,0.09720203344245934,52.137550501942634,-100.26678939585686,76.200527287817
2024-09-23 21:24:42.811674,43.86,52.929654,0.0007461703303635545,-0.023479709566915436,0.09755024973162574,52.137550501942634,-100.26678939585686,76.200527287817
2024-09-23 21:24:42.822849,43.86,52.929654,0.0007461703303635545,-0.023479709566915436,0.09755024973162574,44.11764879391193,-100.26678939585686,80.21211738781929
