Ayaan's Suite
Timestamp,Sample Rate (Hz),Time,Ax,Ay,Az,Gx,Gy,Gz
2024-09-23 23:20:23.146676,0,59.870091,0.0006466830067647949,-0.02661365616941306,0.09655535038822652,56.14914060194492,-92.24360919585227,72.1922225099802
2024-09-23 23:20:23.179125,0,59.870091,0.0006466830067647949,-0.026215699470006727,0.0973015264147526,56.14914060194492,-92.24360919585227,72.1922225099802
2024-09-23 23:20:23.191640,0,59.870178,0.0006466830067647949,-0.026215699470006727,0.0973015264147526,56.14914060194492,-88.23529758782387,76.200527287817
2024-09-23 23:20:23.224321,0,59.870178,0.00029846189959424716,-0.026215699470006727,0.0973015264147526,56.14914060194492,-88.23529758782387,76.200527287817
2024-09-23 23:20:23.235754,0,59.870178,0.00029846189959424716,-0.026165949945906736,0.09655535038822652,40.106058693909645,-88.23529758782387,68.18063240997792
2024-09-23 23:20:23.277773,0,59.870229,4.973845218406054e-05,-0.02661365616941306,0.0970030596496862,40.106058693909645,-88.23529758782387,68.18063240997792
2024-09-23 23:20:23.289344,0,59.870229,4.973845218406054e-05,-0.02661365616941306,0.0970030596496862,48.12595698684454,-96.25519929585457,68.18063240997792
2024-09-23 23:20:23.322031,0,59.870229,4.973845218406054e-05,-0.02661365616941306,0.0970030596496862,48.12595698684454,-96.25519929585457,76.200527287817
2024-09-23 23:20:23.333807,0,59.87028,-0.0004974468710863627,-0.02701161590677275,0.09556044496892059,24.06297849342227,-96.25519929585457,76.200527287817
2024-09-23 23:20:23.376534,0,59.870331,0.00044769805900669,-0.02701161590677275,0.09556044496892059,24.06297849342227,-88.23529758782387,76.200527287817
2024-09-23 23:20:23.387848,0,59.870331,0.00044769805900669,-0.026215699470006727,0.09715228999426605,24.06297849342227,-88.23529758782387,76.200527287817
2024-09-23 23:20:23.419389,0,59.870331,0.00044769805900669,-0.026215699470006727,0.09715228999426605,44.11764879391193,-88.23529758782387,76.200527287817
2024-09-23 23:20:23.431012,0,59.870381,0.0001989745997294981,-0.026364923738679876,0.09715228999426605,44.11764879391193,-88.23529758782387,72.1922225099802
2024-09-23 23:20:23.473391,0,59.870381,0.0001989745997294981,-0.026364923738679876,0.09630662707135339,40.106058693909645,-92.24360919585227,68.18063240997792
2024-09-23 23:20:23.485335,0,59.870432,0.00034821073540793035,-0.026364923738679876,0.09630662707135339,40.106058693909645,-92.24360919585227,68.18063240997792
2024-09-23 23:20:23.517925,0,59.870432,0.00034821073540793035,-0.026265436842293304,0.09630662707135339,40.106058693909645,-92.24360919585227,68.18063240997792
2024-09-23 23:20:23.529837,0,59.870519,0.00034821073540793035,-0.026265436842293304,0.09665483728461309,44.11764879391193,-92.24360919585227,76.200527287817
2024-09-23 23:20:23.572824,0,59.870519,0.00029846189959424716,-0.025917226629033608,0.09725178296655933,48.12595698684454,-96.25519929585457,76.200527287817
2024-09-23 23:20:23.584827,0,59.870519,0.00029846189959424716,-0.025917226629033608,0.09725178296655933,48.12595698684454,-96.25519929585457,76.200527287817
2024-09-23 23:20:23.616724,0,59.870571,0.00029846189959424716,-0.025917226629033608,0.09725178296655933,48.12595698684454,-96.25519929585457,76.200527287817
2024-09-23 23:20:23.628662,0,59.870571,0.00029846189959424716,-0.026265436842293304,0.09655535038822652,44.11764879391193,-92.24360919585227,76.200527287817
2024-09-23 23:20:23.672404,0,59.870621,0.0009451553255896806,-0.026414673262779863,0.09710254654607277,52.137550501942634,-92.24360919585227,68.18063240997792
2024-09-23 23:20:23.715865,0,59.870672,0.0009451553255896806,-0.026414673262779863,0.09710254654607277,52.137550501942634,-92.24360919585227,76.200527287817
2024-09-23 23:20:23.727493,0,59.870672,0.00034821073540793035,-0.026215699470006727,0.09675432418099966,52.137550501942634,-92.24360919585227,76.200527287817
2024-09-23 23:20:23.770388,0,59.870723,0.0005969341946851222,-0.026165949945906736,0.09675432418099966,44.11764879391193,-96.25519929585457,72.1922225099802
2024-09-23 23:20:23.812832,0,59.870723,0.0005969341946851222,-0.026165949945906736,0.09670458680871308,44.11764879391193,-92.24360919585227,72.1922225099802
2024-09-23 23:20:23.824157,0,59.870773,0.00034821073540793035,-0.026165949945906736,0.09670458680871308,44.11764879391193,-92.24360919585227,72.1922225099802
2024-09-23 23:20:23.867234,0,59.87086,0.00034821073540793035,-0.026116200421806745,0.09595840470628028,40.106058693909645,-92.24360919585227,72.1922225099802
2024-09-23 23:20:23.909704,0,59.87086,4.973845218406054e-05,-0.025867477104933617,0.09690356060148622,40.106058693909645,-92.24360919585227,72.1922225099802
2024-09-23 23:20:23.920734,0,59.87086,4.973845218406054e-05,-0.025867477104933617,0.09690356060148622,52.137550501942634,-96.25519929585457,72.1922225099802
2024-09-23 23:20:23.963071,0,59.870912,0.00014922575204880957,-0.02581772758083363,0.0973512698629459,56.14914060194492,-100.26678939585686,72.1922225099802
2024-09-23 23:20:24.006005,0,59.870963,0.00014922575204880957,-0.02581772758083363,0.0973512698629459,56.14914060194492,-100.26678939585686,76.200527287817
2024-09-23 23:20:24.017308,0,59.870963,0.0001989745997294981,-0.026464422786879854,0.0970030596496862,56.14914060194492,-100.26678939585686,76.200527287817
2024-09-23 23:20:24.059232,0,59.871013,0.0005969341946851222,-0.02681263300013955,0.0970030596496862,56.14914060194492,-96.25519929585457,76.200527287817
2024-09-23 23:20:24.070853,0,59.871013,0.0005969341946851222,-0.02681263300013955,0.09755024973162574,56.14914060194492,-96.25519929585457,76.200527287817
2024-09-23 23:20:24.103965,0,59.871013,0.0005969341946851222,-0.02681263300013955,0.09755024973162574,48.12595698684454,-92.24360919585227,76.200527287817
2024-09-23 23:20:24.115529,0,59.871064,0.0003979595949556242,-0.02681263300013955,0.09755024973162574,48.12595698684454,-92.24360919585227,76.200527287817
2024-09-23 23:20:24.157404,45.0,59.871064,0.0003979595949556242,-0.027310088747745865,0.09670458680871308,60.15744537978172,-100.26678939585686,80.21211738781929
2024-09-23 23:20:24.169177,45.0,59.871115,0.0003979595949556242,-0.027310088747745865,0.09670458680871308,60.15744537978172,-100.26678939585686,80.21211738781929
2024-09-23 23:20:24.201359,45.0,59.871115,0.00044769805900669,-0.026116200421806745,0.09670458680871308,60.15744537978172,-100.26678939585686,80.21211738781929
2024-09-23 23:20:24.213587,45.0,59.871115,0.00044769805900669,-0.026116200421806745,0.09695331012558621,48.12595698684454,-96.25519929585457,84.22370748782159
2024-09-23 23:20:24.256974,45.0,59.871202,0.0006466830067647949,-0.025966964001320186,0.09720203344245934,36.09446859390736,-80.21211738781929,84.22370748782159
2024-09-23 23:20:24.300382,45.0,59.871253,0.0006466830067647949,-0.025966964001320186,0.09720203344245934,36.09446859390736,-80.21211738781929,68.18063240997792
2024-09-23 23:20:24.311833,45.0,59.871253,0.0006466830067647949,-0.025917226629033608,0.09764974270391902,56.14914060194492,-80.21211738781929,68.18063240997792
2024-09-23 23:20:24.355057,45.0,59.871304,0.0009451553255896806,-0.02681263300013955,0.09615739065086683,56.14914060194492,-88.23529758782387,72.1922225099802
2024-09-23 23:20:24.397991,45.0,59.871304,0.0009451553255896806,-0.02681263300013955,0.09615739065086683,40.106058693909645,-92.24360919585227,72.1922225099802
2024-09-23 23:20:24.409604,45.0,59.871354,9.948729986474904e-05,-0.026414673262779863,0.09615739065086683,40.106058693909645,-92.24360919585227,72.1922225099802
2024-09-23 23:20:24.452895,45.0,59.871405,0.0005471957306340564,-0.026414673262779863,0.09665483728461309,52.137550501942634,-88.23529758782387,72.1922225099802
2024-09-23 23:20:24.495857,45.0,59.871405,0.0005471957306340564,-0.026912129010386178,0.09670458680871308,52.137550501942634,-88.23529758782387,72.1922225099802
2024-09-23 23:20:24.507106,45.0,59.871494,0.0005471957306340564,-0.026912129010386178,0.09670458680871308,52.137550501942634,-96.25519929585457,72.1922225099802
2024-09-23 23:20:24.549971,45.0,59.871494,0.00029846189959424716,-0.026464422786879854,0.0966050877605131,44.11764879391193,-96.25519929585457,76.200527287817
2024-09-23 23:20:24.592740,45.0,59.871546,0.00024872343554318134,-0.026165949945906736,0.0966050877605131,44.11764879391193,-96.25519929585457,76.200527287817
2024-09-23 23:20:24.605236,45.0,59.871546,0.00024872343554318134,-0.026165949945906736,0.09630662707135339,48.12595698684454,-92.24360919585227,76.200527287817
2024-09-23 23:20:24.637853,45.0,59.871546,0.00024872343554318134,-0.026165949945906736,0.09630662707135339,48.12595698684454,-92.24360919585227,80.21211738781929
2024-09-23 23:20:24.649479,45.0,59.871596,0.0006466830067647949,-0.026265436842293304,0.09556044496892059,28.07457030097246,-92.24360919585227,80.21211738781929
2024-09-23 23:20:24.692286,45.0,59.871647,-0.00024872343554318134,-0.026265436842293304,0.09556044496892059,28.07457030097246,-92.24360919585227,76.200527287817
2024-09-23 23:20:24.703297,45.0,59.871647,-0.00024872343554318134,-0.02676289258989962,0.09650560086412653,28.07457030097246,-92.24360919585227,76.200527287817
2024-09-23 23:20:24.736948,45.0,59.871647,-0.00024872343554318134,-0.02676289258989962,0.09650560086412653,44.11764879391193,-92.24360919585227,76.200527287817
2024-09-23 23:20:24.748524,45.0,59.871698,0.0004974468710863627,-0.025867477104933617,0.09650560086412653,44.11764879391193,-84.22370748782159,76.200527287817
2024-09-23 23:20:24.790245,45.0,59.871748,0.0004974468710863627,-0.025867477104933617,0.09570968138940715,40.106058693909645,-84.22370748782159,80.21211738781929
2024-09-23 23:20:24.802157,45.0,59.871748,0.0,-0.025867477104933617,0.09570968138940715,40.106058693909645,-84.22370748782159,80.21211738781929
2024-09-23 23:20:24.833932,45.0,59.871748,0.0,-0.02721059273749924,0.09570968138940715,40.106058693909645,-84.22370748782159,80.21211738781929
2024-09-23 23:20:24.845651,45.0,59.871835,0.0,-0.02721059273749924,0.09655535038822652,44.11764879391193,-92.24360919585227,80.21211738781929
2024-09-23 23:20:24.888852,45.0,59.871835,0.0005471957306340564,-0.026414673262779863,0.09610764112676684,32.08287849390507,-84.22370748782159,80.21211738781929
2024-09-23 23:20:24.900783,45.0,59.871835,0.0005471957306340564,-0.026414673262779863,0.09610764112676684,32.08287849390507,-84.22370748782159,76.200527287817
2024-09-23 23:20:24.933310,45.0,59.871887,0.0003979595949556242,-0.026414673262779863,0.09610764112676684,32.08287849390507,-84.22370748782159,76.200527287817
2024-09-23 23:20:24.945045,45.0,59.871887,0.0003979595949556242,-0.026265436842293304,0.09675432418099966,48.12595698684454,-92.24360919585227,76.200527287817
2024-09-23 23:20:24.988419,45.0,59.871938,-0.0005969341946851222,-0.02576799020854705,0.0973512698629459,48.12595698684454,-92.24360919585227,80.21211738781929
2024-09-23 23:20:25.031592,45.0,59.871988,-0.0005969341946851222,-0.02576799020854705,0.0973512698629459,48.12595698684454,-96.25519929585457,80.21211738781929
2024-09-23 23:20:25.042772,45.0,59.871988,0.00029846189959424716,-0.026414673262779863,0.09650560086412653,48.12595698684454,-96.25519929585457,80.21211738781929
2024-09-23 23:20:25.085651,45.0,59.872039,0.0005969341946851222,-0.026514160159166435,0.09650560086412653,60.15744537978172,-92.24360919585227,84.22370748782159
2024-09-23 23:20:25.129835,45.0,59.872039,0.0005969341946851222,-0.026514160159166435,0.09695331012558621,56.14914060194492,-96.25519929585457,84.22370748782159
2024-09-23 23:20:25.141009,45.0,59.87209,4.973845218406054e-05,-0.026514160159166435,0.09695331012558621,56.14914060194492,-96.25519929585457,76.200527287817
2024-09-23 23:20:25.183385,43.95,59.872177,4.973845218406054e-05,-0.026315186366393295,0.09645586349183995,28.07457030097246,-92.24360919585227,72.1922225099802
2024-09-23 23:20:25.225109,43.95,59.872177,0.0001989745997294981,-0.026215699470006727,0.09645586349183995,28.07457030097246,-92.24360919585227,72.1922225099802
2024-09-23 23:20:25.237010,43.95,59.872177,0.0001989745997294981,-0.026215699470006727,0.09675432418099966,48.12595698684454,-96.25519929585457,80.21211738781929
2024-09-23 23:20:25.280680,43.95,59.872228,0.0006466830067647949,-0.026464422786879854,0.09655535038822652,36.09446859390736,-88.23529758782387,80.21211738781929
2024-09-23 23:20:25.322828,43.95,59.872279,0.0006466830067647949,-0.026464422786879854,0.09655535038822652,36.09446859390736,-88.23529758782387,72.1922225099802
2024-09-23 23:20:25.333823,43.95,59.872279,-0.0004974468710863627,-0.026713146103752982,0.09595840470628028,40.106058693909645,-88.23529758782387,72.1922225099802
2024-09-23 23:20:25.377034,43.95,59.872329,0.0005969341946851222,-0.026016713525420176,0.09690356060148622,40.106058693909645,-84.22370748782159,76.200527287817
2024-09-23 23:20:25.419532,43.95,59.872329,0.0005969341946851222,-0.026016713525420176,0.09690356060148622,44.11764879391193,-84.22370748782159,76.200527287817
2024-09-23 23:20:25.472231,43.95,59.87238,0.00044769805900669,-0.026016713525420176,0.09690356060148622,44.11764879391193,-92.24360919585227,80.21211738781929
2024-09-23 23:20:25.483970,43.95,59.87238,0.00044769805900669,-0.026364923738679876,0.09725178296655933,44.11764879391193,-92.24360919585227,80.21211738781929
2024-09-23 23:20:25.516943,43.95,59.87238,0.00044769805900669,-0.026364923738679876,0.09725178296655933,60.15744537978172,-92.24360919585227,80.21211738781929
2024-09-23 23:20:25.529033,43.95,59.872431,-4.973845218406054e-05,-0.026563909683266423,0.09725178296655933,60.15744537978172,-96.25519929585457,80.21211738781929
2024-09-23 23:20:25.571384,43.95,59.872518,-4.973845218406054e-05,-0.026563909683266423,0.09695331012558621,40.106058693909645,-96.25519929585457,76.200527287817
2024-09-23 23:20:25.583277,43.95,59.872518,9.948729986474904e-05,-0.026563909683266423,0.09695331012558621,40.106058693909645,-96.25519929585457,76.200527287817
2024-09-23 23:20:25.616644,43.95,59.872518,9.948729986474904e-05,-0.02576799020854705,0.09705279702197278,40.106058693909645,-96.25519929585457,76.200527287817
2024-09-23 23:20:25.628416,43.95,59.87257,9.948729986474904e-05,-0.02576799020854705,0.09705279702197278,40.106058693909645,-84.22370748782159,68.18063240997792
2024-09-23 23:20:25.672137,43.95,59.87257,-4.973845218406054e-05,-0.026514160159166435,0.09561019449302058,36.09446859390736,-96.25519929585457,76.200527287817
2024-09-23 23:20:25.715022,43.95,59.872665,4.973845218406054e-05,-0.027160852327259306,0.09561019449302058,36.09446859390736,-96.25519929585457,76.200527287817
2024-09-23 23:20:25.726350,43.95,59.872665,4.973845218406054e-05,-0.027160852327259306,0.09670458680871308,52.137550501942634,-92.24360919585227,76.200527287817
2024-09-23 23:20:25.769145,43.95,59.872716,0.00029846189959424716,-0.026514160159166435,0.0962568775472534,48.12595698684454,-92.24360919585227,76.200527287817
2024-09-23 23:20:25.811305,43.95,59.872767,0.00029846189959424716,-0.026514160159166435,0.0962568775472534,48.12595698684454,-92.24360919585227,76.200527287817
2024-09-23 23:20:25.822960,43.95,59.872767,0.000845657606494293,-0.025867477104933617,0.09630662707135339,48.12595698684454,-92.24360919585227,76.200527287817
2024-09-23 23:20:25.865883,43.95,59.872817,0.00024872343554318134,-0.026464422786879854,0.09630662707135339,40.106058693909645,-88.23529758782387,76.200527287817
2024-09-23 23:20:25.908587,43.95,59.872817,0.00024872343554318134,-0.026464422786879854,0.0966050877605131,44.11764879391193,-88.23529758782387,76.200527287817
2024-09-23 23:20:25.919625,43.95,59.872868,0.0007959191899112484,-0.026464422786879854,0.0966050877605131,44.11764879391193,-88.23529758782387,76.200527287817
2024-09-23 23:20:25.962105,43.95,59.872957,0.0007959191899112484,-0.026066463049520167,0.09655535038822652,52.137550501942634,-92.24360919585227,72.1922225099802
2024-09-23 23:20:26.005437,43.95,59.872957,0.00029846189959424716,-0.026315186366393295,0.09655535038822652,52.137550501942634,-92.24360919585227,72.1922225099802
2024-09-23 23:20:26.016714,43.95,59.872957,0.00029846189959424716,-0.026315186366393295,0.09640611396773996,48.12595698684454,-96.25519929585457,76.200527287817
2024-09-23 23:20:26.058542,43.95,59.873008,-4.973845218406054e-05,-0.026464422786879854,0.09640611396773996,48.12595698684454,-96.25519929585457,76.200527287817
2024-09-23 23:20:26.070692,43.95,59.873008,-4.973845218406054e-05,-0.026464422786879854,0.09640611396773996,48.12595698684454,-92.24360919585227,76.200527287817
2024-09-23 23:20:26.104070,43.95,59.873059,-4.973845218406054e-05,-0.026464422786879854,0.09640611396773996,48.12595698684454,-92.24360919585227,72.1922225099802
2024-09-23 23:20:26.115711,43.95,59.873059,-4.973845218406054e-05,-0.026514160159166435,0.09635636444363997,48.12595698684454,-92.24360919585227,72.1922225099802
2024-09-23 23:20:26.158060,43.95,59.87311,4.973845218406054e-05,-0.02661365616941306,0.09630662707135339,48.12595698684454,-96.25519929585457,72.1922225099802
2024-09-23 23:20:26.200059,42.74,59.87311,4.973845218406054e-05,-0.02661365616941306,0.09630662707135339,48.12595698684454,-96.25519929585457,72.1922225099802
2024-09-23 23:20:26.212122,42.74,59.873161,0.00034821073540793035,-0.026364923738679876,0.09630662707135339,48.12595698684454,-96.25519929585457,76.200527287817
2024-09-23 23:20:26.254868,42.74,59.873211,0.00034821073540793035,-0.026364923738679876,0.09720203344245934,48.12595698684454,-96.25519929585457,72.1922225099802
2024-09-23 23:20:26.266382,42.74,59.873211,4.973845218406054e-05,-0.026364923738679876,0.09720203344245934,48.12595698684454,-96.25519929585457,72.1922225099802
2024-09-23 23:20:26.298476,42.74,59.873211,4.973845218406054e-05,-0.025966964001320186,0.09715228999426605,40.106058693909645,-96.25519929585457,72.1922225099802
2024-09-23 23:20:26.309775,42.74,59.873298,4.973845218406054e-05,-0.025966964001320186,0.09715228999426605,40.106058693909645,-88.23529758782387,76.200527287817
2024-09-23 23:20:26.353435,42.74,59.873298,0.00014922575204880957,-0.025966964001320186,0.09675432418099966,52.137550501942634,-92.24360919585227,84.22370748782159
2024-09-23 23:20:26.395935,42.74,59.873349,0.00034821073540793035,-0.025917226629033608,0.09675432418099966,52.137550501942634,-92.24360919585227,84.22370748782159
2024-09-23 23:20:26.406888,42.74,59.873349,0.00034821073540793035,-0.025917226629033608,0.09685382322919964,56.14914060194492,-92.24360919585227,84.22370748782159
2024-09-23 23:20:26.449541,42.74,59.8734,-0.00034821073540793035,-0.026912129010386178,0.0973015264147526,52.137550501942634,-92.24360919585227,84.22370748782159
2024-09-23 23:20:26.491910,42.74,59.8734,-0.00034821073540793035,-0.026912129010386178,0.0973015264147526,52.137550501942634,-96.25519929585457,80.21211738781929
2024-09-23 23:20:26.503695,42.74,59.873451,0.0006466830067647949,-0.027757798009205543,0.09575943091350714,52.137550501942634,-96.25519929585457,80.21211738781929
2024-09-23 23:20:26.545237,42.74,59.873501,0.00029846189959424716,-0.027757798009205543,0.09575943091350714,32.08287849390507,-92.24360919585227,72.1922225099802
2024-09-23 23:20:26.556987,42.74,59.873501,0.00029846189959424716,-0.026215699470006727,0.09575943091350714,32.08287849390507,-92.24360919585227,72.1922225099802
2024-09-23 23:20:26.590196,42.74,59.873501,0.00029846189959424716,-0.026215699470006727,0.09665483728461309,28.07457030097246,-92.24360919585227,72.1922225099802
2024-09-23 23:20:26.601756,42.74,59.873552,0.0007959191899112484,-0.026215699470006727,0.09665483728461309,28.07457030097246,-88.23529758782387,76.200527287817
2024-09-23 23:20:26.644522,42.74,59.873639,0.0007959191899112484,-0.02581772758083363,0.09725178296655933,56.14914060194492,-92.24360919585227,80.21211738781929
2024-09-23 23:20:26.687646,42.74,59.873639,0.00044769805900669,-0.02686238252423954,0.09725178296655933,56.14914060194492,-92.24360919585227,80.21211738781929
2024-09-23 23:20:26.699284,42.74,59.873639,0.00044769805900669,-0.02686238252423954,0.09570968138940715,40.106058693909645,-92.24360919585227,80.21211738781929
2024-09-23 23:20:26.742087,42.74,59.873691,0.0006964318663124887,-0.026116200421806745,0.09640611396773996,36.09446859390736,-96.25519929585457,80.21211738781929
2024-09-23 23:20:26.785417,42.74,59.873741,0.0006964318663124887,-0.026116200421806745,0.09640611396773996,36.09446859390736,-96.25519929585457,72.1922225099802
2024-09-23 23:20:26.797461,42.74,59.873741,0.00044769805900669,-0.025966964001320186,0.09670458680871308,36.09446859390736,-96.25519929585457,72.1922225099802
2024-09-23 23:20:26.841439,42.74,59.873792,0.00044769805900669,-0.025966964001320186,0.09670458680871308,36.09446859390736,-84.22370748782159,76.200527287817
2024-09-23 23:20:26.884241,42.74,59.873792,4.973845218406054e-05,-0.026066463049520167,0.09725178296655933,36.09446859390736,-84.22370748782159,76.200527287817
2024-09-23 23:20:26.895725,42.74,59.873792,4.973845218406054e-05,-0.026066463049520167,0.09725178296655933,44.11764879391193,-92.24360919585227,80.21211738781929
2024-09-23 23:20:26.938387,42.74,59.873843,0.000845657606494293,-0.026464422786879854,0.09819693278585856,60.15744537978172,-92.24360919585227,80.21211738781929
2024-09-23 23:20:26.982700,42.74,59.873893,-0.00024872343554318134,-0.026464422786879854,0.09819693278585856,60.15744537978172,-92.24360919585227,80.21211738781929
2024-09-23 23:20:26.994492,42.74,59.873893,-0.00024872343554318134,-0.026116200421806745,0.09650560086412653,44.11764879391193,-92.24360919585227,80.21211738781929
2024-09-23 23:20:27.027338,42.74,59.873893,-0.00024872343554318134,-0.026116200421806745,0.09650560086412653,44.11764879391193,-92.24360919585227,80.21211738781929
2024-09-23 23:20:27.038955,42.74,59.87398,-4.973845218406054e-05,-0.026414673262779863,0.0966050877605131,44.11764879391193,-92.24360919585227,68.18063240997792
2024-09-23 23:20:27.081751,42.74,59.874031,0.00034821073540793035,-0.026414673262779863,0.0966050877605131,40.106058693909645,-88.23529758782387,76.200527287817
2024-09-23 23:20:27.093426,42.74,59.874031,0.00034821073540793035,-0.026563909683266423,0.0966050877605131,40.106058693909645,-88.23529758782387,76.200527287817
2024-09-23 23:20:27.125678,42.74,59.874031,0.00034821073540793035,-0.026563909683266423,0.09745075675933246,48.12595698684454,-88.23529758782387,76.200527287817
2024-09-23 23:20:27.137444,42.74,59.874082,0.0001989745997294981,-0.026563909683266423,0.09745075675933246,48.12595698684454,-92.24360919585227,76.200527287817
2024-09-23 23:20:27.179215,42.74,59.874082,0.0001989745997294981,-0.02581772758083363,0.09710254654607277,40.106058693909645,-88.23529758782387,76.200527287817
2024-09-23 23:20:27.191070,42.74,59.874175,0.0001989745997294981,-0.02581772758083363,0.09710254654607277,40.106058693909645,-88.23529758782387,76.200527287817
2024-09-23 23:20:27.223688,43.04,59.874175,9.948729986474904e-05,-0.026066463049520167,0.09710254654607277,40.106058693909645,-88.23529758782387,76.200527287817
2024-09-23 23:20:27.234712,43.04,59.874175,9.948729986474904e-05,-0.026066463049520167,0.09595840470628028,28.07457030097246,-88.23529758782387,76.200527287817
2024-09-23 23:20:27.277957,43.04,59.874227,0.0011938787373988514,-0.025917226629033608,0.0970030596496862,44.11764879391193,-88.23529758782387,76.200527287817
2024-09-23 23:20:27.289652,43.04,59.874227,0.0011938787373988514,-0.025917226629033608,0.0970030596496862,44.11764879391193,-92.24360919585227,76.200527287817
2024-09-23 23:20:27.322499,43.04,59.874278,0.0001989745997294981,-0.025917226629033608,0.0970030596496862,44.11764879391193,-92.24360919585227,76.200527287817
2024-09-23 23:20:27.334370,43.04,59.874278,0.0001989745997294981,-0.02676289258989962,0.0970030596496862,44.11764879391193,-92.24360919585227,76.200527287817
2024-09-23 23:20:27.377601,43.04,59.874278,0.0001989745997294981,-0.02676289258989962,0.0970030596496862,44.11764879391193,-100.26678939585686,76.200527287817
2024-09-23 23:20:27.420584,43.04,59.874329,0.00034821073540793035,-0.02676289258989962,0.0970030596496862,44.11764879391193,-100.26678939585686,72.1922225099802
2024-09-23 23:20:27.432127,43.04,59.874329,0.00034821073540793035,-0.026663396579652995,0.09640611396773996,44.11764879391193,-100.26678939585686,72.1922225099802
2024-09-23 23:20:27.476014,43.04,59.874379,0.0004974468710863627,-0.026663396579652995,0.09640611396773996,44.11764879391193,-92.24360919585227,84.22370748782159
2024-09-23 23:20:27.518058,43.04,59.874379,0.0004974468710863627,-0.02661365616941306,0.09640611396773996,44.11764879391193,-92.24360919585227,84.22370748782159
2024-09-23 23:20:27.529717,43.04,59.87443,0.0004974468710863627,-0.02661365616941306,0.09640611396773996,32.08287849390507,-88.23529758782387,76.200527287817
2024-09-23 23:20:27.572425,43.04,59.87443,0.0004974468710863627,-0.02576799020854705,0.0973512698629459,56.14914060194492,-96.25519929585457,80.21211738781929
2024-09-23 23:20:27.616400,43.04,59.874517,-4.973845218406054e-05,-0.026912129010386178,0.09675432418099966,56.14914060194492,-96.25519929585457,80.21211738781929
2024-09-23 23:20:27.627731,43.04,59.874517,-4.973845218406054e-05,-0.026912129010386178,0.09675432418099966,48.12595698684454,-92.24360919585227,80.21211738781929
2024-09-23 23:20:27.670577,43.04,59.874567,0.00034821073540793035,-0.026563909683266423,0.09650560086412653,32.08287849390507,-92.24360919585227,80.21211738781929
2024-09-23 23:20:27.713858,43.04,59.874663,0.0005969341946851222,-0.026563909683266423,0.09650560086412653,32.08287849390507,-96.25519929585457,72.1922225099802
2024-09-23 23:20:27.725590,43.04,59.874663,0.0005969341946851222,-0.026215699470006727,0.09685382322919964,32.08287849390507,-96.25519929585457,72.1922225099802
2024-09-23 23:20:27.758249,43.04,59.874663,0.0005969341946851222,-0.026215699470006727,0.09685382322919964,52.137550501942634,-96.25519929585457,72.1922225099802
2024-09-23 23:20:27.770845,43.04,59.874715,0.0005969341946851222,-0.026464422786879854,0.09685382322919964,52.137550501942634,-96.25519929585457,72.1922225099802
2024-09-23 23:20:27.813132,43.04,59.874765,0.0005969341946851222,-0.026464422786879854,0.09675432418099966,52.137550501942634,-100.26678939585686,76.200527287817
2024-09-23 23:20:27.824994,43.04,59.874765,0.0004974468710863627,-0.026464422786879854,0.09675432418099966,52.137550501942634,-100.26678939585686,76.200527287817
2024-09-23 23:20:27.857778,43.04,59.874765,0.0004974468710863627,-0.02581772758083363,0.09650560086412653,52.137550501942634,-100.26678939585686,76.200527287817
2024-09-23 23:20:27.869791,43.04,59.874858,0.0004974468710863627,-0.02581772758083363,0.09650560086412653,36.09446859390736,-92.24360919585227,76.200527287817
2024-09-23 23:20:27.913204,43.04,59.874858,0.00034821073540793035,-0.026265436842293304,0.09536145902433404,44.11764879391193,-84.22370748782159,80.21211738781929
2024-09-23 23:20:27.956586,43.04,59.87491,0.000845657606494293,-0.026215699470006727,0.09536145902433404,44.11764879391193,-84.22370748782159,80.21211738781929
2024-09-23 23:20:27.968169,43.04,59.87491,0.000845657606494293,-0.026215699470006727,0.09705279702197278,56.14914060194492,-92.24360919585227,80.21211738781929
2024-09-23 23:20:28.011716,43.04,59.87496,0.00029846189959424716,-0.026713146103752982,0.09575943091350714,52.137550501942634,-92.24360919585227,76.200527287817
2024-09-23 23:20:28.053952,43.04,59.875011,0.00029846189959424716,-0.026713146103752982,0.09575943091350714,52.137550501942634,-92.24360919585227,80.21211738781929
2024-09-23 23:20:28.065943,43.04,59.875011,0.00044769805900669,-0.02676289258989962,0.09610764112676684,52.137550501942634,-92.24360919585227,80.21211738781929
2024-09-23 23:20:28.108391,43.04,59.875062,0.0003979595949556242,-0.026414673262779863,0.09610764112676684,56.14914060194492,-92.24360919585227,72.1922225099802
2024-09-23 23:20:28.150793,43.04,59.875062,0.0003979595949556242,-0.026414673262779863,0.09615739065086683,40.106058693909645,-92.24360919585227,72.1922225099802
2024-09-23 23:20:28.203703,43.04,59.875112,0.0,-0.025917226629033608,0.09615739065086683,40.106058693909645,-92.24360919585227,80.21211738781929
2024-09-23 23:20:28.215902,43.04,59.875112,0.0,-0.025917226629033608,0.09620712802315341,40.106058693909645,-92.24360919585227,80.21211738781929
2024-09-23 23:20:28.249122,42.63,59.875112,0.0,-0.025917226629033608,0.09620712802315341,40.106058693909645,-92.24360919585227,80.21211738781929
2024-09-23 23:20:28.260639,42.63,59.875199,0.0006964318663124887,-0.026215699470006727,0.09620712802315341,40.106058693909645,-92.24360919585227,80.21211738781929
2024-09-23 23:20:28.303011,42.63,59.875251,0.0006964318663124887,-0.026215699470006727,0.0959086551821803,32.08287849390507,-92.24360919585227,76.200527287817
2024-09-23 23:20:28.314505,42.63,59.875251,0.00034821073540793035,-0.026215699470006727,0.0959086551821803,32.08287849390507,-92.24360919585227,76.200527287817
2024-09-23 23:20:28.348187,42.63,59.875251,0.00034821073540793035,-0.02551925473986051,0.09705279702197278,52.137550501942634,-92.24360919585227,76.200527287817
2024-09-23 23:20:28.359432,42.63,59.875301,0.00034821073540793035,-0.02551925473986051,0.09705279702197278,52.137550501942634,-92.24360919585227,68.18063240997792
2024-09-23 23:20:28.391198,42.63,59.875301,0.00029846189959424716,-0.02551925473986051,0.09705279702197278,52.137550501942634,-92.24360919585227,68.18063240997792
2024-09-23 23:20:28.402964,42.63,59.875301,0.00029846189959424716,-0.026364923738679876,0.09759999317981902,48.12595698684454,-92.24360919585227,76.200527287817
2024-09-23 23:20:28.445272,42.63,59.875395,0.0006466830067647949,-0.026116200421806745,0.09655535038822652,48.12595698684454,-92.24360919585227,76.200527287817
2024-09-23 23:20:28.456878,42.63,59.875395,0.0006466830067647949,-0.026116200421806745,0.09655535038822652,44.11764879391193,-92.24360919585227,76.200527287817
2024-09-23 23:20:28.488772,42.63,59.875395,0.0006466830067647949,-0.026116200421806745,0.09655535038822652,44.11764879391193,-92.24360919585227,76.200527287817
2024-09-23 23:20:28.500356,42.63,59.875446,0.0005471957306340564,-0.026215699470006727,0.09650560086412653,52.137550501942634,-92.24360919585227,76.200527287817
2024-09-23 23:20:28.543682,42.63,59.875497,0.0005471957306340564,-0.026215699470006727,0.09650560086412653,52.137550501942634,-96.25519929585457,76.200527287817
2024-09-23 23:20:28.556622,42.63,59.875497,0.0005471957306340564,-0.02701161590677275,0.09650560086412653,52.137550501942634,-96.25519929585457,76.200527287817
2024-09-23 23:20:28.589100,42.63,59.875497,0.0005471957306340564,-0.02701161590677275,0.09650560086412653,44.11764879391193,-92.24360919585227,76.200527287817
2024-09-23 23:20:28.600263,42.63,59.875547,0.00029846189959424716,-0.026514160159166435,0.09650560086412653,44.11764879391193,-92.24360919585227,76.200527287817
2024-09-23 23:20:28.643589,42.63,59.875598,0.00029846189959424716,-0.026514160159166435,0.0962568775472534,32.08287849390507,-84.22370748782159,76.200527287817
2024-09-23 23:20:28.655277,42.63,59.875598,0.0006466830067647949,-0.026514160159166435,0.0962568775472534,32.08287849390507,-84.22370748782159,76.200527287817
2024-09-23 23:20:28.687913,42.63,59.875598,0.0006466830067647949,-0.026414673262779863,0.0973512698629459,56.14914060194492,-84.22370748782159,76.200527287817
2024-09-23 23:20:28.699234,42.63,59.875687,0.0006466830067647949,-0.026414673262779863,0.0973512698629459,56.14914060194492,-84.22370748782159,72.1922225099802
2024-09-23 23:20:28.741579,42.63,59.875687,0.00044769805900669,-0.026265436842293304,0.0973512698629459,56.14914060194492,-84.22370748782159,72.1922225099802
2024-09-23 23:20:28.784603,42.63,59.875687,0.00044769805900669,-0.026265436842293304,0.09580916828579372,44.11764879391193,-84.22370748782159,72.1922225099802
2024-09-23 23:20:28.796127,42.63,59.875738,0.00044769805900669,-0.026265436842293304,0.09580916828579372,44.11764879391193,-92.24360919585227,72.1922225099802
2024-09-23 23:20:28.839611,42.63,59.875789,0.00044769805900669,-0.02661365616941306,0.09650560086412653,44.11764879391193,-96.25519929585457,76.200527287817
2024-09-23 23:20:28.883765,42.63,59.875789,0.0004974468710863627,-0.026464422786879854,0.09645586349183995,44.11764879391193,-96.25519929585457,76.200527287817
2024-09-23 23:20:28.895394,42.63,59.875789,0.0004974468710863627,-0.026464422786879854,0.09645586349183995,40.106058693909645,-100.26678939585686,64.16903547978401
2024-09-23 23:20:28.937987,42.63,59.875839,0.0007461703303635545,-0.026663396579652995,0.0966050877605131,32.08287849390507,-84.22370748782159,64.16903547978401
2024-09-23 23:20:28.981983,42.63,59.87589,0.00029846189959424716,-0.026563909683266423,0.0966050877605131,32.08287849390507,-84.22370748782159,72.1922225099802
2024-09-23 23:20:28.993478,42.63,59.87589,0.00029846189959424716,-0.026563909683266423,0.09600815423038027,40.106058693909645,-84.22370748782159,72.1922225099802
2024-09-23 23:20:29.024999,42.63,59.87589,0.00029846189959424716,-0.026563909683266423,0.09600815423038027,40.106058693909645,-92.24360919585227,72.1922225099802
2024-09-23 23:20:29.037621,42.63,59.875981,0.0001989745997294981,-0.02661365616941306,0.09620712802315341,40.106058693909645,-92.24360919585227,72.1922225099802
2024-09-23 23:20:29.079477,42.63,59.876032,0.0001989745997294981,-0.02661365616941306,0.09620712802315341,44.11764879391193,-88.23529758782387,72.1922225099802
2024-09-23 23:20:29.091472,42.63,59.876032,-4.973845218406054e-05,-0.02576799020854705,0.09620712802315341,44.11764879391193,-88.23529758782387,72.1922225099802
2024-09-23 23:20:29.123252,42.63,59.876032,-4.973845218406054e-05,-0.02576799020854705,0.09645586349183995,44.11764879391193,-88.23529758782387,72.1922225099802
2024-09-23 23:20:29.134202,42.63,59.876082,0.0001989745997294981,-0.02576799020854705,0.09645586349183995,40.106058693909645,-88.23529758782387,76.200527287817
2024-09-23 23:20:29.176865,42.63,59.876082,0.0001989745997294981,-0.026464422786879854,0.09645586349183995,44.11764879391193,-88.23529758782387,76.200527287817
2024-09-23 23:20:29.188762,42.63,59.876174,0.0001989745997294981,-0.026464422786879854,0.09645586349183995,44.11764879391193,-88.23529758782387,72.1922225099802
2024-09-23 23:20:29.221684,42.63,59.876174,0.0003979595949556242,-0.026464422786879854,0.09645586349183995,44.11764879391193,-88.23529758782387,72.1922225099802
2024-09-23 23:20:29.233220,42.63,59.876174,0.0003979595949556242,-0.026464422786879854,0.09690356060148622,56.14914060194492,-96.25519929585457,72.1922225099802
2024-09-23 23:20:29.275539,43.15,59.876226,-9.948729986474904e-05,-0.026713146103752982,0.09585891780989371,32.08287849390507,-96.25519929585457,72.1922225099802
2024-09-23 23:20:29.287241,43.15,59.876226,-9.948729986474904e-05,-0.026713146103752982,0.09585891780989371,32.08287849390507,-92.24360919585227,72.1922225099802
2024-09-23 23:20:29.369968,43.15,59.876276,0.0005471957306340564,-0.026713146103752982,0.09585891780989371,32.08287849390507,-92.24360919585227,72.1922225099802
2024-09-23 23:20:29.381896,43.15,59.876276,0.0005471957306340564,-0.026215699470006727,0.09779897304849887,56.14914060194492,-92.24360919585227,72.1922225099802
2024-09-23 23:20:29.425637,43.15,59.876327,0.0004974468710863627,-0.02696186942062611,0.09665483728461309,56.14914060194492,-100.26678939585686,76.200527287817
2024-09-23 23:20:29.468087,43.15,59.876327,0.0004974468710863627,-0.02696186942062611,0.09665483728461309,40.106058693909645,-84.22370748782159,72.1922225099802
2024-09-23 23:20:29.479173,43.15,59.876378,9.948729986474904e-05,-0.026563909683266423,0.09665483728461309,40.106058693909645,-84.22370748782159,72.1922225099802
2024-09-23 23:20:29.522356,43.15,59.876428,0.00044769805900669,-0.026563909683266423,0.09685382322919964,48.12595698684454,-92.24360919585227,80.21211738781929
2024-09-23 23:20:29.565094,43.15,59.876428,0.00044769805900669,-0.026464422786879854,0.0966050877605131,32.08287849390507,-92.24360919585227,80.21211738781929
2024-09-23 23:20:29.576458,43.15,59.876515,0.00044769805900669,-0.026464422786879854,0.0966050877605131,32.08287849390507,-96.25519929585457,68.18063240997792
2024-09-23 23:20:29.618626,43.15,59.876515,0.00034821073540793035,-0.025966964001320186,0.0959086551821803,40.106058693909645,-96.25519929585457,76.200527287817
2024-09-23 23:20:29.662433,43.15,59.876613,0.0006964318663124887,-0.026514160159166435,0.0959086551821803,40.106058693909645,-96.25519929585457,76.200527287817
2024-09-23 23:20:29.674280,43.15,59.876613,0.0006964318663124887,-0.026514160159166435,0.09670458680871308,44.11764879391193,-92.24360919585227,76.200527287817
2024-09-23 23:20:29.717033,43.15,59.876665,0.000845657606494293,-0.026414673262779863,0.0966050877605131,44.11764879391193,-92.24360919585227,72.1922225099802
2024-09-23 23:20:29.760098,43.15,59.876665,0.000845657606494293,-0.026414673262779863,0.0966050877605131,44.11764879391193,-92.24360919585227,76.200527287817
2024-09-23 23:20:29.772128,43.15,59.876715,-9.948729986474904e-05,-0.026563909683266423,0.09610764112676684,44.11764879391193,-92.24360919585227,76.200527287817
2024-09-23 23:20:29.814562,43.15,59.876766,-0.00034821073540793035,-0.0255690042639605,0.09610764112676684,48.12595698684454,-88.23529758782387,68.18063240997792
2024-09-23 23:20:29.859565,43.15,59.876766,-0.00034821073540793035,-0.0255690042639605,0.09655535038822652,44.11764879391193,-88.23529758782387,68.18063240997792
2024-09-23 23:20:29.871383,43.15,59.876817,0.00014922575204880957,-0.0255690042639605,0.09655535038822652,44.11764879391193,-88.23529758782387,76.200527287817
2024-09-23 23:20:29.903742,43.15,59.876817,0.00014922575204880957,-0.026663396579652995,0.09655535038822652,44.11764879391193,-88.23529758782387,76.200527287817
2024-09-23 23:20:29.956488,43.15,59.876817,0.00014922575204880957,-0.026663396579652995,0.09675432418099966,44.11764879391193,-96.25519929585457,76.200527287817
2024-09-23 23:20:29.968123,43.15,59.876905,0.0001989745997294981,-0.026663396579652995,0.09675432418099966,44.11764879391193,-96.25519929585457,76.200527287817
2024-09-23 23:20:30.001359,43.15,59.876905,0.0001989745997294981,-0.026265436842293304,0.09675432418099966,44.11764879391193,-96.25519929585457,76.200527287817
2024-09-23 23:20:30.013968,43.15,59.876957,0.0001989745997294981,-0.026265436842293304,0.09705279702197278,44.11764879391193,-88.23529758782387,80.21211738781929
2024-09-23 23:20:30.056477,43.15,59.876957,0.000845657606494293,-0.025867477104933617,0.09655535038822652,48.12595698684454,-88.23529758782387,80.21211738781929
2024-09-23 23:20:30.067670,43.15,59.876957,0.000845657606494293,-0.025867477104933617,0.09655535038822652,48.12595698684454,-88.23529758782387,72.1922225099802
2024-09-23 23:20:30.100055,43.15,59.877008,0.0003979595949556242,-0.025867477104933617,0.09655535038822652,48.12595698684454,-88.23529758782387,72.1922225099802
2024-09-23 23:20:30.111979,43.15,59.877008,0.0003979595949556242,-0.026165949945906736,0.09690356060148622,52.137550501942634,-80.21211738781929,72.1922225099802
2024-09-23 23:20:30.154707,43.15,59.877058,0.0001989745997294981,-0.026364923738679876,0.09620712802315341,36.09446859390736,-80.21211738781929,76.200527287817
2024-09-23 23:20:30.197439,43.15,59.877058,0.0001989745997294981,-0.026364923738679876,0.09620712802315341,36.09446859390736,-92.24360919585227,76.200527287817
2024-09-23 23:20:30.208571,43.15,59.877151,0.0007461703303635545,-0.026514160159166435,0.09645586349183995,36.09446859390736,-92.24360919585227,76.200527287817
2024-09-23 23:20:30.251217,43.15,59.877202,0.00044769805900669,-0.026514160159166435,0.09645586349183995,44.11764879391193,-92.24360919585227,72.1922225099802
2024-09-23 23:20:30.263524,43.15,59.877202,0.00044769805900669,-0.026016713525420176,0.09645586349183995,44.11764879391193,-92.24360919585227,72.1922225099802
2024-09-23 23:20:30.296431,42.73,59.877202,0.00044769805900669,-0.026016713525420176,0.09685382322919964,52.137550501942634,-92.24360919585227,72.1922225099802
2024-09-23 23:20:30.307934,42.73,59.877252,0.00024872343554318134,-0.026016713525420176,0.09685382322919964,52.137550501942634,-92.24360919585227,72.1922225099802
2024-09-23 23:20:30.350625,42.73,59.877344,0.00024872343554318134,-0.026414673262779863,0.09680407370509965,52.137550501942634,-88.23529758782387,76.200527287817
2024-09-23 23:20:30.394300,42.73,59.877344,0.0008954064660419869,-0.026165949945906736,0.0959086551821803,52.137550501942634,-88.23529758782387,76.200527287817
2024-09-23 23:20:30.406507,42.73,59.877344,0.0008954064660419869,-0.026165949945906736,0.0959086551821803,36.09446859390736,-88.23529758782387,72.1922225099802
2024-09-23 23:20:30.439039,42.73,59.877396,0.0008954064660419869,-0.026165949945906736,0.0959086551821803,36.09446859390736,-88.23529758782387,72.1922225099802
2024-09-23 23:20:30.450801,42.73,59.877396,0.00024872343554318134,-0.02566849116034707,0.09615739065086683,28.07457030097246,-84.22370748782159,72.1922225099802
2024-09-23 23:20:30.493654,42.73,59.877446,0.001044642601720419,-0.026016713525420176,0.09615739065086683,28.07457030097246,-84.22370748782159,80.21211738781929
2024-09-23 23:20:30.505175,42.73,59.877446,0.001044642601720419,-0.026016713525420176,0.09690356060148622,28.07457030097246,-84.22370748782159,80.21211738781929
2024-09-23 23:20:30.537912,42.73,59.877446,0.001044642601720419,-0.026016713525420176,0.09690356060148622,40.106058693909645,-84.22370748782159,80.21211738781929
2024-09-23 23:20:30.549440,42.73,59.877497,4.973845218406054e-05,-0.026563909683266423,0.09690356060148622,40.106058693909645,-80.21211738781929,76.200527287817
2024-09-23 23:20:30.591430,42.73,59.877548,4.973845218406054e-05,-0.026563909683266423,0.0966050877605131,48.12595698684454,-88.23529758782387,80.21211738781929
2024-09-23 23:20:30.602953,42.73,59.877548,0.0003979595949556242,-0.026563909683266423,0.0966050877605131,48.12595698684454,-88.23529758782387,80.21211738781929
2024-09-23 23:20:30.635155,42.73,59.877548,0.0003979595949556242,-0.026514160159166435,0.0966050877605131,48.12595698684454,-88.23529758782387,80.21211738781929
2024-09-23 23:20:30.646726,42.73,59.877598,0.0003979595949556242,-0.026514160159166435,0.0966050877605131,48.12595698684454,-88.23529758782387,76.200527287817
2024-09-23 23:20:30.689366,42.73,59.877598,0.0005969341946851222,-0.02661365616941306,0.09680407370509965,52.137550501942634,-88.23529758782387,76.200527287817
2024-09-23 23:20:30.702090,42.73,59.877598,0.0005969341946851222,-0.02661365616941306,0.09680407370509965,52.137550501942634,-92.24360919585227,72.1922225099802
2024-09-23 23:20:30.734133,42.73,59.877685,0.0005471957306340564,-0.02661365616941306,0.09680407370509965,52.137550501942634,-92.24360919585227,72.1922225099802
2024-09-23 23:20:30.746002,42.73,59.877685,0.0005471957306340564,-0.026165949945906736,0.09670458680871308,48.12595698684454,-92.24360919585227,72.1922225099802
2024-09-23 23:20:30.788626,42.73,59.877737,0.0016415871444341481,-0.026165949945906736,0.09670458680871308,48.12595698684454,-92.24360919585227,76.200527287817
2024-09-23 23:20:30.831528,42.73,59.877737,0.0016415871444341481,-0.025867477104933617,0.09575943091350714,48.12595698684454,-92.24360919585227,76.200527287817
2024-09-23 23:20:30.842565,42.73,59.877788,0.0016415871444341481,-0.025867477104933617,0.09575943091350714,44.11764879391193,-92.24360919585227,76.200527287817
2024-09-23 23:20:30.885585,42.73,59.877788,9.948729986474904e-05,-0.026713146103752982,0.09600815423038027,40.106058693909645,-84.22370748782159,76.200527287817
2024-09-23 23:20:30.897724,42.73,59.877788,9.948729986474904e-05,-0.026713146103752982,0.09600815423038027,40.106058693909645,-84.22370748782159,84.22370748782159
2024-09-23 23:20:30.929706,42.73,59.877838,0.0001989745997294981,-0.026215699470006727,0.09600815423038027,40.106058693909645,-84.22370748782159,84.22370748782159
2024-09-23 23:20:30.941218,42.73,59.877838,0.0001989745997294981,-0.026215699470006727,0.09595840470628028,40.106058693909645,-96.25519929585457,84.22370748782159
2024-09-23 23:20:30.983389,42.73,59.877889,0.0005471957306340564,-0.02566849116034707,0.09645586349183995,60.15744537978172,-96.25519929585457,80.21211738781929
2024-09-23 23:20:31.026259,42.73,59.877889,0.0005471957306340564,-0.02566849116034707,0.09645586349183995,60.15744537978172,-100.26678939585686,76.200527287817
2024-09-23 23:20:31.037954,42.73,59.877978,9.948729986474904e-05,-0.02676289258989962,0.0959086551821803,60.15744537978172,-100.26678939585686,76.200527287817
2024-09-23 23:20:31.080531,42.73,59.878029,0.0008954064660419869,-0.02676289258989962,0.0959086551821803,40.106058693909645,-92.24360919585227,76.200527287817
2024-09-23 23:20:31.092298,42.73,59.878029,0.0008954064660419869,-0.025917226629033608,0.0959086551821803,40.106058693909645,-92.24360919585227,76.200527287817
2024-09-23 23:20:31.124406,42.73,59.878029,0.0008954064660419869,-0.025917226629033608,0.0962568775472534,48.12595698684454,-92.24360919585227,76.200527287817
2024-09-23 23:20:31.135538,42.73,59.87808,-4.973845218406054e-05,-0.025917226629033608,0.0962568775472534,48.12595698684454,-92.24360919585227,76.200527287817
2024-09-23 23:20:31.178200,42.73,59.878173,-4.973845218406054e-05,-0.026066463049520167,0.0966050877605131,52.137550501942634,-96.25519929585457,72.1922225099802
2024-09-23 23:20:31.221128,42.73,59.878173,0.00024872343554318134,-0.026414673262779863,0.0966050877605131,52.137550501942634,-96.25519929585457,72.1922225099802
2024-09-23 23:20:31.232286,42.73,59.878173,0.00024872343554318134,-0.026414673262779863,0.09670458680871308,48.12595698684454,-84.22370748782159,88.23529758782387
2024-09-23 23:20:31.274618,42.73,59.878224,0.0005969341946851222,-0.026414673262779863,0.09670458680871308,48.12595698684454,-84.22370748782159,88.23529758782387
2024-09-23 23:20:31.318063,42.89,59.878224,0.0005969341946851222,-0.026464422786879854,0.09670458680871308,48.12595698684454,-84.22370748782159,88.23529758782387
2024-09-23 23:20:31.329899,42.89,59.878275,0.0005969341946851222,-0.026464422786879854,0.09645586349183995,60.15744537978172,-92.24360919585227,76.200527287817
2024-09-23 23:20:31.372510,42.89,59.878275,0.0,-0.025966964001320186,0.0959086551821803,40.106058693909645,-88.23529758782387,76.200527287817
2024-09-23 23:20:31.384462,42.89,59.878275,0.0,-0.025966964001320186,0.0959086551821803,40.106058693909645,-88.23529758782387,76.200527287817
2024-09-23 23:20:31.416484,42.89,59.878326,0.00029846189959424716,-0.025966964001320186,0.0959086551821803,40.106058693909645,-88.23529758782387,76.200527287817
2024-09-23 23:20:31.428365,42.89,59.878326,0.00029846189959424716,-0.02561875378806049,0.09650560086412653,32.08287849390507,-96.25519929585457,76.200527287817
2024-09-23 23:20:31.470765,42.89,59.878376,-0.00024872343554318134,-0.026215699470006727,0.09680407370509965,32.08287849390507,-96.25519929585457,76.200527287817
2024-09-23 23:20:31.482459,42.89,59.878376,-0.00024872343554318134,-0.026215699470006727,0.09680407370509965,52.137550501942634,-96.25519929585457,76.200527287817
2024-09-23 23:20:31.514220,42.89,59.878376,-0.00024872343554318134,-0.026215699470006727,0.09680407370509965,52.137550501942634,-92.24360919585227,76.200527287817
2024-09-23 23:20:31.529940,42.89,59.878427,0.000845657606494293,-0.026414673262779863,0.09640611396773996,52.137550501942634,-92.24360919585227,76.200527287817
2024-09-23 23:20:31.561863,42.89,59.878427,0.000845657606494293,-0.026414673262779863,0.09640611396773996,48.12595698684454,-96.25519929585457,76.200527287817
2024-09-23 23:20:31.573409,42.89,59.878516,0.0006466830067647949,-0.026563909683266423,0.09640611396773996,48.12595698684454,-96.25519929585457,72.1922225099802
2024-09-23 23:20:31.615581,42.89,59.878567,0.0006466830067647949,-0.026563909683266423,0.09695331012558621,40.106058693909645,-100.26678939585686,68.18063240997792
2024-09-23 23:20:31.627525,42.89,59.878567,0.000845657606494293,-0.026563909683266423,0.09695331012558621,40.106058693909645,-100.26678939585686,68.18063240997792
2024-09-23 23:20:31.659616,42.89,59.878567,0.000845657606494293,-0.026116200421806745,0.0973015264147526,40.106058693909645,-100.26678939585686,68.18063240997792
2024-09-23 23:20:31.671068,42.89,59.87866,0.000845657606494293,-0.026116200421806745,0.0973015264147526,44.11764879391193,-88.23529758782387,72.1922225099802
2024-09-23 23:20:31.713048,42.89,59.87866,0.0003979595949556242,-0.026364923738679876,0.09630662707135339,52.137550501942634,-88.23529758782387,72.1922225099802
2024-09-23 23:20:31.724833,42.89,59.87866,0.0003979595949556242,-0.026364923738679876,0.09630662707135339,52.137550501942634,-88.23529758782387,72.1922225099802
2024-09-23 23:20:31.757884,42.89,59.878712,0.0003979595949556242,-0.026364923738679876,0.09630662707135339,52.137550501942634,-88.23529758782387,72.1922225099802
2024-09-23 23:20:31.769584,42.89,59.878712,0.0003979595949556242,-0.026514160159166435,0.09565993186530716,36.09446859390736,-88.23529758782387,72.1922225099802
2024-09-23 23:20:31.814410,42.89,59.878763,-0.00014922575204880957,-0.026364923738679876,0.09665483728461309,52.137550501942634,-88.23529758782387,72.1922225099802
2024-09-23 23:20:31.856211,42.89,59.878763,-0.00014922575204880957,-0.026364923738679876,0.09665483728461309,52.137550501942634,-88.23529758782387,68.18063240997792
2024-09-23 23:20:31.909681,42.89,59.878814,0.00024872343554318134,-0.02686238252423954,0.09665483728461309,44.11764879391193,-88.23529758782387,68.18063240997792
2024-09-23 23:20:31.952781,42.89,59.878864,0.00024872343554318134,-0.02686238252423954,0.09665483728461309,44.11764879391193,-88.23529758782387,72.1922225099802
2024-09-23 23:20:31.964604,42.89,59.878864,0.00034821073540793035,-0.026116200421806745,0.09630662707135339,40.106058693909645,-88.23529758782387,72.1922225099802
2024-09-23 23:20:32.007913,42.89,59.878915,0.00029846189959424716,-0.026464422786879854,0.09675432418099966,40.106058693909645,-92.24360919585227,76.200527287817
2024-09-23 23:20:32.050875,42.89,59.878915,0.00029846189959424716,-0.026464422786879854,0.09675432418099966,48.12595698684454,-88.23529758782387,76.200527287817
2024-09-23 23:20:32.061849,42.89,59.879002,0.0009451553255896806,-0.026364923738679876,0.09675432418099966,48.12595698684454,-88.23529758782387,76.200527287817
2024-09-23 23:20:32.103968,42.89,59.879052,0.0009451553255896806,-0.026364923738679876,0.09670458680871308,40.106058693909645,-88.23529758782387,72.1922225099802
2024-09-23 23:20:32.116029,42.89,59.879052,0.0001989745997294981,-0.026364923738679876,0.09670458680871308,40.106058693909645,-88.23529758782387,72.1922225099802
2024-09-23 23:20:32.147967,42.89,59.879052,0.0001989745997294981,-0.02576799020854705,0.0966050877605131,40.106058693909645,-88.23529758782387,72.1922225099802
2024-09-23 23:20:32.159932,42.89,59.879148,0.0001989745997294981,-0.02576799020854705,0.0966050877605131,36.09446859390736,-96.25519929585457,72.1922225099802
2024-09-23 23:20:32.202768,42.89,59.879148,0.00024872343554318134,-0.026713146103752982,0.09690356060148622,52.137550501942634,-96.25519929585457,72.1922225099802
2024-09-23 23:20:32.214263,42.89,59.879148,0.00024872343554318134,-0.026713146103752982,0.09690356060148622,52.137550501942634,-96.25519929585457,80.21211738781929
2024-09-23 23:20:32.247043,42.89,59.8792,0.0009451553255896806,-0.026165949945906736,0.09690356060148622,52.137550501942634,-96.25519929585457,80.21211738781929
2024-09-23 23:20:32.258159,42.89,59.8792,0.0009451553255896806,-0.026165949945906736,0.0962568775472534,32.08287849390507,-88.23529758782387,80.21211738781929
2024-09-23 23:20:32.300849,42.89,59.879251,0.0006964318663124887,-0.02581772758083363,0.09640611396773996,36.09446859390736,-88.23529758782387,80.21211738781929
2024-09-23 23:20:32.343406,43.0,59.879301,0.0006964318663124887,-0.02581772758083363,0.09640611396773996,36.09446859390736,-84.22370748782159,80.21211738781929
2024-09-23 23:20:32.355634,43.0,59.879301,-4.973845218406054e-05,-0.026514160159166435,0.0966050877605131,36.09446859390736,-84.22370748782159,80.21211738781929
2024-09-23 23:20:32.398053,43.0,59.879352,-9.948729986474904e-05,-0.026563909683266423,0.0966050877605131,32.08287849390507,-96.25519929585457,72.1922225099802
2024-09-23 23:20:32.440276,43.0,59.879352,-9.948729986474904e-05,-0.026563909683266423,0.09585891780989371,44.11764879391193,-96.25519929585457,72.1922225099802
2024-09-23 23:20:32.452096,43.0,59.879403,0.00044769805900669,-0.026563909683266423,0.09585891780989371,44.11764879391193,-84.22370748782159,72.1922225099802
2024-09-23 23:20:32.495507,43.0,59.879489,0.00044769805900669,-0.025917226629033608,0.0962568775472534,48.12595698684454,-88.23529758782387,80.21211738781929
2024-09-23 23:20:32.538579,43.0,59.879489,0.0012436275969465451,-0.02676289258989962,0.09774922960030558,48.12595698684454,-88.23529758782387,80.21211738781929
2024-09-23 23:20:32.550506,43.0,59.879489,0.0012436275969465451,-0.02676289258989962,0.09774922960030558,48.12595698684454,-100.26678939585686,68.18063240997792
2024-09-23 23:20:32.593154,43.0,59.879541,-4.973845218406054e-05,-0.02696186942062611,0.09605789160266685,48.12595698684454,-92.24360919585227,68.18063240997792
2024-09-23 23:20:32.636137,43.0,59.879591,0.0003979595949556242,-0.02696186942062611,0.09605789160266685,48.12595698684454,-92.24360919585227,76.200527287817
2024-09-23 23:20:32.647234,43.0,59.879591,0.0003979595949556242,-0.026514160159166435,0.09615739065086683,56.14914060194492,-92.24360919585227,76.200527287817
2024-09-23 23:20:32.689423,43.0,59.879642,0.000845657606494293,-0.026116200421806745,0.09600815423038027,56.14914060194492,-100.26678939585686,84.22370748782159
2024-09-23 23:20:32.732841,43.0,59.879642,0.000845657606494293,-0.026116200421806745,0.09600815423038027,40.106058693909645,-92.24360919585227,84.22370748782159
2024-09-23 23:20:32.745132,43.0,59.879693,0.0001989745997294981,-0.025867477104933617,0.09600815423038027,40.106058693909645,-92.24360919585227,72.1922225099802
2024-09-23 23:20:32.788680,43.0,59.879743,0.00034821073540793035,-0.025867477104933617,0.09635636444363997,40.106058693909645,-88.23529758782387,72.1922225099802
2024-09-23 23:20:32.832247,43.0,59.879743,0.00034821073540793035,-0.026464422786879854,0.09645586349183995,48.12595698684454,-88.23529758782387,72.1922225099802
2024-09-23 23:20:32.843321,43.0,59.87983,0.00034821073540793035,-0.026464422786879854,0.09645586349183995,48.12595698684454,-96.25519929585457,68.18063240997792
2024-09-23 23:20:32.888232,43.0,59.87983,9.948729986474904e-05,-0.026464422786879854,0.0973015264147526,40.106058693909645,-88.23529758782387,80.21211738781929
2024-09-23 23:20:32.930291,43.0,59.879882,0.00034821073540793035,-0.02661365616941306,0.09615739065086683,40.106058693909645,-88.23529758782387,80.21211738781929
2024-09-23 23:20:32.941604,43.0,59.879882,0.00034821073540793035,-0.02661365616941306,0.09615739065086683,40.106058693909645,-88.23529758782387,80.21211738781929
2024-09-23 23:20:32.973479,43.0,59.879882,0.00034821073540793035,-0.02661365616941306,0.09615739065086683,40.106058693909645,-88.23529758782387,80.21211738781929
2024-09-23 23:20:32.984952,43.0,59.879933,0.00044769805900669,-0.02566849116034707,0.09605789160266685,44.11764879391193,-88.23529758782387,80.21211738781929
2024-09-23 23:20:33.027462,43.0,59.879983,0.00024872343554318134,-0.02566849116034707,0.09605789160266685,44.11764879391193,-92.24360919585227,72.1922225099802
2024-09-23 23:20:33.039031,43.0,59.879983,0.00024872343554318134,-0.025718240684447058,0.09710254654607277,44.11764879391193,-92.24360919585227,72.1922225099802
2024-09-23 23:20:33.081787,43.0,59.879983,0.00024872343554318134,-0.025718240684447058,0.09710254654607277,36.09446859390736,-92.24360919585227,72.1922225099802
2024-09-23 23:20:33.176513,43.0,59.880034,0.0,-0.025718240684447058,0.09710254654607277,36.09446859390736,-92.24360919585227,80.21211738781929
2024-09-23 23:20:33.189584,43.0,59.880034,0.0,-0.026066463049520167,0.09705279702197278,36.09446859390736,-92.24360919585227,80.21211738781929
2024-09-23 23:20:33.222904,43.0,59.880034,0.0,-0.026066463049520167,0.09705279702197278,40.106058693909645,-92.24360919585227,72.1922225099802
2024-09-23 23:20:33.234730,43.0,59.880085,0.0005471957306340564,-0.026713146103752982,0.09705279702197278,40.106058693909645,-92.24360919585227,72.1922225099802
2024-09-23 23:20:33.267674,43.0,59.880085,0.0005471957306340564,-0.026713146103752982,0.09650560086412653,40.106058693909645,-92.24360919585227,72.1922225099802
2024-09-23 23:20:33.278967,43.0,59.880172,0.0004974468710863627,-0.026713146103752982,0.09650560086412653,48.12595698684454,-92.24360919585227,72.1922225099802
2024-09-23 23:20:33.321476,43.0,59.880172,0.0004974468710863627,-0.026713146103752982,0.09705279702197278,48.12595698684454,-88.23529758782387,76.200527287817
2024-09-23 23:20:33.333651,43.0,59.880223,0.0004974468710863627,-0.026713146103752982,0.09705279702197278,48.12595698684454,-88.23529758782387,76.200527287817
2024-09-23 23:20:33.366371,42.81,59.880223,0.0006964318663124887,-0.026364923738679876,0.09705279702197278,48.12595698684454,-88.23529758782387,76.200527287817
2024-09-23 23:20:33.377437,42.81,59.880223,0.0006964318663124887,-0.026364923738679876,0.0962568775472534,52.137550501942634,-88.23529758782387,72.1922225099802
2024-09-23 23:20:33.419928,42.81,59.880367,0.0006964318663124887,-0.026414673262779863,0.0966050877605131,44.11764879391193,-88.23529758782387,72.1922225099802
2024-09-23 23:20:33.432584,42.81,59.880367,0.0006964318663124887,-0.026414673262779863,0.0966050877605131,44.11764879391193,-92.24360919585227,72.1922225099802
2024-09-23 23:20:33.464988,42.81,59.880419,0.0003979595949556242,-0.026414673262779863,0.0966050877605131,44.11764879391193,-92.24360919585227,76.200527287817
2024-09-23 23:20:33.476089,42.81,59.880419,0.0003979595949556242,-0.02661365616941306,0.09670458680871308,40.106058693909645,-92.24360919585227,76.200527287817
2024-09-23 23:20:33.518505,42.81,59.880469,0.00014922575204880957,-0.026116200421806745,0.09650560086412653,40.106058693909645,-84.22370748782159,72.1922225099802
2024-09-23 23:20:33.563119,42.81,59.880469,0.00014922575204880957,-0.026116200421806745,0.09650560086412653,48.12595698684454,-88.23529758782387,76.200527287817
2024-09-23 23:20:33.575298,42.81,59.88052,0.0007461703303635545,-0.026364923738679876,0.09650560086412653,48.12595698684454,-88.23529758782387,76.200527287817
2024-09-23 23:20:33.607604,42.81,59.88052,0.0007461703303635545,-0.026364923738679876,0.09670458680871308,48.12595698684454,-88.23529758782387,76.200527287817
2024-09-23 23:20:33.619573,42.81,59.880571,0.0004974468710863627,-0.026364923738679876,0.09670458680871308,44.11764879391193,-92.24360919585227,80.21211738781929
2024-09-23 23:20:33.661574,42.81,59.880571,0.0004974468710863627,-0.02661365616941306,0.09595840470628028,48.12595698684454,-88.23529758782387,80.21211738781929
2024-09-23 23:20:33.673118,42.81,59.880659,0.0004974468710863627,-0.02661365616941306,0.09595840470628028,48.12595698684454,-88.23529758782387,76.200527287817
2024-09-23 23:20:33.705119,42.81,59.880659,0.0005471957306340564,-0.02661365616941306,0.09595840470628028,48.12595698684454,-88.23529758782387,76.200527287817
2024-09-23 23:20:33.716429,42.81,59.880659,0.0005471957306340564,-0.02681263300013955,0.09645586349183995,44.11764879391193,-92.24360919585227,76.200527287817
2024-09-23 23:20:33.758685,42.81,59.880711,0.0008954064660419869,-0.02681263300013955,0.09645586349183995,44.11764879391193,-92.24360919585227,76.200527287817
2024-09-23 23:20:33.811783,42.81,59.880761,0.0008954064660419869,-0.026165949945906736,0.09650560086412653,52.137550501942634,-88.23529758782387,72.1922225099802
2024-09-23 23:20:33.855484,42.81,59.880761,0.00014922575204880957,-0.026464422786879854,0.09615739065086683,52.137550501942634,-88.23529758782387,72.1922225099802
2024-09-23 23:20:33.866784,42.81,59.880761,0.00014922575204880957,-0.026464422786879854,0.09615739065086683,48.12595698684454,-84.22370748782159,80.21211738781929
2024-09-23 23:20:33.909481,42.81,59.880812,0.0006964318663124887,-0.026464422786879854,0.0962568775472534,48.12595698684454,-96.25519929585457,80.21211738781929
2024-09-23 23:20:33.951201,42.81,59.880863,0.0006964318663124887,-0.026464422786879854,0.0962568775472534,48.12595698684454,-96.25519929585457,76.200527287817
2024-09-23 23:20:33.962712,42.81,59.880863,-0.00034821073540793035,-0.026215699470006727,0.09635636444363997,44.11764879391193,-96.25519929585457,76.200527287817
2024-09-23 23:20:34.005924,42.81,59.880913,0.00034821073540793035,-0.02676289258989962,0.09635636444363997,44.11764879391193,-88.23529758782387,76.200527287817
2024-09-23 23:20:34.017440,42.81,59.880913,0.00034821073540793035,-0.02676289258989962,0.09685382322919964,44.11764879391193,-88.23529758782387,76.200527287817
2024-09-23 23:20:34.048955,42.81,59.880913,0.00034821073540793035,-0.02676289258989962,0.09685382322919964,40.106058693909645,-88.23529758782387,76.200527287817
2024-09-23 23:20:34.061026,42.81,59.881003,4.973845218406054e-05,-0.026912129010386178,0.09685382322919964,40.106058693909645,-88.23529758782387,76.200527287817
2024-09-23 23:20:34.104964,42.81,59.881053,4.973845218406054e-05,-0.026912129010386178,0.09705279702197278,60.15744537978172,-100.26678939585686,72.1922225099802
2024-09-23 23:20:34.116727,42.81,59.881053,9.948729986474904e-05,-0.026912129010386178,0.09705279702197278,60.15744537978172,-100.26678939585686,72.1922225099802
2024-09-23 23:20:34.148687,42.81,59.881053,9.948729986474904e-05,-0.026514160159166435,0.09720203344245934,52.137550501942634,-100.26678939585686,72.1922225099802
2024-09-23 23:20:34.159700,42.81,59.881147,9.948729986474904e-05,-0.026514160159166435,0.09720203344245934,52.137550501942634,-96.25519929585457,72.1922225099802
2024-09-23 23:20:34.202758,42.81,59.881147,0.0006964318663124887,-0.026663396579652995,0.09695331012558621,36.09446859390736,-92.24360919585227,72.1922225099802
2024-09-23 23:20:34.245571,42.81,59.881198,0.0005471957306340564,-0.026663396579652995,0.09695331012558621,36.09446859390736,-92.24360919585227,72.1922225099802
2024-09-23 23:20:34.257344,42.81,59.881198,0.0005471957306340564,-0.026663396579652995,0.09645586349183995,40.106058693909645,-92.24360919585227,72.1922225099802
2024-09-23 23:20:34.300582,42.81,59.881249,0.0003979595949556242,-0.026265436842293304,0.09650560086412653,40.106058693909645,-92.24360919585227,72.1922225099802
2024-09-23 23:20:34.394143,42.3,59.8813,0.00014922575204880957,-0.026265436842293304,0.09650560086412653,40.106058693909645,-92.24360919585227,72.1922225099802
2024-09-23 23:20:34.406261,42.3,59.8813,0.00014922575204880957,-0.026116200421806745,0.09615739065086683,40.106058693909645,-92.24360919585227,72.1922225099802
2024-09-23 23:20:34.438831,42.3,59.8813,0.00014922575204880957,-0.026116200421806745,0.09615739065086683,48.12595698684454,-88.23529758782387,72.1922225099802
2024-09-23 23:20:34.449821,42.3,59.88135,0.0008954064660419869,-0.026663396579652995,0.09615739065086683,48.12595698684454,-88.23529758782387,80.21211738781929
2024-09-23 23:20:34.492134,42.3,59.881401,0.0008954064660419869,-0.026663396579652995,0.09685382322919964,44.11764879391193,-92.24360919585227,72.1922225099802
2024-09-23 23:20:34.504041,42.3,59.881401,9.948729986474904e-05,-0.026663396579652995,0.09685382322919964,44.11764879391193,-92.24360919585227,72.1922225099802
2024-09-23 23:20:34.536444,42.3,59.881401,9.948729986474904e-05,-0.026364923738679876,0.09635636444363997,44.11764879391193,-92.24360919585227,72.1922225099802
2024-09-23 23:20:34.547580,42.3,59.881488,9.948729986474904e-05,-0.026364923738679876,0.09635636444363997,40.106058693909645,-96.25519929585457,76.200527287817
2024-09-23 23:20:34.589829,42.3,59.881488,0.000845657606494293,-0.025718240684447058,0.09680407370509965,44.11764879391193,-96.25519929585457,76.200527287817
2024-09-23 23:20:34.601432,42.3,59.881488,0.000845657606494293,-0.025718240684447058,0.09680407370509965,44.11764879391193,-96.25519929585457,76.200527287817
2024-09-23 23:20:34.633807,42.3,59.881586,9.948729986474904e-05,-0.025718240684447058,0.09680407370509965,44.11764879391193,-96.25519929585457,76.200527287817
2024-09-23 23:20:34.645772,42.3,59.881586,9.948729986474904e-05,-0.026514160159166435,0.09655535038822652,36.09446859390736,-84.22370748782159,76.200527287817
2024-09-23 23:20:34.687911,42.3,59.881637,0.0009948937421727254,-0.026364923738679876,0.09690356060148622,36.09446859390736,-84.22370748782159,76.200527287817
2024-09-23 23:20:34.699778,42.3,59.881637,0.0009948937421727254,-0.026364923738679876,0.09690356060148622,48.12595698684454,-84.22370748782159,76.200527287817
2024-09-23 23:20:34.732359,42.3,59.881637,0.0009948937421727254,-0.026364923738679876,0.09690356060148622,48.12595698684454,-92.24360919585227,80.21211738781929
2024-09-23 23:20:34.743850,42.3,59.881688,0.00029846189959424716,-0.026265436842293304,0.09680407370509965,48.12595698684454,-92.24360919585227,80.21211738781929
2024-09-23 23:20:34.786872,42.3,59.881739,0.00024872343554318134,-0.026066463049520167,0.09680407370509965,48.12595698684454,-92.24360919585227,68.18063240997792
2024-09-23 23:20:34.829142,42.3,59.881739,0.00024872343554318134,-0.026066463049520167,0.09680407370509965,60.15744537978172,-92.24360919585227,68.18063240997792
2024-09-23 23:20:34.840460,42.3,59.881789,-0.00044769805900669,-0.026066463049520167,0.09680407370509965,60.15744537978172,-92.24360919585227,76.200527287817
2024-09-23 23:20:34.882676,42.3,59.881789,-0.00044769805900669,-0.02661365616941306,0.09600815423038027,40.106058693909645,-88.23529758782387,76.200527287817
2024-09-23 23:20:34.894833,42.3,59.881878,-0.00044769805900669,-0.02661365616941306,0.09600815423038027,40.106058693909645,-88.23529758782387,76.200527287817
2024-09-23 23:20:34.927729,42.3,59.881878,0.00014922575204880957,-0.025917226629033608,0.09690356060148622,40.106058693909645,-88.23529758782387,76.200527287817
2024-09-23 23:20:34.939287,42.3,59.881878,0.00014922575204880957,-0.025917226629033608,0.09690356060148622,52.137550501942634,-88.23529758782387,76.200527287817
2024-09-23 23:20:34.981291,42.3,59.881929,0.000845657606494293,-0.02681263300013955,0.09690356060148622,52.137550501942634,-88.23529758782387,76.200527287817
2024-09-23 23:20:35.023529,42.3,59.881929,0.000845657606494293,-0.02681263300013955,0.09690356060148622,48.12595698684454,-88.23529758782387,76.200527287817
2024-09-23 23:20:35.035134,42.3,59.88198,0.00014922575204880957,-0.02681263300013955,0.09690356060148622,48.12595698684454,-92.24360919585227,72.1922225099802
2024-09-23 23:20:35.077759,42.3,59.88198,0.00014922575204880957,-0.026563909683266423,0.09640611396773996,44.11764879391193,-92.24360919585227,72.1922225099802
2024-09-23 23:20:35.089583,42.3,59.882031,0.00014922575204880957,-0.026563909683266423,0.09640611396773996,44.11764879391193,-92.24360919585227,72.1922225099802
2024-09-23 23:20:35.121434,42.3,59.882031,0.0001989745997294981,-0.026116200421806745,0.09640611396773996,44.11764879391193,-92.24360919585227,72.1922225099802
2024-09-23 23:20:35.133288,42.3,59.882031,0.0001989745997294981,-0.026116200421806745,0.09645586349183995,48.12595698684454,-92.24360919585227,76.200527287817
2024-09-23 23:20:35.177125,42.3,59.882081,0.00014922575204880957,-0.026215699470006727,0.09670458680871308,40.106058693909645,-92.24360919585227,76.200527287817
2024-09-23 23:20:35.220099,42.3,59.882132,0.00044769805900669,-0.026215699470006727,0.09670458680871308,40.106058693909645,-92.24360919585227,72.1922225099802
2024-09-23 23:20:35.231538,42.3,59.882132,0.00044769805900669,-0.025917226629033608,0.09635636444363997,44.11764879391193,-92.24360919585227,72.1922225099802
2024-09-23 23:20:35.274352,42.3,59.882221,0.0005471957306340564,-0.026116200421806745,0.09725178296655933,44.11764879391193,-92.24360919585227,68.18063240997792
2024-09-23 23:20:35.317720,42.3,59.882221,0.0005471957306340564,-0.026116200421806745,0.09725178296655933,52.137550501942634,-80.21211738781929,84.22370748782159
2024-09-23 23:20:35.329258,42.3,59.882272,0.0006466830067647949,-0.026364923738679876,0.09725178296655933,52.137550501942634,-80.21211738781929,84.22370748782159
2024-09-23 23:20:35.372000,42.3,59.882322,0.00029846189959424716,-0.026364923738679876,0.0955106954448206,32.08287849390507,-84.22370748782159,72.1922225099802
2024-09-23 23:20:35.414688,42.42,59.882322,0.00029846189959424716,-0.026713146103752982,0.09650560086412653,40.106058693909645,-84.22370748782159,72.1922225099802
2024-09-23 23:20:35.426356,42.42,59.882414,0.00029846189959424716,-0.026713146103752982,0.09650560086412653,40.106058693909645,-88.23529758782387,76.200527287817
2024-09-23 23:20:35.469570,42.42,59.882414,0.00024872343554318134,-0.026563909683266423,0.09546095807253402,44.11764879391193,-84.22370748782159,88.23529758782387
2024-09-23 23:20:35.512645,42.42,59.882466,0.00034821073540793035,-0.02661365616941306,0.09546095807253402,44.11764879391193,-84.22370748782159,88.23529758782387
2024-09-23 23:20:35.524116,42.42,59.882466,0.00034821073540793035,-0.02661365616941306,0.09715228999426605,44.11764879391193,-80.21211738781929,88.23529758782387
2024-09-23 23:20:35.567040,42.42,59.882516,0.0006964318663124887,-0.025718240684447058,0.09725178296655933,56.14914060194492,-80.21211738781929,80.21211738781929
2024-09-23 23:20:35.610095,42.42,59.882567,0.0006964318663124887,-0.025718240684447058,0.09725178296655933,56.14914060194492,-92.24360919585227,72.1922225099802
2024-09-23 23:20:35.621381,42.42,59.882567,0.0006466830067647949,-0.026464422786879854,0.0959086551821803,56.14914060194492,-92.24360919585227,72.1922225099802
2024-09-23 23:20:35.664243,42.42,59.882618,0.0006466830067647949,-0.025966964001320186,0.0959086551821803,40.106058693909645,-92.24360919585227,68.18063240997792
2024-09-23 23:20:35.707119,42.42,59.882618,0.0006466830067647949,-0.025966964001320186,0.09710254654607277,48.12595698684454,-92.24360919585227,68.18063240997792
2024-09-23 23:20:35.718359,42.42,59.882669,0.00044769805900669,-0.025966964001320186,0.09710254654607277,48.12595698684454,-92.24360919585227,76.200527287817
2024-09-23 23:20:35.760244,42.42,59.882669,0.00044769805900669,-0.026066463049520167,0.09695331012558621,44.11764879391193,-88.23529758782387,80.21211738781929
2024-09-23 23:20:35.772246,42.42,59.882755,0.00044769805900669,-0.026066463049520167,0.09695331012558621,44.11764879391193,-88.23529758782387,80.21211738781929
2024-09-23 23:20:35.805330,42.42,59.882755,0.0005471957306340564,-0.026663396579652995,0.09695331012558621,44.11764879391193,-88.23529758782387,80.21211738781929
2024-09-23 23:20:35.817307,42.42,59.882755,0.0005471957306340564,-0.026663396579652995,0.09645586349183995,48.12595698684454,-88.23529758782387,76.200527287817
2024-09-23 23:20:35.859691,42.42,59.882807,0.0005969341946851222,-0.026265436842293304,0.09675432418099966,44.11764879391193,-92.24360919585227,76.200527287817
2024-09-23 23:20:35.901874,42.42,59.882858,0.0005969341946851222,-0.026265436842293304,0.09675432418099966,44.11764879391193,-92.24360919585227,76.200527287817
2024-09-23 23:20:35.914171,42.42,59.882858,0.00044769805900669,-0.026364923738679876,0.09665483728461309,52.137550501942634,-92.24360919585227,76.200527287817
2024-09-23 23:20:35.957164,42.42,59.882908,0.0004974468710863627,-0.026215699470006727,0.09645586349183995,52.137550501942634,-96.25519929585457,80.21211738781929
2024-09-23 23:20:35.999710,42.42,59.882908,0.0004974468710863627,-0.026215699470006727,0.09645586349183995,44.11764879391193,-88.23529758782387,84.22370748782159
2024-09-23 23:20:36.010629,42.42,59.882959,0.0007959191899112484,-0.026265436842293304,0.09645586349183995,44.11764879391193,-88.23529758782387,84.22370748782159
2024-09-23 23:20:36.054054,42.42,59.88301,0.0007959191899112484,-0.026265436842293304,0.09610764112676684,48.12595698684454,-88.23529758782387,76.200527287817
2024-09-23 23:20:36.066154,42.42,59.88301,-9.948729986474904e-05,-0.026265436842293304,0.09610764112676684,48.12595698684454,-88.23529758782387,76.200527287817
2024-09-23 23:20:36.097847,42.42,59.88301,-9.948729986474904e-05,-0.026713146103752982,0.09670458680871308,40.106058693909645,-88.23529758782387,76.200527287817
2024-09-23 23:20:36.109402,42.42,59.883097,-9.948729986474904e-05,-0.026713146103752982,0.09670458680871308,40.106058693909645,-88.23529758782387,76.200527287817
2024-09-23 23:20:36.151993,42.42,59.883097,0.0007959191899112484,-0.025917226629033608,0.09665483728461309,52.137550501942634,-84.22370748782159,80.21211738781929
2024-09-23 23:20:36.195173,42.42,59.883148,0.0006466830067647949,-0.026315186366393295,0.09665483728461309,52.137550501942634,-84.22370748782159,80.21211738781929
2024-09-23 23:20:36.206574,42.42,59.883148,0.0006466830067647949,-0.026315186366393295,0.09685382322919964,60.15744537978172,-92.24360919585227,80.21211738781929
2024-09-23 23:20:36.248952,42.42,59.883199,9.948729986474904e-05,-0.026663396579652995,0.09655535038822652,44.11764879391193,-92.24360919585227,76.200527287817
2024-09-23 23:20:36.290767,42.42,59.883199,9.948729986474904e-05,-0.026663396579652995,0.09655535038822652,44.11764879391193,-92.24360919585227,76.200527287817
2024-09-23 23:20:36.302181,42.42,59.88325,0.0006964318663124887,-0.026315186366393295,0.09690356060148622,44.11764879391193,-92.24360919585227,76.200527287817
2024-09-23 23:20:36.344410,42.42,59.8833,-0.0007461703303635545,-0.026315186366393295,0.09690356060148622,56.14914060194492,-88.23529758782387,68.18063240997792
2024-09-23 23:20:36.356101,42.42,59.8833,-0.0007461703303635545,-0.02721059273749924,0.09690356060148622,56.14914060194492,-88.23529758782387,68.18063240997792
2024-09-23 23:20:36.388390,42.42,59.8833,-0.0007461703303635545,-0.02721059273749924,0.0948142628664878,20.05138839341998,-88.23529758782387,68.18063240997792
2024-09-23 23:20:36.399781,42.42,59.883351,-0.0001989745997294981,-0.02721059273749924,0.0948142628664878,20.05138839341998,-88.23529758782387,80.21211738781929
2024-09-23 23:20:36.443119,42.66,59.883438,-0.0001989745997294981,-0.026066463049520167,0.0959086551821803,40.106058693909645,-88.23529758782387,68.18063240997792
2024-09-23 23:20:36.485931,42.66,59.883438,0.00044769805900669,-0.026514160159166435,0.0959086551821803,40.106058693909645,-88.23529758782387,68.18063240997792
2024-09-23 23:20:36.497173,42.66,59.883438,0.00044769805900669,-0.026514160159166435,0.09675432418099966,36.09446859390736,-84.22370748782159,76.200527287817
2024-09-23 23:20:36.538832,42.66,59.883489,0.00029846189959424716,-0.026563909683266423,0.09595840470628028,36.09446859390736,-84.22370748782159,76.200527287817
2024-09-23 23:20:36.550507,42.66,59.883489,0.00029846189959424716,-0.026563909683266423,0.09595840470628028,40.106058693909645,-88.23529758782387,76.200527287817
2024-09-23 23:20:36.582822,42.66,59.883489,0.00029846189959424716,-0.026563909683266423,0.09595840470628028,40.106058693909645,-88.23529758782387,76.200527287817
2024-09-23 23:20:36.593872,42.66,59.88354,4.973845218406054e-05,-0.026165949945906736,0.09680407370509965,48.12595698684454,-88.23529758782387,76.200527287817
2024-09-23 23:20:36.636074,42.66,59.883591,0.0009451553255896806,-0.026165949945906736,0.09680407370509965,48.12595698684454,-92.24360919585227,76.200527287817
2024-09-23 23:20:36.647867,42.66,59.883591,0.0009451553255896806,-0.026215699470006727,0.09561019449302058,48.12595698684454,-92.24360919585227,76.200527287817
2024-09-23 23:20:36.680318,42.66,59.883591,0.0009451553255896806,-0.026215699470006727,0.09561019449302058,44.11764879391193,-92.24360919585227,76.200527287817
2024-09-23 23:20:36.692184,42.66,59.883641,0.00044769805900669,-0.026165949945906736,0.09561019449302058,44.11764879391193,-88.23529758782387,72.1922225099802
2024-09-23 23:20:36.735135,42.66,59.883692,0.00044769805900669,-0.026165949945906736,0.09655535038822652,44.11764879391193,-92.24360919585227,72.1922225099802
2024-09-23 23:20:36.747094,42.66,59.883692,0.0006964318663124887,-0.026165949945906736,0.09655535038822652,44.11764879391193,-92.24360919585227,72.1922225099802
2024-09-23 23:20:36.780917,42.66,59.883692,0.0006964318663124887,-0.026165949945906736,0.09665483728461309,48.12595698684454,-92.24360919585227,72.1922225099802
2024-09-23 23:20:36.792738,42.66,59.883779,0.0006964318663124887,-0.026165949945906736,0.09665483728461309,48.12595698684454,-96.25519929585457,76.200527287817
2024-09-23 23:20:36.835131,42.66,59.883779,0.0005969341946851222,-0.026215699470006727,0.09705279702197278,60.15744537978172,-96.25519929585457,76.200527287817
2024-09-23 23:20:36.877307,42.66,59.883831,0.0004974468710863627,-0.026165949945906736,0.09705279702197278,60.15744537978172,-96.25519929585457,76.200527287817
2024-09-23 23:20:36.888488,42.66,59.883831,0.0004974468710863627,-0.026165949945906736,0.0970030596496862,60.15744537978172,-96.25519929585457,76.200527287817
2024-09-23 23:20:36.932136,42.66,59.883881,0.0003979595949556242,-0.026663396579652995,0.09640611396773996,52.137550501942634,-96.25519929585457,72.1922225099802
2024-09-23 23:20:36.974326,42.66,59.883881,0.0003979595949556242,-0.026663396579652995,0.09640611396773996,52.137550501942634,-92.24360919585227,76.200527287817
2024-09-23 23:20:36.986308,42.66,59.883932,0.0001989745997294981,-0.026265436842293304,0.09655535038822652,52.137550501942634,-92.24360919585227,76.200527287817
2024-09-23 23:20:37.028619,42.66,59.883983,0.0007461703303635545,-0.026265436842293304,0.09655535038822652,32.08287849390507,-92.24360919585227,76.200527287817
2024-09-23 23:20:37.041578,42.66,59.883983,0.0007461703303635545,-0.026364923738679876,0.09655535038822652,32.08287849390507,-92.24360919585227,76.200527287817
2024-09-23 23:20:37.073444,42.66,59.883983,0.0007461703303635545,-0.026364923738679876,0.09705279702197278,44.11764879391193,-88.23529758782387,76.200527287817
2024-09-23 23:20:37.085153,42.66,59.884033,-4.973845218406054e-05,-0.026364923738679876,0.09705279702197278,44.11764879391193,-88.23529758782387,80.21211738781929
2024-09-23 23:20:37.117390,42.66,59.884033,-4.973845218406054e-05,-0.026165949945906736,0.09705279702197278,44.11764879391193,-88.23529758782387,80.21211738781929
2024-09-23 23:20:37.128787,42.66,59.88412,-4.973845218406054e-05,-0.026165949945906736,0.0962568775472534,52.137550501942634,-96.25519929585457,72.1922225099802
2024-09-23 23:20:37.171219,42.66,59.88412,0.0003979595949556242,-0.026464422786879854,0.09665483728461309,40.106058693909645,-96.25519929585457,72.1922225099802
2024-09-23 23:20:37.185932,42.66,59.88412,0.0003979595949556242,-0.026464422786879854,0.09665483728461309,40.106058693909645,-92.24360919585227,80.21211738781929
2024-09-23 23:20:37.219365,42.66,59.884173,9.948729986474904e-05,-0.026315186366393295,0.09665483728461309,40.106058693909645,-92.24360919585227,80.21211738781929
2024-09-23 23:20:37.230698,42.66,59.884173,9.948729986474904e-05,-0.026315186366393295,0.09650560086412653,48.12595698684454,-96.25519929585457,80.21211738781929
2024-09-23 23:20:37.274055,42.66,59.884223,9.948729986474904e-05,-0.026713146103752982,0.09565993186530716,32.08287849390507,-96.25519929585457,76.200527287817
2024-09-23 23:20:37.317305,42.66,59.884274,9.948729986474904e-05,-0.026713146103752982,0.09565993186530716,32.08287849390507,-92.24360919585227,72.1922225099802
2024-09-23 23:20:37.329187,42.66,59.884274,0.00044769805900669,-0.026215699470006727,0.09650560086412653,32.08287849390507,-92.24360919585227,72.1922225099802
2024-09-23 23:20:37.361095,42.66,59.884274,0.00044769805900669,-0.026215699470006727,0.09650560086412653,40.106058693909645,-92.24360919585227,72.1922225099802
2024-09-23 23:20:37.372675,42.66,59.884325,0.0001989745997294981,-0.026315186366393295,0.09650560086412653,40.106058693909645,-92.24360919585227,72.1922225099802
2024-09-23 23:20:37.414890,42.66,59.884325,0.0001989745997294981,-0.026315186366393295,0.09715228999426605,40.106058693909645,-84.22370748782159,72.1922225099802
2024-09-23 23:20:37.426795,42.66,59.884375,0.00034821073540793035,-0.026315186366393295,0.09715228999426605,40.106058693909645,-84.22370748782159,72.1922225099802
2024-09-23 23:20:37.458790,42.8,59.884375,0.00034821073540793035,-0.026464422786879854,0.09715228999426605,40.106058693909645,-84.22370748782159,72.1922225099802
2024-09-23 23:20:37.470259,42.8,59.884462,0.00034821073540793035,-0.026464422786879854,0.09565993186530716,36.09446859390736,-92.24360919585227,72.1922225099802
2024-09-23 23:20:37.512726,42.8,59.884462,0.0001989745997294981,-0.026315186366393295,0.09650560086412653,48.12595698684454,-92.24360919585227,72.1922225099802
2024-09-23 23:20:37.524395,42.8,59.884462,0.0001989745997294981,-0.026315186366393295,0.09650560086412653,48.12595698684454,-92.24360919585227,72.1922225099802
2024-09-23 23:20:37.558238,42.8,59.884513,0.0001989745997294981,-0.026315186366393295,0.09650560086412653,48.12595698684454,-92.24360919585227,80.21211738781929
2024-09-23 23:20:37.569603,42.8,59.884513,0.00044769805900669,-0.026414673262779863,0.09600815423038027,44.11764879391193,-92.24360919585227,80.21211738781929
2024-09-23 23:20:37.612765,42.8,59.884564,0.00034821073540793035,-0.02676289258989962,0.09600815423038027,44.11764879391193,-96.25519929585457,76.200527287817
2024-09-23 23:20:37.624553,42.8,59.884564,0.00034821073540793035,-0.02676289258989962,0.09690356060148622,44.11764879391193,-96.25519929585457,76.200527287817
2024-09-23 23:20:37.656133,42.8,59.884564,0.00034821073540793035,-0.02676289258989962,0.09690356060148622,48.12595698684454,-88.23529758782387,76.200527287817
2024-09-23 23:20:37.667366,42.8,59.884615,0.0005969341946851222,-0.02661365616941306,0.09690356060148622,48.12595698684454,-88.23529758782387,76.200527287817
2024-09-23 23:20:37.710813,42.8,59.884665,9.948729986474904e-05,-0.02661365616941306,0.09615739065086683,44.11764879391193,-96.25519929585457,76.200527287817
2024-09-23 23:20:37.753973,42.8,59.884665,9.948729986474904e-05,-0.02676289258989962,0.0959086551821803,44.11764879391193,-96.25519929585457,76.200527287817
2024-09-23 23:20:37.765875,42.8,59.884754,9.948729986474904e-05,-0.02676289258989962,0.0959086551821803,52.137550501942634,-92.24360919585227,80.21211738781929
2024-09-23 23:20:37.809090,42.8,59.884754,0.00034821073540793035,-0.026563909683266423,0.09556044496892059,28.07457030097246,-92.24360919585227,68.18063240997792
2024-09-23 23:20:37.851762,42.8,59.884806,0.0012436275969465451,-0.026563909683266423,0.09556044496892059,28.07457030097246,-92.24360919585227,68.18063240997792
2024-09-23 23:20:37.863009,42.8,59.884806,0.0012436275969465451,-0.02661365616941306,0.09570968138940715,40.106058693909645,-92.24360919585227,68.18063240997792
2024-09-23 23:20:37.905104,42.8,59.884856,0.0001989745997294981,-0.026364923738679876,0.09685382322919964,40.106058693909645,-92.24360919585227,76.200527287817
2024-09-23 23:20:37.917254,42.8,59.884856,0.0001989745997294981,-0.026364923738679876,0.09685382322919964,56.14914060194492,-92.24360919585227,76.200527287817
2024-09-23 23:20:37.950945,42.8,59.884907,0.0001989745997294981,-0.026364923738679876,0.09685382322919964,56.14914060194492,-88.23529758782387,68.18063240997792
2024-09-23 23:20:37.962821,42.8,59.884907,0.00024872343554318134,-0.026514160159166435,0.0962568775472534,56.14914060194492,-88.23529758782387,68.18063240997792
2024-09-23 23:20:38.005482,42.8,59.884958,0.0,-0.026364923738679876,0.0962568775472534,52.137550501942634,-92.24360919585227,72.1922225099802
2024-09-23 23:20:38.047220,42.8,59.884958,0.0,-0.026364923738679876,0.0962568775472534,44.11764879391193,-96.25519929585457,72.1922225099802
2024-09-23 23:20:38.058583,42.8,59.885008,0.0009948937421727254,-0.026364923738679876,0.0962568775472534,44.11764879391193,-96.25519929585457,76.200527287817
2024-09-23 23:20:38.101285,42.8,59.885096,0.0009948937421727254,-0.026464422786879854,0.09620712802315341,28.07457030097246,-84.22370748782159,72.1922225099802
2024-09-23 23:20:38.143094,42.8,59.885096,0.00024872343554318134,-0.025917226629033608,0.09620712802315341,28.07457030097246,-84.22370748782159,72.1922225099802
2024-09-23 23:20:38.154489,42.8,59.885096,0.00024872343554318134,-0.025917226629033608,0.09710254654607277,44.11764879391193,-88.23529758782387,76.200527287817
2024-09-23 23:20:38.196875,42.8,59.885147,0.00034821073540793035,-0.025917226629033608,0.0959086551821803,36.09446859390736,-88.23529758782387,76.200527287817
2024-09-23 23:20:38.208585,42.8,59.885147,0.00034821073540793035,-0.025917226629033608,0.0959086551821803,36.09446859390736,-92.24360919585227,76.200527287817
2024-09-23 23:20:38.240642,42.8,59.885198,0.00034821073540793035,-0.025917226629033608,0.0959086551821803,36.09446859390736,-92.24360919585227,72.1922225099802
2024-09-23 23:20:38.252102,42.8,59.885198,0.0007461703303635545,-0.026116200421806745,0.09680407370509965,52.137550501942634,-92.24360919585227,72.1922225099802
2024-09-23 23:20:38.295092,42.8,59.885248,0.0006964318663124887,-0.026066463049520167,0.09680407370509965,52.137550501942634,-84.22370748782159,80.21211738781929
2024-09-23 23:20:38.306874,42.8,59.885248,0.0006964318663124887,-0.026066463049520167,0.09595840470628028,52.137550501942634,-84.22370748782159,80.21211738781929
2024-09-23 23:20:38.339038,42.8,59.885248,0.0006964318663124887,-0.026066463049520167,0.09595840470628028,40.106058693909645,-88.23529758782387,80.21211738781929
2024-09-23 23:20:38.350045,42.8,59.885299,0.0005969341946851222,-0.026364923738679876,0.09595840470628028,40.106058693909645,-88.23529758782387,76.200527287817
2024-09-23 23:20:38.392719,42.8,59.88535,0.0005969341946851222,-0.026364923738679876,0.09650560086412653,32.08287849390507,-100.26678939585686,76.200527287817
2024-09-23 23:20:38.404797,42.8,59.88535,-4.973845218406054e-05,-0.026364923738679876,0.09650560086412653,32.08287849390507,-100.26678939585686,76.200527287817
2024-09-23 23:20:38.437211,42.8,59.88535,-4.973845218406054e-05,-0.02681263300013955,0.0966050877605131,48.12595698684454,-100.26678939585686,76.200527287817
2024-09-23 23:20:38.448272,42.8,59.885437,-4.973845218406054e-05,-0.02681263300013955,0.0966050877605131,48.12595698684454,-92.24360919585227,72.1922225099802
2024-09-23 23:20:38.492048,43.15,59.885437,0.0008954064660419869,-0.02676289258989962,0.09635636444363997,40.106058693909645,-100.26678939585686,72.1922225099802
2024-09-23 23:20:38.534760,43.15,59.885488,0.0005471957306340564,-0.02676289258989962,0.09635636444363997,40.106058693909645,-100.26678939585686,72.1922225099802
2024-09-23 23:20:38.546799,43.15,59.885488,0.0005471957306340564,-0.026713146103752982,0.09690356060148622,44.11764879391193,-96.25519929585457,72.1922225099802
2024-09-23 23:20:38.589440,43.15,59.885539,0.000845657606494293,-0.026315186366393295,0.09615739065086683,40.106058693909645,-96.25519929585457,72.1922225099802
2024-09-23 23:20:38.631546,43.15,59.885539,0.000845657606494293,-0.026315186366393295,0.09615739065086683,40.106058693909645,-84.22370748782159,76.200527287817
2024-09-23 23:20:38.642692,43.15,59.88559,0.0007959191899112484,-0.02696186942062611,0.0973512698629459,40.106058693909645,-84.22370748782159,76.200527287817
2024-09-23 23:20:38.686094,43.15,59.88564,0.0009451553255896806,-0.02696186942062611,0.0973512698629459,48.12595698684454,-88.23529758782387,76.200527287817
2024-09-23 23:20:38.697828,43.15,59.88564,0.0009451553255896806,-0.026364923738679876,0.0973512698629459,48.12595698684454,-88.23529758782387,76.200527287817
2024-09-23 23:20:38.730504,43.15,59.88564,0.0009451553255896806,-0.026364923738679876,0.09720203344245934,44.11764879391193,-96.25519929585457,76.200527287817
2024-09-23 23:20:38.741848,43.15,59.885691,0.0009451553255896806,-0.026364923738679876,0.09720203344245934,44.11764879391193,-96.25519929585457,80.21211738781929
2024-09-23 23:20:38.785117,43.15,59.885691,0.0007959191899112484,-0.026364923738679876,0.09720203344245934,44.11764879391193,-96.25519929585457,80.21211738781929
2024-09-23 23:20:38.828114,43.15,59.885691,0.0007959191899112484,-0.026016713525420176,0.09670458680871308,48.12595698684454,-96.25519929585457,80.21211738781929
2024-09-23 23:20:38.839403,43.15,59.885778,0.0007959191899112484,-0.026016713525420176,0.09670458680871308,48.12595698684454,-92.24360919585227,76.200527287817
2024-09-23 23:20:38.882715,43.15,59.885778,0.00024872343554318134,-0.026066463049520167,0.09680407370509965,44.11764879391193,-92.24360919585227,72.1922225099802
2024-09-23 23:20:38.925121,43.15,59.88583,0.0006964318663124887,-0.026364923738679876,0.09680407370509965,44.11764879391193,-92.24360919585227,72.1922225099802
2024-09-23 23:20:38.936477,43.15,59.88583,0.0006964318663124887,-0.026364923738679876,0.09710254654607277,60.15744537978172,-100.26678939585686,72.1922225099802
2024-09-23 23:20:38.979368,43.15,59.885881,0.0004974468710863627,-0.026364923738679876,0.09665483728461309,48.12595698684454,-100.26678939585686,72.1922225099802
2024-09-23 23:20:39.023702,43.15,59.885931,0.0004974468710863627,-0.026364923738679876,0.09665483728461309,48.12595698684454,-96.25519929585457,76.200527287817
2024-09-23 23:20:39.034985,43.15,59.885931,0.0011441298778511575,-0.026116200421806745,0.0962568775472534,48.12595698684454,-96.25519929585457,76.200527287817
2024-09-23 23:20:39.078018,43.15,59.886024,0.0004974468710863627,-0.026116200421806745,0.0962568775472534,44.11764879391193,-84.22370748782159,76.200527287817
2024-09-23 23:20:39.119753,43.15,59.886024,0.0004974468710863627,-0.026116200421806745,0.09680407370509965,48.12595698684454,-92.24360919585227,76.200527287817
2024-09-23 23:20:39.130674,43.15,59.886075,0.0004974468710863627,-0.026116200421806745,0.09680407370509965,48.12595698684454,-92.24360919585227,76.200527287817
2024-09-23 23:20:39.173138,43.15,59.886168,0.0004974468710863627,-0.025966964001320186,0.09645586349183995,52.137550501942634,-92.24360919585227,76.200527287817
2024-09-23 23:20:39.216693,43.15,59.886168,0.00024872343554318134,-0.026215699470006727,0.09570968138940715,52.137550501942634,-92.24360919585227,76.200527287817
2024-09-23 23:20:39.270528,43.15,59.88622,0.0006466830067647949,-0.026215699470006727,0.09570968138940715,44.11764879391193,-88.23529758782387,76.200527287817
2024-09-23 23:20:39.282265,43.15,59.88622,0.0006466830067647949,-0.026912129010386178,0.09570968138940715,44.11764879391193,-88.23529758782387,76.200527287817
2024-09-23 23:20:39.314712,43.15,59.88622,0.0006466830067647949,-0.026912129010386178,0.0970030596496862,44.11764879391193,-88.23529758782387,76.200527287817
2024-09-23 23:20:39.326119,43.15,59.88627,0.0005471957306340564,-0.026912129010386178,0.0970030596496862,44.11764879391193,-92.24360919585227,72.1922225099802
2024-09-23 23:20:39.368737,43.15,59.886321,0.0005471957306340564,-0.026514160159166435,0.09690356060148622,44.11764879391193,-96.25519929585457,68.18063240997792
2024-09-23 23:20:39.411424,43.15,59.886321,0.00044769805900669,-0.026265436842293304,0.09690356060148622,44.11764879391193,-96.25519929585457,68.18063240997792
2024-09-23 23:20:39.422799,43.15,59.886321,0.00044769805900669,-0.026265436842293304,0.0966050877605131,44.11764879391193,-92.24360919585227,72.1922225099802
2024-09-23 23:20:39.465655,43.15,59.886372,0.0006964318663124887,-0.026364923738679876,0.0973015264147526,36.09446859390736,-96.25519929585457,72.1922225099802
2024-09-23 23:20:39.508199,42.51,59.886462,0.0006964318663124887,-0.026364923738679876,0.0973015264147526,36.09446859390736,-96.25519929585457,72.1922225099802
2024-09-23 23:20:39.519424,42.51,59.886462,0.0006964318663124887,-0.026563909683266423,0.09675432418099966,44.11764879391193,-96.25519929585457,72.1922225099802
2024-09-23 23:20:39.562527,42.51,59.886513,0.0006466830067647949,-0.026315186366393295,0.09675432418099966,44.11764879391193,-92.24360919585227,80.21211738781929
2024-09-23 23:20:39.574251,42.51,59.886513,0.0006466830067647949,-0.026315186366393295,0.09725178296655933,44.11764879391193,-92.24360919585227,80.21211738781929
2024-09-23 23:20:39.606336,42.51,59.886513,0.0006466830067647949,-0.026315186366393295,0.09725178296655933,48.12595698684454,-92.24360919585227,80.21211738781929
2024-09-23 23:20:39.617362,42.51,59.886563,0.00044769805900669,-0.026016713525420176,0.09725178296655933,48.12595698684454,-92.24360919585227,80.21211738781929
2024-09-23 23:20:39.659613,42.51,59.886614,0.00044769805900669,-0.026016713525420176,0.09605789160266685,44.11764879391193,-88.23529758782387,76.200527287817
2024-09-23 23:20:39.672447,42.51,59.886614,0.00034821073540793035,-0.026016713525420176,0.09605789160266685,44.11764879391193,-88.23529758782387,76.200527287817
2024-09-23 23:20:39.706111,42.51,59.886614,0.00034821073540793035,-0.026464422786879854,0.09685382322919964,44.11764879391193,-88.23529758782387,76.200527287817
2024-09-23 23:20:39.717427,42.51,59.886705,0.00034821073540793035,-0.026464422786879854,0.09685382322919964,44.11764879391193,-88.23529758782387,80.21211738781929
2024-09-23 23:20:39.750919,42.51,59.886705,0.00024872343554318134,-0.026464422786879854,0.09685382322919964,44.11764879391193,-88.23529758782387,80.21211738781929
2024-09-23 23:20:39.762090,42.51,59.886705,0.00024872343554318134,-0.026464422786879854,0.09670458680871308,48.12595698684454,-92.24360919585227,80.21211738781929
2024-09-23 23:20:39.804327,42.51,59.886756,0.0005471957306340564,-0.026364923738679876,0.09556044496892059,48.12595698684454,-92.24360919585227,80.21211738781929
2024-09-23 23:20:39.817208,42.51,59.886756,0.0005471957306340564,-0.026364923738679876,0.09556044496892059,36.09446859390736,-92.24360919585227,80.21211738781929
2024-09-23 23:20:39.849455,42.51,59.886807,0.0005471957306340564,-0.026364923738679876,0.09556044496892059,36.09446859390736,-92.24360919585227,72.1922225099802
2024-09-23 23:20:39.861189,42.51,59.886807,0.0004974468710863627,-0.026414673262779863,0.09715228999426605,52.137550501942634,-92.24360919585227,72.1922225099802
2024-09-23 23:20:39.902983,42.51,59.886857,0.0006466830067647949,-0.026514160159166435,0.09715228999426605,52.137550501942634,-92.24360919585227,80.21211738781929
2024-09-23 23:20:39.914960,42.51,59.886857,0.0006466830067647949,-0.026514160159166435,0.09665483728461309,52.137550501942634,-92.24360919585227,80.21211738781929
2024-09-23 23:20:39.947087,42.51,59.886857,0.0006466830067647949,-0.026514160159166435,0.09665483728461309,44.11764879391193,-96.25519929585457,80.21211738781929
2024-09-23 23:20:39.958618,42.51,59.886908,0.00014922575204880957,-0.02661365616941306,0.09665483728461309,44.11764879391193,-96.25519929585457,76.200527287817
2024-09-23 23:20:40.000538,42.51,59.886959,0.00014922575204880957,-0.02661365616941306,0.09595840470628028,36.09446859390736,-88.23529758782387,76.200527287817
2024-09-23 23:20:40.012287,42.51,59.886959,0.00034821073540793035,-0.02661365616941306,0.09595840470628028,36.09446859390736,-88.23529758782387,76.200527287817
2024-09-23 23:20:40.044733,42.51,59.886959,0.00034821073540793035,-0.025867477104933617,0.0959086551821803,36.09446859390736,-88.23529758782387,76.200527287817
2024-09-23 23:20:40.055882,42.51,59.887045,0.00034821073540793035,-0.025867477104933617,0.0959086551821803,40.106058693909645,-88.23529758782387,72.1922225099802
2024-09-23 23:20:40.099498,42.51,59.887045,-4.973845218406054e-05,-0.026066463049520167,0.09779897304849887,52.137550501942634,-96.25519929585457,72.1922225099802
2024-09-23 23:20:40.111236,42.51,59.887045,-4.973845218406054e-05,-0.026066463049520167,0.09779897304849887,52.137550501942634,-96.25519929585457,72.1922225099802
2024-09-23 23:20:40.143645,42.51,59.887097,0.00029846189959424716,-0.026265436842293304,0.09779897304849887,52.137550501942634,-96.25519929585457,72.1922225099802
2024-09-23 23:20:40.155694,42.51,59.887097,0.00029846189959424716,-0.026265436842293304,0.09645586349183995,36.09446859390736,-88.23529758782387,72.1922225099802
2024-09-23 23:20:40.198236,42.51,59.887148,0.00014922575204880957,-0.027310088747745865,0.09665483728461309,44.11764879391193,-88.23529758782387,68.18063240997792
2024-09-23 23:20:40.240108,42.51,59.887148,0.00014922575204880957,-0.027310088747745865,0.09665483728461309,44.11764879391193,-88.23529758782387,76.200527287817
2024-09-23 23:20:40.251288,42.51,59.887198,0.00044769805900669,-0.02696186942062611,0.09561019449302058,44.11764879391193,-88.23529758782387,76.200527287817
2024-09-23 23:20:40.295337,42.51,59.887249,4.973845218406054e-05,-0.025867477104933617,0.09561019449302058,36.09446859390736,-96.25519929585457,72.1922225099802
2024-09-23 23:20:40.337198,42.51,59.887249,4.973845218406054e-05,-0.025867477104933617,0.09675432418099966,48.12595698684454,-96.25519929585457,72.1922225099802
2024-09-23 23:20:40.349248,42.51,59.8873,0.0004974468710863627,-0.025867477104933617,0.09675432418099966,48.12595698684454,-96.25519929585457,72.1922225099802
2024-09-23 23:20:40.391132,42.51,59.8873,0.0004974468710863627,-0.026165949945906736,0.09645586349183995,44.11764879391193,-88.23529758782387,72.1922225099802
2024-09-23 23:20:40.403733,42.51,59.887387,0.0004974468710863627,-0.026165949945906736,0.09645586349183995,44.11764879391193,-88.23529758782387,72.1922225099802
2024-09-23 23:20:40.436613,42.51,59.887387,0.00014922575204880957,-0.026414673262779863,0.09645586349183995,44.11764879391193,-88.23529758782387,72.1922225099802
2024-09-23 23:20:40.448236,42.51,59.887387,0.00014922575204880957,-0.026414673262779863,0.09645586349183995,32.08287849390507,-84.22370748782159,72.1922225099802
2024-09-23 23:20:40.491024,42.51,59.887438,0.0003979595949556242,-0.026464422786879854,0.09665483728461309,56.14914060194492,-96.25519929585457,72.1922225099802
2024-09-23 23:20:40.533453,43.08,59.887489,0.00024872343554318134,-0.026464422786879854,0.09665483728461309,56.14914060194492,-96.25519929585457,80.21211738781929
2024-09-23 23:20:40.545081,43.08,59.887489,0.00024872343554318134,-0.026514160159166435,0.09635636444363997,44.11764879391193,-96.25519929585457,80.21211738781929
2024-09-23 23:20:40.587214,43.08,59.88754,0.0006466830067647949,-0.026514160159166435,0.09610764112676684,44.11764879391193,-92.24360919585227,80.21211738781929
2024-09-23 23:20:40.629618,43.08,59.88754,0.0006466830067647949,-0.026514160159166435,0.09610764112676684,36.09446859390736,-92.24360919585227,80.21211738781929
2024-09-23 23:20:40.641185,43.08,59.88759,0.00044769805900669,-0.02681263300013955,0.09610764112676684,36.09446859390736,-92.24360919585227,72.1922225099802
2024-09-23 23:20:40.684521,43.08,59.887641,0.0004974468710863627,-0.02681263300013955,0.0966050877605131,40.106058693909645,-92.24360919585227,72.1922225099802
2024-09-23 23:20:40.727026,43.08,59.887641,0.0004974468710863627,-0.026116200421806745,0.09605789160266685,40.106058693909645,-92.24360919585227,72.1922225099802
2024-09-23 23:20:40.738318,43.08,59.887728,0.0004974468710863627,-0.026116200421806745,0.09605789160266685,44.11764879391193,-92.24360919585227,76.200527287817
2024-09-23 23:20:40.779951,43.08,59.887728,0.00024872343554318134,-0.026116200421806745,0.09655535038822652,48.12595698684454,-92.24360919585227,76.200527287817
2024-09-23 23:20:40.791939,43.08,59.887728,0.00024872343554318134,-0.026116200421806745,0.09655535038822652,48.12595698684454,-88.23529758782387,68.18063240997792
2024-09-23 23:20:40.824941,43.08,59.88778,0.00024872343554318134,-0.026116200421806745,0.09655535038822652,48.12595698684454,-88.23529758782387,68.18063240997792
2024-09-23 23:20:40.836131,43.08,59.88778,0.00024872343554318134,-0.026663396579652995,0.0966050877605131,48.12595698684454,-84.22370748782159,68.18063240997792
2024-09-23 23:20:40.878580,43.08,59.88783,0.00044769805900669,-0.026265436842293304,0.09620712802315341,48.12595698684454,-84.22370748782159,68.18063240997792
2024-09-23 23:20:40.890675,43.08,59.88783,0.00044769805900669,-0.026265436842293304,0.09620712802315341,52.137550501942634,-84.22370748782159,68.18063240997792
2024-09-23 23:20:40.923977,43.08,59.887881,0.00044769805900669,-0.026265436842293304,0.09620712802315341,52.137550501942634,-92.24360919585227,64.16903547978401
2024-09-23 23:20:40.935623,43.08,59.887881,0.00044769805900669,-0.026364923738679876,0.09620712802315341,52.137550501942634,-92.24360919585227,64.16903547978401
2024-09-23 23:20:40.978269,43.08,59.887932,-0.0001989745997294981,-0.026414673262779863,0.09620712802315341,56.14914060194492,-96.25519929585457,68.18063240997792
2024-09-23 23:20:41.020574,43.08,59.887932,-0.0001989745997294981,-0.026414673262779863,0.09715228999426605,56.14914060194492,-96.25519929585457,68.18063240997792
2024-09-23 23:20:41.074145,43.08,59.887982,4.973845218406054e-05,-0.026364923738679876,0.09715228999426605,56.14914060194492,-84.22370748782159,88.23529758782387
2024-09-23 23:20:41.085924,43.08,59.887982,4.973845218406054e-05,-0.026364923738679876,0.09665483728461309,56.14914060194492,-84.22370748782159,88.23529758782387
2024-09-23 23:20:41.117694,43.08,59.887982,4.973845218406054e-05,-0.026364923738679876,0.09665483728461309,32.08287849390507,-100.26678939585686,88.23529758782387
2024-09-23 23:20:41.129646,43.08,59.888069,0.0006466830067647949,-0.026066463049520167,0.09665483728461309,32.08287849390507,-100.26678939585686,76.200527287817
2024-09-23 23:20:41.173033,43.08,59.888121,0.0004974468710863627,-0.026066463049520167,0.0970030596496862,56.14914060194492,-96.25519929585457,72.1922225099802
2024-09-23 23:20:41.215713,43.08,59.888121,0.0004974468710863627,-0.026165949945906736,0.09690356060148622,44.11764879391193,-96.25519929585457,72.1922225099802
2024-09-23 23:20:41.226885,43.08,59.888171,0.0004974468710863627,-0.026165949945906736,0.09690356060148622,44.11764879391193,-88.23529758782387,80.21211738781929
2024-09-23 23:20:41.269666,43.08,59.888171,0.00034821073540793035,-0.026514160159166435,0.09640611396773996,44.11764879391193,-92.24360919585227,72.1922225099802
2024-09-23 23:20:41.312948,43.08,59.888265,0.0004974468710863627,-0.026514160159166435,0.09640611396773996,44.11764879391193,-92.24360919585227,72.1922225099802
2024-09-23 23:20:41.324172,43.08,59.888265,0.0004974468710863627,-0.026514160159166435,0.09715228999426605,44.11764879391193,-92.24360919585227,72.1922225099802
2024-09-23 23:20:41.408262,43.08,59.888265,0.0004974468710863627,-0.026514160159166435,0.09715228999426605,44.11764879391193,-92.24360919585227,76.200527287817
2024-09-23 23:20:41.420143,43.08,59.888316,0.0005969341946851222,-0.026663396579652995,0.09680407370509965,32.08287849390507,-92.24360919585227,76.200527287817
2024-09-23 23:20:41.462483,43.08,59.888316,0.0005969341946851222,-0.026663396579652995,0.09680407370509965,32.08287849390507,-92.24360919585227,76.200527287817
2024-09-23 23:20:41.515414,43.08,59.888367,-4.973845218406054e-05,-0.025917226629033608,0.09750050628343246,52.137550501942634,-92.24360919585227,72.1922225099802
2024-09-23 23:20:41.559447,42.67,59.888418,0.00014922575204880957,-0.025917226629033608,0.09750050628343246,52.137550501942634,-92.24360919585227,72.1922225099802
2024-09-23 23:20:41.571294,42.67,59.888418,0.00014922575204880957,-0.026663396579652995,0.0970030596496862,52.137550501942634,-92.24360919585227,72.1922225099802
2024-09-23 23:20:41.602936,42.67,59.888418,0.00014922575204880957,-0.026663396579652995,0.0970030596496862,52.137550501942634,-92.24360919585227,72.1922225099802
2024-09-23 23:20:41.614863,42.67,59.888468,-0.00014922575204880957,-0.026514160159166435,0.0970030596496862,52.137550501942634,-88.23529758782387,68.18063240997792
2024-09-23 23:20:41.656485,42.67,59.888468,-0.00014922575204880957,-0.026514160159166435,0.0959086551821803,32.08287849390507,-92.24360919585227,72.1922225099802
2024-09-23 23:20:41.667949,42.67,59.888557,0.00014922575204880957,-0.026514160159166435,0.0959086551821803,32.08287849390507,-92.24360919585227,72.1922225099802
2024-09-23 23:20:41.699992,42.67,59.888557,0.00014922575204880957,-0.02676289258989962,0.0959086551821803,32.08287849390507,-92.24360919585227,72.1922225099802
2024-09-23 23:20:41.711319,42.67,59.888655,0.00014922575204880957,-0.02676289258989962,0.09595840470628028,40.106058693909645,-88.23529758782387,76.200527287817
2024-09-23 23:20:41.753951,42.67,59.888655,9.948729986474904e-05,-0.026713146103752982,0.09570968138940715,32.08287849390507,-88.23529758782387,76.200527287817
2024-09-23 23:20:41.765323,42.67,59.888655,9.948729986474904e-05,-0.026713146103752982,0.09570968138940715,32.08287849390507,-84.22370748782159,76.200527287817
2024-09-23 23:20:41.797756,42.67,59.888752,9.948729986474904e-05,-0.026713146103752982,0.09570968138940715,32.08287849390507,-84.22370748782159,76.200527287817
2024-09-23 23:20:41.809394,42.67,59.888752,0.0003979595949556242,-0.026514160159166435,0.0976994861521123,44.11764879391193,-92.24360919585227,76.200527287817
2024-09-23 23:20:41.851736,42.67,59.888804,0.0006466830067647949,-0.026364923738679876,0.0976994861521123,44.11764879391193,-92.24360919585227,72.1922225099802
2024-09-23 23:20:41.863049,42.67,59.888804,0.0006466830067647949,-0.026364923738679876,0.09675432418099966,60.15744537978172,-92.24360919585227,72.1922225099802
2024-09-23 23:20:41.895589,42.67,59.888804,0.0006466830067647949,-0.026364923738679876,0.09675432418099966,60.15744537978172,-88.23529758782387,72.1922225099802
2024-09-23 23:20:41.907811,42.67,59.888854,0.0007461703303635545,-0.02581772758083363,0.09705279702197278,60.15744537978172,-88.23529758782387,76.200527287817
2024-09-23 23:20:41.950059,42.67,59.888905,0.0007461703303635545,-0.02581772758083363,0.09705279702197278,60.15744537978172,-84.22370748782159,80.21211738781929
2024-09-23 23:20:41.961602,42.67,59.888905,0.0006964318663124887,-0.02721059273749924,0.09705279702197278,60.15744537978172,-84.22370748782159,80.21211738781929
2024-09-23 23:20:41.993746,42.67,59.888905,0.0006964318663124887,-0.02721059273749924,0.09655535038822652,60.15744537978172,-84.22370748782159,80.21211738781929
2024-09-23 23:20:42.046690,42.67,59.888905,0.0006964318663124887,-0.02721059273749924,0.09655535038822652,48.12595698684454,-88.23529758782387,84.22370748782159
2024-09-23 23:20:42.058621,42.67,59.888956,4.973845218406054e-05,-0.02721059273749924,0.09655535038822652,48.12595698684454,-88.23529758782387,84.22370748782159
2024-09-23 23:20:42.091631,42.67,59.888956,4.973845218406054e-05,-0.026364923738679876,0.09655535038822652,48.12595698684454,-88.23529758782387,84.22370748782159
2024-09-23 23:20:42.102746,42.67,59.889044,4.973845218406054e-05,-0.026364923738679876,0.09680407370509965,56.14914060194492,-96.25519929585457,72.1922225099802
2024-09-23 23:20:42.146165,42.67,59.889044,0.00029846189959424716,-0.026265436842293304,0.09655535038822652,24.06297849342227,-88.23529758782387,72.1922225099802
2024-09-23 23:20:42.158158,42.67,59.889044,0.00029846189959424716,-0.026265436842293304,0.09655535038822652,24.06297849342227,-88.23529758782387,76.200527287817
2024-09-23 23:20:42.194335,42.67,59.889096,-0.00014922575204880957,-0.026265436842293304,0.0973512698629459,24.06297849342227,-88.23529758782387,76.200527287817
2024-09-23 23:20:42.205654,42.67,59.889096,-0.00014922575204880957,-0.026265436842293304,0.0973512698629459,48.12595698684454,-92.24360919585227,76.200527287817
2024-09-23 23:20:42.237626,42.67,59.889096,-0.00014922575204880957,-0.026265436842293304,0.0973512698629459,48.12595698684454,-92.24360919585227,68.18063240997792
2024-09-23 23:20:42.249072,42.67,59.889147,0.00029846189959424716,-0.02576799020854705,0.09680407370509965,60.15744537978172,-92.24360919585227,68.18063240997792
2024-09-23 23:20:42.291901,42.67,59.88924,0.0003979595949556242,-0.02681263300013955,0.09680407370509965,60.15744537978172,-92.24360919585227,76.200527287817
2024-09-23 23:20:42.304053,42.67,59.88924,0.0003979595949556242,-0.02681263300013955,0.09575943091350714,60.15744537978172,-92.24360919585227,76.200527287817
2024-09-23 23:20:42.336483,42.67,59.88924,0.0003979595949556242,-0.02681263300013955,0.09575943091350714,24.06297849342227,-88.23529758782387,76.200527287817
2024-09-23 23:20:42.347614,42.67,59.889292,0.00024872343554318134,-0.026016713525420176,0.09575943091350714,24.06297849342227,-88.23529758782387,72.1922225099802
2024-09-23 23:20:42.389596,42.67,59.889342,0.00024872343554318134,-0.026016713525420176,0.09715228999426605,40.106058693909645,-100.26678939585686,76.200527287817
2024-09-23 23:20:42.401132,42.67,59.889342,0.0,-0.026016713525420176,0.09715228999426605,40.106058693909645,-100.26678939585686,76.200527287817
2024-09-23 23:20:42.434629,42.67,59.889342,0.0,-0.02661365616941306,0.09705279702197278,40.106058693909645,-100.26678939585686,76.200527287817
2024-09-23 23:20:42.446346,42.67,59.889434,0.0,-0.02661365616941306,0.09705279702197278,52.137550501942634,-92.24360919585227,76.200527287817
2024-09-23 23:20:42.488169,42.67,59.889434,0.0004974468710863627,-0.026215699470006727,0.09650560086412653,36.09446859390736,-88.23529758782387,68.18063240997792
2024-09-23 23:20:42.530728,42.67,59.889486,0.00024872343554318134,-0.026215699470006727,0.09650560086412653,36.09446859390736,-88.23529758782387,68.18063240997792
2024-09-23 23:20:42.542819,42.67,59.889486,0.00024872343554318134,-0.026265436842293304,0.09556044496892059,24.06297849342227,-88.23529758782387,68.18063240997792
2024-09-23 23:20:42.585105,42.96,59.889537,0.00029846189959424716,-0.026116200421806745,0.09655535038822652,24.06297849342227,-88.23529758782387,80.21211738781929
2024-09-23 23:20:42.597198,42.96,59.889537,0.00029846189959424716,-0.026116200421806745,0.09655535038822652,24.06297849342227,-88.23529758782387,80.21211738781929
2024-09-23 23:20:42.732446,42.96,59.889587,0.00024872343554318134,-0.026514160159166435,0.09655535038822652,24.06297849342227,-84.22370748782159,76.200527287817
2024-09-23 23:20:42.744465,42.96,59.889587,0.00024872343554318134,-0.026514160159166435,0.09705279702197278,24.06297849342227,-84.22370748782159,76.200527287817
2024-09-23 23:20:42.776524,42.96,59.889587,0.00024872343554318134,-0.026514160159166435,0.09705279702197278,52.137550501942634,-100.26678939585686,68.18063240997792
2024-09-23 23:20:42.788108,42.96,59.889638,4.973845218406054e-05,-0.026265436842293304,0.09705279702197278,52.137550501942634,-100.26678939585686,68.18063240997792
2024-09-23 23:20:42.830990,42.96,59.889638,4.973845218406054e-05,-0.026265436842293304,0.09655535038822652,48.12595698684454,-96.25519929585457,76.200527287817
2024-09-23 23:20:42.874018,42.96,59.889689,0.0009948937421727254,-0.026364923738679876,0.09655535038822652,48.12595698684454,-96.25519929585457,76.200527287817
2024-09-23 23:20:42.886032,42.96,59.889689,0.0009948937421727254,-0.026364923738679876,0.0966050877605131,40.106058693909645,-96.25519929585457,76.200527287817
2024-09-23 23:20:42.929417,42.96,59.889776,0.0004974468710863627,-0.02576799020854705,0.09600815423038027,44.11764879391193,-96.25519929585457,80.21211738781929
2024-09-23 23:20:42.972695,42.96,59.889922,4.973845218406054e-05,-0.02576799020854705,0.09600815423038027,44.11764879391193,-92.24360919585227,72.1922225099802
2024-09-23 23:20:42.984268,42.96,59.889922,4.973845218406054e-05,-0.025966964001320186,0.09600815423038027,44.11764879391193,-92.24360919585227,72.1922225099802
2024-09-23 23:20:43.016805,42.96,59.889922,4.973845218406054e-05,-0.025966964001320186,0.09600815423038027,52.137550501942634,-92.24360919585227,72.1922225099802
2024-09-23 23:20:43.029153,42.96,59.889974,0.00014922575204880957,-0.026265436842293304,0.09600815423038027,52.137550501942634,-92.24360919585227,76.200527287817
2024-09-23 23:20:43.071112,42.96,59.889974,0.00014922575204880957,-0.026265436842293304,0.0966050877605131,48.12595698684454,-92.24360919585227,72.1922225099802
2024-09-23 23:20:43.082815,42.96,59.890024,-0.0001989745997294981,-0.026265436842293304,0.0966050877605131,48.12595698684454,-92.24360919585227,72.1922225099802
2024-09-23 23:20:43.116900,42.96,59.890024,-0.0001989745997294981,-0.026514160159166435,0.09610764112676684,48.12595698684454,-92.24360919585227,72.1922225099802
2024-09-23 23:20:43.128478,42.96,59.890117,-0.0001989745997294981,-0.026514160159166435,0.09610764112676684,44.11764879391193,-92.24360919585227,72.1922225099802
2024-09-23 23:20:43.170968,42.96,59.890117,0.00034821073540793035,-0.026265436842293304,0.0966050877605131,44.11764879391193,-100.26678939585686,72.1922225099802
2024-09-23 23:20:43.182313,42.96,59.890117,0.00034821073540793035,-0.026265436842293304,0.0966050877605131,44.11764879391193,-100.26678939585686,80.21211738781929
2024-09-23 23:20:43.213950,42.96,59.890168,0.0011938787373988514,-0.026265436842293304,0.0966050877605131,44.11764879391193,-100.26678939585686,80.21211738781929
2024-09-23 23:20:43.225109,42.96,59.890168,0.0011938787373988514,-0.026066463049520167,0.09680407370509965,44.11764879391193,-92.24360919585227,80.21211738781929
2024-09-23 23:20:43.268184,42.96,59.890219,0.0,-0.026364923738679876,0.0966050877605131,44.11764879391193,-92.24360919585227,76.200527287817
2024-09-23 23:20:43.310147,42.96,59.890219,0.0,-0.026364923738679876,0.0966050877605131,52.137550501942634,-96.25519929585457,76.200527287817
2024-09-23 23:20:43.363218,42.96,59.89027,0.0,-0.026364923738679876,0.0966050877605131,52.137550501942634,-96.25519929585457,72.1922225099802
2024-09-23 23:20:43.406518,42.96,59.89027,0.00044769805900669,-0.026364923738679876,0.0966050877605131,52.137550501942634,-96.25519929585457,72.1922225099802
2024-09-23 23:20:43.417944,42.96,59.89027,0.00044769805900669,-0.026165949945906736,0.09655535038822652,40.106058693909645,-92.24360919585227,72.1922225099802
2024-09-23 23:20:43.460403,42.96,59.89032,0.00044769805900669,-0.026165949945906736,0.09655535038822652,40.106058693909645,-92.24360919585227,72.1922225099802
2024-09-23 23:20:43.513185,42.96,59.89032,0.0003979595949556242,-0.026514160159166435,0.0970030596496862,48.12595698684454,-88.23529758782387,80.21211738781929
2024-09-23 23:20:43.556277,42.96,59.890371,0.0007959191899112484,-0.026713146103752982,0.0970030596496862,48.12595698684454,-88.23529758782387,80.21211738781929
2024-09-23 23:20:43.567767,42.96,59.890371,0.0007959191899112484,-0.026713146103752982,0.0970030596496862,44.11764879391193,-92.24360919585227,80.21211738781929
2024-09-23 23:20:43.610552,42.56,59.890458,0.00044769805900669,-0.026563909683266423,0.09610764112676684,40.106058693909645,-92.24360919585227,76.200527287817
2024-09-23 23:20:43.653181,42.56,59.890458,0.00044769805900669,-0.026563909683266423,0.09610764112676684,40.106058693909645,-88.23529758782387,72.1922225099802
2024-09-23 23:20:43.665117,42.56,59.890509,0.0004974468710863627,-0.026663396579652995,0.09740101331113918,40.106058693909645,-88.23529758782387,72.1922225099802
2024-09-23 23:20:43.708283,42.56,59.890607,0.0004974468710863627,-0.026414673262779863,0.09740101331113918,48.12595698684454,-92.24360919585227,68.18063240997792
2024-09-23 23:20:43.750965,42.56,59.890607,0.0004974468710863627,-0.026414673262779863,0.09655535038822652,44.11764879391193,-96.25519929585457,68.18063240997792
2024-09-23 23:20:43.762018,42.56,59.890705,0.0004974468710863627,-0.026414673262779863,0.09655535038822652,44.11764879391193,-96.25519929585457,72.1922225099802
2024-09-23 23:20:43.805800,42.56,59.890799,0.0004974468710863627,-0.026713146103752982,0.09640611396773996,40.106058693909645,-88.23529758782387,72.1922225099802
2024-09-23 23:20:43.847926,42.56,59.890799,-9.948729986474904e-05,-0.026414673262779863,0.09640611396773996,40.106058693909645,-88.23529758782387,72.1922225099802
2024-09-23 23:20:43.859154,42.56,59.890799,-9.948729986474904e-05,-0.026414673262779863,0.09650560086412653,32.08287849390507,-92.24360919585227,84.22370748782159
2024-09-23 23:20:43.901304,42.56,59.890851,0.00024872343554318134,-0.026315186366393295,0.0966050877605131,44.11764879391193,-92.24360919585227,84.22370748782159
2024-09-23 23:20:43.913653,42.56,59.890851,0.00024872343554318134,-0.026315186366393295,0.0966050877605131,44.11764879391193,-92.24360919585227,84.22370748782159
2024-09-23 23:20:43.946445,42.56,59.890902,-0.00029846189959424716,-0.026315186366393295,0.0966050877605131,44.11764879391193,-92.24360919585227,84.22370748782159
2024-09-23 23:20:43.998739,42.56,59.890902,-0.00029846189959424716,-0.02661365616941306,0.09630662707135339,36.09446859390736,-92.24360919585227,76.200527287817
2024-09-23 23:20:44.010495,42.56,59.890952,-0.00029846189959424716,-0.02661365616941306,0.09630662707135339,36.09446859390736,-92.24360919585227,76.200527287817
2024-09-23 23:20:44.044068,42.56,59.890952,0.00029846189959424716,-0.025917226629033608,0.09575943091350714,36.09446859390736,-92.24360919585227,76.200527287817
2024-09-23 23:20:44.055670,42.56,59.890952,0.00029846189959424716,-0.025917226629033608,0.09575943091350714,44.11764879391193,-84.22370748782159,72.1922225099802
2024-09-23 23:20:44.098480,42.56,59.891003,0.0005969341946851222,-0.026414673262779863,0.0962568775472534,44.11764879391193,-88.23529758782387,72.1922225099802
2024-09-23 23:20:44.141819,42.56,59.891054,0.00029846189959424716,-0.026414673262779863,0.0962568775472534,44.11764879391193,-88.23529758782387,76.200527287817
2024-09-23 23:20:44.153106,42.56,59.891054,0.00029846189959424716,-0.02581772758083363,0.09690356060148622,40.106058693909645,-88.23529758782387,76.200527287817
2024-09-23 23:20:44.196179,42.56,59.891141,0.0005471957306340564,-0.02676289258989962,0.09635636444363997,40.106058693909645,-84.22370748782159,84.22370748782159
2024-09-23 23:20:44.238502,42.56,59.891141,0.0005471957306340564,-0.02676289258989962,0.09635636444363997,52.137550501942634,-88.23529758782387,76.200527287817
2024-09-23 23:20:44.249478,42.56,59.891192,0.0005471957306340564,-0.026414673262779863,0.09635636444363997,52.137550501942634,-88.23529758782387,76.200527287817
2024-09-23 23:20:44.292412,42.56,59.891243,0.0007461703303635545,-0.026414673262779863,0.09635636444363997,44.11764879391193,-88.23529758782387,80.21211738781929
2024-09-23 23:20:44.335003,42.56,59.891243,0.0007461703303635545,-0.026563909683266423,0.09635636444363997,44.11764879391193,-88.23529758782387,80.21211738781929
2024-09-23 23:20:44.346423,42.56,59.891336,0.0007461703303635545,-0.026563909683266423,0.09665483728461309,36.09446859390736,-92.24360919585227,72.1922225099802
2024-09-23 23:20:44.389025,42.56,59.891336,0.0005969341946851222,-0.026215699470006727,0.0966050877605131,44.11764879391193,-92.24360919585227,72.1922225099802
2024-09-23 23:20:44.401088,42.56,59.891336,0.0005969341946851222,-0.026215699470006727,0.0966050877605131,44.11764879391193,-92.24360919585227,80.21211738781929
2024-09-23 23:20:44.434415,42.56,59.891387,0.00024872343554318134,-0.026165949945906736,0.0966050877605131,44.11764879391193,-92.24360919585227,80.21211738781929
2024-09-23 23:20:44.445905,42.56,59.891387,0.00024872343554318134,-0.026165949945906736,0.09605789160266685,36.09446859390736,-88.23529758782387,80.21211738781929
2024-09-23 23:20:44.488395,42.56,59.891438,0.00034821073540793035,-0.026713146103752982,0.09685382322919964,48.12595698684454,-88.23529758782387,72.1922225099802
2024-09-23 23:20:44.531092,42.56,59.891488,0.00034821073540793035,-0.026713146103752982,0.09685382322919964,48.12595698684454,-100.26678939585686,72.1922225099802
2024-09-23 23:20:44.543250,42.56,59.891488,0.0003979595949556242,-0.026265436842293304,0.09615739065086683,48.12595698684454,-100.26678939585686,72.1922225099802
2024-09-23 23:20:44.586013,42.56,59.891539,0.0005471957306340564,-0.026265436842293304,0.09615739065086683,40.106058693909645,-88.23529758782387,76.200527287817
