Ayaan's Suite
Timestamp,Sample Rate (Hz),Time,Ax,Ay,Az,Gx,Gy,Gz
2024-09-23 16:39:18.296794,0,35.804688,-0.0029847020175114316,-0.023330473146428877,0.09695331012558621,40.106058693909645,-96.25519929585457,80.21211738781929
2024-09-23 16:39:18.308339,0,35.804775,-0.0029847020175114316,-0.023330473146428877,0.09695331012558621,40.106058693909645,-96.25519929585457,80.21211738781929
2024-09-23 16:39:18.340444,0,35.804775,-0.0028852147413806935,-0.023330473146428877,0.09695331012558621,40.106058693909645,-96.25519929585457,80.21211738781929
2024-09-23 16:39:18.352276,0,35.804775,-0.0028852147413806935,-0.02362894446842532,0.09655535038822652,44.11764879391193,-96.25519929585457,80.21211738781929
2024-09-23 16:39:18.395853,0,35.804827,-0.0033329230534799477,-0.023479709566915436,0.09685382322919964,36.09446859390736,-96.25519929585457,80.21211738781929
2024-09-23 16:39:18.407540,0,35.804827,-0.0033329230534799477,-0.023479709566915436,0.09685382322919964,36.09446859390736,-100.26678939585686,80.21211738781929
2024-09-23 16:39:18.440756,0,35.804878,-0.0033329230534799477,-0.023479709566915436,0.09685382322919964,36.09446859390736,-100.26678939585686,76.200527287817
2024-09-23 16:39:18.452695,0,35.804878,-0.0029847020175114316,-0.023429960042815445,0.09680407370509965,40.106058693909645,-100.26678939585686,76.200527287817
2024-09-23 16:39:18.495126,0,35.804928,-0.002387757474797703,-0.023230986250042305,0.09710254654607277,40.106058693909645,-108.28669110388756,64.16903547978401
2024-09-23 16:39:18.537340,0,35.804928,-0.002387757474797703,-0.023230986250042305,0.09710254654607277,44.11764879391193,-104.27510100388527,64.16903547978401
2024-09-23 16:39:18.549000,0,35.804979,-0.003233425524256645,-0.02362894446842532,0.09710254654607277,44.11764879391193,-104.27510100388527,72.1922225099802
2024-09-23 16:39:18.592384,0,35.80503,-0.0031836870127375577,-0.02362894446842532,0.09670458680871308,32.08287849390507,-100.26678939585686,76.200527287817
2024-09-23 16:39:18.634659,0,35.80503,-0.0031836870127375577,-0.02367869399252531,0.09670458680871308,32.08287849390507,-100.26678939585686,76.200527287817
2024-09-23 16:39:18.646316,0,35.805117,-0.0031836870127375577,-0.02367869399252531,0.09725178296655933,40.106058693909645,-100.26678939585686,76.200527287817
2024-09-23 16:39:18.688887,0,35.805117,-0.0029349636958644295,-0.023330473146428877,0.09715228999426605,40.106058693909645,-100.26678939585686,76.200527287817
2024-09-23 16:39:18.700883,0,35.805117,-0.0029349636958644295,-0.023330473146428877,0.09715228999426605,40.106058693909645,-100.26678939585686,72.1922225099802
2024-09-23 16:39:18.732690,0,35.805168,-0.0028354659767690416,-0.023330473146428877,0.09715228999426605,40.106058693909645,-100.26678939585686,72.1922225099802
2024-09-23 16:39:18.744014,0,35.805168,-0.0028354659767690416,-0.023479709566915436,0.09745075675933246,36.09446859390736,-96.25519929585457,72.1922225099802
2024-09-23 16:39:18.786151,0,35.805219,-0.003233425524256645,-0.02303200030545576,0.09705279702197278,36.09446859390736,-96.25519929585457,76.200527287817
2024-09-23 16:39:18.797811,0,35.805219,-0.003233425524256645,-0.02303200030545576,0.09705279702197278,40.106058693909645,-96.25519929585457,76.200527287817
2024-09-23 16:39:18.830730,0,35.805219,-0.003233425524256645,-0.02303200030545576,0.09705279702197278,40.106058693909645,-92.24360919585227,76.200527287817
2024-09-23 16:39:18.842403,0,35.80527,-0.0033329230534799477,-0.023181236725942318,0.0973512698629459,40.106058693909645,-92.24360919585227,80.21211738781929
2024-09-23 16:39:18.885597,0,35.805321,-0.0034324103296106863,-0.023181236725942318,0.0973512698629459,40.106058693909645,-100.26678939585686,80.21211738781929
2024-09-23 16:39:18.897824,0,35.805321,-0.0034324103296106863,-0.023429960042815445,0.0973512698629459,40.106058693909645,-100.26678939585686,80.21211738781929
2024-09-23 16:39:18.929760,0,35.805321,-0.0034324103296106863,-0.023429960042815445,0.0973512698629459,44.11764879391193,-100.26678939585686,80.21211738781929
2024-09-23 16:39:18.941265,0,35.805371,-0.003233425524256645,-0.023429960042815445,0.0973512698629459,44.11764879391193,-100.26678939585686,80.21211738781929
2024-09-23 16:39:18.984871,0,35.805458,-0.003233425524256645,-0.023230986250042305,0.09750050628343246,40.106058693909645,-100.26678939585686,80.21211738781929
2024-09-23 16:39:19.027021,0,35.805458,-0.0030344509719951677,-0.023280723622328886,0.09720203344245934,40.106058693909645,-100.26678939585686,80.21211738781929
2024-09-23 16:39:19.038723,0,35.805458,-0.0030344509719951677,-0.023280723622328886,0.09720203344245934,36.09446859390736,-100.26678939585686,84.22370748782159
2024-09-23 16:39:19.081658,0,35.805509,-0.0030344509719951677,-0.023230986250042305,0.09725178296655933,40.106058693909645,-96.25519929585457,84.22370748782159
2024-09-23 16:39:19.123220,0,35.80556,-0.0030344509719951677,-0.023230986250042305,0.09725178296655933,40.106058693909645,-96.25519929585457,80.21211738781929
2024-09-23 16:39:19.134601,0,35.80556,-0.0030841997366068195,-0.02293251340906919,0.0973015264147526,44.11764879391193,-96.25519929585457,80.21211738781929
2024-09-23 16:39:19.177195,0,35.805611,-0.0032831742888682963,-0.02338022115155219,0.09750050628343246,44.11764879391193,-96.25519929585457,80.21211738781929
2024-09-23 16:39:19.220058,0,35.805611,-0.0032831742888682963,-0.02338022115155219,0.09750050628343246,48.12595698684454,-88.23529758782387,80.21211738781929
2024-09-23 16:39:19.231538,0,35.805661,-0.0028354659767690416,-0.02303200030545576,0.09750050628343246,48.12595698684454,-88.23529758782387,88.23529758782387
2024-09-23 16:39:19.273228,43.18,35.805712,-0.0028354659767690416,-0.02303200030545576,0.09665483728461309,28.07457030097246,-92.24360919585227,80.21211738781929
2024-09-23 16:39:19.285230,43.18,35.805712,-0.0029349636958644295,-0.02303200030545576,0.09665483728461309,28.07457030097246,-92.24360919585227,80.21211738781929
2024-09-23 16:39:19.318268,43.18,35.805712,-0.0029349636958644295,-0.023230986250042305,0.09705279702197278,28.07457030097246,-92.24360919585227,80.21211738781929
2024-09-23 16:39:19.329454,43.18,35.805799,-0.0029349636958644295,-0.023230986250042305,0.09705279702197278,36.09446859390736,-96.25519929585457,80.21211738781929
2024-09-23 16:39:19.371118,43.18,35.805799,-0.0033329230534799477,-0.022833026512682618,0.09725178296655933,48.12595698684454,-92.24360919585227,80.21211738781929
2024-09-23 16:39:19.382726,43.18,35.805799,-0.0033329230534799477,-0.022833026512682618,0.09725178296655933,48.12595698684454,-92.24360919585227,76.200527287817
2024-09-23 16:39:19.414605,43.18,35.805851,-0.002636491424507565,-0.022833026512682618,0.09725178296655933,48.12595698684454,-92.24360919585227,76.200527287817
2024-09-23 16:39:19.426667,43.18,35.805851,-0.002636491424507565,-0.02278327698858263,0.09720203344245934,44.11764879391193,-92.24360919585227,76.200527287817
2024-09-23 16:39:19.469640,43.18,35.805901,-0.003382661564999035,-0.023181236725942318,0.09720203344245934,44.11764879391193,-100.26678939585686,80.21211738781929
2024-09-23 16:39:19.481434,43.18,35.805901,-0.003382661564999035,-0.023181236725942318,0.09620712802315341,44.11764879391193,-100.26678939585686,80.21211738781929
2024-09-23 16:39:19.513239,43.18,35.805901,-0.003382661564999035,-0.023181236725942318,0.09620712802315341,32.08287849390507,-92.24360919585227,80.21211738781929
2024-09-23 16:39:19.524352,43.18,35.805952,-0.0027359787006383035,-0.023330473146428877,0.09620712802315341,32.08287849390507,-92.24360919585227,80.21211738781929
2024-09-23 16:39:19.567441,43.18,35.806003,-0.0029847020175114316,-0.023330473146428877,0.09710254654607277,44.11764879391193,-92.24360919585227,84.22370748782159
2024-09-23 16:39:19.610156,43.18,35.806003,-0.0029847020175114316,-0.02367869399252531,0.09655535038822652,44.11764879391193,-92.24360919585227,84.22370748782159
2024-09-23 16:39:19.622063,43.18,35.806053,-0.0029847020175114316,-0.02367869399252531,0.09655535038822652,44.11764879391193,-84.22370748782159,76.200527287817
2024-09-23 16:39:19.664413,43.18,35.806053,-0.003233425524256645,-0.023728432883788564,0.09665483728461309,32.08287849390507,-100.26678939585686,76.200527287817
2024-09-23 16:39:19.677007,43.18,35.806053,-0.003233425524256645,-0.023728432883788564,0.09665483728461309,32.08287849390507,-100.26678939585686,80.21211738781929
2024-09-23 16:39:19.709809,43.18,35.806141,-0.0032831742888682963,-0.02263404056809607,0.09665483728461309,32.08287849390507,-100.26678939585686,80.21211738781929
2024-09-23 16:39:19.721351,43.18,35.806141,-0.0032831742888682963,-0.02263404056809607,0.09670458680871308,40.106058693909645,-92.24360919585227,80.21211738781929
2024-09-23 16:39:19.764181,43.18,35.806192,-0.0030841997366068195,-0.023280723622328886,0.09759999317981902,40.106058693909645,-92.24360919585227,76.200527287817
2024-09-23 16:39:19.806602,43.18,35.806243,-0.0030841997366068195,-0.023280723622328886,0.09759999317981902,40.106058693909645,-92.24360919585227,80.21211738781929
2024-09-23 16:39:19.819113,43.18,35.806243,-0.0036811340262279837,-0.02338022115155219,0.09670458680871308,40.106058693909645,-92.24360919585227,80.21211738781929
2024-09-23 16:39:19.852941,43.18,35.806243,-0.0036811340262279837,-0.02338022115155219,0.09670458680871308,40.106058693909645,-92.24360919585227,80.21211738781929
2024-09-23 16:39:19.864384,43.18,35.806294,-0.0035816467500972456,-0.022733528983459317,0.09670458680871308,40.106058693909645,-96.25519929585457,80.21211738781929
2024-09-23 16:39:19.907027,43.18,35.806294,-0.0035816467500972456,-0.022733528983459317,0.09680407370509965,40.106058693909645,-96.25519929585457,72.1922225099802
2024-09-23 16:39:19.919550,43.18,35.806344,-0.0029349636958644295,-0.022733528983459317,0.09680407370509965,40.106058693909645,-96.25519929585457,72.1922225099802
2024-09-23 16:39:19.951479,43.18,35.806344,-0.0029349636958644295,-0.023280723622328886,0.09705279702197278,40.106058693909645,-96.25519929585457,72.1922225099802
2024-09-23 16:39:19.963212,43.18,35.806433,-0.0029349636958644295,-0.023280723622328886,0.09705279702197278,40.106058693909645,-96.25519929585457,76.200527287817
2024-09-23 16:39:20.004816,43.18,35.806433,-0.002387757474797703,-0.02293251340906919,0.09720203344245934,40.106058693909645,-96.25519929585457,76.200527287817
2024-09-23 16:39:20.016553,43.18,35.806433,-0.002387757474797703,-0.02293251340906919,0.09720203344245934,40.106058693909645,-96.25519929585457,80.21211738781929
2024-09-23 16:39:20.049464,43.18,35.806484,-0.002785727465249955,-0.02293251340906919,0.09720203344245934,40.106058693909645,-96.25519929585457,80.21211738781929
2024-09-23 16:39:20.061066,43.18,35.806484,-0.002785727465249955,-0.02338022115155219,0.09690356060148622,32.08287849390507,-96.25519929585457,80.21211738781929
2024-09-23 16:39:20.103790,43.18,35.806535,-0.0028852147413806935,-0.0228827638849692,0.09705279702197278,32.08287849390507,-96.25519929585457,80.21211738781929
2024-09-23 16:39:20.146737,43.18,35.806535,-0.0028852147413806935,-0.0228827638849692,0.09705279702197278,36.09446859390736,-104.27510100388527,80.21211738781929
2024-09-23 16:39:20.158177,43.18,35.806586,-0.0036811340262279837,-0.02293251340906919,0.09705279702197278,36.09446859390736,-104.27510100388527,72.1922225099802
2024-09-23 16:39:20.201079,43.18,35.806636,-0.0033329230534799477,-0.02293251340906919,0.09740101331113918,32.08287849390507,-104.27510100388527,80.21211738781929
2024-09-23 16:39:20.244690,43.18,35.806636,-0.0033329230534799477,-0.022982261414192504,0.09740101331113918,32.08287849390507,-104.27510100388527,80.21211738781929
2024-09-23 16:39:20.256215,43.18,35.806687,-0.0033329230534799477,-0.022982261414192504,0.09740101331113918,40.106058693909645,-92.24360919585227,80.21211738781929
2024-09-23 16:39:20.298772,44.02,35.806687,-0.0029349636958644295,-0.02303200030545576,0.09675432418099966,48.12595698684454,-104.27510100388527,76.200527287817
2024-09-23 16:39:20.342306,44.02,35.806774,-0.0022385316871478774,-0.02303200030545576,0.09675432418099966,48.12595698684454,-104.27510100388527,76.200527287817
2024-09-23 16:39:20.353841,44.02,35.806774,-0.0022385316871478774,-0.023479709566915436,0.0973015264147526,36.09446859390736,-100.26678939585686,76.200527287817
2024-09-23 16:39:20.396395,44.02,35.806826,-0.0030344509719951677,-0.02268379009219606,0.09725178296655933,40.106058693909645,-100.26678939585686,76.200527287817
2024-09-23 16:39:20.438692,44.02,35.806826,-0.0030344509719951677,-0.02268379009219606,0.09725178296655933,40.106058693909645,-92.24360919585227,76.200527287817
2024-09-23 16:39:20.450314,44.02,35.806876,-0.0024872551938930902,-0.022833026512682618,0.09695331012558621,40.106058693909645,-92.24360919585227,76.200527287817
2024-09-23 16:39:20.493414,44.02,35.806927,-0.0029349636958644295,-0.022833026512682618,0.09695331012558621,32.08287849390507,-88.23529758782387,76.200527287817
2024-09-23 16:39:20.505209,44.02,35.806927,-0.0029349636958644295,-0.02308174982955575,0.09695331012558621,32.08287849390507,-88.23529758782387,76.200527287817
2024-09-23 16:39:20.538321,44.02,35.806927,-0.0029349636958644295,-0.02308174982955575,0.09725178296655933,36.09446859390736,-96.25519929585457,76.200527287817
2024-09-23 16:39:20.550018,44.02,35.806978,-0.0024872551938930902,-0.02308174982955575,0.09725178296655933,36.09446859390736,-96.25519929585457,80.21211738781929
2024-09-23 16:39:20.593207,44.02,35.807067,-0.0024872551938930902,-0.023230986250042305,0.0966050877605131,28.07457030097246,-96.25519929585457,80.21211738781929
2024-09-23 16:39:20.635416,44.02,35.807067,-0.0029349636958644295,-0.02293251340906919,0.09705279702197278,28.07457030097246,-96.25519929585457,80.21211738781929
2024-09-23 16:39:20.646353,44.02,35.807067,-0.0029349636958644295,-0.02293251340906919,0.09705279702197278,44.11764879391193,-96.25519929585457,80.21211738781929
2024-09-23 16:39:20.688239,44.02,35.807118,-0.0023380189632786156,-0.023280723622328886,0.09695331012558621,32.08287849390507,-96.25519929585457,80.21211738781929
2024-09-23 16:39:20.700425,44.02,35.807118,-0.0023380189632786156,-0.023280723622328886,0.09695331012558621,32.08287849390507,-100.26678939585686,80.21211738781929
2024-09-23 16:39:20.733398,44.02,35.807169,-0.0025369937054121774,-0.023280723622328886,0.09695331012558621,32.08287849390507,-100.26678939585686,72.1922225099802
2024-09-23 16:39:20.744794,44.02,35.807169,-0.0025369937054121774,-0.023280723622328886,0.09695331012558621,44.11764879391193,-100.26678939585686,72.1922225099802
2024-09-23 16:39:20.787790,44.02,35.80722,-0.0028354659767690416,-0.023330473146428877,0.09690356060148622,44.11764879391193,-100.26678939585686,76.200527287817
2024-09-23 16:39:20.830957,44.02,35.80722,-0.0028354659767690416,-0.023330473146428877,0.09690356060148622,36.09446859390736,-96.25519929585457,76.200527287817
2024-09-23 16:39:20.842397,44.02,35.80727,-0.0033329230534799477,-0.02367869399252531,0.09690356060148622,36.09446859390736,-96.25519929585457,76.200527287817
2024-09-23 16:39:20.884981,44.02,35.807321,-0.003482159473966507,-0.02367869399252531,0.09675432418099966,36.09446859390736,-92.24360919585227,88.23529758782387
2024-09-23 16:39:20.927106,44.02,35.807321,-0.003482159473966507,-0.02308174982955575,0.09725178296655933,36.09446859390736,-92.24360919585227,88.23529758782387
2024-09-23 16:39:20.938906,44.02,35.807408,-0.003482159473966507,-0.02308174982955575,0.09725178296655933,44.11764879391193,-100.26678939585686,80.21211738781929
2024-09-23 16:39:20.982450,44.02,35.807408,-0.0030841997366068195,-0.023330473146428877,0.09725178296655933,40.106058693909645,-92.24360919585227,88.23529758782387
2024-09-23 16:39:21.024130,44.02,35.807459,-0.0026862297461545674,-0.023330473146428877,0.09725178296655933,40.106058693909645,-92.24360919585227,88.23529758782387
2024-09-23 16:39:21.035391,44.02,35.807459,-0.0026862297461545674,-0.023579196463302005,0.09745075675933246,36.09446859390736,-88.23529758782387,88.23529758782387
2024-09-23 16:39:21.077477,44.02,35.80751,-0.0024872551938930902,-0.023230986250042305,0.09670458680871308,36.09446859390736,-88.23529758782387,88.23529758782387
2024-09-23 16:39:21.089764,44.02,35.80751,-0.0024872551938930902,-0.023230986250042305,0.09670458680871308,32.08287849390507,-88.23529758782387,88.23529758782387
2024-09-23 16:39:21.121915,44.02,35.80751,-0.0024872551938930902,-0.023230986250042305,0.09670458680871308,32.08287849390507,-96.25519929585457,84.22370748782159
2024-09-23 16:39:21.133808,44.02,35.807561,-0.0030841997366068195,-0.02367869399252531,0.09685382322919964,32.08287849390507,-96.25519929585457,84.22370748782159
2024-09-23 16:39:21.177194,44.02,35.807611,-0.003233425524256645,-0.023429960042815445,0.09685382322919964,32.08287849390507,-96.25519929585457,76.200527287817
2024-09-23 16:39:21.219981,44.02,35.807611,-0.003233425524256645,-0.023429960042815445,0.09650560086412653,44.11764879391193,-92.24360919585227,76.200527287817
2024-09-23 16:39:21.231701,44.02,35.807662,-0.0029349636958644295,-0.023429960042815445,0.09650560086412653,44.11764879391193,-92.24360919585227,76.200527287817
2024-09-23 16:39:21.274024,44.02,35.807749,-0.0029349636958644295,-0.023280723622328886,0.09685382322919964,36.09446859390736,-96.25519929585457,76.200527287817
2024-09-23 16:39:21.316499,43.1,35.807749,-0.0029349636958644295,-0.02352945757203875,0.09685382322919964,36.09446859390736,-96.25519929585457,76.200527287817
2024-09-23 16:39:21.328078,43.1,35.807749,-0.0029349636958644295,-0.02352945757203875,0.09720203344245934,40.106058693909645,-96.25519929585457,80.21211738781929
2024-09-23 16:39:21.371221,43.1,35.807801,-0.0029847020175114316,-0.0228827638849692,0.09720203344245934,40.106058693909645,-96.25519929585457,80.21211738781929
2024-09-23 16:39:21.465084,43.1,35.807801,-0.0029847020175114316,-0.0228827638849692,0.0970030596496862,40.106058693909645,-100.26678939585686,80.21211738781929
2024-09-23 16:39:21.477421,43.1,35.807851,-0.0030841997366068195,-0.0228827638849692,0.0970030596496862,40.106058693909645,-100.26678939585686,84.22370748782159
2024-09-23 16:39:21.510630,43.1,35.807851,-0.0030841997366068195,-0.023479709566915436,0.0970030596496862,40.106058693909645,-100.26678939585686,84.22370748782159
2024-09-23 16:39:21.522459,43.1,35.807903,-0.0030841997366068195,-0.023479709566915436,0.0973512698629459,44.11764879391193,-96.25519929585457,80.21211738781929
2024-09-23 16:39:21.565869,43.1,35.807903,-0.003382661564999035,-0.02367869399252531,0.09725178296655933,32.08287849390507,-96.25519929585457,80.21211738781929
2024-09-23 16:39:21.577880,43.1,35.807903,-0.003382661564999035,-0.02367869399252531,0.09725178296655933,32.08287849390507,-96.25519929585457,84.22370748782159
2024-09-23 16:39:21.610642,43.1,35.807953,-0.0029349636958644295,-0.023877669304275123,0.09725178296655933,32.08287849390507,-96.25519929585457,84.22370748782159
2024-09-23 16:39:21.622415,43.1,35.807953,-0.0029349636958644295,-0.023877669304275123,0.09670458680871308,32.08287849390507,-92.24360919585227,84.22370748782159
2024-09-23 16:39:21.664325,43.1,35.808004,-0.002437506429281439,-0.02338022115155219,0.0973512698629459,36.09446859390736,-92.24360919585227,80.21211738781929
2024-09-23 16:39:21.706902,43.1,35.808004,-0.002437506429281439,-0.02338022115155219,0.0973512698629459,36.09446859390736,-96.25519929585457,76.200527287817
2024-09-23 16:39:21.718500,43.1,35.808141,-0.0027359787006383035,-0.023827930413011865,0.09725178296655933,36.09446859390736,-96.25519929585457,76.200527287817
2024-09-23 16:39:21.762356,43.1,35.808192,-0.003929857343101113,-0.023579196463302005,0.09725178296655933,40.106058693909645,-92.24360919585227,84.22370748782159
2024-09-23 16:39:21.806303,43.1,35.808192,-0.003929857343101113,-0.023579196463302005,0.09725178296655933,32.08287849390507,-104.27510100388527,84.22370748782159
2024-09-23 16:39:21.817452,43.1,35.808242,-0.0035318979854855937,-0.023579196463302005,0.09725178296655933,32.08287849390507,-104.27510100388527,80.21211738781929
2024-09-23 16:39:21.860273,43.1,35.808334,-0.0035318979854855937,-0.023827930413011865,0.0966050877605131,40.106058693909645,-96.25519929585457,72.1922225099802
2024-09-23 16:39:21.902916,43.1,35.808334,-0.0029847020175114316,-0.023479709566915436,0.09740101331113918,40.106058693909645,-96.25519929585457,72.1922225099802
2024-09-23 16:39:21.913959,43.1,35.808334,-0.0029847020175114316,-0.023479709566915436,0.09740101331113918,44.11764879391193,-92.24360919585227,80.21211738781929
2024-09-23 16:39:21.956133,43.1,35.808386,-0.0029349636958644295,-0.023479709566915436,0.0970030596496862,32.08287849390507,-100.26678939585686,80.21211738781929
2024-09-23 16:39:21.999518,43.1,35.808436,-0.0029349636958644295,-0.023479709566915436,0.0970030596496862,32.08287849390507,-100.26678939585686,80.21211738781929
2024-09-23 16:39:22.010553,43.1,35.808436,-0.0031339382481259063,-0.023579196463302005,0.09720203344245934,32.08287849390507,-100.26678939585686,80.21211738781929
2024-09-23 16:39:22.052850,43.1,35.808487,-0.0029847020175114316,-0.02338022115155219,0.09720203344245934,32.08287849390507,-104.27510100388527,80.21211738781929
2024-09-23 16:39:22.064346,43.1,35.808487,-0.0029847020175114316,-0.02338022115155219,0.09710254654607277,32.08287849390507,-104.27510100388527,80.21211738781929
2024-09-23 16:39:22.097039,43.1,35.808487,-0.0029847020175114316,-0.02338022115155219,0.09710254654607277,40.106058693909645,-100.26678939585686,80.21211738781929
2024-09-23 16:39:22.108841,43.1,35.808538,-0.0030841997366068195,-0.022982261414192504,0.09710254654607277,40.106058693909645,-100.26678939585686,84.22370748782159
2024-09-23 16:39:22.151401,43.1,35.808588,-0.0029847020175114316,-0.022982261414192504,0.09725178296655933,36.09446859390736,-96.25519929585457,80.21211738781929
2024-09-23 16:39:22.194089,43.1,35.808588,-0.0029847020175114316,-0.023230986250042305,0.09725178296655933,36.09446859390736,-96.25519929585457,80.21211738781929
2024-09-23 16:39:22.205984,43.1,35.808675,-0.0029847020175114316,-0.023230986250042305,0.09725178296655933,40.106058693909645,-96.25519929585457,76.200527287817
2024-09-23 16:39:22.248752,43.1,35.808675,-0.002785727465249955,-0.02362894446842532,0.0976994861521123,36.09446859390736,-100.26678939585686,76.200527287817
2024-09-23 16:39:22.260980,43.1,35.808675,-0.002785727465249955,-0.02362894446842532,0.0976994861521123,36.09446859390736,-100.26678939585686,72.1922225099802
2024-09-23 16:39:22.293722,43.1,35.808727,-0.003233425524256645,-0.02308174982955575,0.0976994861521123,36.09446859390736,-100.26678939585686,72.1922225099802
2024-09-23 16:39:22.304743,43.1,35.808727,-0.003233425524256645,-0.02308174982955575,0.09784872257259886,36.09446859390736,-88.23529758782387,72.1922225099802
2024-09-23 16:39:22.347872,42.75,35.808778,-0.0035816467500972456,-0.02308174982955575,0.09670458680871308,40.106058693909645,-88.23529758782387,80.21211738781929
2024-09-23 16:39:22.390973,42.75,35.808828,-0.0035816467500972456,-0.02308174982955575,0.09670458680871308,40.106058693909645,-96.25519929585457,80.21211738781929
2024-09-23 16:39:22.402731,42.75,35.808828,-0.0031339382481259063,-0.023330473146428877,0.0976994861521123,40.106058693909645,-96.25519929585457,80.21211738781929
2024-09-23 16:39:22.445896,42.75,35.808879,-0.0027359787006383035,-0.022982261414192504,0.0976994861521123,40.106058693909645,-100.26678939585686,80.21211738781929
2024-09-23 16:39:22.489890,42.75,35.808879,-0.0027359787006383035,-0.022982261414192504,0.09665483728461309,36.09446859390736,-104.27510100388527,76.200527287817
2024-09-23 16:39:22.501824,42.75,35.80893,-0.0029847020175114316,-0.022982261414192504,0.09665483728461309,36.09446859390736,-104.27510100388527,76.200527287817
2024-09-23 16:39:22.534732,42.75,35.80893,-0.0029847020175114316,-0.023330473146428877,0.09665483728461309,36.09446859390736,-104.27510100388527,76.200527287817
2024-09-23 16:39:22.545941,42.75,35.809017,-0.0029847020175114316,-0.023330473146428877,0.09720203344245934,44.11764879391193,-96.25519929585457,84.22370748782159
2024-09-23 16:39:22.588556,42.75,35.809017,-0.0027359787006383035,-0.02308174982955575,0.09695331012558621,48.12595698684454,-96.25519929585457,84.22370748782159
2024-09-23 16:39:22.600607,42.75,35.809017,-0.0027359787006383035,-0.02308174982955575,0.09695331012558621,48.12595698684454,-96.25519929585457,76.200527287817
2024-09-23 16:39:22.633226,42.75,35.809068,-0.0028852147413806935,-0.02308174982955575,0.09695331012558621,48.12595698684454,-96.25519929585457,76.200527287817
2024-09-23 16:39:22.685884,42.75,35.809068,-0.0028852147413806935,-0.023280723622328886,0.09665483728461309,36.09446859390736,-96.25519929585457,80.21211738781929
2024-09-23 16:39:22.697551,42.75,35.809119,-0.0028852147413806935,-0.023280723622328886,0.09665483728461309,36.09446859390736,-96.25519929585457,80.21211738781929
2024-09-23 16:39:22.729919,42.75,35.809119,-0.0026862297461545674,-0.023280723622328886,0.09665483728461309,36.09446859390736,-96.25519929585457,80.21211738781929
2024-09-23 16:39:22.741121,42.75,35.809119,-0.0026862297461545674,-0.02293251340906919,0.09720203344245934,32.08287849390507,-100.26678939585686,72.1922225099802
2024-09-23 16:39:22.782891,42.75,35.80917,-0.003482159473966507,-0.02308174982955575,0.09745075675933246,32.08287849390507,-100.26678939585686,72.1922225099802
2024-09-23 16:39:22.793836,42.75,35.80917,-0.003482159473966507,-0.02308174982955575,0.09745075675933246,32.08287849390507,-100.26678939585686,72.1922225099802
2024-09-23 16:39:22.826815,42.75,35.80917,-0.003482159473966507,-0.02308174982955575,0.09745075675933246,32.08287849390507,-100.26678939585686,80.21211738781929
2024-09-23 16:39:22.839099,42.75,35.80922,-0.0030841997366068195,-0.02352945757203875,0.0973015264147526,36.09446859390736,-100.26678939585686,80.21211738781929
2024-09-23 16:39:22.882011,42.75,35.809271,-0.0028354659767690416,-0.023181236725942318,0.0973015264147526,36.09446859390736,-96.25519929585457,84.22370748782159
2024-09-23 16:39:22.893816,42.75,35.809271,-0.0028354659767690416,-0.023181236725942318,0.0970030596496862,36.09446859390736,-96.25519929585457,84.22370748782159
2024-09-23 16:39:22.925371,42.75,35.809271,-0.0028354659767690416,-0.023181236725942318,0.0970030596496862,36.09446859390736,-104.27510100388527,84.22370748782159
2024-09-23 16:39:22.936828,42.75,35.80936,-0.0028354659767690416,-0.02338022115155219,0.0970030596496862,36.09446859390736,-104.27510100388527,76.200527287817
2024-09-23 16:39:22.980222,42.75,35.809411,-0.0032831742888682963,-0.02338022115155219,0.0973512698629459,36.09446859390736,-100.26678939585686,76.200527287817
2024-09-23 16:39:23.022710,42.75,35.809411,-0.0032831742888682963,-0.023479709566915436,0.0973512698629459,36.09446859390736,-100.26678939585686,76.200527287817
2024-09-23 16:39:23.034254,42.75,35.809504,-0.0032831742888682963,-0.023479709566915436,0.09685382322919964,36.09446859390736,-96.25519929585457,76.200527287817
2024-09-23 16:39:23.077072,42.75,35.809504,-0.0031836870127375577,-0.02362894446842532,0.0973015264147526,36.09446859390736,-96.25519929585457,76.200527287817
2024-09-23 16:39:23.089280,42.75,35.809504,-0.0031836870127375577,-0.02362894446842532,0.0973015264147526,36.09446859390736,-96.25519929585457,80.21211738781929
2024-09-23 16:39:23.121902,42.75,35.809556,-0.0031836870127375577,-0.02362894446842532,0.0973015264147526,36.09446859390736,-96.25519929585457,80.21211738781929
2024-09-23 16:39:23.133297,42.75,35.809556,-0.0031836870127375577,-0.02362894446842532,0.09774922960030558,40.106058693909645,-104.27510100388527,80.21211738781929
2024-09-23 16:39:23.176092,42.75,35.809606,-0.0026862297461545674,-0.02352945757203875,0.09720203344245934,40.106058693909645,-104.27510100388527,84.22370748782159
2024-09-23 16:39:23.219322,42.75,35.809657,-0.0026862297461545674,-0.02352945757203875,0.09720203344245934,40.106058693909645,-100.26678939585686,76.200527287817
2024-09-23 16:39:23.230555,42.75,35.809657,-0.003482159473966507,-0.02303200030545576,0.09705279702197278,40.106058693909645,-100.26678939585686,76.200527287817
2024-09-23 16:39:23.274068,42.75,35.809708,-0.003482159473966507,-0.02303200030545576,0.09705279702197278,40.106058693909645,-84.22370748782159,88.23529758782387
2024-09-23 16:39:23.317040,42.75,35.809708,-0.0027359787006383035,-0.023330473146428877,0.09740101331113918,40.106058693909645,-84.22370748782159,88.23529758782387
2024-09-23 16:39:23.328404,42.75,35.809708,-0.0027359787006383035,-0.023330473146428877,0.09740101331113918,40.106058693909645,-92.24360919585227,84.22370748782159
2024-09-23 16:39:23.371358,42.8,35.809758,-0.0029847020175114316,-0.023579196463302005,0.0970030596496862,32.08287849390507,-100.26678939585686,84.22370748782159
2024-09-23 16:39:23.414732,42.8,35.809845,-0.0033329230534799477,-0.023579196463302005,0.0970030596496862,32.08287849390507,-100.26678939585686,80.21211738781929
2024-09-23 16:39:23.426250,42.8,35.809845,-0.0033329230534799477,-0.023280723622328886,0.09715228999426605,36.09446859390736,-100.26678939585686,80.21211738781929
2024-09-23 16:39:23.470005,42.8,35.809897,-0.0028354659767690416,-0.0225345536717095,0.09774922960030558,36.09446859390736,-100.26678939585686,80.21211738781929
2024-09-23 16:39:23.514614,42.8,35.809948,-0.0028354659767690416,-0.0225345536717095,0.09774922960030558,32.08287849390507,-104.27510100388527,80.21211738781929
2024-09-23 16:39:23.526587,42.8,35.809948,-0.0031339382481259063,-0.022982261414192504,0.09774922960030558,32.08287849390507,-104.27510100388527,80.21211738781929
2024-09-23 16:39:23.559309,42.8,35.809948,-0.0031339382481259063,-0.022982261414192504,0.09720203344245934,28.07457030097246,-104.27510100388527,80.21211738781929
2024-09-23 16:39:23.571087,42.8,35.809998,-0.002636491424507565,-0.022982261414192504,0.09720203344245934,28.07457030097246,-100.26678939585686,84.22370748782159
2024-09-23 16:39:23.613795,42.8,35.809998,-0.002636491424507565,-0.023330473146428877,0.09774922960030558,40.106058693909645,-96.25519929585457,80.21211738781929
2024-09-23 16:39:23.625596,42.8,35.810089,-0.002636491424507565,-0.023330473146428877,0.09774922960030558,40.106058693909645,-96.25519929585457,80.21211738781929
2024-09-23 16:39:23.658434,42.8,35.810089,-0.0028852147413806935,-0.023579196463302005,0.0970030596496862,40.106058693909645,-96.25519929585457,80.21211738781929
2024-09-23 16:39:23.670292,42.8,35.810089,-0.0028852147413806935,-0.023579196463302005,0.0970030596496862,40.106058693909645,-96.25519929585457,76.200527287817
2024-09-23 16:39:23.713047,42.8,35.810141,-0.0031836870127375577,-0.023778180888911878,0.09720203344245934,40.106058693909645,-96.25519929585457,76.200527287817
2024-09-23 16:39:23.757041,42.8,35.810191,-0.003780631555451287,-0.023429960042815445,0.09720203344245934,40.106058693909645,-96.25519929585457,80.21211738781929
2024-09-23 16:39:23.768569,42.8,35.810191,-0.003780631555451287,-0.023429960042815445,0.09680407370509965,36.09446859390736,-96.25519929585457,80.21211738781929
2024-09-23 16:39:23.801671,42.8,35.810191,-0.003780631555451287,-0.023429960042815445,0.09680407370509965,36.09446859390736,-96.25519929585457,80.21211738781929
2024-09-23 16:39:23.812821,42.8,35.810242,-0.0028354659767690416,-0.02352945757203875,0.09685382322919964,36.09446859390736,-96.25519929585457,76.200527287817
2024-09-23 16:39:23.854748,42.8,35.810242,-0.0028354659767690416,-0.02352945757203875,0.09685382322919964,36.09446859390736,-92.24360919585227,76.200527287817
2024-09-23 16:39:23.866218,42.8,35.810293,-0.0031339382481259063,-0.02367869399252531,0.09685382322919964,36.09446859390736,-92.24360919585227,76.200527287817
2024-09-23 16:39:23.898477,42.8,35.810293,-0.0031339382481259063,-0.02367869399252531,0.09655535038822652,36.09446859390736,-92.24360919585227,76.200527287817
2024-09-23 16:39:23.909825,42.8,35.810343,-0.0030344509719951677,-0.02367869399252531,0.09655535038822652,32.08287849390507,-96.25519929585457,76.200527287817
2024-09-23 16:39:23.951870,42.8,35.810343,-0.0030344509719951677,-0.023579196463302005,0.09690356060148622,32.08287849390507,-96.25519929585457,76.200527287817
2024-09-23 16:39:24.005002,42.8,35.81043,-0.0027359787006383035,-0.023479709566915436,0.09690356060148622,40.106058693909645,-92.24360919585227,76.200527287817
2024-09-23 16:39:24.047431,42.8,35.81043,-0.0027359787006383035,-0.023479709566915436,0.09755024973162574,44.11764879391193,-92.24360919585227,76.200527287817
2024-09-23 16:39:24.059299,42.8,35.810482,-0.0029847020175114316,-0.023479709566915436,0.09755024973162574,44.11764879391193,-100.26678939585686,80.21211738781929
2024-09-23 16:39:24.102048,42.8,35.810533,-0.0029847020175114316,-0.023181236725942318,0.09685382322919964,36.09446859390736,-96.25519929585457,80.21211738781929
2024-09-23 16:39:24.144203,42.8,35.810533,-0.002636491424507565,-0.02308174982955575,0.09685382322919964,36.09446859390736,-96.25519929585457,80.21211738781929
2024-09-23 16:39:24.156156,42.8,35.810533,-0.002636491424507565,-0.02308174982955575,0.09715228999426605,40.106058693909645,-92.24360919585227,76.200527287817
2024-09-23 16:39:24.198818,42.8,35.810583,-0.0030344509719951677,-0.02313149783467906,0.09715228999426605,32.08287849390507,-96.25519929585457,76.200527287817
2024-09-23 16:39:24.241207,42.8,35.810675,-0.0030344509719951677,-0.02313149783467906,0.09715228999426605,32.08287849390507,-96.25519929585457,80.21211738781929
2024-09-23 16:39:24.252673,42.8,35.810675,-0.003482159473966507,-0.02338022115155219,0.0966050877605131,32.08287849390507,-96.25519929585457,80.21211738781929
2024-09-23 16:39:24.295015,42.8,35.810726,-0.0032831742888682963,-0.023827930413011865,0.0966050877605131,32.08287849390507,-100.26678939585686,80.21211738781929
2024-09-23 16:39:24.306551,42.8,35.810726,-0.0032831742888682963,-0.023827930413011865,0.09690356060148622,32.08287849390507,-100.26678939585686,80.21211738781929
2024-09-23 16:39:24.338741,42.8,35.810726,-0.0032831742888682963,-0.023827930413011865,0.09690356060148622,36.09446859390736,-100.26678939585686,80.21211738781929
2024-09-23 16:39:24.350165,42.8,35.810777,-0.003233425524256645,-0.023479709566915436,0.09690356060148622,36.09446859390736,-100.26678939585686,76.200527287817
2024-09-23 16:39:24.392099,42.52,35.810828,-0.003233425524256645,-0.023479709566915436,0.09685382322919964,36.09446859390736,-92.24360919585227,76.200527287817
2024-09-23 16:39:24.405916,42.52,35.810828,-0.0029349636958644295,-0.023479709566915436,0.09685382322919964,36.09446859390736,-92.24360919585227,76.200527287817
2024-09-23 16:39:24.438855,42.52,35.810828,-0.0029349636958644295,-0.023728432883788564,0.0973512698629459,36.09446859390736,-96.25519929585457,76.200527287817
2024-09-23 16:39:24.450349,42.52,35.810918,-0.0029349636958644295,-0.023728432883788564,0.0973512698629459,36.09446859390736,-96.25519929585457,80.21211738781929
2024-09-23 16:39:24.492697,42.52,35.810918,-0.0030344509719951677,-0.023230986250042305,0.0970030596496862,44.11764879391193,-96.25519929585457,76.200527287817
2024-09-23 16:39:24.535889,42.52,35.810969,-0.0029847020175114316,-0.02293251340906919,0.0970030596496862,44.11764879391193,-96.25519929585457,76.200527287817
2024-09-23 16:39:24.547438,42.52,35.810969,-0.0029847020175114316,-0.02293251340906919,0.09745075675933246,36.09446859390736,-100.26678939585686,76.200527287817
2024-09-23 16:39:24.589988,42.52,35.81102,-0.0028852147413806935,-0.02338022115155219,0.0970030596496862,36.09446859390736,-100.26678939585686,80.21211738781929
2024-09-23 16:39:24.633192,42.52,35.811071,-0.0028852147413806935,-0.02338022115155219,0.0970030596496862,36.09446859390736,-92.24360919585227,76.200527287817
2024-09-23 16:39:24.644676,42.52,35.811071,-0.0029349636958644295,-0.023330473146428877,0.09725178296655933,36.09446859390736,-92.24360919585227,76.200527287817
2024-09-23 16:39:24.687385,42.52,35.811121,-0.002636491424507565,-0.022982261414192504,0.09725178296655933,44.11764879391193,-92.24360919585227,76.200527287817
2024-09-23 16:39:24.729405,42.52,35.811121,-0.002636491424507565,-0.022982261414192504,0.0970030596496862,40.106058693909645,-92.24360919585227,76.200527287817
2024-09-23 16:39:24.741255,42.52,35.811172,-0.002785727465249955,-0.022982261414192504,0.0970030596496862,40.106058693909645,-92.24360919585227,84.22370748782159
2024-09-23 16:39:24.785093,42.52,35.811259,-0.002785727465249955,-0.02352945757203875,0.09685382322919964,36.09446859390736,-88.23529758782387,76.200527287817
2024-09-23 16:39:24.829118,42.52,35.811259,-0.0028354659767690416,-0.023579196463302005,0.0970030596496862,36.09446859390736,-88.23529758782387,76.200527287817
2024-09-23 16:39:24.840673,42.52,35.811259,-0.0028354659767690416,-0.023579196463302005,0.0970030596496862,48.12595698684454,-96.25519929585457,80.21211738781929
2024-09-23 16:39:24.883717,42.52,35.811311,-0.0029847020175114316,-0.022833026512682618,0.09695331012558621,36.09446859390736,-112.29828120388984,80.21211738781929
2024-09-23 16:39:24.927827,42.52,35.811361,-0.003233425524256645,-0.022484804147609512,0.09695331012558621,36.09446859390736,-112.29828120388984,76.200527287817
2024-09-23 16:39:24.939634,42.52,35.811361,-0.003233425524256645,-0.022484804147609512,0.0973015264147526,40.106058693909645,-112.29828120388984,76.200527287817
2024-09-23 16:39:24.971897,42.52,35.811361,-0.003233425524256645,-0.022484804147609512,0.0973015264147526,40.106058693909645,-100.26678939585686,76.200527287817
2024-09-23 16:39:24.983349,42.52,35.811412,-0.0030344509719951677,-0.02278327698858263,0.09710254654607277,40.106058693909645,-100.26678939585686,80.21211738781929
2024-09-23 16:39:25.024865,42.52,35.811463,-0.0030344509719951677,-0.02278327698858263,0.09710254654607277,36.09446859390736,-96.25519929585457,80.21211738781929
2024-09-23 16:39:25.037929,42.52,35.811463,-0.0030344509719951677,-0.023230986250042305,0.09710254654607277,36.09446859390736,-96.25519929585457,80.21211738781929
2024-09-23 16:39:25.070381,42.52,35.811463,-0.0030344509719951677,-0.023230986250042305,0.09680407370509965,32.08287849390507,-96.25519929585457,80.21211738781929
2024-09-23 16:39:25.081714,42.52,35.811513,-0.003631395514708897,-0.023230986250042305,0.09680407370509965,32.08287849390507,-96.25519929585457,80.21211738781929
2024-09-23 16:39:25.124036,42.52,35.811513,-0.003631395514708897,-0.02313149783467906,0.09725178296655933,36.09446859390736,-104.27510100388527,84.22370748782159
2024-09-23 16:39:25.136172,42.52,35.8116,-0.003631395514708897,-0.02313149783467906,0.09725178296655933,36.09446859390736,-104.27510100388527,84.22370748782159
2024-09-23 16:39:25.168386,42.52,35.8116,-0.002586742470023829,-0.023330473146428877,0.09725178296655933,36.09446859390736,-104.27510100388527,84.22370748782159
2024-09-23 16:39:25.180293,42.52,35.8116,-0.002586742470023829,-0.023330473146428877,0.09779897304849887,36.09446859390736,-104.27510100388527,84.22370748782159
2024-09-23 16:39:25.223346,42.52,35.811652,-0.0028852147413806935,-0.023181236725942318,0.09779897304849887,28.07457030097246,-96.25519929585457,84.22370748782159
2024-09-23 16:39:25.265481,42.52,35.811652,-0.0028852147413806935,-0.023181236725942318,0.0973015264147526,36.09446859390736,-96.25519929585457,84.22370748782159
2024-09-23 16:39:25.277693,42.52,35.811703,-0.0030841997366068195,-0.023181236725942318,0.0973015264147526,36.09446859390736,-96.25519929585457,84.22370748782159
2024-09-23 16:39:25.321145,42.52,35.811753,-0.0030841997366068195,-0.02313149783467906,0.0973512698629459,36.09446859390736,-96.25519929585457,76.200527287817
2024-09-23 16:39:25.363486,42.52,35.811753,-0.0029847020175114316,-0.022982261414192504,0.0973512698629459,36.09446859390736,-96.25519929585457,76.200527287817
2024-09-23 16:39:25.375240,42.52,35.811753,-0.0029847020175114316,-0.022982261414192504,0.0973512698629459,44.11764879391193,-88.23529758782387,80.21211738781929
2024-09-23 16:39:25.418536,42.57,35.811804,-0.0030344509719951677,-0.02367869399252531,0.09759999317981902,36.09446859390736,-96.25519929585457,80.21211738781929
2024-09-23 16:39:25.460219,42.57,35.811894,-0.0030344509719951677,-0.02367869399252531,0.09759999317981902,36.09446859390736,-96.25519929585457,84.22370748782159
2024-09-23 16:39:25.471668,42.57,35.811894,-0.0029847020175114316,-0.023230986250042305,0.09725178296655933,44.11764879391193,-96.25519929585457,84.22370748782159
2024-09-23 16:39:25.513364,42.57,35.811945,-0.0028354659767690416,-0.0228827638849692,0.09725178296655933,44.11764879391193,-104.27510100388527,72.1922225099802
2024-09-23 16:39:25.525852,42.57,35.811945,-0.0028354659767690416,-0.0228827638849692,0.09650560086412653,44.11764879391193,-104.27510100388527,72.1922225099802
2024-09-23 16:39:25.557895,42.57,35.811945,-0.0028354659767690416,-0.0228827638849692,0.09650560086412653,44.11764879391193,-104.27510100388527,72.1922225099802
2024-09-23 16:39:25.569228,42.57,35.811996,-0.0037308827908396356,-0.02352945757203875,0.09650560086412653,44.11764879391193,-104.27510100388527,72.1922225099802
2024-09-23 16:39:25.611052,42.57,35.812046,-0.0037308827908396356,-0.02352945757203875,0.0970030596496862,28.07457030097246,-92.24360919585227,80.21211738781929
2024-09-23 16:39:25.622844,42.57,35.812046,-0.0031836870127375577,-0.02352945757203875,0.0970030596496862,28.07457030097246,-92.24360919585227,80.21211738781929
2024-09-23 16:39:25.655193,42.57,35.812046,-0.0031836870127375577,-0.02352945757203875,0.09675432418099966,28.07457030097246,-92.24360919585227,80.21211738781929
2024-09-23 16:39:25.666872,42.57,35.812137,-0.0031836870127375577,-0.02352945757203875,0.09675432418099966,40.106058693909645,-100.26678939585686,68.18063240997792
2024-09-23 16:39:25.708592,42.57,35.812137,-0.0027359787006383035,-0.02338022115155219,0.0973015264147526,36.09446859390736,-100.26678939585686,68.18063240997792
2024-09-23 16:39:25.720439,42.57,35.812137,-0.0027359787006383035,-0.02338022115155219,0.0973015264147526,36.09446859390736,-100.26678939585686,76.200527287817
2024-09-23 16:39:25.752720,42.57,35.812188,-0.002785727465249955,-0.02338022115155219,0.0973015264147526,36.09446859390736,-100.26678939585686,76.200527287817
2024-09-23 16:39:25.764095,42.57,35.812188,-0.002785727465249955,-0.02338022115155219,0.09695331012558621,40.106058693909645,-100.26678939585686,76.200527287817
2024-09-23 16:39:25.807257,42.57,35.812239,-0.0024872551938930902,-0.023429960042815445,0.09715228999426605,40.106058693909645,-100.26678939585686,76.200527287817
2024-09-23 16:39:25.818929,42.57,35.812239,-0.0024872551938930902,-0.023429960042815445,0.09715228999426605,36.09446859390736,-100.26678939585686,76.200527287817
2024-09-23 16:39:25.850558,42.57,35.812239,-0.0024872551938930902,-0.023429960042815445,0.09715228999426605,36.09446859390736,-112.29828120388984,76.200527287817
2024-09-23 16:39:25.862283,42.57,35.81229,-0.0028852147413806935,-0.023230986250042305,0.0970030596496862,36.09446859390736,-112.29828120388984,76.200527287817
2024-09-23 16:39:25.906127,42.57,35.81234,-0.0030344509719951677,-0.023728432883788564,0.0970030596496862,36.09446859390736,-100.26678939585686,76.200527287817
2024-09-23 16:39:25.948221,42.57,35.81234,-0.0030344509719951677,-0.023728432883788564,0.09784872257259886,36.09446859390736,-100.26678939585686,76.200527287817
2024-09-23 16:39:25.959207,42.57,35.812391,-0.003631395514708897,-0.023728432883788564,0.09784872257259886,36.09446859390736,-96.25519929585457,76.200527287817
2024-09-23 16:39:26.001424,42.57,35.812391,-0.003631395514708897,-0.023429960042815445,0.09715228999426605,40.106058693909645,-96.25519929585457,76.200527287817
2024-09-23 16:39:26.013785,42.57,35.812478,-0.003631395514708897,-0.023429960042815445,0.09715228999426605,40.106058693909645,-96.25519929585457,76.200527287817
2024-09-23 16:39:26.047021,42.57,35.812478,-0.0026862297461545674,-0.022982261414192504,0.09710254654607277,40.106058693909645,-96.25519929585457,76.200527287817
2024-09-23 16:39:26.058300,42.57,35.812478,-0.0026862297461545674,-0.022982261414192504,0.09710254654607277,36.09446859390736,-100.26678939585686,76.200527287817
2024-09-23 16:39:26.101636,42.57,35.812529,-0.0028852147413806935,-0.02303200030545576,0.09675432418099966,36.09446859390736,-100.26678939585686,76.200527287817
2024-09-23 16:39:26.143195,42.57,35.81258,-0.0028852147413806935,-0.02303200030545576,0.09675432418099966,36.09446859390736,-100.26678939585686,84.22370748782159
2024-09-23 16:39:26.154605,42.57,35.81258,-0.002387757474797703,-0.023579196463302005,0.09755024973162574,48.12595698684454,-100.26678939585686,84.22370748782159
2024-09-23 16:39:26.197778,42.57,35.812631,-0.0030344509719951677,-0.023728432883788564,0.09685382322919964,48.12595698684454,-92.24360919585227,80.21211738781929
2024-09-23 16:39:26.240233,42.57,35.812631,-0.0030344509719951677,-0.023728432883788564,0.09685382322919964,36.09446859390736,-92.24360919585227,80.21211738781929
2024-09-23 16:39:26.251744,42.57,35.812682,-0.0030841997366068195,-0.02352945757203875,0.09685382322919964,36.09446859390736,-92.24360919585227,76.200527287817
2024-09-23 16:39:26.294399,42.57,35.812733,-0.0030841997366068195,-0.02352945757203875,0.09685382322919964,28.07457030097246,-100.26678939585686,76.200527287817
2024-09-23 16:39:26.306198,42.57,35.812733,-0.0034324103296106863,-0.02352945757203875,0.09685382322919964,28.07457030097246,-100.26678939585686,76.200527287817
2024-09-23 16:39:26.338433,42.57,35.812733,-0.0034324103296106863,-0.022733528983459317,0.09725178296655933,28.07457030097246,-100.26678939585686,76.200527287817
2024-09-23 16:39:26.349773,42.57,35.812819,-0.0034324103296106863,-0.022733528983459317,0.09725178296655933,36.09446859390736,-104.27510100388527,80.21211738781929
2024-09-23 16:39:26.392486,42.57,35.812819,-0.0030344509719951677,-0.02308174982955575,0.09705279702197278,36.09446859390736,-96.25519929585457,80.21211738781929
2024-09-23 16:39:26.435021,42.78,35.812871,-0.0032831742888682963,-0.02308174982955575,0.09705279702197278,36.09446859390736,-96.25519929585457,80.21211738781929
2024-09-23 16:39:26.446205,42.78,35.812871,-0.0032831742888682963,-0.023479709566915436,0.0973015264147526,40.106058693909645,-100.26678939585686,80.21211738781929
2024-09-23 16:39:26.488496,42.78,35.812921,-0.0030841997366068195,-0.022982261414192504,0.09655535038822652,40.106058693909645,-100.26678939585686,80.21211738781929
2024-09-23 16:39:26.530547,42.78,35.812921,-0.0030841997366068195,-0.022982261414192504,0.09655535038822652,40.106058693909645,-100.26678939585686,80.21211738781929
2024-09-23 16:39:26.542077,42.78,35.812972,-0.0031836870127375577,-0.022833026512682618,0.09655535038822652,40.106058693909645,-92.24360919585227,80.21211738781929
2024-09-23 16:39:26.584180,42.78,35.812972,-0.0031836870127375577,-0.022833026512682618,0.09774922960030558,44.11764879391193,-112.29828120388984,80.21211738781929
2024-09-23 16:39:26.595591,42.78,35.813023,-0.0033329230534799477,-0.022833026512682618,0.09774922960030558,44.11764879391193,-112.29828120388984,68.18063240997792
2024-09-23 16:39:26.638102,42.78,35.813074,-0.0033329230534799477,-0.023181236725942318,0.09675432418099966,32.08287849390507,-100.26678939585686,72.1922225099802
2024-09-23 16:39:26.681477,42.78,35.813074,-0.0030841997366068195,-0.023230986250042305,0.09774922960030558,32.08287849390507,-100.26678939585686,72.1922225099802
2024-09-23 16:39:26.693032,42.78,35.813074,-0.0030841997366068195,-0.023230986250042305,0.09774922960030558,40.106058693909645,-96.25519929585457,80.21211738781929
2024-09-23 16:39:26.736069,42.78,35.813161,-0.0033329230534799477,-0.02367869399252531,0.09764974270391902,44.11764879391193,-100.26678939585686,80.21211738781929
2024-09-23 16:39:26.779293,42.78,35.813212,-0.003233425524256645,-0.02313149783467906,0.09764974270391902,44.11764879391193,-100.26678939585686,76.200527287817
2024-09-23 16:39:26.790867,42.78,35.813212,-0.003233425524256645,-0.02313149783467906,0.09750050628343246,32.08287849390507,-100.26678939585686,76.200527287817
2024-09-23 16:39:26.823411,42.78,35.813212,-0.003233425524256645,-0.02313149783467906,0.09750050628343246,32.08287849390507,-100.26678939585686,76.200527287817
2024-09-23 16:39:26.834781,42.78,35.813263,-0.0030344509719951677,-0.02293251340906919,0.0973512698629459,32.08287849390507,-100.26678939585686,72.1922225099802
2024-09-23 16:39:26.878167,42.78,35.813313,-0.0030344509719951677,-0.02293251340906919,0.0973512698629459,28.07457030097246,-92.24360919585227,80.21211738781929
2024-09-23 16:39:26.889298,42.78,35.813313,-0.002636491424507565,-0.023479709566915436,0.0973512698629459,28.07457030097246,-92.24360919585227,80.21211738781929
2024-09-23 16:39:26.922518,42.78,35.813313,-0.002636491424507565,-0.023479709566915436,0.09725178296655933,44.11764879391193,-92.24360919585227,80.21211738781929
2024-09-23 16:39:26.933873,42.78,35.813364,-0.0028354659767690416,-0.023479709566915436,0.09725178296655933,44.11764879391193,-92.24360919585227,80.21211738781929
2024-09-23 16:39:26.976255,42.78,35.813364,-0.0028354659767690416,-0.023330473146428877,0.0976994861521123,40.106058693909645,-100.26678939585686,80.21211738781929
2024-09-23 16:39:26.987914,42.78,35.813453,-0.0028354659767690416,-0.023330473146428877,0.0976994861521123,40.106058693909645,-100.26678939585686,80.21211738781929
2024-09-23 16:39:27.020513,42.78,35.813453,-0.0034324103296106863,-0.02303200030545576,0.0976994861521123,40.106058693909645,-100.26678939585686,80.21211738781929
2024-09-23 16:39:27.032613,42.78,35.813453,-0.0034324103296106863,-0.02303200030545576,0.09715228999426605,32.08287849390507,-96.25519929585457,84.22370748782159
2024-09-23 16:39:27.077174,42.78,35.813505,-0.0034324103296106863,-0.02303200030545576,0.09715228999426605,32.08287849390507,-96.25519929585457,84.22370748782159
2024-09-23 16:39:27.121714,42.78,35.813505,-0.0031339382481259063,-0.023181236725942318,0.09670458680871308,32.08287849390507,-96.25519929585457,84.22370748782159
2024-09-23 16:39:27.134091,42.78,35.813505,-0.0031339382481259063,-0.023181236725942318,0.09670458680871308,36.09446859390736,-96.25519929585457,84.22370748782159
2024-09-23 16:39:27.166178,42.78,35.813555,-0.0031339382481259063,-0.023181236725942318,0.09670458680871308,36.09446859390736,-96.25519929585457,84.22370748782159
2024-09-23 16:39:27.177564,42.78,35.813555,-0.0030344509719951677,-0.023728432883788564,0.09745075675933246,32.08287849390507,-100.26678939585686,84.22370748782159
2024-09-23 16:39:27.219632,42.78,35.813606,-0.0027359787006383035,-0.02308174982955575,0.0973512698629459,32.08287849390507,-100.26678939585686,76.200527287817
2024-09-23 16:39:27.231290,42.78,35.813606,-0.0027359787006383035,-0.02308174982955575,0.0973512698629459,36.09446859390736,-100.26678939585686,76.200527287817
2024-09-23 16:39:27.264479,42.78,35.813606,-0.0027359787006383035,-0.02308174982955575,0.0973512698629459,36.09446859390736,-100.26678939585686,84.22370748782159
2024-09-23 16:39:27.276336,42.78,35.813657,-0.0026862297461545674,-0.023280723622328886,0.09740101331113918,36.09446859390736,-100.26678939585686,84.22370748782159
2024-09-23 16:39:27.318091,42.78,35.813708,-0.0029349636958644295,-0.023280723622328886,0.09740101331113918,44.11764879391193,-100.26678939585686,80.21211738781929
2024-09-23 16:39:27.329705,42.78,35.813708,-0.0029349636958644295,-0.023778180888911878,0.09740101331113918,44.11764879391193,-100.26678939585686,80.21211738781929
2024-09-23 16:39:27.361781,42.78,35.813708,-0.0029349636958644295,-0.023778180888911878,0.09750050628343246,40.106058693909645,-100.26678939585686,80.21211738781929
2024-09-23 16:39:27.373247,42.78,35.813797,-0.0033329230534799477,-0.023778180888911878,0.09750050628343246,40.106058693909645,-96.25519929585457,76.200527287817
2024-09-23 16:39:27.416167,42.78,35.813797,-0.0033329230534799477,-0.023479709566915436,0.09740101331113918,36.09446859390736,-100.26678939585686,76.200527287817
2024-09-23 16:39:27.427747,42.78,35.813892,-0.0033329230534799477,-0.023479709566915436,0.09740101331113918,36.09446859390736,-100.26678939585686,76.200527287817
2024-09-23 16:39:27.460593,43.01,35.813892,-0.0030344509719951677,-0.02367869399252531,0.09705279702197278,36.09446859390736,-100.26678939585686,76.200527287817
2024-09-23 16:39:27.472298,43.01,35.813892,-0.0030344509719951677,-0.02367869399252531,0.09705279702197278,40.106058693909645,-96.25519929585457,80.21211738781929
2024-09-23 16:39:27.515137,43.01,35.813943,-0.002586742470023829,-0.023429960042815445,0.09725178296655933,32.08287849390507,-96.25519929585457,80.21211738781929
2024-09-23 16:39:27.557989,43.01,35.813994,-0.002785727465249955,-0.023429960042815445,0.09725178296655933,32.08287849390507,-96.25519929585457,80.21211738781929
2024-09-23 16:39:27.568897,43.01,35.813994,-0.002785727465249955,-0.023330473146428877,0.09670458680871308,36.09446859390736,-96.25519929585457,80.21211738781929
2024-09-23 16:39:27.611713,43.01,35.814045,-0.002586742470023829,-0.023479709566915436,0.09759999317981902,36.09446859390736,-92.24360919585227,80.21211738781929
2024-09-23 16:39:27.706079,43.01,35.814045,-0.002586742470023829,-0.023479709566915436,0.09759999317981902,40.106058693909645,-96.25519929585457,80.21211738781929
2024-09-23 16:39:27.717299,43.01,35.814095,-0.002636491424507565,-0.023230986250042305,0.09759999317981902,40.106058693909645,-96.25519929585457,80.21211738781929
2024-09-23 16:39:27.749579,43.01,35.814095,-0.002636491424507565,-0.023230986250042305,0.0970030596496862,40.106058693909645,-96.25519929585457,80.21211738781929
2024-09-23 16:39:27.760762,43.01,35.814146,-0.003382661564999035,-0.023230986250042305,0.0970030596496862,40.106058693909645,-100.26678939585686,80.21211738781929
2024-09-23 16:39:27.804218,43.01,35.814146,-0.003382661564999035,-0.022982261414192504,0.0966050877605131,44.11764879391193,-96.25519929585457,80.21211738781929
2024-09-23 16:39:27.815724,43.01,35.814233,-0.003382661564999035,-0.022982261414192504,0.0966050877605131,44.11764879391193,-96.25519929585457,80.21211738781929
2024-09-23 16:39:27.848225,43.01,35.814233,-0.0028852147413806935,-0.022982261414192504,0.0966050877605131,44.11764879391193,-96.25519929585457,80.21211738781929
2024-09-23 16:39:27.860562,43.01,35.814233,-0.0028852147413806935,-0.023280723622328886,0.0970030596496862,40.106058693909645,-96.25519929585457,88.23529758782387
2024-09-23 16:39:27.902596,43.01,35.814285,-0.002785727465249955,-0.023280723622328886,0.0966050877605131,40.106058693909645,-96.25519929585457,88.23529758782387
2024-09-23 16:39:27.915473,43.01,35.814285,-0.002785727465249955,-0.023280723622328886,0.0966050877605131,40.106058693909645,-96.25519929585457,88.23529758782387
2024-09-23 16:39:27.947848,43.01,35.81438,-0.002437506429281439,-0.023280723622328886,0.0966050877605131,40.106058693909645,-96.25519929585457,80.21211738781929
2024-09-23 16:39:27.959751,43.01,35.81438,-0.002437506429281439,-0.02338022115155219,0.09779897304849887,32.08287849390507,-96.25519929585457,80.21211738781929
2024-09-23 16:39:28.002537,43.01,35.814431,-0.0034324103296106863,-0.023429960042815445,0.09710254654607277,32.08287849390507,-100.26678939585686,76.200527287817
2024-09-23 16:39:28.044612,43.01,35.814431,-0.0034324103296106863,-0.023429960042815445,0.09710254654607277,36.09446859390736,-96.25519929585457,76.200527287817
2024-09-23 16:39:28.056536,43.01,35.814482,-0.0031836870127375577,-0.023579196463302005,0.09710254654607277,36.09446859390736,-96.25519929585457,76.200527287817
2024-09-23 16:39:28.099591,43.01,35.814533,-0.0031836870127375577,-0.023579196463302005,0.09740101331113918,32.08287849390507,-100.26678939585686,80.21211738781929
2024-09-23 16:39:28.111456,43.01,35.814533,-0.002586742470023829,-0.023579196463302005,0.09740101331113918,32.08287849390507,-100.26678939585686,80.21211738781929
2024-09-23 16:39:28.143596,43.01,35.814533,-0.002586742470023829,-0.022733528983459317,0.0973512698629459,36.09446859390736,-100.26678939585686,80.21211738781929
2024-09-23 16:39:28.154591,43.01,35.814623,-0.002586742470023829,-0.022733528983459317,0.0973512698629459,36.09446859390736,-100.26678939585686,84.22370748782159
2024-09-23 16:39:28.196539,43.01,35.814623,-0.0031836870127375577,-0.023429960042815445,0.09789846602079214,36.09446859390736,-104.27510100388527,72.1922225099802
2024-09-23 16:39:28.239720,43.01,35.814674,-0.002636491424507565,-0.023429960042815445,0.09789846602079214,36.09446859390736,-104.27510100388527,72.1922225099802
2024-09-23 16:39:28.251410,43.01,35.814674,-0.002636491424507565,-0.023330473146428877,0.0973512698629459,36.09446859390736,-96.25519929585457,72.1922225099802
2024-09-23 16:39:28.294207,43.01,35.814725,-0.003382661564999035,-0.02268379009219606,0.0973512698629459,36.09446859390736,-96.25519929585457,80.21211738781929
2024-09-23 16:39:28.338000,43.01,35.814725,-0.003382661564999035,-0.02268379009219606,0.09705279702197278,44.11764879391193,-92.24360919585227,80.21211738781929
2024-09-23 16:39:28.349789,43.01,35.814776,-0.0031339382481259063,-0.02268379009219606,0.09705279702197278,44.11764879391193,-92.24360919585227,80.21211738781929
2024-09-23 16:39:28.392784,43.01,35.814826,-0.0031339382481259063,-0.023230986250042305,0.09720203344245934,48.12595698684454,-92.24360919585227,88.23529758782387
2024-09-23 16:39:28.435246,43.01,35.814826,-0.0029349636958644295,-0.023827930413011865,0.09720203344245934,48.12595698684454,-92.24360919585227,88.23529758782387
2024-09-23 16:39:28.446284,43.01,35.814826,-0.0029349636958644295,-0.023827930413011865,0.09720203344245934,40.106058693909645,-104.27510100388527,84.22370748782159
2024-09-23 16:39:28.488580,42.8,35.814877,-0.002636491424507565,-0.02352945757203875,0.09680407370509965,36.09446859390736,-96.25519929585457,84.22370748782159
2024-09-23 16:39:28.531416,42.8,35.814964,-0.002636491424507565,-0.02352945757203875,0.09680407370509965,36.09446859390736,-96.25519929585457,80.21211738781929
2024-09-23 16:39:28.543228,42.8,35.814964,-0.0030344509719951677,-0.022982261414192504,0.09725178296655933,36.09446859390736,-96.25519929585457,80.21211738781929
2024-09-23 16:39:28.586548,42.8,35.815016,-0.0030344509719951677,-0.023728432883788564,0.09710254654607277,36.09446859390736,-88.23529758782387,76.200527287817
2024-09-23 16:39:28.628591,42.8,35.815016,-0.0030344509719951677,-0.023728432883788564,0.09710254654607277,36.09446859390736,-100.26678939585686,76.200527287817
2024-09-23 16:39:28.640310,42.8,35.815066,-0.0031339382481259063,-0.02338022115155219,0.09710254654607277,36.09446859390736,-100.26678939585686,76.200527287817
2024-09-23 16:39:28.683611,42.8,35.815117,-0.0031339382481259063,-0.02338022115155219,0.09750050628343246,36.09446859390736,-96.25519929585457,84.22370748782159
2024-09-23 16:39:28.695123,42.8,35.815117,-0.0028852147413806935,-0.02338022115155219,0.09750050628343246,36.09446859390736,-96.25519929585457,84.22370748782159
2024-09-23 16:39:28.726795,42.8,35.815117,-0.0028852147413806935,-0.023330473146428877,0.09715228999426605,36.09446859390736,-96.25519929585457,84.22370748782159
2024-09-23 16:39:28.737956,42.8,35.815208,-0.0028852147413806935,-0.023330473146428877,0.09715228999426605,40.106058693909645,-92.24360919585227,84.22370748782159
2024-09-23 16:39:28.781196,42.8,35.815208,-0.0030344509719951677,-0.02352945757203875,0.0973015264147526,40.106058693909645,-92.24360919585227,76.200527287817
2024-09-23 16:39:28.823745,42.8,35.81526,-0.0032831742888682963,-0.02352945757203875,0.0973015264147526,40.106058693909645,-92.24360919585227,76.200527287817
2024-09-23 16:39:28.835421,42.8,35.81526,-0.0032831742888682963,-0.023330473146428877,0.09750050628343246,36.09446859390736,-96.25519929585457,76.200527287817
2024-09-23 16:39:28.877573,42.8,35.81531,-0.0029349636958644295,-0.0228827638849692,0.0973015264147526,36.09446859390736,-96.25519929585457,76.200527287817
2024-09-23 16:39:28.889627,42.8,35.81531,-0.0029349636958644295,-0.0228827638849692,0.0973015264147526,40.106058693909645,-96.25519929585457,76.200527287817
2024-09-23 16:39:28.922897,42.8,35.815361,-0.0029349636958644295,-0.0228827638849692,0.0973015264147526,40.106058693909645,-96.25519929585457,80.21211738781929
2024-09-23 16:39:28.933820,42.8,35.815361,-0.0033329230534799477,-0.02308174982955575,0.09715228999426605,40.106058693909645,-96.25519929585457,80.21211738781929
2024-09-23 16:39:28.976146,42.8,35.815412,-0.0030841997366068195,-0.023429960042815445,0.09715228999426605,48.12595698684454,-96.25519929585457,72.1922225099802
2024-09-23 16:39:29.020459,42.8,35.815412,-0.0030841997366068195,-0.023429960042815445,0.09690356060148622,40.106058693909645,-96.25519929585457,72.1922225099802
2024-09-23 16:39:29.031789,42.8,35.815462,-0.0031836870127375577,-0.023429960042815445,0.09690356060148622,40.106058693909645,-92.24360919585227,72.1922225099802
2024-09-23 16:39:29.075006,42.8,35.815549,-0.0031836870127375577,-0.02313149783467906,0.09705279702197278,32.08287849390507,-96.25519929585457,84.22370748782159
2024-09-23 16:39:29.117695,42.8,35.815549,-0.0031339382481259063,-0.023181236725942318,0.0966050877605131,32.08287849390507,-96.25519929585457,84.22370748782159
2024-09-23 16:39:29.128776,42.8,35.815549,-0.0031339382481259063,-0.023181236725942318,0.0966050877605131,40.106058693909645,-104.27510100388527,72.1922225099802
2024-09-23 16:39:29.172469,42.8,35.815601,-0.0029349636958644295,-0.023330473146428877,0.09740101331113918,36.09446859390736,-92.24360919585227,72.1922225099802
2024-09-23 16:39:29.214453,42.8,35.815652,-0.0029349636958644295,-0.023330473146428877,0.09740101331113918,36.09446859390736,-92.24360919585227,84.22370748782159
2024-09-23 16:39:29.225465,42.8,35.815652,-0.002437506429281439,-0.02352945757203875,0.09685382322919964,32.08287849390507,-92.24360919585227,84.22370748782159
2024-09-23 16:39:29.269023,42.8,35.815702,-0.0029847020175114316,-0.02362894446842532,0.0970030596496862,32.08287849390507,-92.24360919585227,76.200527287817
2024-09-23 16:39:29.312697,42.8,35.815702,-0.0029847020175114316,-0.02362894446842532,0.0970030596496862,36.09446859390736,-96.25519929585457,80.21211738781929
2024-09-23 16:39:29.323696,42.8,35.815753,-0.0031339382481259063,-0.02352945757203875,0.0970030596496862,36.09446859390736,-96.25519929585457,80.21211738781929
2024-09-23 16:39:29.366344,42.8,35.815804,-0.0030344509719951677,-0.02352945757203875,0.09725178296655933,36.09446859390736,-96.25519929585457,76.200527287817
2024-09-23 16:39:29.408810,42.8,35.815804,-0.0030344509719951677,-0.0228827638849692,0.09705279702197278,36.09446859390736,-96.25519929585457,76.200527287817
2024-09-23 16:39:29.420642,42.8,35.815891,-0.0030344509719951677,-0.0228827638849692,0.09705279702197278,36.09446859390736,-100.26678939585686,84.22370748782159
2024-09-23 16:39:29.463193,42.8,35.815891,-0.002785727465249955,-0.02313149783467906,0.0966050877605131,36.09446859390736,-100.26678939585686,84.22370748782159
2024-09-23 16:39:29.475071,42.8,35.815891,-0.002785727465249955,-0.02313149783467906,0.0966050877605131,36.09446859390736,-100.26678939585686,84.22370748782159
2024-09-23 16:39:29.506853,42.6,35.815942,-0.0029349636958644295,-0.02313149783467906,0.0966050877605131,36.09446859390736,-100.26678939585686,84.22370748782159
2024-09-23 16:39:29.518094,42.6,35.815942,-0.0029349636958644295,-0.0228827638849692,0.09784872257259886,36.09446859390736,-92.24360919585227,84.22370748782159
2024-09-23 16:39:29.561555,42.6,35.815993,-0.0026862297461545674,-0.02308174982955575,0.09715228999426605,32.08287849390507,-92.24360919585227,80.21211738781929
2024-09-23 16:39:29.603765,42.6,35.815993,-0.0026862297461545674,-0.02308174982955575,0.09715228999426605,32.08287849390507,-100.26678939585686,80.21211738781929
2024-09-23 16:39:29.615311,42.6,35.816043,-0.0031836870127375577,-0.02308174982955575,0.09750050628343246,32.08287849390507,-100.26678939585686,80.21211738781929
2024-09-23 16:39:29.657365,42.6,35.816094,-0.002636491424507565,-0.02308174982955575,0.09750050628343246,40.106058693909645,-100.26678939585686,80.21211738781929
2024-09-23 16:39:29.669672,42.6,35.816094,-0.002636491424507565,-0.02313149783467906,0.09750050628343246,40.106058693909645,-100.26678939585686,80.21211738781929
2024-09-23 16:39:29.701914,42.6,35.816094,-0.002636491424507565,-0.02313149783467906,0.09670458680871308,44.11764879391193,-100.26678939585686,80.21211738781929
2024-09-23 16:39:29.713036,42.6,35.816145,-0.003482159473966507,-0.02313149783467906,0.09670458680871308,44.11764879391193,-96.25519929585457,76.200527287817
2024-09-23 16:39:29.754865,42.6,35.816145,-0.003482159473966507,-0.023330473146428877,0.09685382322919964,36.09446859390736,-100.26678939585686,76.200527287817
2024-09-23 16:39:29.766320,42.6,35.816232,-0.003482159473966507,-0.023330473146428877,0.09685382322919964,36.09446859390736,-100.26678939585686,80.21211738781929
2024-09-23 16:39:29.799204,42.6,35.816232,-0.002785727465249955,-0.023280723622328886,0.09685382322919964,36.09446859390736,-100.26678939585686,80.21211738781929
2024-09-23 16:39:29.810734,42.6,35.816232,-0.002785727465249955,-0.023280723622328886,0.09725178296655933,44.11764879391193,-96.25519929585457,80.21211738781929
2024-09-23 16:39:29.853902,42.6,35.816283,-0.0029847020175114316,-0.022733528983459317,0.0976994861521123,40.106058693909645,-96.25519929585457,80.21211738781929
2024-09-23 16:39:29.896150,42.6,35.816334,-0.0029847020175114316,-0.022733528983459317,0.0976994861521123,40.106058693909645,-96.25519929585457,88.23529758782387
2024-09-23 16:39:29.908555,42.6,35.816334,-0.0031339382481259063,-0.022982261414192504,0.09784872257259886,36.09446859390736,-96.25519929585457,88.23529758782387
2024-09-23 16:39:29.950462,42.6,35.816385,-0.0035816467500972456,-0.022833026512682618,0.09784872257259886,36.09446859390736,-96.25519929585457,88.23529758782387
2024-09-23 16:39:29.961809,42.6,35.816385,-0.0035816467500972456,-0.022833026512682618,0.09695331012558621,36.09446859390736,-96.25519929585457,88.23529758782387
2024-09-23 16:39:29.994499,42.6,35.816385,-0.0035816467500972456,-0.022833026512682618,0.09695331012558621,40.106058693909645,-96.25519929585457,88.23529758782387
2024-09-23 16:39:30.006362,42.6,35.816435,-0.0031836870127375577,-0.024026904205785005,0.09695331012558621,40.106058693909645,-96.25519929585457,80.21211738781929
2024-09-23 16:39:30.049781,42.6,35.816486,-0.002387757474797703,-0.024026904205785005,0.09745075675933246,40.106058693909645,-96.25519929585457,80.21211738781929
2024-09-23 16:39:30.094661,42.6,35.816486,-0.002387757474797703,-0.02293251340906919,0.09690356060148622,24.06297849342227,-100.26678939585686,80.21211738781929
2024-09-23 16:39:30.106160,42.6,35.816486,-0.002387757474797703,-0.02293251340906919,0.09690356060148622,24.06297849342227,-100.26678939585686,80.21211738781929
2024-09-23 16:39:30.138804,42.6,35.816573,-0.002387757474797703,-0.02293251340906919,0.09690356060148622,24.06297849342227,-100.26678939585686,80.21211738781929
2024-09-23 16:39:30.150376,42.6,35.816573,-0.0028852147413806935,-0.02303200030545576,0.09759999317981902,40.106058693909645,-96.25519929585457,80.21211738781929
2024-09-23 16:39:30.192996,42.6,35.816625,-0.0031836870127375577,-0.02313149783467906,0.09759999317981902,40.106058693909645,-96.25519929585457,80.21211738781929
2024-09-23 16:39:30.204877,42.6,35.816625,-0.0031836870127375577,-0.02313149783467906,0.09665483728461309,40.106058693909645,-96.25519929585457,80.21211738781929
2024-09-23 16:39:30.237142,42.6,35.816625,-0.0031836870127375577,-0.02313149783467906,0.09665483728461309,40.106058693909645,-92.24360919585227,80.21211738781929
2024-09-23 16:39:30.248301,42.6,35.816675,-0.0030841997366068195,-0.023280723622328886,0.0973512698629459,40.106058693909645,-92.24360919585227,72.1922225099802
2024-09-23 16:39:30.292328,42.6,35.816726,-0.0031836870127375577,-0.023280723622328886,0.0973512698629459,40.106058693909645,-96.25519929585457,84.22370748782159
2024-09-23 16:39:30.304092,42.6,35.816726,-0.0031836870127375577,-0.023778180888911878,0.0973512698629459,40.106058693909645,-96.25519929585457,84.22370748782159
2024-09-23 16:39:30.336059,42.6,35.816726,-0.0031836870127375577,-0.023778180888911878,0.09680407370509965,36.09446859390736,-88.23529758782387,84.22370748782159
2024-09-23 16:39:30.347233,42.6,35.816777,-0.002636491424507565,-0.023778180888911878,0.09680407370509965,36.09446859390736,-88.23529758782387,84.22370748782159
2024-09-23 16:39:30.389143,42.6,35.816777,-0.002636491424507565,-0.02352945757203875,0.09794820946898543,32.08287849390507,-100.26678939585686,84.22370748782159
2024-09-23 16:39:30.401459,42.6,35.816866,-0.002636491424507565,-0.02352945757203875,0.09794820946898543,32.08287849390507,-100.26678939585686,84.22370748782159
2024-09-23 16:39:30.434266,42.6,35.816866,-0.0032831742888682963,-0.023230986250042305,0.09759999317981902,32.08287849390507,-100.26678939585686,84.22370748782159
2024-09-23 16:39:30.445668,42.6,35.816866,-0.0032831742888682963,-0.023230986250042305,0.09759999317981902,44.11764879391193,-100.26678939585686,72.1922225099802
2024-09-23 16:39:30.487458,42.6,35.816917,-0.0031339382481259063,-0.02362894446842532,0.0973512698629459,44.11764879391193,-100.26678939585686,72.1922225099802
2024-09-23 16:39:30.529867,42.62,35.816968,-0.0031339382481259063,-0.02362894446842532,0.0973512698629459,44.11764879391193,-100.26678939585686,76.200527287817
2024-09-23 16:39:30.541370,42.62,35.816968,-0.0028852147413806935,-0.023280723622328886,0.09720203344245934,44.11764879391193,-100.26678939585686,76.200527287817
2024-09-23 16:39:30.583465,42.62,35.817018,-0.0033329230534799477,-0.023280723622328886,0.09720203344245934,44.11764879391193,-96.25519929585457,76.200527287817
2024-09-23 16:39:30.595214,42.62,35.817018,-0.0033329230534799477,-0.0228827638849692,0.09685382322919964,44.11764879391193,-96.25519929585457,76.200527287817
2024-09-23 16:39:30.626957,42.62,35.817018,-0.0033329230534799477,-0.0228827638849692,0.09685382322919964,40.106058693909645,-96.25519929585457,76.200527287817
2024-09-23 16:39:30.638304,42.62,35.817069,-0.0031339382481259063,-0.023181236725942318,0.09685382322919964,40.106058693909645,-96.25519929585457,72.1922225099802
2024-09-23 16:39:30.681456,42.62,35.81712,-0.0031339382481259063,-0.023181236725942318,0.09695331012558621,44.11764879391193,-96.25519929585457,72.1922225099802
2024-09-23 16:39:30.694150,42.62,35.81712,-0.0029847020175114316,-0.023181236725942318,0.09695331012558621,44.11764879391193,-96.25519929585457,72.1922225099802
2024-09-23 16:39:30.726545,42.62,35.81712,-0.0029847020175114316,-0.023230986250042305,0.09774922960030558,32.08287849390507,-96.25519929585457,72.1922225099802
2024-09-23 16:39:30.738157,42.62,35.817207,-0.0029847020175114316,-0.023230986250042305,0.09774922960030558,32.08287849390507,-96.25519929585457,76.200527287817
2024-09-23 16:39:30.780411,42.62,35.817207,-0.0035318979854855937,-0.02338022115155219,0.09740101331113918,36.09446859390736,-104.27510100388527,76.200527287817
2024-09-23 16:39:30.824892,42.62,35.817258,-0.0030344509719951677,-0.022484804147609512,0.09740101331113918,36.09446859390736,-104.27510100388527,76.200527287817
2024-09-23 16:39:30.836260,42.62,35.817258,-0.0030344509719951677,-0.022484804147609512,0.09695331012558621,36.09446859390736,-104.27510100388527,76.200527287817
2024-09-23 16:39:30.878703,42.62,35.817309,-0.0034324103296106863,-0.022982261414192504,0.09759999317981902,36.09446859390736,-104.27510100388527,76.200527287817
2024-09-23 16:39:30.921066,42.62,35.81736,-0.0034324103296106863,-0.022982261414192504,0.09759999317981902,36.09446859390736,-100.26678939585686,76.200527287817
2024-09-23 16:39:30.932503,42.62,35.81736,-0.0028354659767690416,-0.02338022115155219,0.0966050877605131,36.09446859390736,-100.26678939585686,76.200527287817
2024-09-23 16:39:30.975142,42.62,35.81741,-0.002785727465249955,-0.023429960042815445,0.0966050877605131,32.08287849390507,-96.25519929585457,84.22370748782159
2024-09-23 16:39:31.018316,42.62,35.81741,-0.002785727465249955,-0.023429960042815445,0.09685382322919964,32.08287849390507,-96.25519929585457,84.22370748782159
2024-09-23 16:39:31.029420,42.62,35.817461,-0.002636491424507565,-0.023429960042815445,0.09685382322919964,32.08287849390507,-96.25519929585457,80.21211738781929
2024-09-23 16:39:31.073399,42.62,35.817548,-0.002636491424507565,-0.02293251340906919,0.09675432418099966,32.08287849390507,-96.25519929585457,84.22370748782159
2024-09-23 16:39:31.116279,42.62,35.817548,-0.003233425524256645,-0.023479709566915436,0.09685382322919964,32.08287849390507,-96.25519929585457,84.22370748782159
2024-09-23 16:39:31.128057,42.62,35.817548,-0.003233425524256645,-0.023479709566915436,0.09685382322919964,36.09446859390736,-96.25519929585457,84.22370748782159
2024-09-23 16:39:31.170021,42.62,35.8176,-0.0029847020175114316,-0.023778180888911878,0.0973512698629459,44.11764879391193,-100.26678939585686,84.22370748782159
2024-09-23 16:39:31.214541,42.62,35.81765,-0.0033329230534799477,-0.023778180888911878,0.0973512698629459,44.11764879391193,-100.26678939585686,72.1922225099802
2024-09-23 16:39:31.225955,42.62,35.81765,-0.0033329230534799477,-0.02313149783467906,0.09710254654607277,40.106058693909645,-100.26678939585686,72.1922225099802
2024-09-23 16:39:31.269763,42.62,35.817701,-0.002636491424507565,-0.023280723622328886,0.0973512698629459,40.106058693909645,-92.24360919585227,76.200527287817
2024-09-23 16:39:31.311951,42.62,35.817701,-0.002636491424507565,-0.023280723622328886,0.0973512698629459,36.09446859390736,-96.25519929585457,80.21211738781929
2024-09-23 16:39:31.323514,42.62,35.817752,-0.0031836870127375577,-0.023479709566915436,0.0973512698629459,36.09446859390736,-96.25519929585457,80.21211738781929
2024-09-23 16:39:31.366999,42.62,35.817752,-0.0031836870127375577,-0.023479709566915436,0.09690356060148622,36.09446859390736,-96.25519929585457,80.21211738781929
2024-09-23 16:39:31.410023,42.62,35.817752,-0.0031836870127375577,-0.023479709566915436,0.09690356060148622,44.11764879391193,-100.26678939585686,80.21211738781929
2024-09-23 16:39:31.421728,42.62,35.817802,-0.0033329230534799477,-0.023479709566915436,0.09690356060148622,44.11764879391193,-100.26678939585686,76.200527287817
2024-09-23 16:39:31.455035,42.62,35.817802,-0.0033329230534799477,-0.023479709566915436,0.0973512698629459,44.11764879391193,-100.26678939585686,76.200527287817
2024-09-23 16:39:31.466993,42.62,35.817889,-0.0027359787006383035,-0.023479709566915436,0.0973512698629459,36.09446859390736,-100.26678939585686,76.200527287817
2024-09-23 16:39:31.509601,42.62,35.817889,-0.0027359787006383035,-0.023778180888911878,0.09725178296655933,28.07457030097246,-100.26678939585686,72.1922225099802
2024-09-23 16:39:31.521330,42.62,35.817941,-0.0027359787006383035,-0.023778180888911878,0.09725178296655933,28.07457030097246,-100.26678939585686,72.1922225099802
2024-09-23 16:39:31.553782,42.69,35.817941,-0.002785727465249955,-0.02303200030545576,0.09725178296655933,28.07457030097246,-100.26678939585686,72.1922225099802
2024-09-23 16:39:31.565841,42.69,35.817941,-0.002785727465249955,-0.02303200030545576,0.0966050877605131,40.106058693909645,-100.26678939585686,84.22370748782159
2024-09-23 16:39:31.607980,42.69,35.817992,-0.0033329230534799477,-0.02367869399252531,0.09759999317981902,28.07457030097246,-100.26678939585686,84.22370748782159
2024-09-23 16:39:31.619663,42.69,35.817992,-0.0033329230534799477,-0.02367869399252531,0.09759999317981902,28.07457030097246,-92.24360919585227,84.22370748782159
2024-09-23 16:39:31.651026,42.69,35.818085,-0.0033329230534799477,-0.02367869399252531,0.09759999317981902,28.07457030097246,-92.24360919585227,76.200527287817
2024-09-23 16:39:31.662433,42.69,35.818085,-0.003382661564999035,-0.023181236725942318,0.09725178296655933,32.08287849390507,-92.24360919585227,76.200527287817
2024-09-23 16:39:31.705073,42.69,35.818136,-0.003233425524256645,-0.02367869399252531,0.09725178296655933,32.08287849390507,-96.25519929585457,76.200527287817
2024-09-23 16:39:31.717052,42.69,35.818136,-0.003233425524256645,-0.02367869399252531,0.09764974270391902,32.08287849390507,-96.25519929585457,76.200527287817
2024-09-23 16:39:31.749924,42.69,35.818136,-0.003233425524256645,-0.02367869399252531,0.09764974270391902,44.11764879391193,-96.25519929585457,76.200527287817
2024-09-23 16:39:31.761600,42.69,35.818187,-0.0028852147413806935,-0.02338022115155219,0.09764974270391902,44.11764879391193,-96.25519929585457,80.21211738781929
2024-09-23 16:39:31.804338,42.69,35.818238,-0.003979606107712764,-0.02338022115155219,0.09740101331113918,32.08287849390507,-96.25519929585457,80.21211738781929
2024-09-23 16:39:31.847799,42.69,35.818238,-0.003979606107712764,-0.02362894446842532,0.09725178296655933,36.09446859390736,-96.25519929585457,80.21211738781929
2024-09-23 16:39:31.858781,42.69,35.818328,-0.003979606107712764,-0.02362894446842532,0.09725178296655933,36.09446859390736,-96.25519929585457,80.21211738781929
2024-09-23 16:39:31.900890,42.69,35.818328,-0.003780631555451287,-0.02308174982955575,0.09695331012558621,32.08287849390507,-96.25519929585457,80.21211738781929
2024-09-23 16:39:31.943798,42.69,35.81838,-0.0026862297461545674,-0.02308174982955575,0.09695331012558621,32.08287849390507,-96.25519929585457,80.21211738781929
2024-09-23 16:39:31.955305,42.69,35.81838,-0.0026862297461545674,-0.02303200030545576,0.09759999317981902,40.106058693909645,-100.26678939585686,80.21211738781929
2024-09-23 16:39:31.997286,42.69,35.81843,-0.0030344509719951677,-0.022833026512682618,0.0973512698629459,40.106058693909645,-100.26678939585686,76.200527287817
2024-09-23 16:39:32.009093,42.69,35.81843,-0.0030344509719951677,-0.022833026512682618,0.0973512698629459,40.106058693909645,-100.26678939585686,76.200527287817
2024-09-23 16:39:32.041860,42.69,35.81843,-0.0030344509719951677,-0.022833026512682618,0.0973512698629459,40.106058693909645,-100.26678939585686,80.21211738781929
2024-09-23 16:39:32.053857,42.69,35.818481,-0.0028852147413806935,-0.023230986250042305,0.09715228999426605,40.106058693909645,-100.26678939585686,80.21211738781929
2024-09-23 16:39:32.097701,42.69,35.818532,-0.0028354659767690416,-0.02367869399252531,0.09715228999426605,36.09446859390736,-100.26678939585686,76.200527287817
2024-09-23 16:39:32.140526,42.69,35.818532,-0.0028354659767690416,-0.02367869399252531,0.09745075675933246,40.106058693909645,-96.25519929585457,76.200527287817
2024-09-23 16:39:32.152053,42.69,35.818582,-0.0028852147413806935,-0.02367869399252531,0.09745075675933246,40.106058693909645,-96.25519929585457,76.200527287817
2024-09-23 16:39:32.193925,42.69,35.818669,-0.0028852147413806935,-0.023181236725942318,0.09759999317981902,36.09446859390736,-92.24360919585227,80.21211738781929
2024-09-23 16:39:32.237251,42.69,35.818669,-0.0029847020175114316,-0.02278327698858263,0.09759999317981902,36.09446859390736,-92.24360919585227,80.21211738781929
2024-09-23 16:39:32.248631,42.69,35.818669,-0.0029847020175114316,-0.02278327698858263,0.09759999317981902,40.106058693909645,-88.23529758782387,84.22370748782159
2024-09-23 16:39:32.291399,42.69,35.818721,-0.0030841997366068195,-0.022982261414192504,0.0973512698629459,44.11764879391193,-100.26678939585686,84.22370748782159
2024-09-23 16:39:32.334230,42.69,35.818772,-0.0030841997366068195,-0.022982261414192504,0.0973512698629459,44.11764879391193,-100.26678939585686,84.22370748782159
2024-09-23 16:39:32.346463,42.69,35.818772,-0.0029349636958644295,-0.023479709566915436,0.0973015264147526,36.09446859390736,-100.26678939585686,84.22370748782159
2024-09-23 16:39:32.389814,42.69,35.818822,-0.0029349636958644295,-0.02352945757203875,0.0973512698629459,36.09446859390736,-96.25519929585457,80.21211738781929
2024-09-23 16:39:32.431921,42.69,35.818822,-0.0029349636958644295,-0.02352945757203875,0.0973512698629459,44.11764879391193,-88.23529758782387,80.21211738781929
2024-09-23 16:39:32.443716,42.69,35.818873,-0.0031836870127375577,-0.022982261414192504,0.0973512698629459,44.11764879391193,-88.23529758782387,76.200527287817
2024-09-23 16:39:32.486957,42.69,35.818923,-0.0031836870127375577,-0.022982261414192504,0.09750050628343246,40.106058693909645,-96.25519929585457,80.21211738781929
2024-09-23 16:39:32.498428,42.69,35.818923,-0.0024872551938930902,-0.022982261414192504,0.09750050628343246,40.106058693909645,-96.25519929585457,80.21211738781929
2024-09-23 16:39:32.530524,42.69,35.818923,-0.0024872551938930902,-0.02313149783467906,0.09759999317981902,40.106058693909645,-96.25519929585457,80.21211738781929
2024-09-23 16:39:32.584620,42.69,35.819011,-0.0026862297461545674,-0.02313149783467906,0.09759999317981902,36.09446859390736,-96.25519929585457,88.23529758782387
2024-09-23 16:39:32.596448,42.69,35.819011,-0.0026862297461545674,-0.023778180888911878,0.09759999317981902,36.09446859390736,-96.25519929585457,88.23529758782387
2024-09-23 16:39:32.628439,42.69,35.819011,-0.0026862297461545674,-0.023778180888911878,0.09710254654607277,44.11764879391193,-96.25519929585457,88.23529758782387
2024-09-23 16:39:32.639856,42.69,35.819062,-0.002586742470023829,-0.023778180888911878,0.09710254654607277,44.11764879391193,-92.24360919585227,88.23529758782387
2024-09-23 16:39:32.682603,42.69,35.819113,-0.002586742470023829,-0.023429960042815445,0.09705279702197278,44.11764879391193,-104.27510100388527,80.21211738781929
2024-09-23 16:39:32.725672,42.69,35.819113,-0.0028852147413806935,-0.023181236725942318,0.09695331012558621,44.11764879391193,-104.27510100388527,80.21211738781929
2024-09-23 16:39:32.737800,42.69,35.819113,-0.0028852147413806935,-0.023181236725942318,0.09695331012558621,44.11764879391193,-100.26678939585686,76.200527287817
2024-09-23 16:39:32.770351,42.69,35.819163,-0.0028852147413806935,-0.023181236725942318,0.09695331012558621,44.11764879391193,-100.26678939585686,76.200527287817
2024-09-23 16:39:32.782058,42.69,35.819163,-0.003382661564999035,-0.023181236725942318,0.09725178296655933,32.08287849390507,-104.27510100388527,76.200527287817
2024-09-23 16:39:32.824204,42.69,35.819255,-0.0029847020175114316,-0.023330473146428877,0.09725178296655933,32.08287849390507,-104.27510100388527,76.200527287817
2024-09-23 16:39:32.835772,42.69,35.819255,-0.0029847020175114316,-0.023330473146428877,0.09710254654607277,48.12595698684454,-104.27510100388527,76.200527287817
2024-09-23 16:39:32.868597,42.69,35.819255,-0.0029847020175114316,-0.023330473146428877,0.09710254654607277,48.12595698684454,-96.25519929585457,76.200527287817
2024-09-23 16:39:32.881060,42.69,35.819306,-0.0031339382481259063,-0.023280723622328886,0.09740101331113918,48.12595698684454,-96.25519929585457,80.21211738781929
2024-09-23 16:39:32.923544,42.69,35.819357,-0.0031836870127375577,-0.023280723622328886,0.09740101331113918,48.12595698684454,-88.23529758782387,80.21211738781929
2024-09-23 16:39:32.935221,42.69,35.819357,-0.0031836870127375577,-0.023230986250042305,0.09740101331113918,48.12595698684454,-88.23529758782387,80.21211738781929
2024-09-23 16:39:32.967414,42.69,35.819357,-0.0031836870127375577,-0.023230986250042305,0.09745075675933246,44.11764879391193,-88.23529758782387,80.21211738781929
2024-09-23 16:39:32.979189,42.69,35.819408,-0.002785727465249955,-0.023230986250042305,0.09745075675933246,44.11764879391193,-96.25519929585457,76.200527287817
2024-09-23 16:39:33.021152,42.69,35.819408,-0.002785727465249955,-0.023181236725942318,0.09750050628343246,32.08287849390507,-92.24360919585227,76.200527287817
2024-09-23 16:39:33.032955,42.69,35.819498,-0.002785727465249955,-0.023181236725942318,0.09750050628343246,32.08287849390507,-92.24360919585227,76.200527287817
2024-09-23 16:39:33.065414,42.69,35.819498,-0.002785727465249955,-0.02362894446842532,0.09750050628343246,32.08287849390507,-92.24360919585227,76.200527287817
2024-09-23 16:39:33.077334,42.69,35.819498,-0.002785727465249955,-0.02362894446842532,0.09715228999426605,32.08287849390507,-100.26678939585686,80.21211738781929
2024-09-23 16:39:33.120855,42.69,35.81955,-0.0030841997366068195,-0.023579196463302005,0.09690356060148622,32.08287849390507,-104.27510100388527,80.21211738781929
2024-09-23 16:39:33.163206,42.69,35.8196,-0.0030841997366068195,-0.023579196463302005,0.09690356060148622,32.08287849390507,-104.27510100388527,88.23529758782387
2024-09-23 16:39:33.175185,42.69,35.8196,-0.002586742470023829,-0.022833026512682618,0.09705279702197278,36.09446859390736,-104.27510100388527,88.23529758782387
2024-09-23 16:39:33.217129,42.69,35.819651,-0.0033329230534799477,-0.023330473146428877,0.09705279702197278,36.09446859390736,-100.26678939585686,72.1922225099802
2024-09-23 16:39:33.229337,42.69,35.819651,-0.0033329230534799477,-0.023330473146428877,0.09750050628343246,36.09446859390736,-100.26678939585686,72.1922225099802
2024-09-23 16:39:33.261333,42.69,35.819651,-0.0033329230534799477,-0.023330473146428877,0.09750050628343246,40.106058693909645,-96.25519929585457,76.200527287817
2024-09-23 16:39:33.272447,42.69,35.819702,-0.003233425524256645,-0.02352945757203875,0.09750050628343246,40.106058693909645,-96.25519929585457,76.200527287817
2024-09-23 16:39:33.315205,42.69,35.819752,-0.0031836870127375577,-0.02352945757203875,0.09720203344245934,36.09446859390736,-96.25519929585457,84.22370748782159
2024-09-23 16:39:33.359225,42.69,35.819752,-0.0031836870127375577,-0.02362894446842532,0.09680407370509965,36.09446859390736,-96.25519929585457,84.22370748782159
2024-09-23 16:39:33.370641,42.69,35.819839,-0.0031836870127375577,-0.02362894446842532,0.09680407370509965,40.106058693909645,-100.26678939585686,76.200527287817
2024-09-23 16:39:33.413720,42.69,35.819839,-0.0031836870127375577,-0.02313149783467906,0.0973015264147526,48.12595698684454,-96.25519929585457,80.21211738781929
2024-09-23 16:39:33.457440,42.69,35.819891,-0.0025369937054121774,-0.023280723622328886,0.0973015264147526,48.12595698684454,-96.25519929585457,80.21211738781929
2024-09-23 16:39:33.468593,42.69,35.819891,-0.0025369937054121774,-0.023280723622328886,0.09755024973162574,40.106058693909645,-100.26678939585686,80.21211738781929
2024-09-23 16:39:33.511190,42.69,35.819941,-0.002586742470023829,-0.02338022115155219,0.09705279702197278,36.09446859390736,-100.26678939585686,80.21211738781929
2024-09-23 16:39:33.553694,42.69,35.819992,-0.002586742470023829,-0.02338022115155219,0.09705279702197278,36.09446859390736,-96.25519929585457,80.21211738781929
2024-09-23 16:39:33.564717,42.69,35.819992,-0.0029847020175114316,-0.02308174982955575,0.09715228999426605,36.09446859390736,-96.25519929585457,80.21211738781929
2024-09-23 16:39:33.607461,42.79,35.820043,-0.0030841997366068195,-0.022982261414192504,0.09715228999426605,36.09446859390736,-100.26678939585686,76.200527287817
2024-09-23 16:39:33.650429,42.79,35.820043,-0.0030841997366068195,-0.022982261414192504,0.09725178296655933,40.106058693909645,-100.26678939585686,76.200527287817
2024-09-23 16:39:33.661457,42.79,35.820094,-0.0030841997366068195,-0.022982261414192504,0.09725178296655933,40.106058693909645,-96.25519929585457,72.1922225099802
2024-09-23 16:39:33.704181,42.79,35.820094,-0.0030841997366068195,-0.02278327698858263,0.0973512698629459,32.08287849390507,-96.25519929585457,80.21211738781929
2024-09-23 16:39:33.715986,42.79,35.820181,-0.0030841997366068195,-0.02278327698858263,0.0973512698629459,32.08287849390507,-96.25519929585457,80.21211738781929
2024-09-23 16:39:33.749226,42.79,35.820181,-0.0034324103296106863,-0.02352945757203875,0.09685382322919964,32.08287849390507,-96.25519929585457,80.21211738781929
2024-09-23 16:39:33.802405,42.79,35.820232,-0.0034324103296106863,-0.02352945757203875,0.09685382322919964,40.106058693909645,-92.24360919585227,76.200527287817
2024-09-23 16:39:33.814445,42.79,35.820232,-0.0028852147413806935,-0.02338022115155219,0.09685382322919964,40.106058693909645,-92.24360919585227,76.200527287817
2024-09-23 16:39:33.846317,42.79,35.820232,-0.0028852147413806935,-0.02338022115155219,0.09725178296655933,40.106058693909645,-88.23529758782387,76.200527287817
2024-09-23 16:39:33.857799,42.79,35.820283,-0.0022385316871478774,-0.02338022115155219,0.09725178296655933,40.106058693909645,-88.23529758782387,76.200527287817
2024-09-23 16:39:33.901102,42.79,35.820333,-0.0022385316871478774,-0.023230986250042305,0.0970030596496862,44.11764879391193,-88.23529758782387,80.21211738781929
2024-09-23 16:39:33.943709,42.79,35.820333,-0.0029847020175114316,-0.02313149783467906,0.0970030596496862,44.11764879391193,-88.23529758782387,80.21211738781929
2024-09-23 16:39:33.955011,42.79,35.820333,-0.0029847020175114316,-0.02313149783467906,0.09710254654607277,52.137550501942634,-88.23529758782387,80.21211738781929
2024-09-23 16:39:33.998417,42.79,35.820384,-0.0029847020175114316,-0.023230986250042305,0.09715228999426605,36.09446859390736,-88.23529758782387,80.21211738781929
2024-09-23 16:39:34.040496,42.79,35.820474,-0.0029847020175114316,-0.023230986250042305,0.09715228999426605,36.09446859390736,-88.23529758782387,80.21211738781929
2024-09-23 16:39:34.052369,42.79,35.820474,-0.0027359787006383035,-0.0228827638849692,0.0973015264147526,40.106058693909645,-88.23529758782387,80.21211738781929
2024-09-23 16:39:34.097972,42.79,35.820525,-0.003482159473966507,-0.023280723622328886,0.09705279702197278,40.106058693909645,-92.24360919585227,80.21211738781929
2024-09-23 16:39:34.142649,42.79,35.820576,-0.002586742470023829,-0.023280723622328886,0.09705279702197278,44.11764879391193,-96.25519929585457,80.21211738781929
2024-09-23 16:39:34.154285,42.79,35.820576,-0.002586742470023829,-0.02352945757203875,0.09705279702197278,44.11764879391193,-96.25519929585457,80.21211738781929
2024-09-23 16:39:34.186181,42.79,35.820576,-0.002586742470023829,-0.02352945757203875,0.09725178296655933,44.11764879391193,-96.25519929585457,80.21211738781929
2024-09-23 16:39:34.197764,42.79,35.820627,-0.002586742470023829,-0.02352945757203875,0.09725178296655933,44.11764879391193,-96.25519929585457,76.200527287817
2024-09-23 16:39:34.239672,42.79,35.820627,-0.002586742470023829,-0.023280723622328886,0.09680407370509965,36.09446859390736,-104.27510100388527,80.21211738781929
2024-09-23 16:39:34.251649,42.79,35.820717,-0.002586742470023829,-0.023280723622328886,0.09680407370509965,36.09446859390736,-104.27510100388527,80.21211738781929
2024-09-23 16:39:34.284040,42.79,35.820717,-0.0030344509719951677,-0.02303200030545576,0.09680407370509965,36.09446859390736,-104.27510100388527,80.21211738781929
2024-09-23 16:39:34.295557,42.79,35.820717,-0.0030344509719951677,-0.02303200030545576,0.09725178296655933,40.106058693909645,-92.24360919585227,80.21211738781929
2024-09-23 16:39:34.337228,42.79,35.820768,-0.0029847020175114316,-0.02367869399252531,0.09670458680871308,40.106058693909645,-92.24360919585227,80.21211738781929
2024-09-23 16:39:34.348971,42.79,35.820768,-0.0029847020175114316,-0.02367869399252531,0.09670458680871308,40.106058693909645,-92.24360919585227,80.21211738781929
2024-09-23 16:39:34.381976,42.79,35.820768,-0.0029847020175114316,-0.02367869399252531,0.09670458680871308,40.106058693909645,-92.24360919585227,80.21211738781929
2024-09-23 16:39:34.393959,42.79,35.820819,-0.0031339382481259063,-0.02303200030545576,0.09774922960030558,44.11764879391193,-92.24360919585227,80.21211738781929
2024-09-23 16:39:34.437629,42.79,35.82087,-0.0029349636958644295,-0.023330473146428877,0.09710254654607277,44.11764879391193,-92.24360919585227,76.200527287817
2024-09-23 16:39:34.480975,42.79,35.82087,-0.0029349636958644295,-0.023330473146428877,0.09710254654607277,44.11764879391193,-104.27510100388527,76.200527287817
2024-09-23 16:39:34.492631,42.79,35.82092,-0.0030841997366068195,-0.023429960042815445,0.09710254654607277,44.11764879391193,-104.27510100388527,76.200527287817
2024-09-23 16:39:34.535774,42.79,35.820971,-0.0026862297461545674,-0.023429960042815445,0.09675432418099966,32.08287849390507,-100.26678939585686,84.22370748782159
2024-09-23 16:39:34.578638,42.79,35.820971,-0.0026862297461545674,-0.023280723622328886,0.0970030596496862,28.07457030097246,-100.26678939585686,84.22370748782159
2024-09-23 16:39:34.589820,42.79,35.821058,-0.0026862297461545674,-0.023280723622328886,0.0970030596496862,28.07457030097246,-96.25519929585457,80.21211738781929
2024-09-23 16:39:34.632549,42.97,35.821058,-0.0030344509719951677,-0.023429960042815445,0.09710254654607277,40.106058693909645,-104.27510100388527,76.200527287817
2024-09-23 16:39:34.674533,42.97,35.82111,-0.0035318979854855937,-0.023429960042815445,0.09710254654607277,40.106058693909645,-104.27510100388527,76.200527287817
2024-09-23 16:39:34.686288,42.97,35.82111,-0.0035318979854855937,-0.023280723622328886,0.09685382322919964,36.09446859390736,-96.25519929585457,76.200527287817
2024-09-23 16:39:34.729448,42.97,35.821161,-0.002288270198666964,-0.023579196463302005,0.09665483728461309,32.08287849390507,-96.25519929585457,76.200527287817
2024-09-23 16:39:34.773244,42.97,35.821211,-0.002288270198666964,-0.023579196463302005,0.09665483728461309,32.08287849390507,-96.25519929585457,76.200527287817
2024-09-23 16:39:34.785008,42.97,35.821211,-0.0030344509719951677,-0.023230986250042305,0.09715228999426605,32.08287849390507,-96.25519929585457,76.200527287817
2024-09-23 16:39:34.827553,42.97,35.821262,-0.0030841997366068195,-0.023230986250042305,0.09715228999426605,44.11764879391193,-100.26678939585686,76.200527287817
2024-09-23 16:39:34.870723,42.97,35.821262,-0.0030841997366068195,-0.023230986250042305,0.09690356060148622,44.11764879391193,-92.24360919585227,76.200527287817
2024-09-23 16:39:34.882322,42.97,35.821313,-0.0026862297461545674,-0.023230986250042305,0.09690356060148622,44.11764879391193,-92.24360919585227,88.23529758782387
2024-09-23 16:39:34.924918,42.97,35.821399,-0.0026862297461545674,-0.023181236725942318,0.09690356060148622,32.08287849390507,-88.23529758782387,80.21211738781929
2024-09-23 16:39:34.968948,42.97,35.821399,-0.0032831742888682963,-0.023280723622328886,0.09695331012558621,32.08287849390507,-88.23529758782387,80.21211738781929
2024-09-23 16:39:34.980778,42.97,35.821399,-0.0032831742888682963,-0.023280723622328886,0.09695331012558621,40.106058693909645,-96.25519929585457,80.21211738781929
2024-09-23 16:39:35.013121,42.97,35.821451,-0.0032831742888682963,-0.023280723622328886,0.09695331012558621,40.106058693909645,-96.25519929585457,80.21211738781929
2024-09-23 16:39:35.024811,42.97,35.821451,-0.0029349636958644295,-0.02338022115155219,0.09690356060148622,40.106058693909645,-96.25519929585457,80.21211738781929
2024-09-23 16:39:35.066915,42.97,35.821502,-0.003382661564999035,-0.023330473146428877,0.09690356060148622,40.106058693909645,-96.25519929585457,80.21211738781929
2024-09-23 16:39:35.119925,42.97,35.821552,-0.002636491424507565,-0.023330473146428877,0.09710254654607277,36.09446859390736,-96.25519929585457,76.200527287817
2024-09-23 16:39:35.163512,42.97,35.821552,-0.002636491424507565,-0.023181236725942318,0.09755024973162574,32.08287849390507,-96.25519929585457,76.200527287817
2024-09-23 16:39:35.174946,42.97,35.821603,-0.002636491424507565,-0.023181236725942318,0.09755024973162574,32.08287849390507,-96.25519929585457,80.21211738781929
2024-09-23 16:39:35.217439,42.97,35.821603,-0.0028354659767690416,-0.023479709566915436,0.09675432418099966,32.08287849390507,-96.25519929585457,80.21211738781929
2024-09-23 16:39:35.260162,42.97,35.821654,-0.0027359787006383035,-0.023181236725942318,0.09675432418099966,32.08287849390507,-96.25519929585457,80.21211738781929
2024-09-23 16:39:35.271405,42.97,35.821654,-0.0027359787006383035,-0.023181236725942318,0.0970030596496862,44.11764879391193,-96.25519929585457,80.21211738781929
2024-09-23 16:39:35.314266,42.97,35.821741,-0.003382661564999035,-0.023827930413011865,0.0970030596496862,40.106058693909645,-96.25519929585457,76.200527287817
2024-09-23 16:39:35.357946,42.97,35.821792,-0.003382661564999035,-0.023827930413011865,0.0970030596496862,40.106058693909645,-92.24360919585227,80.21211738781929
2024-09-23 16:39:35.368914,42.97,35.821792,-0.0028852147413806935,-0.02293251340906919,0.09725178296655933,40.106058693909645,-92.24360919585227,80.21211738781929
2024-09-23 16:39:35.412265,42.97,35.821843,-0.002586742470023829,-0.02362894446842532,0.09725178296655933,44.11764879391193,-100.26678939585686,68.18063240997792
2024-09-23 16:39:35.455712,42.97,35.821843,-0.002586742470023829,-0.02362894446842532,0.09745075675933246,40.106058693909645,-100.26678939585686,68.18063240997792
2024-09-23 16:39:35.467535,42.97,35.821894,-0.0026862297461545674,-0.02362894446842532,0.09745075675933246,40.106058693909645,-100.26678939585686,80.21211738781929
2024-09-23 16:39:35.509918,42.97,35.821984,-0.0026862297461545674,-0.023877669304275123,0.09705279702197278,32.08287849390507,-100.26678939585686,80.21211738781929
2024-09-23 16:39:35.554129,42.97,35.821984,-0.002636491424507565,-0.022733528983459317,0.0973512698629459,32.08287849390507,-100.26678939585686,80.21211738781929
2024-09-23 16:39:35.565159,42.97,35.821984,-0.002636491424507565,-0.022733528983459317,0.0973512698629459,36.09446859390736,-108.28669110388756,64.16903547978401
2024-09-23 16:39:35.607562,42.97,35.822036,-0.0029847020175114316,-0.023181236725942318,0.09720203344245934,36.09446859390736,-100.26678939585686,64.16903547978401
2024-09-23 16:39:35.650077,42.42,35.822087,-0.0031836870127375577,-0.023181236725942318,0.09720203344245934,36.09446859390736,-100.26678939585686,76.200527287817
2024-09-23 16:39:35.703026,42.42,35.822087,-0.0031836870127375577,-0.023330473146428877,0.09685382322919964,44.11764879391193,-96.25519929585457,80.21211738781929
2024-09-23 16:39:35.715090,42.42,35.822137,-0.0031836870127375577,-0.023330473146428877,0.09685382322919964,44.11764879391193,-96.25519929585457,80.21211738781929
2024-09-23 16:39:35.746713,42.42,35.822137,-0.0028852147413806935,-0.02308174982955575,0.09685382322919964,44.11764879391193,-96.25519929585457,80.21211738781929
2024-09-23 16:39:35.758650,42.42,35.822137,-0.0028852147413806935,-0.02308174982955575,0.09650560086412653,44.11764879391193,-96.25519929585457,76.200527287817
2024-09-23 16:39:35.801857,42.42,35.822188,-0.003780631555451287,-0.02338022115155219,0.09685382322919964,36.09446859390736,-92.24360919585227,76.200527287817
2024-09-23 16:39:35.844053,42.42,35.822239,-0.003780631555451287,-0.02338022115155219,0.09685382322919964,36.09446859390736,-92.24360919585227,80.21211738781929
2024-09-23 16:39:35.855756,42.42,35.822239,-0.003233425524256645,-0.023479709566915436,0.09740101331113918,40.106058693909645,-92.24360919585227,80.21211738781929
2024-09-23 16:39:35.898822,42.42,35.822326,-0.0028354659767690416,-0.02367869399252531,0.0976994861521123,40.106058693909645,-100.26678939585686,80.21211738781929
2024-09-23 16:39:35.942699,42.42,35.822326,-0.0028354659767690416,-0.02367869399252531,0.0976994861521123,40.106058693909645,-96.25519929585457,80.21211738781929
2024-09-23 16:39:35.954036,42.42,35.822377,-0.003482159473966507,-0.02268379009219606,0.0976994861521123,40.106058693909645,-96.25519929585457,80.21211738781929
2024-09-23 16:39:35.996596,42.42,35.822428,-0.003482159473966507,-0.02268379009219606,0.09745075675933246,48.12595698684454,-92.24360919585227,80.21211738781929
2024-09-23 16:39:36.009283,42.42,35.822428,-0.002586742470023829,-0.02268379009219606,0.09745075675933246,48.12595698684454,-92.24360919585227,80.21211738781929
2024-09-23 16:39:36.042379,42.42,35.822428,-0.002586742470023829,-0.023230986250042305,0.09759999317981902,40.106058693909645,-96.25519929585457,80.21211738781929
2024-09-23 16:39:36.053963,42.42,35.822521,-0.002586742470023829,-0.023230986250042305,0.09759999317981902,40.106058693909645,-96.25519929585457,84.22370748782159
2024-09-23 16:39:36.087025,42.42,35.822521,-0.0030841997366068195,-0.023230986250042305,0.09759999317981902,40.106058693909645,-96.25519929585457,84.22370748782159
2024-09-23 16:39:36.099060,42.42,35.822521,-0.0030841997366068195,-0.02367869399252531,0.09745075675933246,40.106058693909645,-92.24360919585227,84.22370748782159
2024-09-23 16:39:36.141817,42.42,35.822572,-0.0031836870127375577,-0.02352945757203875,0.09670458680871308,40.106058693909645,-92.24360919585227,84.22370748782159
2024-09-23 16:39:36.154050,42.42,35.822572,-0.0031836870127375577,-0.02352945757203875,0.09670458680871308,40.106058693909645,-92.24360919585227,84.22370748782159
2024-09-23 16:39:36.187152,42.42,35.822623,-0.0030841997366068195,-0.02352945757203875,0.09670458680871308,40.106058693909645,-92.24360919585227,76.200527287817
2024-09-23 16:39:36.198572,42.42,35.822623,-0.0030841997366068195,-0.023579196463302005,0.09710254654607277,40.106058693909645,-92.24360919585227,76.200527287817
2024-09-23 16:39:36.241199,42.42,35.822674,-0.003233425524256645,-0.022833026512682618,0.09650560086412653,40.106058693909645,-96.25519929585457,80.21211738781929
2024-09-23 16:39:36.283096,42.42,35.822674,-0.003233425524256645,-0.022833026512682618,0.09650560086412653,32.08287849390507,-96.25519929585457,80.21211738781929
2024-09-23 16:39:36.294371,42.42,35.822724,-0.0031339382481259063,-0.023330473146428877,0.09650560086412653,32.08287849390507,-96.25519929585457,72.1922225099802
2024-09-23 16:39:36.336822,42.42,35.822775,-0.0031339382481259063,-0.023330473146428877,0.09725178296655933,32.08287849390507,-92.24360919585227,76.200527287817
2024-09-23 16:39:36.348884,42.42,35.822775,-0.0029349636958644295,-0.023330473146428877,0.09725178296655933,32.08287849390507,-92.24360919585227,76.200527287817
2024-09-23 16:39:36.380720,42.42,35.822775,-0.0029349636958644295,-0.0228827638849692,0.09705279702197278,32.08287849390507,-92.24360919585227,76.200527287817
2024-09-23 16:39:36.392640,42.42,35.822862,-0.0029349636958644295,-0.0228827638849692,0.09705279702197278,44.11764879391193,-96.25519929585457,84.22370748782159
2024-09-23 16:39:36.435262,42.42,35.822862,-0.0030344509719951677,-0.022982261414192504,0.0970030596496862,44.11764879391193,-96.25519929585457,76.200527287817
2024-09-23 16:39:36.478970,42.42,35.822913,-0.002586742470023829,-0.02293251340906919,0.0970030596496862,44.11764879391193,-96.25519929585457,76.200527287817
2024-09-23 16:39:36.490777,42.42,35.822913,-0.002586742470023829,-0.02293251340906919,0.09740101331113918,44.11764879391193,-100.26678939585686,76.200527287817
2024-09-23 16:39:36.533903,42.42,35.822964,-0.0031836870127375577,-0.023230986250042305,0.09720203344245934,40.106058693909645,-100.26678939585686,76.200527287817
2024-09-23 16:39:36.576891,42.42,35.823015,-0.0031836870127375577,-0.023230986250042305,0.09720203344245934,40.106058693909645,-96.25519929585457,76.200527287817
2024-09-23 16:39:36.588591,42.42,35.823015,-0.0028354659767690416,-0.02338022115155219,0.09685382322919964,40.106058693909645,-96.25519929585457,76.200527287817
2024-09-23 16:39:36.631488,42.42,35.823065,-0.0029349636958644295,-0.02362894446842532,0.09685382322919964,40.106058693909645,-100.26678939585686,76.200527287817
2024-09-23 16:39:36.674280,42.19,35.823065,-0.0029349636958644295,-0.02362894446842532,0.0970030596496862,44.11764879391193,-100.26678939585686,76.200527287817
2024-09-23 16:39:36.686302,42.19,35.823116,-0.002785727465249955,-0.02362894446842532,0.0970030596496862,44.11764879391193,-96.25519929585457,80.21211738781929
2024-09-23 16:39:36.730076,42.19,35.823203,-0.002785727465249955,-0.022733528983459317,0.09750050628343246,36.09446859390736,-96.25519929585457,72.1922225099802
2024-09-23 16:39:36.773429,42.19,35.823203,-0.0030344509719951677,-0.023280723622328886,0.09715228999426605,36.09446859390736,-96.25519929585457,72.1922225099802
2024-09-23 16:39:36.784803,42.19,35.823203,-0.0030344509719951677,-0.023280723622328886,0.09715228999426605,36.09446859390736,-92.24360919585227,80.21211738781929
2024-09-23 16:39:36.869714,42.19,35.823255,-0.0026862297461545674,-0.023181236725942318,0.09715228999426605,36.09446859390736,-92.24360919585227,80.21211738781929
2024-09-23 16:39:36.880863,42.19,35.823255,-0.0026862297461545674,-0.023181236725942318,0.0973015264147526,40.106058693909645,-104.27510100388527,80.21211738781929
2024-09-23 16:39:36.922880,42.19,35.823305,-0.002636491424507565,-0.02268379009219606,0.0970030596496862,44.11764879391193,-104.27510100388527,76.200527287817
2024-09-23 16:39:36.965988,42.19,35.823305,-0.002636491424507565,-0.02268379009219606,0.0970030596496862,44.11764879391193,-104.27510100388527,76.200527287817
2024-09-23 16:39:36.977927,42.19,35.823356,-0.0028354659767690416,-0.022982261414192504,0.09705279702197278,44.11764879391193,-104.27510100388527,76.200527287817
2024-09-23 16:39:37.021054,42.19,35.823407,-0.002785727465249955,-0.02303200030545576,0.09705279702197278,36.09446859390736,-96.25519929585457,80.21211738781929
2024-09-23 16:39:37.063055,42.19,35.823407,-0.002785727465249955,-0.02303200030545576,0.0970030596496862,40.106058693909645,-96.25519929585457,80.21211738781929
2024-09-23 16:39:37.074910,42.19,35.823457,-0.0031339382481259063,-0.02303200030545576,0.0970030596496862,40.106058693909645,-92.24360919585227,76.200527287817
2024-09-23 16:39:37.117293,42.19,35.823593,-0.0031339382481259063,-0.023330473146428877,0.0973015264147526,44.11764879391193,-92.24360919585227,80.21211738781929
2024-09-23 16:39:37.159663,42.19,35.823593,-0.0028852147413806935,-0.023330473146428877,0.0973015264147526,44.11764879391193,-92.24360919585227,80.21211738781929
2024-09-23 16:39:37.171805,42.19,35.823593,-0.0028852147413806935,-0.023728432883788564,0.09725178296655933,32.08287849390507,-92.24360919585227,84.22370748782159
2024-09-23 16:39:37.214352,42.19,35.823645,-0.0030841997366068195,-0.023579196463302005,0.09715228999426605,44.11764879391193,-92.24360919585227,84.22370748782159
2024-09-23 16:39:37.226639,42.19,35.823645,-0.0030841997366068195,-0.023579196463302005,0.09715228999426605,44.11764879391193,-88.23529758782387,84.22370748782159
2024-09-23 16:39:37.259338,42.19,35.823695,-0.0025369937054121774,-0.023579196463302005,0.09715228999426605,44.11764879391193,-88.23529758782387,88.23529758782387
2024-09-23 16:39:37.270801,42.19,35.823695,-0.0025369937054121774,-0.02362894446842532,0.09710254654607277,36.09446859390736,-88.23529758782387,88.23529758782387
2024-09-23 16:39:37.313451,42.19,35.823746,-0.0028852147413806935,-0.02308174982955575,0.0976994861521123,36.09446859390736,-96.25519929585457,84.22370748782159
2024-09-23 16:39:37.356405,42.19,35.823746,-0.0028852147413806935,-0.02308174982955575,0.0976994861521123,36.09446859390736,-104.27510100388527,80.21211738781929
2024-09-23 16:39:37.367339,42.19,35.823797,-0.0034324103296106863,-0.023579196463302005,0.0976994861521123,36.09446859390736,-104.27510100388527,80.21211738781929
2024-09-23 16:39:37.410136,42.19,35.823847,-0.003382661564999035,-0.023579196463302005,0.09725178296655933,36.09446859390736,-96.25519929585457,80.21211738781929
2024-09-23 16:39:37.452740,42.19,35.823847,-0.003382661564999035,-0.023429960042815445,0.09759999317981902,36.09446859390736,-96.25519929585457,80.21211738781929
2024-09-23 16:39:37.465067,42.19,35.823935,-0.003382661564999035,-0.023429960042815445,0.09759999317981902,28.07457030097246,-92.24360919585227,80.21211738781929
2024-09-23 16:39:37.508492,42.19,35.823935,-0.0025369937054121774,-0.023429960042815445,0.09675432418099966,40.106058693909645,-88.23529758782387,76.200527287817
2024-09-23 16:39:37.550564,42.19,35.823986,-0.0029847020175114316,-0.023429960042815445,0.09675432418099966,40.106058693909645,-88.23529758782387,76.200527287817
2024-09-23 16:39:37.562373,42.19,35.823986,-0.0029847020175114316,-0.023429960042815445,0.0970030596496862,40.106058693909645,-92.24360919585227,76.200527287817
2024-09-23 16:39:37.605936,42.19,35.824037,-0.003382661564999035,-0.023330473146428877,0.09710254654607277,44.11764879391193,-92.24360919585227,80.21211738781929
2024-09-23 16:39:37.648656,42.19,35.824037,-0.003382661564999035,-0.023330473146428877,0.09710254654607277,44.11764879391193,-96.25519929585457,76.200527287817
2024-09-23 16:39:37.660073,42.19,35.824087,-0.0031836870127375577,-0.02308174982955575,0.09705279702197278,44.11764879391193,-96.25519929585457,76.200527287817
2024-09-23 16:39:37.702606,41.59,35.824138,-0.0031339382481259063,-0.023181236725942318,0.09705279702197278,36.09446859390736,-104.27510100388527,80.21211738781929
2024-09-23 16:39:37.745120,41.59,35.824138,-0.0031339382481259063,-0.023181236725942318,0.09725178296655933,44.11764879391193,-104.27510100388527,80.21211738781929
2024-09-23 16:39:37.756500,41.59,35.824189,-0.0033329230534799477,-0.023181236725942318,0.09725178296655933,44.11764879391193,-100.26678939585686,76.200527287817
2024-09-23 16:39:37.798714,41.59,35.824189,-0.0033329230534799477,-0.023579196463302005,0.0973015264147526,36.09446859390736,-92.24360919585227,80.21211738781929
2024-09-23 16:39:37.810373,41.59,35.824276,-0.0033329230534799477,-0.023579196463302005,0.0973015264147526,36.09446859390736,-92.24360919585227,80.21211738781929
2024-09-23 16:39:37.843395,41.59,35.824276,-0.0025369937054121774,-0.02308174982955575,0.0973015264147526,36.09446859390736,-92.24360919585227,80.21211738781929
2024-09-23 16:39:37.854885,41.59,35.824276,-0.0025369937054121774,-0.02308174982955575,0.09745075675933246,40.106058693909645,-100.26678939585686,76.200527287817
2024-09-23 16:39:37.897611,41.59,35.824327,-0.003382661564999035,-0.023330473146428877,0.09705279702197278,40.106058693909645,-100.26678939585686,76.200527287817
2024-09-23 16:39:37.909801,41.59,35.824327,-0.003382661564999035,-0.023330473146428877,0.09705279702197278,40.106058693909645,-92.24360919585227,76.200527287817
2024-09-23 16:39:37.941999,41.59,35.824378,-0.0029349636958644295,-0.023330473146428877,0.09705279702197278,40.106058693909645,-92.24360919585227,72.1922225099802
2024-09-23 16:39:37.954534,41.59,35.824378,-0.0029349636958644295,-0.023330473146428877,0.09670458680871308,36.09446859390736,-92.24360919585227,72.1922225099802
2024-09-23 16:39:37.986860,41.59,35.824378,-0.0029349636958644295,-0.023330473146428877,0.09670458680871308,36.09446859390736,-96.25519929585457,72.1922225099802
2024-09-23 16:39:37.998154,41.59,35.824429,-0.003482159473966507,-0.02303200030545576,0.09725178296655933,36.09446859390736,-96.25519929585457,72.1922225099802
2024-09-23 16:39:38.040068,41.59,35.824479,-0.003482159473966507,-0.02303200030545576,0.09725178296655933,40.106058693909645,-100.26678939585686,76.200527287817
2024-09-23 16:39:38.050983,41.59,35.824479,-0.0031836870127375577,-0.02303200030545576,0.09725178296655933,40.106058693909645,-100.26678939585686,76.200527287817
2024-09-23 16:39:38.094480,41.59,35.82453,-0.0031836870127375577,-0.02303200030545576,0.09710254654607277,48.12595698684454,-96.25519929585457,76.200527287817
2024-09-23 16:39:38.137839,41.59,35.82453,-0.0029847020175114316,-0.023330473146428877,0.09745075675933246,48.12595698684454,-96.25519929585457,76.200527287817
2024-09-23 16:39:38.149453,41.59,35.82453,-0.0029847020175114316,-0.023330473146428877,0.09745075675933246,40.106058693909645,-92.24360919585227,80.21211738781929
2024-09-23 16:39:38.192560,41.59,35.824617,-0.0029349636958644295,-0.023429960042815445,0.0970030596496862,44.11764879391193,-96.25519929585457,80.21211738781929
2024-09-23 16:39:38.236161,41.59,35.824669,-0.0031836870127375577,-0.023181236725942318,0.0970030596496862,44.11764879391193,-96.25519929585457,80.21211738781929
2024-09-23 16:39:38.247156,41.59,35.824669,-0.0031836870127375577,-0.023181236725942318,0.0973015264147526,40.106058693909645,-96.25519929585457,80.21211738781929
2024-09-23 16:39:38.279330,41.59,35.824669,-0.0031836870127375577,-0.023181236725942318,0.0973015264147526,40.106058693909645,-92.24360919585227,80.21211738781929
2024-09-23 16:39:38.291107,41.59,35.82472,-0.003631395514708897,-0.02293251340906919,0.0973015264147526,40.106058693909645,-92.24360919585227,76.200527287817
2024-09-23 16:39:38.333445,41.59,35.82477,-0.003631395514708897,-0.02293251340906919,0.0973015264147526,40.106058693909645,-92.24360919585227,72.1922225099802
2024-09-23 16:39:38.344834,41.59,35.82477,-0.0029349636958644295,-0.023181236725942318,0.0973015264147526,40.106058693909645,-92.24360919585227,72.1922225099802
2024-09-23 16:39:38.376864,41.59,35.82477,-0.0029349636958644295,-0.023181236725942318,0.09715228999426605,40.106058693909645,-92.24360919585227,72.1922225099802
2024-09-23 16:39:38.390226,41.59,35.824821,-0.0030344509719951677,-0.023181236725942318,0.09715228999426605,44.11764879391193,-92.24360919585227,76.200527287817
2024-09-23 16:39:38.431881,41.59,35.824821,-0.0030344509719951677,-0.02293251340906919,0.0970030596496862,48.12595698684454,-96.25519929585457,76.200527287817
2024-09-23 16:39:38.443475,41.59,35.82491,-0.0030344509719951677,-0.02293251340906919,0.0970030596496862,48.12595698684454,-96.25519929585457,76.200527287817
2024-09-23 16:39:38.475795,41.59,35.82491,-0.0034324103296106863,-0.02293251340906919,0.0970030596496862,48.12595698684454,-96.25519929585457,76.200527287817
2024-09-23 16:39:38.488270,41.59,35.82491,-0.0034324103296106863,-0.023429960042815445,0.09725178296655933,32.08287849390507,-96.25519929585457,80.21211738781929
2024-09-23 16:39:38.530790,41.59,35.824961,-0.0026862297461545674,-0.02313149783467906,0.09705279702197278,32.08287849390507,-96.25519929585457,80.21211738781929
2024-09-23 16:39:38.543345,41.59,35.824961,-0.0026862297461545674,-0.02313149783467906,0.09705279702197278,32.08287849390507,-96.25519929585457,80.21211738781929
2024-09-23 16:39:38.575703,41.59,35.825012,-0.0026862297461545674,-0.02313149783467906,0.09705279702197278,32.08287849390507,-96.25519929585457,84.22370748782159
2024-09-23 16:39:38.586980,41.59,35.825012,-0.002785727465249955,-0.02338022115155219,0.09705279702197278,36.09446859390736,-96.25519929585457,84.22370748782159
2024-09-23 16:39:38.630182,41.59,35.825062,-0.002586742470023829,-0.02313149783467906,0.09725178296655933,36.09446859390736,-100.26678939585686,80.21211738781929
2024-09-23 16:39:38.672587,41.59,35.825062,-0.002586742470023829,-0.02313149783467906,0.09725178296655933,40.106058693909645,-96.25519929585457,76.200527287817
2024-09-23 16:39:38.683968,41.59,35.825113,-0.003233425524256645,-0.023230986250042305,0.09725178296655933,40.106058693909645,-96.25519929585457,76.200527287817
2024-09-23 16:39:38.726393,42.1,35.825164,-0.002437506429281439,-0.023230986250042305,0.0973015264147526,36.09446859390736,-92.24360919585227,84.22370748782159
2024-09-23 16:39:38.768295,42.1,35.825164,-0.002437506429281439,-0.023230986250042305,0.0973015264147526,36.09446859390736,-92.24360919585227,84.22370748782159
2024-09-23 16:39:38.780056,42.1,35.825251,-0.002437506429281439,-0.023230986250042305,0.09715228999426605,44.11764879391193,-96.25519929585457,76.200527287817
2024-09-23 16:39:38.822671,42.1,35.825251,-0.0029847020175114316,-0.023330473146428877,0.09745075675933246,32.08287849390507,-96.25519929585457,76.200527287817
2024-09-23 16:39:38.834850,42.1,35.825251,-0.0029847020175114316,-0.023330473146428877,0.09745075675933246,32.08287849390507,-92.24360919585227,76.200527287817
2024-09-23 16:39:38.867115,42.1,35.825302,-0.0032831742888682963,-0.023330473146428877,0.09745075675933246,32.08287849390507,-92.24360919585227,76.200527287817
2024-09-23 16:39:38.878376,42.1,35.825302,-0.0032831742888682963,-0.02278327698858263,0.09690356060148622,32.08287849390507,-96.25519929585457,76.200527287817
2024-09-23 16:39:38.921258,42.1,35.825353,-0.0031339382481259063,-0.023330473146428877,0.09715228999426605,36.09446859390736,-96.25519929585457,84.22370748782159
2024-09-23 16:39:38.963862,42.1,35.825353,-0.0031339382481259063,-0.023330473146428877,0.09715228999426605,36.09446859390736,-92.24360919585227,80.21211738781929
2024-09-23 16:39:38.975654,42.1,35.825404,-0.0029349636958644295,-0.02313149783467906,0.09650560086412653,36.09446859390736,-92.24360919585227,80.21211738781929
2024-09-23 16:39:39.018911,42.1,35.825454,-0.003233425524256645,-0.023429960042815445,0.09650560086412653,36.09446859390736,-96.25519929585457,76.200527287817
2024-09-23 16:39:39.061986,42.1,35.825454,-0.003233425524256645,-0.023429960042815445,0.09715228999426605,44.11764879391193,-96.25519929585457,76.200527287817
2024-09-23 16:39:39.073286,42.1,35.825505,-0.0024872551938930902,-0.023429960042815445,0.09715228999426605,44.11764879391193,-100.26678939585686,80.21211738781929
2024-09-23 16:39:39.116526,42.1,35.825592,-0.0024872551938930902,-0.022584292562972758,0.09715228999426605,36.09446859390736,-96.25519929585457,80.21211738781929
2024-09-23 16:39:39.158830,42.1,35.825592,-0.002636491424507565,-0.02313149783467906,0.09715228999426605,36.09446859390736,-96.25519929585457,80.21211738781929
2024-09-23 16:39:39.170419,42.1,35.825592,-0.002636491424507565,-0.02313149783467906,0.0973015264147526,36.09446859390736,-100.26678939585686,80.21211738781929
2024-09-23 16:39:39.212394,42.1,35.825644,-0.0029349636958644295,-0.023479709566915436,0.09710254654607277,40.106058693909645,-100.26678939585686,80.21211738781929
2024-09-23 16:39:39.224435,42.1,35.825644,-0.0029349636958644295,-0.023479709566915436,0.09710254654607277,40.106058693909645,-92.24360919585227,80.21211738781929
2024-09-23 16:39:39.256999,42.1,35.825694,-0.0029349636958644295,-0.023479709566915436,0.09710254654607277,40.106058693909645,-92.24360919585227,80.21211738781929
2024-09-23 16:39:39.268552,42.1,35.825694,-0.0031339382481259063,-0.023181236725942318,0.09640611396773996,36.09446859390736,-92.24360919585227,80.21211738781929
2024-09-23 16:39:39.311323,42.1,35.825745,-0.0031339382481259063,-0.022833026512682618,0.09715228999426605,36.09446859390736,-92.24360919585227,80.21211738781929
2024-09-23 16:39:39.353425,42.1,35.825745,-0.0031339382481259063,-0.022833026512682618,0.09715228999426605,36.09446859390736,-96.25519929585457,80.21211738781929
2024-09-23 16:39:39.365145,42.1,35.825796,-0.0030841997366068195,-0.023429960042815445,0.09715228999426605,36.09446859390736,-96.25519929585457,80.21211738781929
2024-09-23 16:39:39.407850,42.1,35.825796,-0.0030841997366068195,-0.023429960042815445,0.09685382322919964,44.11764879391193,-104.27510100388527,80.21211738781929
2024-09-23 16:39:39.419496,42.1,35.825846,-0.0029349636958644295,-0.023429960042815445,0.09685382322919964,44.11764879391193,-104.27510100388527,80.21211738781929
2024-09-23 16:39:39.452137,42.1,35.825846,-0.0029349636958644295,-0.02397715620066169,0.09710254654607277,44.11764879391193,-104.27510100388527,80.21211738781929
2024-09-23 16:39:39.463691,42.1,35.825933,-0.0029349636958644295,-0.02397715620066169,0.09710254654607277,44.11764879391193,-100.26678939585686,76.200527287817
2024-09-23 16:39:39.506221,42.1,35.825933,-0.0030344509719951677,-0.023479709566915436,0.0970030596496862,44.11764879391193,-100.26678939585686,80.21211738781929
2024-09-23 16:39:39.549568,42.1,35.825985,-0.0033329230534799477,-0.023479709566915436,0.0970030596496862,44.11764879391193,-100.26678939585686,80.21211738781929
2024-09-23 16:39:39.560506,42.1,35.825985,-0.0033329230534799477,-0.02263404056809607,0.09779897304849887,40.106058693909645,-96.25519929585457,80.21211738781929
2024-09-23 16:39:39.603570,42.1,35.826035,-0.0032831742888682963,-0.02338022115155219,0.09715228999426605,36.09446859390736,-96.25519929585457,76.200527287817
2024-09-23 16:39:39.647325,42.1,35.826035,-0.0032831742888682963,-0.02338022115155219,0.09715228999426605,36.09446859390736,-96.25519929585457,80.21211738781929
