Ayaan's Suite
Timestamp,Sample Rate (Hz),Time,Ax,Ay,Az,Gx,Gy,Gz
2024-09-23 12:47:15.322577,0,21.881379,-0.003631395514708897,-0.023579196463302005,0.09740101331113918,32.08287849390507,-100.26678939585686,80.21211738781929
2024-09-23 12:47:15.357640,0,21.881431,-0.0030344509719951677,-0.023579196463302005,0.09740101331113918,32.08287849390507,-100.26678939585686,80.21211738781929
2024-09-23 12:47:15.369007,0,21.881431,-0.0030344509719951677,-0.02352945757203875,0.09680407370509965,28.07457030097246,-104.27510100388527,80.21211738781929
2024-09-23 12:47:15.411716,0,21.881482,-0.0031339382481259063,-0.023579196463302005,0.09680407370509965,28.07457030097246,-104.27510100388527,76.200527287817
2024-09-23 12:47:15.454613,0,21.881482,-0.0031339382481259063,-0.023579196463302005,0.09745075675933246,32.08287849390507,-104.27510100388527,76.200527287817
2024-09-23 12:47:15.465653,0,21.881532,-0.0031339382481259063,-0.023579196463302005,0.09745075675933246,32.08287849390507,-100.26678939585686,84.22370748782159
2024-09-23 12:47:15.508825,0,21.881532,-0.0030841997366068195,-0.023927417309398437,0.09725178296655933,32.08287849390507,-100.26678939585686,84.22370748782159
2024-09-23 12:47:15.521029,0,21.881532,-0.0030841997366068195,-0.023927417309398437,0.09725178296655933,32.08287849390507,-100.26678939585686,80.21211738781929
2024-09-23 12:47:15.554681,0,21.881625,-0.003233425524256645,-0.02338022115155219,0.09725178296655933,32.08287849390507,-100.26678939585686,80.21211738781929
2024-09-23 12:47:15.565931,0,21.881625,-0.003233425524256645,-0.02338022115155219,0.09695331012558621,40.106058693909645,-96.25519929585457,80.21211738781929
2024-09-23 12:47:15.608777,0,21.881676,-0.0036811340262279837,-0.02308174982955575,0.09750050628343246,40.106058693909645,-96.25519929585457,76.200527287817
2024-09-23 12:47:15.650221,0,21.881676,-0.0036811340262279837,-0.02308174982955575,0.09750050628343246,40.106058693909645,-92.24360919585227,84.22370748782159
2024-09-23 12:47:15.661672,0,21.881769,-0.0028354659767690416,-0.022982261414192504,0.09675432418099966,40.106058693909645,-92.24360919585227,84.22370748782159
2024-09-23 12:47:15.704670,0,21.881821,-0.0029349636958644295,-0.022982261414192504,0.09675432418099966,40.106058693909645,-100.26678939585686,80.21211738781929
2024-09-23 12:47:15.716401,0,21.881821,-0.0029349636958644295,-0.02338022115155219,0.09675432418099966,40.106058693909645,-100.26678939585686,80.21211738781929
2024-09-23 12:47:15.748001,0,21.881821,-0.0029349636958644295,-0.02338022115155219,0.09695331012558621,28.07457030097246,-100.26678939585686,80.21211738781929
2024-09-23 12:47:15.759353,0,21.881872,-0.0038303700669703737,-0.02338022115155219,0.09695331012558621,28.07457030097246,-104.27510100388527,76.200527287817
2024-09-23 12:47:15.802297,0,21.881964,-0.0038303700669703737,-0.023181236725942318,0.09670458680871308,40.106058693909645,-100.26678939585686,80.21211738781929
2024-09-23 12:47:15.844610,0,21.881964,-0.003233425524256645,-0.02362894446842532,0.09670458680871308,40.106058693909645,-100.26678939585686,80.21211738781929
2024-09-23 12:47:15.856219,0,21.881964,-0.003233425524256645,-0.02362894446842532,0.09690356060148622,36.09446859390736,-104.27510100388527,80.21211738781929
2024-09-23 12:47:15.899300,0,21.882017,-0.0033329230534799477,-0.02338022115155219,0.09740101331113918,28.07457030097246,-104.27510100388527,80.21211738781929
2024-09-23 12:47:15.910849,0,21.882017,-0.0033329230534799477,-0.02338022115155219,0.09740101331113918,28.07457030097246,-104.27510100388527,80.21211738781929
2024-09-23 12:47:15.942880,0,21.882067,-0.0033329230534799477,-0.02338022115155219,0.09740101331113918,28.07457030097246,-104.27510100388527,76.200527287817
2024-09-23 12:47:15.954103,0,21.882067,-0.003382661564999035,-0.023479709566915436,0.09675432418099966,24.06297849342227,-104.27510100388527,76.200527287817
2024-09-23 12:47:15.995813,0,21.882067,-0.003382661564999035,-0.023479709566915436,0.09675432418099966,24.06297849342227,-104.27510100388527,80.21211738781929
2024-09-23 12:47:16.038404,0,21.882118,-0.003382661564999035,-0.023479709566915436,0.09675432418099966,24.06297849342227,-104.27510100388527,80.21211738781929
2024-09-23 12:47:16.051417,0,21.882118,-0.0034324103296106863,-0.023181236725942318,0.09680407370509965,36.09446859390736,-96.25519929585457,80.21211738781929
2024-09-23 12:47:16.093922,0,21.882169,-0.0038303700669703737,-0.022982261414192504,0.09725178296655933,36.09446859390736,-96.25519929585457,76.200527287817
2024-09-23 12:47:16.106020,0,21.882169,-0.0038303700669703737,-0.022982261414192504,0.09725178296655933,36.09446859390736,-96.25519929585457,76.200527287817
2024-09-23 12:47:16.138478,0,21.882219,-0.0038303700669703737,-0.022982261414192504,0.09725178296655933,36.09446859390736,-100.26678939585686,72.1922225099802
2024-09-23 12:47:16.149574,0,21.882219,-0.0030841997366068195,-0.023728432883788564,0.0973015264147526,36.09446859390736,-100.26678939585686,72.1922225099802
2024-09-23 12:47:16.193173,0,21.882306,-0.003382661564999035,-0.023230986250042305,0.0973015264147526,36.09446859390736,-96.25519929585457,80.21211738781929
2024-09-23 12:47:16.286945,0,21.882306,-0.003382661564999035,-0.023230986250042305,0.09710254654607277,40.106058693909645,-104.27510100388527,76.200527287817
2024-09-23 12:47:16.299980,0,21.882356,-0.0032831742888682963,-0.023230986250042305,0.09710254654607277,40.106058693909645,-104.27510100388527,76.200527287817
2024-09-23 12:47:16.332616,42.09,21.882356,-0.0032831742888682963,-0.022733528983459317,0.09695331012558621,40.106058693909645,-104.27510100388527,76.200527287817
2024-09-23 12:47:16.343825,42.09,21.882452,-0.0032831742888682963,-0.022733528983459317,0.09695331012558621,40.106058693909645,-104.27510100388527,80.21211738781929
2024-09-23 12:47:16.386559,42.09,21.882452,-0.0027359787006383035,-0.02303200030545576,0.09690356060148622,44.11764879391193,-96.25519929585457,80.21211738781929
2024-09-23 12:47:16.398886,42.09,21.882452,-0.0027359787006383035,-0.02303200030545576,0.09690356060148622,44.11764879391193,-96.25519929585457,72.1922225099802
2024-09-23 12:47:16.431554,42.09,21.882504,-0.0035816467500972456,-0.023280723622328886,0.09690356060148622,44.11764879391193,-96.25519929585457,72.1922225099802
2024-09-23 12:47:16.442647,42.09,21.882504,-0.0035816467500972456,-0.023280723622328886,0.09705279702197278,36.09446859390736,-92.24360919585227,72.1922225099802
2024-09-23 12:47:16.485105,42.09,21.882554,-0.0033329230534799477,-0.02308174982955575,0.09710254654607277,28.07457030097246,-92.24360919585227,80.21211738781929
2024-09-23 12:47:16.527628,42.09,21.882554,-0.0033329230534799477,-0.02308174982955575,0.09710254654607277,28.07457030097246,-100.26678939585686,80.21211738781929
2024-09-23 12:47:16.539759,42.09,21.882649,-0.003631395514708897,-0.02367869399252531,0.0970030596496862,28.07457030097246,-100.26678939585686,80.21211738781929
2024-09-23 12:47:16.583734,42.09,21.882699,-0.0034324103296106863,-0.023927417309398437,0.0970030596496862,40.106058693909645,-100.26678939585686,76.200527287817
2024-09-23 12:47:16.626002,42.09,21.882699,-0.0034324103296106863,-0.023927417309398437,0.09680407370509965,44.11764879391193,-100.26678939585686,76.200527287817
2024-09-23 12:47:16.637557,42.09,21.88275,-0.0029349636958644295,-0.023927417309398437,0.09680407370509965,44.11764879391193,-100.26678939585686,76.200527287817
2024-09-23 12:47:16.680992,42.09,21.882842,-0.0029349636958644295,-0.02278327698858263,0.09715228999426605,44.11764879391193,-96.25519929585457,84.22370748782159
2024-09-23 12:47:16.723540,42.09,21.882842,-0.003382661564999035,-0.02338022115155219,0.09710254654607277,44.11764879391193,-96.25519929585457,84.22370748782159
2024-09-23 12:47:16.734553,42.09,21.882842,-0.003382661564999035,-0.02338022115155219,0.09710254654607277,24.06297849342227,-100.26678939585686,84.22370748782159
2024-09-23 12:47:16.777076,42.09,21.882894,-0.002288270198666964,-0.023280723622328886,0.09725178296655933,36.09446859390736,-92.24360919585227,84.22370748782159
2024-09-23 12:47:16.821254,42.09,21.882944,-0.0034324103296106863,-0.023280723622328886,0.09725178296655933,36.09446859390736,-92.24360919585227,80.21211738781929
2024-09-23 12:47:16.833477,42.09,21.882944,-0.0034324103296106863,-0.023429960042815445,0.09740101331113918,28.07457030097246,-92.24360919585227,80.21211738781929
2024-09-23 12:47:16.876337,42.09,21.882995,-0.003382661564999035,-0.023230986250042305,0.09725178296655933,28.07457030097246,-96.25519929585457,80.21211738781929
2024-09-23 12:47:16.919140,42.09,21.882995,-0.003382661564999035,-0.023230986250042305,0.09725178296655933,32.08287849390507,-96.25519929585457,88.23529758782387
2024-09-23 12:47:16.931183,42.09,21.883045,-0.0031339382481259063,-0.02308174982955575,0.09725178296655933,32.08287849390507,-96.25519929585457,88.23529758782387
2024-09-23 12:47:16.974519,42.09,21.883096,-0.0033329230534799477,-0.02308174982955575,0.09715228999426605,36.09446859390736,-88.23529758782387,84.22370748782159
2024-09-23 12:47:17.016692,42.09,21.883096,-0.0033329230534799477,-0.023181236725942318,0.09690356060148622,40.106058693909645,-88.23529758782387,84.22370748782159
2024-09-23 12:47:17.028428,42.09,21.883183,-0.0033329230534799477,-0.023181236725942318,0.09690356060148622,40.106058693909645,-100.26678939585686,76.200527287817
2024-09-23 12:47:17.071284,42.09,21.883183,-0.0031836870127375577,-0.023778180888911878,0.09779897304849887,40.106058693909645,-100.26678939585686,76.200527287817
2024-09-23 12:47:17.113052,42.09,21.883235,-0.0031836870127375577,-0.023778180888911878,0.09779897304849887,40.106058693909645,-100.26678939585686,76.200527287817
2024-09-23 12:47:17.166900,42.09,21.883235,-0.0027359787006383035,-0.02338022115155219,0.09740101331113918,32.08287849390507,-100.26678939585686,76.200527287817
2024-09-23 12:47:17.178663,42.09,21.883235,-0.0027359787006383035,-0.02338022115155219,0.09740101331113918,32.08287849390507,-104.27510100388527,76.200527287817
2024-09-23 12:47:17.211807,42.09,21.883285,-0.0036811340262279837,-0.02313149783467906,0.09740101331113918,32.08287849390507,-104.27510100388527,76.200527287817
2024-09-23 12:47:17.223259,42.09,21.883285,-0.0036811340262279837,-0.02313149783467906,0.0973512698629459,32.08287849390507,-100.26678939585686,76.200527287817
2024-09-23 12:47:17.265817,42.09,21.883336,-0.0037308827908396356,-0.023280723622328886,0.09715228999426605,40.106058693909645,-100.26678939585686,80.21211738781929
2024-09-23 12:47:17.308633,42.09,21.883387,-0.0037308827908396356,-0.023280723622328886,0.09715228999426605,40.106058693909645,-96.25519929585457,80.21211738781929
2024-09-23 12:47:17.320808,42.09,21.883387,-0.0035318979854855937,-0.023330473146428877,0.09675432418099966,40.106058693909645,-96.25519929585457,80.21211738781929
2024-09-23 12:47:17.363451,40.93,21.883437,-0.0029847020175114316,-0.023230986250042305,0.09675432418099966,40.106058693909645,-100.26678939585686,80.21211738781929
2024-09-23 12:47:17.406948,40.93,21.883437,-0.0029847020175114316,-0.023230986250042305,0.09710254654607277,28.07457030097246,-96.25519929585457,80.21211738781929
2024-09-23 12:47:17.418265,40.93,21.883527,-0.003233425524256645,-0.023230986250042305,0.09710254654607277,28.07457030097246,-96.25519929585457,80.21211738781929
2024-09-23 12:47:17.460953,40.93,21.883622,-0.003233425524256645,-0.022833026512682618,0.09725178296655933,36.09446859390736,-100.26678939585686,72.1922225099802
2024-09-23 12:47:17.504389,40.93,21.883622,-0.0029847020175114316,-0.02313149783467906,0.09690356060148622,36.09446859390736,-100.26678939585686,72.1922225099802
2024-09-23 12:47:17.515934,40.93,21.883622,-0.0029847020175114316,-0.02313149783467906,0.09690356060148622,40.106058693909645,-96.25519929585457,80.21211738781929
2024-09-23 12:47:17.558241,40.93,21.883674,-0.0034324103296106863,-0.02362894446842532,0.09665483728461309,32.08287849390507,-92.24360919585227,80.21211738781929
2024-09-23 12:47:17.601847,40.93,21.883725,-0.0033329230534799477,-0.02362894446842532,0.09665483728461309,32.08287849390507,-92.24360919585227,88.23529758782387
2024-09-23 12:47:17.613446,40.93,21.883725,-0.0033329230534799477,-0.023479709566915436,0.09710254654607277,40.106058693909645,-92.24360919585227,88.23529758782387
2024-09-23 12:47:17.657080,40.93,21.883776,-0.0030841997366068195,-0.023728432883788564,0.09695331012558621,40.106058693909645,-100.26678939585686,84.22370748782159
2024-09-23 12:47:17.699738,40.93,21.883776,-0.0030841997366068195,-0.023728432883788564,0.09695331012558621,36.09446859390736,-100.26678939585686,80.21211738781929
2024-09-23 12:47:17.711390,40.93,21.883826,-0.003482159473966507,-0.023181236725942318,0.09695331012558621,36.09446859390736,-100.26678939585686,80.21211738781929
2024-09-23 12:47:17.754617,40.93,21.883877,-0.0036811340262279837,-0.023181236725942318,0.09665483728461309,40.106058693909645,-100.26678939585686,80.21211738781929
2024-09-23 12:47:17.797038,40.93,21.883877,-0.0036811340262279837,-0.023877669304275123,0.0973015264147526,40.106058693909645,-100.26678939585686,80.21211738781929
2024-09-23 12:47:17.808556,40.93,21.883963,-0.0036811340262279837,-0.023877669304275123,0.0973015264147526,40.106058693909645,-100.26678939585686,80.21211738781929
2024-09-23 12:47:17.851476,40.93,21.883963,-0.0030841997366068195,-0.023230986250042305,0.09755024973162574,36.09446859390736,-92.24360919585227,80.21211738781929
2024-09-23 12:47:17.894206,40.93,21.884015,-0.003780631555451287,-0.023429960042815445,0.09755024973162574,36.09446859390736,-92.24360919585227,80.21211738781929
2024-09-23 12:47:17.905562,40.93,21.884015,-0.003780631555451287,-0.023429960042815445,0.09650560086412653,36.09446859390736,-92.24360919585227,80.21211738781929
2024-09-23 12:47:17.948620,40.93,21.884065,-0.0031836870127375577,-0.022833026512682618,0.09695331012558621,44.11764879391193,-92.24360919585227,80.21211738781929
2024-09-23 12:47:17.991529,40.93,21.884116,-0.0031836870127375577,-0.022833026512682618,0.09695331012558621,44.11764879391193,-100.26678939585686,80.21211738781929
2024-09-23 12:47:18.002764,40.93,21.884116,-0.0030841997366068195,-0.02352945757203875,0.09725178296655933,44.11764879391193,-100.26678939585686,80.21211738781929
2024-09-23 12:47:18.045823,40.93,21.884167,-0.0029349636958644295,-0.02362894446842532,0.09725178296655933,40.106058693909645,-100.26678939585686,76.200527287817
2024-09-23 12:47:18.087893,40.93,21.884167,-0.0029349636958644295,-0.02362894446842532,0.09715228999426605,36.09446859390736,-100.26678939585686,76.200527287817
2024-09-23 12:47:18.100171,40.93,21.884217,-0.0029349636958644295,-0.02362894446842532,0.09715228999426605,36.09446859390736,-96.25519929585457,76.200527287817
2024-09-23 12:47:18.142571,40.93,21.884217,-0.0029349636958644295,-0.023330473146428877,0.09720203344245934,48.12595698684454,-100.26678939585686,80.21211738781929
2024-09-23 12:47:18.154107,40.93,21.884305,-0.0029349636958644295,-0.023330473146428877,0.09720203344245934,48.12595698684454,-100.26678939585686,80.21211738781929
2024-09-23 12:47:18.187054,40.93,21.884305,-0.0030344509719951677,-0.02338022115155219,0.0970030596496862,48.12595698684454,-100.26678939585686,80.21211738781929
2024-09-23 12:47:18.198099,40.93,21.884305,-0.0030344509719951677,-0.02338022115155219,0.0970030596496862,32.08287849390507,-112.29828120388984,68.18063240997792
2024-09-23 12:47:18.241774,40.93,21.884356,-0.003233425524256645,-0.02338022115155219,0.09710254654607277,32.08287849390507,-100.26678939585686,68.18063240997792
2024-09-23 12:47:18.336096,40.93,21.884407,-0.003780631555451287,-0.023330473146428877,0.09789846602079214,32.08287849390507,-100.26678939585686,76.200527287817
2024-09-23 12:47:18.348301,40.93,21.884407,-0.003780631555451287,-0.023330473146428877,0.09789846602079214,36.09446859390736,-100.26678939585686,76.200527287817
2024-09-23 12:47:18.382089,40.05,21.884407,-0.003780631555451287,-0.023330473146428877,0.09789846602079214,36.09446859390736,-96.25519929585457,76.200527287817
2024-09-23 12:47:18.393965,40.05,21.884457,-0.003631395514708897,-0.02362894446842532,0.09710254654607277,36.09446859390736,-96.25519929585457,76.200527287817
2024-09-23 12:47:18.437089,40.05,21.884508,-0.003631395514708897,-0.023728432883788564,0.09710254654607277,44.11764879391193,-96.25519929585457,80.21211738781929
2024-09-23 12:47:18.480868,40.05,21.884508,-0.003631395514708897,-0.023728432883788564,0.09715228999426605,24.06297849342227,-96.25519929585457,76.200527287817
2024-09-23 12:47:18.491825,40.05,21.884559,-0.0030344509719951677,-0.023728432883788564,0.09715228999426605,24.06297849342227,-96.25519929585457,76.200527287817
2024-09-23 12:47:18.526700,40.05,21.884559,-0.0030344509719951677,-0.02338022115155219,0.09675432418099966,24.06297849342227,-96.25519929585457,76.200527287817
2024-09-23 12:47:18.537840,40.05,21.884646,-0.0030344509719951677,-0.02338022115155219,0.09675432418099966,40.106058693909645,-92.24360919585227,76.200527287817
2024-09-23 12:47:18.580226,40.05,21.884646,-0.0029847020175114316,-0.02293251340906919,0.09745075675933246,36.09446859390736,-100.26678939585686,76.200527287817
2024-09-23 12:47:18.591910,40.05,21.884646,-0.0029847020175114316,-0.02293251340906919,0.09745075675933246,36.09446859390736,-100.26678939585686,80.21211738781929
2024-09-23 12:47:18.623856,40.05,21.884744,-0.0036811340262279837,-0.02293251340906919,0.09745075675933246,36.09446859390736,-100.26678939585686,80.21211738781929
2024-09-23 12:47:18.635688,40.05,21.884744,-0.0036811340262279837,-0.023230986250042305,0.09759999317981902,32.08287849390507,-108.28669110388756,80.21211738781929
2024-09-23 12:47:18.677640,40.05,21.884795,-0.0031836870127375577,-0.023479709566915436,0.0970030596496862,32.08287849390507,-108.28669110388756,76.200527287817
2024-09-23 12:47:18.689826,40.05,21.884795,-0.0031836870127375577,-0.023479709566915436,0.0970030596496862,36.09446859390736,-108.28669110388756,76.200527287817
2024-09-23 12:47:18.722053,40.05,21.884795,-0.0031836870127375577,-0.023479709566915436,0.0970030596496862,36.09446859390736,-104.27510100388527,76.200527287817
2024-09-23 12:47:18.733172,40.05,21.884846,-0.0030841997366068195,-0.023330473146428877,0.0970030596496862,36.09446859390736,-104.27510100388527,76.200527287817
2024-09-23 12:47:18.776047,40.05,21.884897,-0.0028354659767690416,-0.02338022115155219,0.0970030596496862,36.09446859390736,-96.25519929585457,80.21211738781929
2024-09-23 12:47:18.818511,40.05,21.884897,-0.0028354659767690416,-0.02338022115155219,0.09705279702197278,40.106058693909645,-96.25519929585457,80.21211738781929
2024-09-23 12:47:18.830188,40.05,21.884947,-0.003780631555451287,-0.02338022115155219,0.09705279702197278,40.106058693909645,-96.25519929585457,76.200527287817
2024-09-23 12:47:18.872931,40.05,21.884947,-0.003780631555451287,-0.023181236725942318,0.09750050628343246,44.11764879391193,-100.26678939585686,80.21211738781929
2024-09-23 12:47:18.884597,40.05,21.885036,-0.003780631555451287,-0.023181236725942318,0.09750050628343246,44.11764879391193,-100.26678939585686,80.21211738781929
2024-09-23 12:47:18.916458,40.05,21.885036,-0.0029847020175114316,-0.023330473146428877,0.09750050628343246,44.11764879391193,-100.26678939585686,80.21211738781929
2024-09-23 12:47:18.927647,40.05,21.885036,-0.0029847020175114316,-0.023330473146428877,0.09680407370509965,36.09446859390736,-96.25519929585457,76.200527287817
2024-09-23 12:47:18.971413,40.05,21.885087,-0.0031339382481259063,-0.02313149783467906,0.09705279702197278,40.106058693909645,-96.25519929585457,76.200527287817
2024-09-23 12:47:19.014138,40.05,21.885138,-0.0031339382481259063,-0.02313149783467906,0.09705279702197278,40.106058693909645,-96.25519929585457,76.200527287817
2024-09-23 12:47:19.025876,40.05,21.885138,-0.0028354659767690416,-0.023230986250042305,0.09720203344245934,32.08287849390507,-96.25519929585457,76.200527287817
2024-09-23 12:47:19.068819,40.05,21.885189,-0.0029349636958644295,-0.023181236725942318,0.09695331012558621,32.08287849390507,-96.25519929585457,80.21211738781929
2024-09-23 12:47:19.112184,40.05,21.885189,-0.0029349636958644295,-0.023181236725942318,0.09695331012558621,36.09446859390736,-96.25519929585457,80.21211738781929
2024-09-23 12:47:19.123172,40.05,21.88524,-0.0035318979854855937,-0.023230986250042305,0.09695331012558621,36.09446859390736,-96.25519929585457,80.21211738781929
2024-09-23 12:47:19.165371,40.05,21.88529,-0.0035318979854855937,-0.023230986250042305,0.0970030596496862,40.106058693909645,-96.25519929585457,80.21211738781929
2024-09-23 12:47:19.177364,40.05,21.88529,-0.0036811340262279837,-0.023230986250042305,0.0970030596496862,40.106058693909645,-96.25519929585457,80.21211738781929
2024-09-23 12:47:19.209909,40.05,21.88529,-0.0036811340262279837,-0.023330473146428877,0.0976994861521123,40.106058693909645,-96.25519929585457,80.21211738781929
2024-09-23 12:47:19.221064,40.05,21.885377,-0.0036811340262279837,-0.023330473146428877,0.0976994861521123,40.106058693909645,-100.26678939585686,80.21211738781929
2024-09-23 12:47:19.263205,40.05,21.885377,-0.0034324103296106863,-0.023579196463302005,0.09710254654607277,44.11764879391193,-92.24360919585227,80.21211738781929
2024-09-23 12:47:19.274823,40.05,21.885377,-0.0034324103296106863,-0.023579196463302005,0.09710254654607277,44.11764879391193,-92.24360919585227,80.21211738781929
2024-09-23 12:47:19.357888,40.05,21.885429,-0.0032831742888682963,-0.023429960042815445,0.09695331012558621,44.11764879391193,-92.24360919585227,80.21211738781929
2024-09-23 12:47:19.373879,40.05,21.885429,-0.0032831742888682963,-0.023429960042815445,0.09695331012558621,36.09446859390736,-96.25519929585457,80.21211738781929
2024-09-23 12:47:19.406640,40.78,21.885479,-0.0036811340262279837,-0.023429960042815445,0.09695331012558621,36.09446859390736,-96.25519929585457,72.1922225099802
2024-09-23 12:47:19.419260,40.78,21.885479,-0.0036811340262279837,-0.02352945757203875,0.09720203344245934,36.09446859390736,-96.25519929585457,72.1922225099802
2024-09-23 12:47:19.452777,40.78,21.885479,-0.0036811340262279837,-0.02352945757203875,0.09720203344245934,36.09446859390736,-100.26678939585686,72.1922225099802
2024-09-23 12:47:19.464014,40.78,21.88553,-0.0029847020175114316,-0.02308174982955575,0.09720203344245934,36.09446859390736,-100.26678939585686,76.200527287817
2024-09-23 12:47:19.507559,40.78,21.88553,-0.0029847020175114316,-0.02308174982955575,0.09710254654607277,36.09446859390736,-100.26678939585686,76.200527287817
2024-09-23 12:47:19.550838,40.78,21.88553,-0.0029847020175114316,-0.02308174982955575,0.09710254654607277,40.106058693909645,-100.26678939585686,76.200527287817
2024-09-23 12:47:19.562226,40.78,21.885581,-0.0031339382481259063,-0.023479709566915436,0.09710254654607277,40.106058693909645,-100.26678939585686,80.21211738781929
2024-09-23 12:47:19.605965,40.78,21.885631,-0.0028354659767690416,-0.023479709566915436,0.09685382322919964,36.09446859390736,-104.27510100388527,76.200527287817
2024-09-23 12:47:19.649628,40.78,21.885631,-0.0028354659767690416,-0.023181236725942318,0.09690356060148622,32.08287849390507,-104.27510100388527,76.200527287817
2024-09-23 12:47:19.660776,40.78,21.885767,-0.0028354659767690416,-0.023181236725942318,0.09690356060148622,32.08287849390507,-92.24360919585227,72.1922225099802
2024-09-23 12:47:19.703762,40.78,21.885767,-0.003233425524256645,-0.023479709566915436,0.09755024973162574,32.08287849390507,-96.25519929585457,80.21211738781929
2024-09-23 12:47:19.746006,40.78,21.885819,-0.0037308827908396356,-0.02367869399252531,0.09755024973162574,32.08287849390507,-96.25519929585457,80.21211738781929
2024-09-23 12:47:19.758195,40.78,21.885819,-0.0037308827908396356,-0.02367869399252531,0.0973512698629459,40.106058693909645,-96.25519929585457,80.21211738781929
2024-09-23 12:47:19.800705,40.78,21.885914,-0.0032831742888682963,-0.022833026512682618,0.09715228999426605,28.07457030097246,-96.25519929585457,80.21211738781929
2024-09-23 12:47:19.843982,40.78,21.885965,-0.0032831742888682963,-0.022833026512682618,0.09715228999426605,28.07457030097246,-92.24360919585227,84.22370748782159
2024-09-23 12:47:19.855536,40.78,21.885965,-0.0026862297461545674,-0.02338022115155219,0.09710254654607277,28.07457030097246,-92.24360919585227,84.22370748782159
2024-09-23 12:47:19.897932,40.78,21.886016,-0.003233425524256645,-0.02352945757203875,0.09710254654607277,44.11764879391193,-96.25519929585457,68.18063240997792
2024-09-23 12:47:19.940182,40.78,21.886016,-0.003233425524256645,-0.02352945757203875,0.09710254654607277,36.09446859390736,-96.25519929585457,68.18063240997792
2024-09-23 12:47:19.951663,40.78,21.886067,-0.003233425524256645,-0.02352945757203875,0.09710254654607277,36.09446859390736,-100.26678939585686,76.200527287817
2024-09-23 12:47:19.993813,40.78,21.886067,-0.003233425524256645,-0.02338022115155219,0.09675432418099966,44.11764879391193,-92.24360919585227,80.21211738781929
2024-09-23 12:47:20.005838,40.78,21.886157,-0.003233425524256645,-0.02338022115155219,0.09675432418099966,44.11764879391193,-92.24360919585227,80.21211738781929
2024-09-23 12:47:20.038714,40.78,21.886157,-0.0038303700669703737,-0.02313149783467906,0.09665483728461309,44.11764879391193,-92.24360919585227,80.21211738781929
2024-09-23 12:47:20.049745,40.78,21.886157,-0.0038303700669703737,-0.02313149783467906,0.09665483728461309,40.106058693909645,-96.25519929585457,88.23529758782387
2024-09-23 12:47:20.092575,40.78,21.886209,-0.003233425524256645,-0.02313149783467906,0.0973015264147526,32.08287849390507,-88.23529758782387,88.23529758782387
2024-09-23 12:47:20.186497,40.78,21.886259,-0.0031339382481259063,-0.02313149783467906,0.0973015264147526,32.08287849390507,-88.23529758782387,84.22370748782159
2024-09-23 12:47:20.198798,40.78,21.886259,-0.0031339382481259063,-0.023579196463302005,0.09685382322919964,36.09446859390736,-88.23529758782387,84.22370748782159
2024-09-23 12:47:20.231705,40.78,21.886259,-0.0031339382481259063,-0.023579196463302005,0.09685382322919964,36.09446859390736,-96.25519929585457,84.22370748782159
2024-09-23 12:47:20.243626,40.78,21.88631,-0.003382661564999035,-0.02352945757203875,0.09750050628343246,36.09446859390736,-96.25519929585457,80.21211738781929
2024-09-23 12:47:20.286627,40.78,21.88636,-0.0037308827908396356,-0.02352945757203875,0.09750050628343246,44.11764879391193,-104.27510100388527,72.1922225099802
2024-09-23 12:47:20.298712,40.78,21.88636,-0.0037308827908396356,-0.02338022115155219,0.09750050628343246,44.11764879391193,-104.27510100388527,72.1922225099802
2024-09-23 12:47:20.331660,40.78,21.88636,-0.0037308827908396356,-0.02338022115155219,0.0973015264147526,40.106058693909645,-104.27510100388527,72.1922225099802
2024-09-23 12:47:20.343317,40.78,21.886411,-0.0028852147413806935,-0.02338022115155219,0.0973015264147526,40.106058693909645,-104.27510100388527,76.200527287817
2024-09-23 12:47:20.385979,40.78,21.886498,-0.0028852147413806935,-0.0228827638849692,0.09740101331113918,40.106058693909645,-100.26678939585686,80.21211738781929
2024-09-23 12:47:20.428341,40.45,21.886498,-0.0028354659767690416,-0.023579196463302005,0.09740101331113918,40.106058693909645,-100.26678939585686,80.21211738781929
2024-09-23 12:47:20.439891,40.45,21.886498,-0.0028354659767690416,-0.023579196463302005,0.0973512698629459,32.08287849390507,-104.27510100388527,80.21211738781929
2024-09-23 12:47:20.483423,40.45,21.886596,-0.0030344509719951677,-0.0228827638849692,0.0973512698629459,40.106058693909645,-104.27510100388527,80.21211738781929
2024-09-23 12:47:20.526365,40.45,21.886648,-0.0033329230534799477,-0.0228827638849692,0.0973512698629459,40.106058693909645,-104.27510100388527,84.22370748782159
2024-09-23 12:47:20.538202,40.45,21.886648,-0.0033329230534799477,-0.02268379009219606,0.0973512698629459,28.07457030097246,-104.27510100388527,84.22370748782159
2024-09-23 12:47:20.581107,40.45,21.886698,-0.0031836870127375577,-0.023429960042815445,0.09725178296655933,28.07457030097246,-92.24360919585227,84.22370748782159
2024-09-23 12:47:20.624310,40.45,21.886698,-0.0031836870127375577,-0.023429960042815445,0.09725178296655933,32.08287849390507,-104.27510100388527,72.1922225099802
2024-09-23 12:47:20.635702,40.45,21.886749,-0.0034324103296106863,-0.023181236725942318,0.09725178296655933,32.08287849390507,-104.27510100388527,72.1922225099802
2024-09-23 12:47:20.677650,40.45,21.8868,-0.0030344509719951677,-0.023181236725942318,0.09710254654607277,40.106058693909645,-96.25519929585457,80.21211738781929
2024-09-23 12:47:20.721769,40.45,21.8868,-0.0030344509719951677,-0.023827930413011865,0.09710254654607277,28.07457030097246,-96.25519929585457,80.21211738781929
2024-09-23 12:47:20.733449,40.45,21.886888,-0.0030344509719951677,-0.023827930413011865,0.09710254654607277,28.07457030097246,-100.26678939585686,80.21211738781929
2024-09-23 12:47:20.775847,40.45,21.886888,-0.0029349636958644295,-0.023330473146428877,0.09745075675933246,36.09446859390736,-100.26678939585686,80.21211738781929
2024-09-23 12:47:20.817787,40.45,21.88694,-0.0031836870127375577,-0.023330473146428877,0.09745075675933246,36.09446859390736,-100.26678939585686,80.21211738781929
2024-09-23 12:47:20.829912,40.45,21.88694,-0.0031836870127375577,-0.023429960042815445,0.09620712802315341,36.09446859390736,-96.25519929585457,80.21211738781929
2024-09-23 12:47:20.873633,40.45,21.88699,-0.003233425524256645,-0.02362894446842532,0.09675432418099966,32.08287849390507,-96.25519929585457,76.200527287817
2024-09-23 12:47:20.916794,40.45,21.887041,-0.003233425524256645,-0.02362894446842532,0.09675432418099966,32.08287849390507,-92.24360919585227,80.21211738781929
2024-09-23 12:47:20.928480,40.45,21.887041,-0.0032831742888682963,-0.02367869399252531,0.09695331012558621,32.08287849390507,-92.24360919585227,80.21211738781929
2024-09-23 12:47:20.971190,40.45,21.887092,-0.003382661564999035,-0.02303200030545576,0.09695331012558621,28.07457030097246,-92.24360919585227,84.22370748782159
2024-09-23 12:47:21.013557,40.45,21.887092,-0.003382661564999035,-0.02303200030545576,0.09764974270391902,32.08287849390507,-88.23529758782387,84.22370748782159
2024-09-23 12:47:21.024692,40.45,21.887143,-0.0028852147413806935,-0.02303200030545576,0.09764974270391902,32.08287849390507,-88.23529758782387,92.24360919585227
2024-09-23 12:47:21.067254,40.45,21.88723,-0.0028852147413806935,-0.02263404056809607,0.09705279702197278,32.08287849390507,-96.25519929585457,80.21211738781929
2024-09-23 12:47:21.111152,40.45,21.88723,-0.003382661564999035,-0.023330473146428877,0.09645586349183995,32.08287849390507,-96.25519929585457,80.21211738781929
2024-09-23 12:47:21.122879,40.45,21.88723,-0.003382661564999035,-0.023330473146428877,0.09645586349183995,32.08287849390507,-104.27510100388527,76.200527287817
2024-09-23 12:47:21.166191,40.45,21.887281,-0.0038801188315820256,-0.022982261414192504,0.09715228999426605,36.09446859390736,-104.27510100388527,76.200527287817
2024-09-23 12:47:21.177453,40.45,21.887281,-0.0038801188315820256,-0.022982261414192504,0.09715228999426605,36.09446859390736,-88.23529758782387,76.200527287817
2024-09-23 12:47:21.210432,40.45,21.887332,-0.0036811340262279837,-0.02303200030545576,0.09715228999426605,36.09446859390736,-88.23529758782387,80.21211738781929
2024-09-23 12:47:21.223345,40.45,21.887332,-0.0036811340262279837,-0.02303200030545576,0.09710254654607277,36.09446859390736,-88.23529758782387,80.21211738781929
2024-09-23 12:47:21.255194,40.45,21.887332,-0.0036811340262279837,-0.02303200030545576,0.09710254654607277,36.09446859390736,-92.24360919585227,80.21211738781929
2024-09-23 12:47:21.266183,40.45,21.887382,-0.003631395514708897,-0.022982261414192504,0.09715228999426605,36.09446859390736,-92.24360919585227,76.200527287817
2024-09-23 12:47:21.308676,40.45,21.887433,-0.003631395514708897,-0.022982261414192504,0.09715228999426605,36.09446859390736,-96.25519929585457,80.21211738781929
2024-09-23 12:47:21.321939,40.45,21.887433,-0.003482159473966507,-0.023230986250042305,0.09715228999426605,36.09446859390736,-96.25519929585457,80.21211738781929
2024-09-23 12:47:21.406479,40.45,21.887433,-0.003482159473966507,-0.023230986250042305,0.09720203344245934,36.09446859390736,-100.26678939585686,80.21211738781929
2024-09-23 12:47:21.417432,40.45,21.887484,-0.0029349636958644295,-0.023230986250042305,0.09720203344245934,36.09446859390736,-100.26678939585686,76.200527287817
2024-09-23 12:47:21.451714,40.55,21.887484,-0.0029349636958644295,-0.02313149783467906,0.09720203344245934,36.09446859390736,-100.26678939585686,76.200527287817
2024-09-23 12:47:21.464793,40.55,21.887571,-0.0029349636958644295,-0.02313149783467906,0.09710254654607277,36.09446859390736,-104.27510100388527,76.200527287817
2024-09-23 12:47:21.507740,40.55,21.887571,-0.0033329230534799477,-0.023280723622328886,0.09750050628343246,36.09446859390736,-100.26678939585686,76.200527287817
2024-09-23 12:47:21.549938,40.55,21.887622,-0.0037308827908396356,-0.023280723622328886,0.09750050628343246,36.09446859390736,-100.26678939585686,76.200527287817
2024-09-23 12:47:21.561154,40.55,21.887622,-0.0037308827908396356,-0.023280723622328886,0.09690356060148622,36.09446859390736,-100.26678939585686,76.200527287817
2024-09-23 12:47:21.603677,40.55,21.887673,-0.003382661564999035,-0.02367869399252531,0.09725178296655933,36.09446859390736,-100.26678939585686,80.21211738781929
2024-09-23 12:47:21.646384,40.55,21.887673,-0.003382661564999035,-0.02367869399252531,0.09725178296655933,36.09446859390736,-96.25519929585457,88.23529758782387
2024-09-23 12:47:21.657749,40.55,21.887768,-0.0032831742888682963,-0.022982261414192504,0.09665483728461309,36.09446859390736,-96.25519929585457,88.23529758782387
2024-09-23 12:47:21.702496,40.55,21.887818,-0.0037308827908396356,-0.02367869399252531,0.09665483728461309,32.08287849390507,-92.24360919585227,80.21211738781929
2024-09-23 12:47:21.745401,40.55,21.887818,-0.0037308827908396356,-0.02367869399252531,0.09740101331113918,44.11764879391193,-96.25519929585457,80.21211738781929
2024-09-23 12:47:21.757281,40.55,21.887869,-0.003233425524256645,-0.02367869399252531,0.09740101331113918,44.11764879391193,-96.25519929585457,84.22370748782159
2024-09-23 12:47:21.799964,40.55,21.887961,-0.003233425524256645,-0.02362894446842532,0.09725178296655933,32.08287849390507,-100.26678939585686,80.21211738781929
2024-09-23 12:47:21.842528,40.55,21.887961,-0.0033329230534799477,-0.02278327698858263,0.09645586349183995,32.08287849390507,-100.26678939585686,80.21211738781929
2024-09-23 12:47:21.853640,40.55,21.887961,-0.0033329230534799477,-0.02278327698858263,0.09645586349183995,32.08287849390507,-96.25519929585457,80.21211738781929
2024-09-23 12:47:21.895988,40.55,21.888012,-0.0031339382481259063,-0.02313149783467906,0.09715228999426605,40.106058693909645,-104.27510100388527,80.21211738781929
2024-09-23 12:47:21.939242,40.55,21.888063,-0.0031339382481259063,-0.02313149783467906,0.09715228999426605,40.106058693909645,-104.27510100388527,76.200527287817
2024-09-23 12:47:21.951408,40.55,21.888063,-0.0027359787006383035,-0.023181236725942318,0.09690356060148622,32.08287849390507,-104.27510100388527,76.200527287817
2024-09-23 12:47:21.994491,40.55,21.888114,-0.003382661564999035,-0.022982261414192504,0.09670458680871308,32.08287849390507,-96.25519929585457,80.21211738781929
2024-09-23 12:47:22.037872,40.55,21.888114,-0.003382661564999035,-0.022982261414192504,0.09670458680871308,32.08287849390507,-100.26678939585686,80.21211738781929
2024-09-23 12:47:22.049337,40.55,21.888164,-0.0030841997366068195,-0.023181236725942318,0.09670458680871308,32.08287849390507,-100.26678939585686,80.21211738781929
2024-09-23 12:47:22.091937,40.55,21.888215,-0.0028852147413806935,-0.023181236725942318,0.09705279702197278,32.08287849390507,-96.25519929585457,84.22370748782159
2024-09-23 12:47:22.135417,40.55,21.888215,-0.0028852147413806935,-0.023479709566915436,0.09715228999426605,32.08287849390507,-96.25519929585457,84.22370748782159
2024-09-23 12:47:22.146425,40.55,21.888302,-0.0028852147413806935,-0.023479709566915436,0.09715228999426605,44.11764879391193,-100.26678939585686,80.21211738781929
2024-09-23 12:47:22.188744,40.55,21.888302,-0.003482159473966507,-0.023280723622328886,0.09685382322919964,40.106058693909645,-96.25519929585457,76.200527287817
2024-09-23 12:47:22.232835,40.55,21.888354,-0.0033329230534799477,-0.023181236725942318,0.09685382322919964,40.106058693909645,-96.25519929585457,76.200527287817
2024-09-23 12:47:22.243833,40.55,21.888354,-0.0033329230534799477,-0.023181236725942318,0.09725178296655933,40.106058693909645,-92.24360919585227,76.200527287817
2024-09-23 12:47:22.285733,40.55,21.888404,-0.0030344509719951677,-0.0228827638849692,0.09685382322919964,40.106058693909645,-92.24360919585227,80.21211738781929
2024-09-23 12:47:22.297408,40.55,21.888404,-0.0030344509719951677,-0.0228827638849692,0.09685382322919964,40.106058693909645,-92.24360919585227,80.21211738781929
2024-09-23 12:47:22.330463,40.55,21.888455,-0.0030344509719951677,-0.0228827638849692,0.09685382322919964,40.106058693909645,-96.25519929585457,80.21211738781929
2024-09-23 12:47:22.342115,40.55,21.888455,-0.0037308827908396356,-0.023330473146428877,0.09715228999426605,40.106058693909645,-96.25519929585457,80.21211738781929
2024-09-23 12:47:22.427040,40.55,21.888455,-0.0037308827908396356,-0.023330473146428877,0.09715228999426605,36.09446859390736,-100.26678939585686,80.21211738781929
2024-09-23 12:47:22.438898,40.55,21.888506,-0.003233425524256645,-0.02338022115155219,0.09715228999426605,36.09446859390736,-100.26678939585686,80.21211738781929
2024-09-23 12:47:22.482625,40.3,21.888557,-0.003382661564999035,-0.02338022115155219,0.09705279702197278,44.11764879391193,-96.25519929585457,80.21211738781929
2024-09-23 12:47:22.525875,40.3,21.888557,-0.003382661564999035,-0.023429960042815445,0.09725178296655933,44.11764879391193,-96.25519929585457,80.21211738781929
2024-09-23 12:47:22.537215,40.3,21.888643,-0.003382661564999035,-0.023429960042815445,0.09725178296655933,36.09446859390736,-92.24360919585227,80.21211738781929
2024-09-23 12:47:22.581202,40.3,21.888643,-0.0030841997366068195,-0.02313149783467906,0.0970030596496862,36.09446859390736,-92.24360919585227,84.22370748782159
2024-09-23 12:47:22.623308,40.3,21.888695,-0.003233425524256645,-0.02313149783467906,0.0970030596496862,36.09446859390736,-92.24360919585227,84.22370748782159
2024-09-23 12:47:22.634848,40.3,21.888695,-0.003233425524256645,-0.02338022115155219,0.09710254654607277,36.09446859390736,-104.27510100388527,84.22370748782159
2024-09-23 12:47:22.677103,40.3,21.888791,-0.0028354659767690416,-0.02308174982955575,0.09715228999426605,36.09446859390736,-104.27510100388527,76.200527287817
2024-09-23 12:47:22.719987,40.3,21.888842,-0.0028354659767690416,-0.02308174982955575,0.09715228999426605,36.09446859390736,-100.26678939585686,76.200527287817
2024-09-23 12:47:22.730941,40.3,21.888842,-0.003233425524256645,-0.023330473146428877,0.0973512698629459,36.09446859390736,-100.26678939585686,76.200527287817
2024-09-23 12:47:22.773254,40.3,21.888892,-0.0028852147413806935,-0.023330473146428877,0.0973512698629459,36.09446859390736,-96.25519929585457,80.21211738781929
2024-09-23 12:47:22.784919,40.3,21.888892,-0.0028852147413806935,-0.023579196463302005,0.0973512698629459,36.09446859390736,-96.25519929585457,80.21211738781929
2024-09-23 12:47:22.818283,40.3,21.888892,-0.0028852147413806935,-0.023579196463302005,0.0970030596496862,32.08287849390507,-96.25519929585457,80.21211738781929
2024-09-23 12:47:22.829813,40.3,21.888943,-0.0031836870127375577,-0.023579196463302005,0.0970030596496862,32.08287849390507,-96.25519929585457,84.22370748782159
2024-09-23 12:47:22.872075,40.3,21.889033,-0.0031836870127375577,-0.02338022115155219,0.09750050628343246,40.106058693909645,-92.24360919585227,76.200527287817
2024-09-23 12:47:22.915258,40.3,21.889033,-0.002785727465249955,-0.023330473146428877,0.09710254654607277,40.106058693909645,-92.24360919585227,76.200527287817
2024-09-23 12:47:22.927464,40.3,21.889033,-0.002785727465249955,-0.023330473146428877,0.09710254654607277,36.09446859390736,-92.24360919585227,76.200527287817
2024-09-23 12:47:22.970688,40.3,21.889085,-0.003482159473966507,-0.0228827638849692,0.09705279702197278,32.08287849390507,-88.23529758782387,76.200527287817
2024-09-23 12:47:23.012855,40.3,21.889136,-0.003482159473966507,-0.0228827638849692,0.09705279702197278,32.08287849390507,-88.23529758782387,84.22370748782159
2024-09-23 12:47:23.065260,40.3,21.889136,-0.0029847020175114316,-0.02338022115155219,0.09720203344245934,36.09446859390736,-88.23529758782387,84.22370748782159
2024-09-23 12:47:23.078160,40.3,21.889136,-0.0029847020175114316,-0.02338022115155219,0.09720203344245934,36.09446859390736,-100.26678939585686,76.200527287817
2024-09-23 12:47:23.110476,40.3,21.889186,-0.003233425524256645,-0.02338022115155219,0.09720203344245934,36.09446859390736,-100.26678939585686,76.200527287817
2024-09-23 12:47:23.163572,40.3,21.889186,-0.003233425524256645,-0.022982261414192504,0.09690356060148622,32.08287849390507,-100.26678939585686,76.200527287817
2024-09-23 12:47:23.175275,40.3,21.889237,-0.003233425524256645,-0.022982261414192504,0.09690356060148622,32.08287849390507,-100.26678939585686,76.200527287817
2024-09-23 12:47:23.208557,40.3,21.889237,-0.003631395514708897,-0.023429960042815445,0.09685382322919964,32.08287849390507,-100.26678939585686,76.200527287817
2024-09-23 12:47:23.219791,40.3,21.889237,-0.003631395514708897,-0.023429960042815445,0.09685382322919964,36.09446859390736,-100.26678939585686,76.200527287817
2024-09-23 12:47:23.262382,40.3,21.889288,-0.0035816467500972456,-0.024076653729884996,0.09715228999426605,40.106058693909645,-100.26678939585686,76.200527287817
2024-09-23 12:47:23.305092,40.3,21.889375,-0.0035318979854855937,-0.024076653729884996,0.09715228999426605,40.106058693909645,-100.26678939585686,84.22370748782159
2024-09-23 12:47:23.316962,40.3,21.889375,-0.0035318979854855937,-0.02313149783467906,0.09680407370509965,44.11764879391193,-100.26678939585686,84.22370748782159
2024-09-23 12:47:23.359695,40.3,21.889426,-0.0033329230534799477,-0.024026904205785005,0.09740101331113918,44.11764879391193,-100.26678939585686,84.22370748782159
2024-09-23 12:47:23.402197,40.3,21.889426,-0.0033329230534799477,-0.024026904205785005,0.09740101331113918,36.09446859390736,-100.26678939585686,84.22370748782159
2024-09-23 12:47:23.455150,40.3,21.889523,-0.0029349636958644295,-0.023230986250042305,0.09740101331113918,36.09446859390736,-100.26678939585686,84.22370748782159
2024-09-23 12:47:23.467206,40.3,21.889523,-0.0029349636958644295,-0.023230986250042305,0.09695331012558621,36.09446859390736,-100.26678939585686,84.22370748782159
2024-09-23 12:47:23.498991,40.18,21.889523,-0.0029349636958644295,-0.023230986250042305,0.09695331012558621,36.09446859390736,-96.25519929585457,84.22370748782159
2024-09-23 12:47:23.510229,40.18,21.889574,-0.0035318979854855937,-0.02313149783467906,0.09695331012558621,36.09446859390736,-96.25519929585457,80.21211738781929
2024-09-23 12:47:23.552700,40.18,21.889667,-0.0035318979854855937,-0.02313149783467906,0.0973015264147526,40.106058693909645,-108.28669110388756,80.21211738781929
2024-09-23 12:47:23.564758,40.18,21.889667,-0.0035816467500972456,-0.02313149783467906,0.0973015264147526,40.106058693909645,-108.28669110388756,80.21211738781929
2024-09-23 12:47:23.598569,40.18,21.889667,-0.0035816467500972456,-0.02338022115155219,0.09705279702197278,36.09446859390736,-108.28669110388756,80.21211738781929
2024-09-23 12:47:23.609546,40.18,21.889719,-0.0035816467500972456,-0.02338022115155219,0.09705279702197278,36.09446859390736,-96.25519929585457,80.21211738781929
2024-09-23 12:47:23.652125,40.18,21.889719,-0.003382661564999035,-0.02293251340906919,0.09690356060148622,48.12595698684454,-100.26678939585686,84.22370748782159
2024-09-23 12:47:23.694330,40.18,21.889814,-0.003482159473966507,-0.02293251340906919,0.09690356060148622,48.12595698684454,-100.26678939585686,84.22370748782159
2024-09-23 12:47:23.706944,40.18,21.889814,-0.003482159473966507,-0.023230986250042305,0.09685382322919964,40.106058693909645,-100.26678939585686,84.22370748782159
2024-09-23 12:47:23.750212,40.18,21.889865,-0.0029847020175114316,-0.023230986250042305,0.09685382322919964,40.106058693909645,-100.26678939585686,72.1922225099802
2024-09-23 12:47:23.794027,40.18,21.889865,-0.0029847020175114316,-0.022982261414192504,0.09725178296655933,36.09446859390736,-100.26678939585686,72.1922225099802
2024-09-23 12:47:23.806031,40.18,21.889916,-0.0029847020175114316,-0.022982261414192504,0.09725178296655933,36.09446859390736,-96.25519929585457,80.21211738781929
2024-09-23 12:47:23.838169,40.18,21.889916,-0.0035816467500972456,-0.022982261414192504,0.09725178296655933,36.09446859390736,-96.25519929585457,80.21211738781929
2024-09-23 12:47:23.850052,40.18,21.889916,-0.0035816467500972456,-0.023181236725942318,0.09665483728461309,32.08287849390507,-100.26678939585686,80.21211738781929
2024-09-23 12:47:23.891981,40.18,21.889967,-0.0031339382481259063,-0.023579196463302005,0.09685382322919964,32.08287849390507,-100.26678939585686,80.21211738781929
2024-09-23 12:47:23.903481,40.18,21.889967,-0.0031339382481259063,-0.023579196463302005,0.09685382322919964,40.106058693909645,-96.25519929585457,80.21211738781929
2024-09-23 12:47:23.935348,40.18,21.889967,-0.0031339382481259063,-0.023579196463302005,0.09685382322919964,40.106058693909645,-96.25519929585457,76.200527287817
2024-09-23 12:47:23.946828,40.18,21.890017,-0.0030841997366068195,-0.02367869399252531,0.09685382322919964,36.09446859390736,-96.25519929585457,76.200527287817
2024-09-23 12:47:23.989100,40.18,21.890106,-0.0030344509719951677,-0.02367869399252531,0.09685382322919964,36.09446859390736,-104.27510100388527,80.21211738781929
2024-09-23 12:47:24.000602,40.18,21.890106,-0.0030344509719951677,-0.02313149783467906,0.09665483728461309,36.09446859390736,-104.27510100388527,80.21211738781929
2024-09-23 12:47:24.032625,40.18,21.890106,-0.0030344509719951677,-0.02313149783467906,0.09665483728461309,40.106058693909645,-104.27510100388527,80.21211738781929
2024-09-23 12:47:24.044335,40.18,21.890157,-0.0033329230534799477,-0.023230986250042305,0.09665483728461309,40.106058693909645,-100.26678939585686,84.22370748782159
2024-09-23 12:47:24.086693,40.18,21.890157,-0.0033329230534799477,-0.023230986250042305,0.09695331012558621,40.106058693909645,-100.26678939585686,84.22370748782159
2024-09-23 12:47:24.098492,40.18,21.890208,-0.0035816467500972456,-0.023230986250042305,0.09695331012558621,40.106058693909645,-100.26678939585686,80.21211738781929
2024-09-23 12:47:24.130368,40.18,21.890208,-0.0035816467500972456,-0.02308174982955575,0.09695331012558621,40.106058693909645,-100.26678939585686,80.21211738781929
2024-09-23 12:47:24.141778,40.18,21.890301,-0.0035816467500972456,-0.02308174982955575,0.09695331012558621,36.09446859390736,-100.26678939585686,80.21211738781929
2024-09-23 12:47:24.184410,40.18,21.890301,-0.0035816467500972456,-0.02268379009219606,0.09690356060148622,36.09446859390736,-100.26678939585686,80.21211738781929
2024-09-23 12:47:24.196210,40.18,21.890301,-0.0035816467500972456,-0.02268379009219606,0.09690356060148622,36.09446859390736,-100.26678939585686,84.22370748782159
2024-09-23 12:47:24.229387,40.18,21.890352,-0.0035816467500972456,-0.02268379009219606,0.09690356060148622,36.09446859390736,-100.26678939585686,84.22370748782159
2024-09-23 12:47:24.241361,40.18,21.890352,-0.0030344509719951677,-0.02338022115155219,0.09650560086412653,40.106058693909645,-96.25519929585457,84.22370748782159
2024-09-23 12:47:24.283832,40.18,21.890403,-0.0031836870127375577,-0.02263404056809607,0.09650560086412653,40.106058693909645,-96.25519929585457,84.22370748782159
2024-09-23 12:47:24.294831,40.18,21.890403,-0.0031836870127375577,-0.02263404056809607,0.0970030596496862,32.08287849390507,-96.25519929585457,84.22370748782159
2024-09-23 12:47:24.327765,40.18,21.890403,-0.0031836870127375577,-0.02263404056809607,0.0970030596496862,32.08287849390507,-100.26678939585686,80.21211738781929
2024-09-23 12:47:24.338992,40.18,21.890454,-0.0029349636958644295,-0.02338022115155219,0.09645586349183995,32.08287849390507,-100.26678939585686,80.21211738781929
2024-09-23 12:47:24.380636,40.18,21.890504,-0.0031836870127375577,-0.02338022115155219,0.09645586349183995,40.106058693909645,-92.24360919585227,84.22370748782159
2024-09-23 12:47:24.392443,40.18,21.890504,-0.0031836870127375577,-0.02308174982955575,0.09645586349183995,40.106058693909645,-92.24360919585227,84.22370748782159
2024-09-23 12:47:24.424877,40.18,21.890504,-0.0031836870127375577,-0.02308174982955575,0.09710254654607277,40.106058693909645,-92.24360919585227,84.22370748782159
2024-09-23 12:47:24.437109,40.18,21.890555,-0.003233425524256645,-0.02308174982955575,0.09710254654607277,40.106058693909645,-96.25519929585457,76.200527287817
2024-09-23 12:47:24.480577,40.18,21.890642,-0.003233425524256645,-0.022833026512682618,0.0973015264147526,36.09446859390736,-96.25519929585457,76.200527287817
2024-09-23 12:47:24.522786,40.82,21.890642,-0.0035318979854855937,-0.022982261414192504,0.0973015264147526,36.09446859390736,-96.25519929585457,76.200527287817
2024-09-23 12:47:24.534688,40.82,21.890642,-0.0035318979854855937,-0.022982261414192504,0.09710254654607277,36.09446859390736,-100.26678939585686,80.21211738781929
2024-09-23 12:47:24.579045,40.82,21.890694,-0.0037308827908396356,-0.0228827638849692,0.09774922960030558,36.09446859390736,-96.25519929585457,80.21211738781929
2024-09-23 12:47:24.622022,40.82,21.890744,-0.0028354659767690416,-0.0228827638849692,0.09774922960030558,36.09446859390736,-96.25519929585457,84.22370748782159
2024-09-23 12:47:24.633420,40.82,21.890744,-0.0028354659767690416,-0.023579196463302005,0.09665483728461309,32.08287849390507,-96.25519929585457,84.22370748782159
2024-09-23 12:47:24.675980,40.82,21.890795,-0.003233425524256645,-0.023181236725942318,0.09720203344245934,32.08287849390507,-96.25519929585457,92.24360919585227
2024-09-23 12:47:24.719371,40.82,21.890795,-0.003233425524256645,-0.023181236725942318,0.09720203344245934,32.08287849390507,-100.26678939585686,88.23529758782387
2024-09-23 12:47:24.730870,40.82,21.890846,-0.003482159473966507,-0.02293251340906919,0.09720203344245934,32.08287849390507,-100.26678939585686,88.23529758782387
2024-09-23 12:47:24.773669,40.82,21.890896,-0.0030344509719951677,-0.02293251340906919,0.0973512698629459,36.09446859390736,-104.27510100388527,80.21211738781929
2024-09-23 12:47:24.815527,40.82,21.890896,-0.0030344509719951677,-0.02362894446842532,0.09650560086412653,36.09446859390736,-104.27510100388527,80.21211738781929
2024-09-23 12:47:24.826913,40.82,21.890983,-0.0030344509719951677,-0.02362894446842532,0.09650560086412653,36.09446859390736,-92.24360919585227,80.21211738781929
2024-09-23 12:47:24.869237,40.82,21.890983,-0.0037308827908396356,-0.022982261414192504,0.0973512698629459,40.106058693909645,-96.25519929585457,80.21211738781929
2024-09-23 12:47:24.912619,40.82,21.891036,-0.0037308827908396356,-0.022982261414192504,0.0973512698629459,40.106058693909645,-96.25519929585457,76.200527287817
2024-09-23 12:47:24.924470,40.82,21.891036,-0.0032831742888682963,-0.02308174982955575,0.0973512698629459,36.09446859390736,-96.25519929585457,76.200527287817
2024-09-23 12:47:24.967726,40.82,21.891086,-0.0034324103296106863,-0.02362894446842532,0.0973512698629459,36.09446859390736,-100.26678939585686,80.21211738781929
2024-09-23 12:47:25.009738,40.82,21.891086,-0.0034324103296106863,-0.02362894446842532,0.09705279702197278,36.09446859390736,-100.26678939585686,80.21211738781929
2024-09-23 12:47:25.021216,40.82,21.891137,-0.0031836870127375577,-0.02362894446842532,0.09705279702197278,36.09446859390736,-100.26678939585686,80.21211738781929
2024-09-23 12:47:25.063130,40.82,21.891137,-0.0031836870127375577,-0.02313149783467906,0.09675432418099966,32.08287849390507,-96.25519929585457,80.21211738781929
2024-09-23 12:47:25.075107,40.82,21.891188,-0.0031836870127375577,-0.02313149783467906,0.09675432418099966,32.08287849390507,-96.25519929585457,80.21211738781929
2024-09-23 12:47:25.107374,40.82,21.891188,-0.0033329230534799477,-0.023479709566915436,0.09675432418099966,32.08287849390507,-96.25519929585457,80.21211738781929
2024-09-23 12:47:25.119760,40.82,21.891188,-0.0033329230534799477,-0.023479709566915436,0.0973015264147526,32.08287849390507,-100.26678939585686,80.21211738781929
2024-09-23 12:47:25.163759,40.82,21.891238,-0.0037308827908396356,-0.0228827638849692,0.09695331012558621,40.106058693909645,-96.25519929585457,80.21211738781929
2024-09-23 12:47:25.206979,40.82,21.891325,-0.0030841997366068195,-0.0228827638849692,0.09695331012558621,40.106058693909645,-96.25519929585457,76.200527287817
2024-09-23 12:47:25.218663,40.82,21.891325,-0.0030841997366068195,-0.022833026512682618,0.0973015264147526,36.09446859390736,-96.25519929585457,76.200527287817
2024-09-23 12:47:25.260990,40.82,21.891377,-0.0031339382481259063,-0.02362894446842532,0.09755024973162574,36.09446859390736,-100.26678939585686,80.21211738781929
2024-09-23 12:47:25.303669,40.82,21.891377,-0.0031339382481259063,-0.02362894446842532,0.09755024973162574,40.106058693909645,-100.26678939585686,80.21211738781929
2024-09-23 12:47:25.315687,40.82,21.891427,-0.0032831742888682963,-0.023728432883788564,0.09755024973162574,40.106058693909645,-100.26678939585686,80.21211738781929
2024-09-23 12:47:25.358207,40.82,21.891478,-0.0038801188315820256,-0.023728432883788564,0.09695331012558621,28.07457030097246,-100.26678939585686,72.1922225099802
2024-09-23 12:47:25.400542,40.82,21.891478,-0.0038801188315820256,-0.02313149783467906,0.09715228999426605,28.07457030097246,-100.26678939585686,72.1922225099802
2024-09-23 12:47:25.411696,40.82,21.891568,-0.0038801188315820256,-0.02313149783467906,0.09715228999426605,36.09446859390736,-96.25519929585457,84.22370748782159
2024-09-23 12:47:25.454759,40.82,21.891568,-0.0029349636958644295,-0.02313149783467906,0.09715228999426605,36.09446859390736,-96.25519929585457,84.22370748782159
2024-09-23 12:47:25.497787,40.82,21.891568,-0.0029349636958644295,-0.0228827638849692,0.09715228999426605,36.09446859390736,-96.25519929585457,84.22370748782159
2024-09-23 12:47:25.508892,40.82,21.89162,-0.0029349636958644295,-0.0228827638849692,0.09715228999426605,36.09446859390736,-92.24360919585227,76.200527287817
2024-09-23 12:47:25.551663,40.72,21.89162,-0.0035816467500972456,-0.023330473146428877,0.09695331012558621,36.09446859390736,-96.25519929585457,76.200527287817
2024-09-23 12:47:25.563768,40.72,21.89162,-0.0035816467500972456,-0.023330473146428877,0.09695331012558621,36.09446859390736,-96.25519929585457,80.21211738781929
2024-09-23 12:47:25.597383,40.72,21.891671,-0.0031836870127375577,-0.023181236725942318,0.09695331012558621,36.09446859390736,-96.25519929585457,80.21211738781929
2024-09-23 12:47:25.608613,40.72,21.891671,-0.0031836870127375577,-0.023181236725942318,0.09740101331113918,36.09446859390736,-92.24360919585227,80.21211738781929
2024-09-23 12:47:25.651160,40.72,21.891721,-0.0031339382481259063,-0.023230986250042305,0.09680407370509965,28.07457030097246,-92.24360919585227,84.22370748782159
2024-09-23 12:47:25.694031,40.72,21.891772,-0.0031339382481259063,-0.023230986250042305,0.09680407370509965,28.07457030097246,-100.26678939585686,72.1922225099802
2024-09-23 12:47:25.705410,40.72,21.891772,-0.0035816467500972456,-0.02352945757203875,0.09784872257259886,28.07457030097246,-100.26678939585686,72.1922225099802
2024-09-23 12:47:25.748333,40.72,21.891863,-0.0031339382481259063,-0.02308174982955575,0.09784872257259886,36.09446859390736,-100.26678939585686,84.22370748782159
2024-09-23 12:47:25.790195,40.72,21.891863,-0.0031339382481259063,-0.02308174982955575,0.09680407370509965,36.09446859390736,-100.26678939585686,84.22370748782159
2024-09-23 12:47:25.801627,40.72,21.891914,-0.0033329230534799477,-0.02308174982955575,0.09680407370509965,36.09446859390736,-104.27510100388527,80.21211738781929
2024-09-23 12:47:25.844455,40.72,21.892007,-0.0033329230534799477,-0.02308174982955575,0.09720203344245934,28.07457030097246,-96.25519929585457,84.22370748782159
2024-09-23 12:47:25.886997,40.72,21.892007,-0.0032831742888682963,-0.023778180888911878,0.09720203344245934,28.07457030097246,-96.25519929585457,84.22370748782159
2024-09-23 12:47:25.898439,40.72,21.892007,-0.0032831742888682963,-0.023778180888911878,0.09750050628343246,36.09446859390736,-92.24360919585227,80.21211738781929
2024-09-23 12:47:25.941795,40.72,21.892059,-0.0031339382481259063,-0.023728432883788564,0.09740101331113918,44.11764879391193,-92.24360919585227,80.21211738781929
2024-09-23 12:47:25.953668,40.72,21.892059,-0.0031339382481259063,-0.023728432883788564,0.09740101331113918,44.11764879391193,-96.25519929585457,80.21211738781929
2024-09-23 12:47:25.987261,40.72,21.892109,-0.003233425524256645,-0.023728432883788564,0.09740101331113918,44.11764879391193,-96.25519929585457,80.21211738781929
2024-09-23 12:47:25.998446,40.72,21.892109,-0.003233425524256645,-0.023181236725942318,0.09665483728461309,44.11764879391193,-96.25519929585457,80.21211738781929
2024-09-23 12:47:26.040797,40.72,21.89216,-0.0028852147413806935,-0.022833026512682618,0.0970030596496862,44.11764879391193,-96.25519929585457,80.21211738781929
2024-09-23 12:47:26.134542,40.72,21.892211,-0.0028852147413806935,-0.022833026512682618,0.0970030596496862,36.09446859390736,-96.25519929585457,84.22370748782159
2024-09-23 12:47:26.146035,40.72,21.892211,-0.0027359787006383035,-0.023181236725942318,0.0970030596496862,36.09446859390736,-96.25519929585457,84.22370748782159
2024-09-23 12:47:26.178129,40.72,21.892211,-0.0027359787006383035,-0.023181236725942318,0.09705279702197278,36.09446859390736,-96.25519929585457,84.22370748782159
2024-09-23 12:47:26.189793,40.72,21.892261,-0.0037308827908396356,-0.023181236725942318,0.09705279702197278,36.09446859390736,-104.27510100388527,80.21211738781929
2024-09-23 12:47:26.232110,40.72,21.892261,-0.0037308827908396356,-0.023230986250042305,0.09705279702197278,40.106058693909645,-92.24360919585227,80.21211738781929
2024-09-23 12:47:26.244029,40.72,21.892348,-0.0037308827908396356,-0.023230986250042305,0.09705279702197278,40.106058693909645,-92.24360919585227,84.22370748782159
2024-09-23 12:47:26.277461,40.72,21.892348,-0.0038801188315820256,-0.02293251340906919,0.09705279702197278,40.106058693909645,-92.24360919585227,84.22370748782159
2024-09-23 12:47:26.289144,40.72,21.892348,-0.0038801188315820256,-0.02293251340906919,0.09695331012558621,28.07457030097246,-96.25519929585457,76.200527287817
2024-09-23 12:47:26.332185,40.72,21.8924,-0.003482159473966507,-0.023927417309398437,0.09705279702197278,40.106058693909645,-100.26678939585686,76.200527287817
2024-09-23 12:47:26.376729,40.72,21.892496,-0.003482159473966507,-0.023927417309398437,0.09705279702197278,40.106058693909645,-100.26678939585686,80.21211738781929
2024-09-23 12:47:26.388154,40.72,21.892496,-0.0035318979854855937,-0.02308174982955575,0.0973015264147526,40.106058693909645,-100.26678939585686,80.21211738781929
2024-09-23 12:47:26.430811,40.72,21.892547,-0.0031339382481259063,-0.023181236725942318,0.0973512698629459,40.106058693909645,-96.25519929585457,80.21211738781929
2024-09-23 12:47:26.473304,40.72,21.892547,-0.0031339382481259063,-0.023181236725942318,0.0973512698629459,36.09446859390736,-92.24360919585227,80.21211738781929
2024-09-23 12:47:26.527595,40.72,21.892597,-0.0026862297461545674,-0.02308174982955575,0.09690356060148622,36.09446859390736,-92.24360919585227,76.200527287817
2024-09-23 12:47:26.539682,40.72,21.892597,-0.0026862297461545674,-0.02308174982955575,0.09690356060148622,48.12595698684454,-92.24360919585227,76.200527287817
2024-09-23 12:47:26.572201,40.53,21.892648,-0.0026862297461545674,-0.02308174982955575,0.09690356060148622,48.12595698684454,-96.25519929585457,76.200527287817
2024-09-23 12:47:26.583409,40.53,21.892648,-0.0034324103296106863,-0.02362894446842532,0.0970030596496862,48.12595698684454,-96.25519929585457,76.200527287817
2024-09-23 12:47:26.625898,40.53,21.892738,-0.003382661564999035,-0.02362894446842532,0.0970030596496862,40.106058693909645,-100.26678939585686,80.21211738781929
2024-09-23 12:47:26.667724,40.53,21.892738,-0.003382661564999035,-0.02362894446842532,0.09740101331113918,36.09446859390736,-100.26678939585686,80.21211738781929
2024-09-23 12:47:26.679276,40.53,21.89279,-0.0038303700669703737,-0.02362894446842532,0.09740101331113918,36.09446859390736,-100.26678939585686,80.21211738781929
2024-09-23 12:47:26.722139,40.53,21.892841,-0.0038303700669703737,-0.02308174982955575,0.09740101331113918,40.106058693909645,-100.26678939585686,80.21211738781929
2024-09-23 12:47:26.764506,40.53,21.892841,-0.0036811340262279837,-0.023728432883788564,0.09740101331113918,40.106058693909645,-100.26678939585686,80.21211738781929
2024-09-23 12:47:26.775943,40.53,21.892841,-0.0036811340262279837,-0.023728432883788564,0.09705279702197278,44.11764879391193,-100.26678939585686,80.21211738781929
2024-09-23 12:47:26.862055,40.53,21.892841,-0.0036811340262279837,-0.023728432883788564,0.09705279702197278,44.11764879391193,-92.24360919585227,80.21211738781929
2024-09-23 12:47:26.874043,40.53,21.892934,-0.0030841997366068195,-0.02338022115155219,0.09635636444363997,44.11764879391193,-92.24360919585227,76.200527287817
2024-09-23 12:47:26.916516,40.53,21.892985,-0.0032831742888682963,-0.02338022115155219,0.09635636444363997,48.12595698684454,-96.25519929585457,80.21211738781929
2024-09-23 12:47:26.928820,40.53,21.892985,-0.0032831742888682963,-0.02338022115155219,0.09635636444363997,48.12595698684454,-96.25519929585457,80.21211738781929
2024-09-23 12:47:26.961864,40.53,21.892985,-0.0032831742888682963,-0.02338022115155219,0.09710254654607277,36.09446859390736,-96.25519929585457,80.21211738781929
2024-09-23 12:47:26.973632,40.53,21.893036,-0.0031836870127375577,-0.02338022115155219,0.09710254654607277,36.09446859390736,-96.25519929585457,76.200527287817
2024-09-23 12:47:27.016020,40.53,21.893087,-0.0031836870127375577,-0.023280723622328886,0.09759999317981902,36.09446859390736,-96.25519929585457,76.200527287817
2024-09-23 12:47:27.058587,40.53,21.893087,-0.0028354659767690416,-0.023479709566915436,0.09740101331113918,36.09446859390736,-96.25519929585457,76.200527287817
2024-09-23 12:47:27.069881,40.53,21.893087,-0.0028354659767690416,-0.023479709566915436,0.09740101331113918,36.09446859390736,-92.24360919585227,84.22370748782159
2024-09-23 12:47:27.112922,40.53,21.893226,-0.003482159473966507,-0.02308174982955575,0.09740101331113918,40.106058693909645,-96.25519929585457,84.22370748782159
2024-09-23 12:47:27.155855,40.53,21.893278,-0.003482159473966507,-0.02308174982955575,0.09740101331113918,40.106058693909645,-96.25519929585457,88.23529758782387
2024-09-23 12:47:27.167512,40.53,21.893278,-0.0031836870127375577,-0.02362894446842532,0.0970030596496862,36.09446859390736,-96.25519929585457,88.23529758782387
2024-09-23 12:47:27.211067,40.53,21.893329,-0.003382661564999035,-0.023778180888911878,0.09680407370509965,36.09446859390736,-104.27510100388527,80.21211738781929
2024-09-23 12:47:27.254289,40.53,21.893329,-0.003382661564999035,-0.023778180888911878,0.09680407370509965,40.106058693909645,-92.24360919585227,80.21211738781929
2024-09-23 12:47:27.265779,40.53,21.893379,-0.0029847020175114316,-0.023280723622328886,0.09680407370509965,40.106058693909645,-92.24360919585227,80.21211738781929
2024-09-23 12:47:27.307785,40.53,21.89343,-0.0030841997366068195,-0.023280723622328886,0.09670458680871308,40.106058693909645,-92.24360919585227,84.22370748782159
2024-09-23 12:47:27.351125,40.53,21.89343,-0.0030841997366068195,-0.023579196463302005,0.09710254654607277,36.09446859390736,-92.24360919585227,84.22370748782159
2024-09-23 12:47:27.362211,40.53,21.893518,-0.0030841997366068195,-0.023579196463302005,0.09710254654607277,36.09446859390736,-104.27510100388527,76.200527287817
2024-09-23 12:47:27.405384,40.53,21.893518,-0.0035318979854855937,-0.023280723622328886,0.09680407370509965,36.09446859390736,-96.25519929585457,76.200527287817
2024-09-23 12:47:27.448244,40.53,21.89357,-0.003482159473966507,-0.023280723622328886,0.09680407370509965,36.09446859390736,-96.25519929585457,76.200527287817
2024-09-23 12:47:27.460121,40.53,21.89357,-0.003482159473966507,-0.02308174982955575,0.09705279702197278,28.07457030097246,-100.26678939585686,76.200527287817
2024-09-23 12:47:27.503374,40.53,21.893621,-0.0031339382481259063,-0.02278327698858263,0.09720203344245934,32.08287849390507,-100.26678939585686,80.21211738781929
2024-09-23 12:47:27.545725,40.53,21.893621,-0.0031339382481259063,-0.02278327698858263,0.09720203344245934,32.08287849390507,-92.24360919585227,80.21211738781929
2024-09-23 12:47:27.557367,40.53,21.893671,-0.0032831742888682963,-0.023429960042815445,0.09750050628343246,32.08287849390507,-92.24360919585227,80.21211738781929
2024-09-23 12:47:27.600124,40.44,21.893722,-0.0031836870127375577,-0.02362894446842532,0.09750050628343246,36.09446859390736,-96.25519929585457,72.1922225099802
2024-09-23 12:47:27.642033,40.44,21.893722,-0.0031836870127375577,-0.02362894446842532,0.09725178296655933,40.106058693909645,-96.25519929585457,72.1922225099802
2024-09-23 12:47:27.653722,40.44,21.893773,-0.0031836870127375577,-0.02362894446842532,0.09725178296655933,40.106058693909645,-100.26678939585686,76.200527287817
2024-09-23 12:47:27.696694,40.44,21.893773,-0.0031836870127375577,-0.023230986250042305,0.09755024973162574,40.106058693909645,-96.25519929585457,84.22370748782159
2024-09-23 12:47:27.708994,40.44,21.89386,-0.0031836870127375577,-0.023230986250042305,0.09755024973162574,40.106058693909645,-96.25519929585457,84.22370748782159
2024-09-23 12:47:27.792397,40.44,21.89386,-0.003929857343101113,-0.02362894446842532,0.09710254654607277,36.09446859390736,-96.25519929585457,84.22370748782159
2024-09-23 12:47:27.804251,40.44,21.89386,-0.003929857343101113,-0.02362894446842532,0.09710254654607277,36.09446859390736,-96.25519929585457,84.22370748782159
2024-09-23 12:47:27.837183,40.44,21.893911,-0.003929857343101113,-0.02362894446842532,0.09710254654607277,36.09446859390736,-96.25519929585457,84.22370748782159
2024-09-23 12:47:27.849099,40.44,21.893911,-0.0030344509719951677,-0.023280723622328886,0.09685382322919964,40.106058693909645,-100.26678939585686,84.22370748782159
2024-09-23 12:47:27.891472,40.44,21.893962,-0.0035318979854855937,-0.02313149783467906,0.09750050628343246,40.106058693909645,-100.26678939585686,80.21211738781929
2024-09-23 12:47:27.903500,40.44,21.893962,-0.0035318979854855937,-0.02313149783467906,0.09750050628343246,36.09446859390736,-100.26678939585686,80.21211738781929
2024-09-23 12:47:27.935141,40.44,21.893962,-0.0035318979854855937,-0.02313149783467906,0.09750050628343246,36.09446859390736,-92.24360919585227,84.22370748782159
2024-09-23 12:47:27.947408,40.44,21.894013,-0.0034324103296106863,-0.02352945757203875,0.0973015264147526,36.09446859390736,-92.24360919585227,84.22370748782159
2024-09-23 12:47:27.990080,40.44,21.894063,-0.003233425524256645,-0.022584292562972758,0.0973015264147526,32.08287849390507,-96.25519929585457,80.21211738781929
2024-09-23 12:47:28.032773,40.44,21.894063,-0.003233425524256645,-0.022584292562972758,0.09695331012558621,40.106058693909645,-96.25519929585457,80.21211738781929
2024-09-23 12:47:28.044013,40.44,21.894155,-0.003631395514708897,-0.022584292562972758,0.09695331012558621,40.106058693909645,-96.25519929585457,84.22370748782159
2024-09-23 12:47:28.086728,40.44,21.894155,-0.003631395514708897,-0.023827930413011865,0.09690356060148622,32.08287849390507,-100.26678939585686,80.21211738781929
2024-09-23 12:47:28.099033,40.44,21.89425,-0.003631395514708897,-0.023827930413011865,0.09690356060148622,32.08287849390507,-100.26678939585686,80.21211738781929
2024-09-23 12:47:28.134179,40.44,21.89425,-0.0034324103296106863,-0.022484804147609512,0.09695331012558621,36.09446859390736,-100.26678939585686,80.21211738781929
2024-09-23 12:47:28.145889,40.44,21.89425,-0.0034324103296106863,-0.022484804147609512,0.09695331012558621,36.09446859390736,-100.26678939585686,84.22370748782159
2024-09-23 12:47:28.179017,40.44,21.894301,-0.0031836870127375577,-0.022484804147609512,0.09695331012558621,36.09446859390736,-100.26678939585686,84.22370748782159
2024-09-23 12:47:28.190587,40.44,21.894301,-0.0031836870127375577,-0.023330473146428877,0.09715228999426605,36.09446859390736,-100.26678939585686,84.22370748782159
2024-09-23 12:47:28.233617,40.44,21.894352,-0.0035318979854855937,-0.023181236725942318,0.09675432418099966,40.106058693909645,-100.26678939585686,80.21211738781929
2024-09-23 12:47:28.276604,40.44,21.894352,-0.0035318979854855937,-0.023181236725942318,0.09675432418099966,40.106058693909645,-96.25519929585457,76.200527287817
2024-09-23 12:47:28.288128,40.44,21.894403,-0.0031339382481259063,-0.023429960042815445,0.09695331012558621,40.106058693909645,-96.25519929585457,76.200527287817
2024-09-23 12:47:28.332460,40.44,21.894453,-0.0026862297461545674,-0.022584292562972758,0.09695331012558621,28.07457030097246,-100.26678939585686,76.200527287817
2024-09-23 12:47:28.374364,40.44,21.894453,-0.0026862297461545674,-0.022584292562972758,0.09690356060148622,36.09446859390736,-100.26678939585686,76.200527287817
2024-09-23 12:47:28.386222,40.44,21.894504,-0.0031836870127375577,-0.022584292562972758,0.09690356060148622,36.09446859390736,-100.26678939585686,80.21211738781929
2024-09-23 12:47:28.429756,40.44,21.894591,-0.0031836870127375577,-0.022982261414192504,0.09759999317981902,44.11764879391193,-96.25519929585457,84.22370748782159
2024-09-23 12:47:28.472399,40.44,21.894591,-0.0031836870127375577,-0.022982261414192504,0.09725178296655933,44.11764879391193,-96.25519929585457,84.22370748782159
2024-09-23 12:47:28.483354,40.44,21.894591,-0.0031836870127375577,-0.022982261414192504,0.09725178296655933,36.09446859390736,-100.26678939585686,80.21211738781929
2024-09-23 12:47:28.526619,40.44,21.894643,-0.0027359787006383035,-0.023827930413011865,0.09725178296655933,36.09446859390736,-100.26678939585686,80.21211738781929
2024-09-23 12:47:28.570911,40.44,21.894643,-0.0027359787006383035,-0.023827930413011865,0.09705279702197278,36.09446859390736,-96.25519929585457,80.21211738781929
2024-09-23 12:47:28.582495,40.44,21.894693,-0.0035318979854855937,-0.023827930413011865,0.09705279702197278,36.09446859390736,-96.25519929585457,72.1922225099802
2024-09-23 12:47:28.624636,40.71,21.894744,-0.0035318979854855937,-0.023579196463302005,0.09750050628343246,48.12595698684454,-96.25519929585457,80.21211738781929
2024-09-23 12:47:28.666527,40.71,21.894744,-0.003482159473966507,-0.02308174982955575,0.09750050628343246,48.12595698684454,-96.25519929585457,80.21211738781929
2024-09-23 12:47:28.678860,40.71,21.894744,-0.003482159473966507,-0.02308174982955575,0.09705279702197278,44.11764879391193,-100.26678939585686,80.21211738781929
2024-09-23 12:47:28.722498,40.71,21.894794,-0.0031836870127375577,-0.02278327698858263,0.09740101331113918,32.08287849390507,-96.25519929585457,80.21211738781929
2024-09-23 12:47:28.765340,40.71,21.894845,-0.0032831742888682963,-0.02278327698858263,0.09740101331113918,32.08287849390507,-96.25519929585457,72.1922225099802
2024-09-23 12:47:28.776902,40.71,21.894845,-0.0032831742888682963,-0.023429960042815445,0.0973512698629459,40.106058693909645,-96.25519929585457,72.1922225099802
2024-09-23 12:47:28.819938,40.71,21.894934,-0.0031836870127375577,-0.022833026512682618,0.09755024973162574,40.106058693909645,-96.25519929585457,76.200527287817
2024-09-23 12:47:28.862324,40.71,21.894934,-0.0031836870127375577,-0.022833026512682618,0.09755024973162574,36.09446859390736,-92.24360919585227,76.200527287817
2024-09-23 12:47:28.873646,40.71,21.894985,-0.0031339382481259063,-0.023230986250042305,0.09755024973162574,36.09446859390736,-92.24360919585227,76.200527287817
2024-09-23 12:47:28.915906,40.71,21.895035,-0.003631395514708897,-0.023230986250042305,0.09675432418099966,44.11764879391193,-100.26678939585686,80.21211738781929
2024-09-23 12:47:28.959004,40.71,21.895035,-0.003631395514708897,-0.02397715620066169,0.09710254654607277,44.11764879391193,-100.26678939585686,80.21211738781929
2024-09-23 12:47:28.970349,40.71,21.895127,-0.003631395514708897,-0.02397715620066169,0.09710254654607277,44.11764879391193,-100.26678939585686,80.21211738781929
2024-09-23 12:47:29.012926,40.71,21.895127,-0.0031339382481259063,-0.02338022115155219,0.09675432418099966,36.09446859390736,-100.26678939585686,80.21211738781929
2024-09-23 12:47:29.024801,40.71,21.895127,-0.0031339382481259063,-0.02338022115155219,0.09675432418099966,36.09446859390736,-100.26678939585686,76.200527287817
2024-09-23 12:47:29.057411,40.71,21.895179,-0.004079093383843503,-0.02293251340906919,0.09675432418099966,36.09446859390736,-100.26678939585686,76.200527287817
2024-09-23 12:47:29.068645,40.71,21.895179,-0.004079093383843503,-0.02293251340906919,0.09685382322919964,36.09446859390736,-100.26678939585686,76.200527287817
2024-09-23 12:47:29.110914,40.71,21.895229,-0.0028852147413806935,-0.02308174982955575,0.09774922960030558,40.106058693909645,-100.26678939585686,80.21211738781929
2024-09-23 12:47:29.154433,40.71,21.895229,-0.0028852147413806935,-0.02308174982955575,0.09774922960030558,40.106058693909645,-92.24360919585227,88.23529758782387
2024-09-23 12:47:29.169968,40.71,21.89528,-0.0031836870127375577,-0.02362894446842532,0.0973015264147526,40.106058693909645,-92.24360919585227,88.23529758782387
2024-09-23 12:47:29.202740,40.71,21.89528,-0.0031836870127375577,-0.02362894446842532,0.0973015264147526,32.08287849390507,-92.24360919585227,88.23529758782387
2024-09-23 12:47:29.213943,40.71,21.895331,-0.0037308827908396356,-0.022982261414192504,0.0973015264147526,32.08287849390507,-92.24360919585227,84.22370748782159
2024-09-23 12:47:29.256993,40.71,21.895381,-0.0029349636958644295,-0.022982261414192504,0.09789846602079214,32.08287849390507,-96.25519929585457,84.22370748782159
2024-09-23 12:47:29.300198,40.71,21.895381,-0.0029349636958644295,-0.023479709566915436,0.09710254654607277,32.08287849390507,-96.25519929585457,84.22370748782159
2024-09-23 12:47:29.311948,40.71,21.895468,-0.0029349636958644295,-0.023479709566915436,0.09710254654607277,36.09446859390736,-100.26678939585686,80.21211738781929
2024-09-23 12:47:29.354025,40.71,21.895468,-0.0031836870127375577,-0.02338022115155219,0.09745075675933246,40.106058693909645,-100.26678939585686,80.21211738781929
2024-09-23 12:47:29.366054,40.71,21.895468,-0.0031836870127375577,-0.02338022115155219,0.09745075675933246,40.106058693909645,-100.26678939585686,80.21211738781929
2024-09-23 12:47:29.399728,40.71,21.89552,-0.003233425524256645,-0.02293251340906919,0.09745075675933246,40.106058693909645,-100.26678939585686,80.21211738781929
2024-09-23 12:47:29.411228,40.71,21.89552,-0.003233425524256645,-0.02293251340906919,0.09745075675933246,36.09446859390736,-100.26678939585686,80.21211738781929
2024-09-23 12:47:29.454057,40.71,21.895571,-0.003382661564999035,-0.02308174982955575,0.09725178296655933,40.106058693909645,-100.26678939585686,80.21211738781929
2024-09-23 12:47:29.496962,40.71,21.895621,-0.003382661564999035,-0.02308174982955575,0.09725178296655933,40.106058693909645,-104.27510100388527,76.200527287817
2024-09-23 12:47:29.508388,40.71,21.895621,-0.0037308827908396356,-0.02268379009219606,0.09725178296655933,40.106058693909645,-104.27510100388527,76.200527287817
2024-09-23 12:47:29.551223,40.71,21.895672,-0.0037308827908396356,-0.02268379009219606,0.09725178296655933,32.08287849390507,-100.26678939585686,76.200527287817
2024-09-23 12:47:29.592812,40.71,21.895672,-0.003780631555451287,-0.0228827638849692,0.09725178296655933,32.08287849390507,-100.26678939585686,76.200527287817
2024-09-23 12:47:29.604362,40.71,21.895672,-0.003780631555451287,-0.0228827638849692,0.09715228999426605,40.106058693909645,-92.24360919585227,76.200527287817
2024-09-23 12:47:29.647532,40.62,21.895723,-0.003780631555451287,-0.02313149783467906,0.09755024973162574,36.09446859390736,-100.26678939585686,76.200527287817
2024-09-23 12:47:29.690452,40.62,21.89581,-0.003780631555451287,-0.02313149783467906,0.09755024973162574,36.09446859390736,-100.26678939585686,84.22370748782159
2024-09-23 12:47:29.701820,40.62,21.89581,-0.0030841997366068195,-0.023181236725942318,0.09725178296655933,32.08287849390507,-100.26678939585686,84.22370748782159
2024-09-23 12:47:29.743848,40.62,21.895861,-0.0030344509719951677,-0.023230986250042305,0.09725178296655933,32.08287849390507,-104.27510100388527,84.22370748782159
2024-09-23 12:47:29.755776,40.62,21.895861,-0.0030344509719951677,-0.023230986250042305,0.09740101331113918,32.08287849390507,-104.27510100388527,84.22370748782159
2024-09-23 12:47:29.787972,40.62,21.895861,-0.0030344509719951677,-0.023230986250042305,0.09740101331113918,40.106058693909645,-104.27510100388527,84.22370748782159
2024-09-23 12:47:29.799251,40.62,21.895912,-0.0035318979854855937,-0.023181236725942318,0.09740101331113918,40.106058693909645,-104.27510100388527,80.21211738781929
2024-09-23 12:47:29.841286,40.62,21.895963,-0.0035318979854855937,-0.023181236725942318,0.0973015264147526,28.07457030097246,-96.25519929585457,84.22370748782159
2024-09-23 12:47:29.853267,40.62,21.895963,-0.0031836870127375577,-0.023181236725942318,0.0973015264147526,28.07457030097246,-96.25519929585457,84.22370748782159
2024-09-23 12:47:29.885626,40.62,21.895963,-0.0031836870127375577,-0.023479709566915436,0.09705279702197278,28.07457030097246,-96.25519929585457,84.22370748782159
2024-09-23 12:47:29.896556,40.62,21.896054,-0.0031836870127375577,-0.023479709566915436,0.09705279702197278,36.09446859390736,-100.26678939585686,80.21211738781929
2024-09-23 12:47:29.939911,40.62,21.896054,-0.0033329230534799477,-0.023280723622328886,0.09695331012558621,40.106058693909645,-96.25519929585457,80.21211738781929
2024-09-23 12:47:29.951395,40.62,21.896054,-0.0033329230534799477,-0.023280723622328886,0.09695331012558621,40.106058693909645,-96.25519929585457,80.21211738781929
2024-09-23 12:47:29.983714,40.62,21.896105,-0.0027359787006383035,-0.02303200030545576,0.09695331012558621,40.106058693909645,-96.25519929585457,80.21211738781929
2024-09-23 12:47:29.995076,40.62,21.896105,-0.0027359787006383035,-0.02303200030545576,0.09720203344245934,28.07457030097246,-96.25519929585457,80.21211738781929
2024-09-23 12:47:30.037804,40.62,21.896156,-0.0027359787006383035,-0.02303200030545576,0.09720203344245934,28.07457030097246,-96.25519929585457,76.200527287817
2024-09-23 12:47:30.080705,40.62,21.896156,-0.003482159473966507,-0.023877669304275123,0.09720203344245934,28.07457030097246,-96.25519929585457,76.200527287817
2024-09-23 12:47:30.092055,40.62,21.896156,-0.003482159473966507,-0.023877669304275123,0.09720203344245934,40.106058693909645,-100.26678939585686,72.1922225099802
2024-09-23 12:47:30.135912,40.62,21.896206,-0.003482159473966507,-0.023429960042815445,0.09650560086412653,44.11764879391193,-104.27510100388527,72.1922225099802
2024-09-23 12:47:30.178763,40.62,21.896257,-0.003482159473966507,-0.023429960042815445,0.09650560086412653,44.11764879391193,-104.27510100388527,76.200527287817
2024-09-23 12:47:30.190422,40.62,21.896257,-0.003233425524256645,-0.02367869399252531,0.09690356060148622,40.106058693909645,-104.27510100388527,76.200527287817
2024-09-23 12:47:30.233123,40.62,21.896308,-0.0035318979854855937,-0.023181236725942318,0.09690356060148622,40.106058693909645,-92.24360919585227,72.1922225099802
2024-09-23 12:47:30.244934,40.62,21.896308,-0.0035318979854855937,-0.023181236725942318,0.0973015264147526,40.106058693909645,-92.24360919585227,72.1922225099802
2024-09-23 12:47:30.277040,40.62,21.896308,-0.0035318979854855937,-0.023181236725942318,0.0973015264147526,44.11764879391193,-96.25519929585457,80.21211738781929
2024-09-23 12:47:30.288332,40.62,21.896395,-0.003382661564999035,-0.02308174982955575,0.0973015264147526,44.11764879391193,-96.25519929585457,80.21211738781929
2024-09-23 12:47:30.330640,40.62,21.896446,-0.003382661564999035,-0.02308174982955575,0.09665483728461309,48.12595698684454,-96.25519929585457,76.200527287817
2024-09-23 12:47:30.343038,40.62,21.896446,-0.0032831742888682963,-0.02308174982955575,0.09665483728461309,48.12595698684454,-96.25519929585457,76.200527287817
2024-09-23 12:47:30.375994,40.62,21.896446,-0.0032831742888682963,-0.02308174982955575,0.09680407370509965,44.11764879391193,-100.26678939585686,76.200527287817
2024-09-23 12:47:30.387912,40.62,21.896541,-0.0032831742888682963,-0.02308174982955575,0.09680407370509965,44.11764879391193,-100.26678939585686,80.21211738781929
2024-09-23 12:47:30.420560,40.62,21.896541,-0.0035816467500972456,-0.02308174982955575,0.09680407370509965,44.11764879391193,-100.26678939585686,80.21211738781929
2024-09-23 12:47:30.431748,40.62,21.896541,-0.0035816467500972456,-0.02303200030545576,0.09690356060148622,40.106058693909645,-92.24360919585227,84.22370748782159
2024-09-23 12:47:30.475021,40.62,21.896593,-0.0033329230534799477,-0.023429960042815445,0.0970030596496862,44.11764879391193,-92.24360919585227,84.22370748782159
2024-09-23 12:47:30.487539,40.62,21.896593,-0.0033329230534799477,-0.023429960042815445,0.0970030596496862,44.11764879391193,-100.26678939585686,84.22370748782159
2024-09-23 12:47:30.523148,40.62,21.896643,-0.003382661564999035,-0.023429960042815445,0.0970030596496862,44.11764879391193,-100.26678939585686,80.21211738781929
2024-09-23 12:47:30.535413,40.62,21.896643,-0.003382661564999035,-0.023429960042815445,0.09784872257259886,36.09446859390736,-100.26678939585686,80.21211738781929
2024-09-23 12:47:30.567524,40.62,21.896643,-0.003382661564999035,-0.023429960042815445,0.09784872257259886,36.09446859390736,-92.24360919585227,80.21211738781929
2024-09-23 12:47:30.578961,40.62,21.896694,-0.002785727465249955,-0.023479709566915436,0.0973512698629459,36.09446859390736,-92.24360919585227,80.21211738781929
2024-09-23 12:47:30.622363,40.62,21.896745,-0.0028354659767690416,-0.023479709566915436,0.0973512698629459,44.11764879391193,-92.24360919585227,80.21211738781929
2024-09-23 12:47:30.664543,41.23,21.896745,-0.0028354659767690416,-0.023479709566915436,0.09715228999426605,40.106058693909645,-92.24360919585227,80.21211738781929
2024-09-23 12:47:30.675974,41.23,21.896745,-0.0028354659767690416,-0.023479709566915436,0.09715228999426605,40.106058693909645,-100.26678939585686,80.21211738781929
2024-09-23 12:47:30.770059,41.23,21.896795,-0.0030841997366068195,-0.02338022115155219,0.09685382322919964,36.09446859390736,-100.26678939585686,80.21211738781929
2024-09-23 12:47:30.813043,41.23,21.896882,-0.003233425524256645,-0.02338022115155219,0.09685382322919964,36.09446859390736,-100.26678939585686,80.21211738781929
2024-09-23 12:47:30.824627,41.23,21.896882,-0.003233425524256645,-0.023280723622328886,0.09764974270391902,36.09446859390736,-100.26678939585686,80.21211738781929
2024-09-23 12:47:30.867116,41.23,21.896934,-0.0033329230534799477,-0.02313149783467906,0.09685382322919964,36.09446859390736,-96.25519929585457,76.200527287817
2024-09-23 12:47:30.909658,41.23,21.896934,-0.0033329230534799477,-0.02313149783467906,0.09685382322919964,36.09446859390736,-100.26678939585686,76.200527287817
2024-09-23 12:47:30.920998,41.23,21.896984,-0.0032831742888682963,-0.02278327698858263,0.09685382322919964,36.09446859390736,-100.26678939585686,76.200527287817
2024-09-23 12:47:30.963557,41.23,21.897035,-0.0032831742888682963,-0.02278327698858263,0.09695331012558621,36.09446859390736,-100.26678939585686,84.22370748782159
2024-09-23 12:47:31.006325,41.23,21.897035,-0.0032831742888682963,-0.02293251340906919,0.09705279702197278,36.09446859390736,-100.26678939585686,84.22370748782159
2024-09-23 12:47:31.017745,41.23,21.897175,-0.0032831742888682963,-0.02293251340906919,0.09705279702197278,40.106058693909645,-96.25519929585457,76.200527287817
2024-09-23 12:47:31.060844,41.23,21.897175,-0.0030841997366068195,-0.023429960042815445,0.09705279702197278,32.08287849390507,-104.27510100388527,80.21211738781929
2024-09-23 12:47:31.104002,41.23,21.897226,-0.0033329230534799477,-0.023429960042815445,0.09705279702197278,32.08287849390507,-104.27510100388527,80.21211738781929
2024-09-23 12:47:31.115174,41.23,21.897226,-0.0033329230534799477,-0.023579196463302005,0.09675432418099966,32.08287849390507,-104.27510100388527,80.21211738781929
2024-09-23 12:47:31.157789,41.23,21.897277,-0.0028852147413806935,-0.02367869399252531,0.09740101331113918,32.08287849390507,-104.27510100388527,72.1922225099802
2024-09-23 12:47:31.169922,41.23,21.897277,-0.0028852147413806935,-0.02367869399252531,0.09740101331113918,36.09446859390736,-104.27510100388527,72.1922225099802
2024-09-23 12:47:31.202804,41.23,21.897328,-0.0028852147413806935,-0.02367869399252531,0.09740101331113918,36.09446859390736,-96.25519929585457,84.22370748782159
2024-09-23 12:47:31.214473,41.23,21.897328,-0.0038303700669703737,-0.023181236725942318,0.09764974270391902,36.09446859390736,-96.25519929585457,84.22370748782159
2024-09-23 12:47:31.256344,41.23,21.897378,-0.0033329230534799477,-0.02313149783467906,0.09764974270391902,44.11764879391193,-100.26678939585686,80.21211738781929
2024-09-23 12:47:31.298799,41.23,21.897378,-0.0033329230534799477,-0.02313149783467906,0.09685382322919964,36.09446859390736,-100.26678939585686,80.21211738781929
2024-09-23 12:47:31.310513,41.23,21.897429,-0.003631395514708897,-0.02313149783467906,0.09685382322919964,36.09446859390736,-88.23529758782387,92.24360919585227
2024-09-23 12:47:31.352745,41.23,21.897429,-0.003631395514708897,-0.02308174982955575,0.0973015264147526,44.11764879391193,-100.26678939585686,84.22370748782159
2024-09-23 12:47:31.364992,41.23,21.897516,-0.003631395514708897,-0.02308174982955575,0.0973015264147526,44.11764879391193,-100.26678939585686,84.22370748782159
2024-09-23 12:47:31.397567,41.23,21.897516,-0.0035816467500972456,-0.023181236725942318,0.09685382322919964,44.11764879391193,-100.26678939585686,84.22370748782159
2024-09-23 12:47:31.409462,41.23,21.897516,-0.0035816467500972456,-0.023181236725942318,0.09685382322919964,44.11764879391193,-96.25519929585457,84.22370748782159
2024-09-23 12:47:31.452143,41.23,21.897568,-0.0030841997366068195,-0.02278327698858263,0.0973015264147526,32.08287849390507,-100.26678939585686,84.22370748782159
2024-09-23 12:47:31.494183,41.23,21.897618,-0.0030841997366068195,-0.02278327698858263,0.0973015264147526,32.08287849390507,-100.26678939585686,80.21211738781929
2024-09-23 12:47:31.506073,41.23,21.897618,-0.003482159473966507,-0.023479709566915436,0.09670458680871308,40.106058693909645,-100.26678939585686,80.21211738781929
2024-09-23 12:47:31.549714,41.23,21.897669,-0.0031339382481259063,-0.023230986250042305,0.09695331012558621,40.106058693909645,-96.25519929585457,76.200527287817
2024-09-23 12:47:31.592635,41.23,21.897669,-0.0031339382481259063,-0.023230986250042305,0.09695331012558621,36.09446859390736,-92.24360919585227,80.21211738781929
2024-09-23 12:47:31.604380,41.23,21.89772,-0.0031339382481259063,-0.023230986250042305,0.09695331012558621,36.09446859390736,-92.24360919585227,80.21211738781929
2024-09-23 12:47:31.647091,41.23,21.89772,-0.0029349636958644295,-0.02303200030545576,0.0973512698629459,32.08287849390507,-92.24360919585227,76.200527287817
2024-09-23 12:47:31.688767,40.93,21.89777,-0.003233425524256645,-0.02303200030545576,0.0973512698629459,32.08287849390507,-92.24360919585227,76.200527287817
2024-09-23 12:47:31.700509,40.93,21.89777,-0.003233425524256645,-0.023230986250042305,0.09710254654607277,48.12595698684454,-104.27510100388527,76.200527287817
2024-09-23 12:47:31.743243,40.93,21.897857,-0.0035318979854855937,-0.023877669304275123,0.09695331012558621,48.12595698684454,-104.27510100388527,80.21211738781929
2024-09-23 12:47:31.754967,40.93,21.897857,-0.0035318979854855937,-0.023877669304275123,0.09695331012558621,36.09446859390736,-104.27510100388527,80.21211738781929
2024-09-23 12:47:31.786574,40.93,21.897857,-0.0035318979854855937,-0.023877669304275123,0.09695331012558621,36.09446859390736,-104.27510100388527,76.200527287817
2024-09-23 12:47:31.797556,40.93,21.897909,-0.0030344509719951677,-0.02293251340906919,0.09759999317981902,36.09446859390736,-104.27510100388527,76.200527287817
2024-09-23 12:47:31.840965,40.93,21.89796,-0.0031836870127375577,-0.02293251340906919,0.09759999317981902,36.09446859390736,-92.24360919585227,84.22370748782159
2024-09-23 12:47:31.852659,40.93,21.89796,-0.0031836870127375577,-0.023230986250042305,0.09759999317981902,36.09446859390736,-92.24360919585227,84.22370748782159
2024-09-23 12:47:31.884825,40.93,21.89796,-0.0031836870127375577,-0.023230986250042305,0.09690356060148622,36.09446859390736,-100.26678939585686,84.22370748782159
2024-09-23 12:47:31.896119,40.93,21.898011,-0.003482159473966507,-0.023230986250042305,0.09690356060148622,36.09446859390736,-100.26678939585686,80.21211738781929
2024-09-23 12:47:31.938749,40.93,21.898101,-0.003482159473966507,-0.023479709566915436,0.09764974270391902,36.09446859390736,-92.24360919585227,80.21211738781929
2024-09-23 12:47:31.981733,40.93,21.898101,-0.0031339382481259063,-0.02338022115155219,0.09764974270391902,36.09446859390736,-92.24360919585227,80.21211738781929
2024-09-23 12:47:31.993274,40.93,21.898101,-0.0031339382481259063,-0.02338022115155219,0.09755024973162574,44.11764879391193,-96.25519929585457,80.21211738781929
2024-09-23 12:47:32.036684,40.93,21.898153,-0.0036811340262279837,-0.02362894446842532,0.09655535038822652,36.09446859390736,-96.25519929585457,80.21211738781929
2024-09-23 12:47:32.048254,40.93,21.898153,-0.0036811340262279837,-0.02362894446842532,0.09655535038822652,36.09446859390736,-100.26678939585686,80.21211738781929
2024-09-23 12:47:32.080947,40.93,21.898204,-0.0036811340262279837,-0.02362894446842532,0.09655535038822652,36.09446859390736,-100.26678939585686,84.22370748782159
2024-09-23 12:47:32.092919,40.93,21.898204,-0.0028354659767690416,-0.02367869399252531,0.09710254654607277,44.11764879391193,-100.26678939585686,84.22370748782159
2024-09-23 12:47:32.125260,40.93,21.898204,-0.0028354659767690416,-0.02367869399252531,0.09710254654607277,44.11764879391193,-100.26678939585686,84.22370748782159
2024-09-23 12:47:32.137909,40.93,21.898254,-0.0035318979854855937,-0.02338022115155219,0.09665483728461309,44.11764879391193,-100.26678939585686,80.21211738781929
2024-09-23 12:47:32.180148,40.93,21.898305,-0.0035318979854855937,-0.02338022115155219,0.09665483728461309,32.08287849390507,-92.24360919585227,80.21211738781929
2024-09-23 12:47:32.191775,40.93,21.898305,-0.004029355252068585,-0.023429960042815445,0.09665483728461309,32.08287849390507,-92.24360919585227,80.21211738781929
2024-09-23 12:47:32.224341,40.93,21.898305,-0.004029355252068585,-0.023429960042815445,0.09720203344245934,32.08287849390507,-92.24360919585227,80.21211738781929
2024-09-23 12:47:32.236073,40.93,21.898356,-0.0033329230534799477,-0.023429960042815445,0.09720203344245934,36.09446859390736,-92.24360919585227,84.22370748782159
2024-09-23 12:47:32.277938,40.93,21.898356,-0.0033329230534799477,-0.023429960042815445,0.09720203344245934,40.106058693909645,-104.27510100388527,84.22370748782159
2024-09-23 12:47:32.289805,40.93,21.898442,-0.0033329230534799477,-0.023429960042815445,0.09720203344245934,40.106058693909645,-104.27510100388527,76.200527287817
2024-09-23 12:47:32.322946,40.93,21.898442,-0.0030344509719951677,-0.023330473146428877,0.09720203344245934,40.106058693909645,-104.27510100388527,76.200527287817
2024-09-23 12:47:32.334976,40.93,21.898442,-0.0030344509719951677,-0.023330473146428877,0.09715228999426605,36.09446859390736,-92.24360919585227,76.200527287817
2024-09-23 12:47:32.378471,40.93,21.898494,-0.0033329230534799477,-0.02313149783467906,0.09755024973162574,36.09446859390736,-92.24360919585227,76.200527287817
2024-09-23 12:47:32.421970,40.93,21.898545,-0.003382661564999035,-0.02313149783467906,0.09755024973162574,36.09446859390736,-92.24360919585227,84.22370748782159
2024-09-23 12:47:32.433460,40.93,21.898545,-0.003382661564999035,-0.023280723622328886,0.09675432418099966,44.11764879391193,-92.24360919585227,84.22370748782159
2024-09-23 12:47:32.476411,40.93,21.898595,-0.003482159473966507,-0.023280723622328886,0.09675432418099966,44.11764879391193,-88.23529758782387,80.21211738781929
2024-09-23 12:47:32.569912,40.93,21.898595,-0.003482159473966507,-0.02278327698858263,0.0973015264147526,40.106058693909645,-96.25519929585457,80.21211738781929
2024-09-23 12:47:32.613042,40.93,21.898595,-0.003482159473966507,-0.02278327698858263,0.0973015264147526,40.106058693909645,-96.25519929585457,80.21211738781929
2024-09-23 12:47:32.624688,40.93,21.898646,-0.003631395514708897,-0.023429960042815445,0.09720203344245934,40.106058693909645,-96.25519929585457,80.21211738781929
2024-09-23 12:47:32.666488,40.93,21.898646,-0.003631395514708897,-0.023429960042815445,0.09720203344245934,36.09446859390736,-104.27510100388527,72.1922225099802
2024-09-23 12:47:32.677576,40.93,21.898697,-0.0035318979854855937,-0.023579196463302005,0.09720203344245934,36.09446859390736,-104.27510100388527,72.1922225099802
2024-09-23 12:47:32.720781,41.41,21.898784,-0.003631395514708897,-0.023579196463302005,0.09710254654607277,32.08287849390507,-104.27510100388527,84.22370748782159
2024-09-23 12:47:32.763695,41.41,21.898784,-0.003631395514708897,-0.023429960042815445,0.09725178296655933,36.09446859390736,-104.27510100388527,84.22370748782159
2024-09-23 12:47:32.775525,41.41,21.898835,-0.003631395514708897,-0.023429960042815445,0.09725178296655933,36.09446859390736,-104.27510100388527,76.200527287817
2024-09-23 12:47:32.818341,41.41,21.898835,-0.0030841997366068195,-0.02293251340906919,0.09725178296655933,36.09446859390736,-104.27510100388527,80.21211738781929
2024-09-23 12:47:32.860858,41.41,21.898932,-0.0027359787006383035,-0.02293251340906919,0.09725178296655933,36.09446859390736,-104.27510100388527,80.21211738781929
2024-09-23 12:47:32.872513,41.41,21.898932,-0.0027359787006383035,-0.023778180888911878,0.09750050628343246,44.11764879391193,-92.24360919585227,80.21211738781929
2024-09-23 12:47:32.915987,41.41,21.899028,-0.004079093383843503,-0.02338022115155219,0.09764974270391902,40.106058693909645,-92.24360919585227,80.21211738781929
2024-09-23 12:47:32.958044,41.41,21.89908,-0.004079093383843503,-0.02338022115155219,0.09764974270391902,40.106058693909645,-104.27510100388527,80.21211738781929
2024-09-23 12:47:32.970187,41.41,21.89908,-0.0035318979854855937,-0.02293251340906919,0.09670458680871308,40.106058693909645,-104.27510100388527,80.21211738781929
2024-09-23 12:47:33.013198,41.41,21.89913,-0.003780631555451287,-0.023181236725942318,0.09670458680871308,40.106058693909645,-96.25519929585457,80.21211738781929
2024-09-23 12:47:33.056350,41.41,21.89913,-0.003780631555451287,-0.023181236725942318,0.09695331012558621,44.11764879391193,-96.25519929585457,84.22370748782159
2024-09-23 12:47:33.067923,41.41,21.899181,-0.0037308827908396356,-0.023181236725942318,0.09695331012558621,44.11764879391193,-96.25519929585457,84.22370748782159
2024-09-23 12:47:33.110592,41.41,21.899271,-0.0037308827908396356,-0.023330473146428877,0.09685382322919964,40.106058693909645,-96.25519929585457,84.22370748782159
2024-09-23 12:47:33.153227,41.41,21.899271,-0.003382661564999035,-0.023330473146428877,0.09685382322919964,40.106058693909645,-96.25519929585457,84.22370748782159
2024-09-23 12:47:33.206290,41.41,21.899271,-0.003382661564999035,-0.02308174982955575,0.09710254654607277,32.08287849390507,-100.26678939585686,80.21211738781929
2024-09-23 12:47:33.249847,41.41,21.899323,-0.003382661564999035,-0.02308174982955575,0.09710254654607277,32.08287849390507,-100.26678939585686,80.21211738781929
2024-09-23 12:47:33.302943,41.41,21.899323,-0.0035318979854855937,-0.023230986250042305,0.09725178296655933,36.09446859390736,-96.25519929585457,80.21211738781929
2024-09-23 12:47:33.315108,41.41,21.899323,-0.0035318979854855937,-0.023230986250042305,0.09725178296655933,36.09446859390736,-96.25519929585457,76.200527287817
2024-09-23 12:47:33.348722,41.41,21.899373,-0.0036811340262279837,-0.02352945757203875,0.09725178296655933,36.09446859390736,-96.25519929585457,76.200527287817
2024-09-23 12:47:33.360036,41.41,21.899373,-0.0036811340262279837,-0.02352945757203875,0.0973015264147526,32.08287849390507,-100.26678939585686,76.200527287817
2024-09-23 12:47:33.403093,41.41,21.899424,-0.0036811340262279837,-0.023230986250042305,0.0970030596496862,44.11764879391193,-100.26678939585686,80.21211738781929
2024-09-23 12:47:33.444803,41.41,21.899424,-0.0036811340262279837,-0.023230986250042305,0.0970030596496862,44.11764879391193,-96.25519929585457,80.21211738781929
2024-09-23 12:47:33.456418,41.41,21.899475,-0.003482159473966507,-0.022584292562972758,0.0973512698629459,44.11764879391193,-96.25519929585457,80.21211738781929
2024-09-23 12:47:33.498778,41.41,21.899566,-0.0028354659767690416,-0.023877669304275123,0.0973512698629459,36.09446859390736,-92.24360919585227,84.22370748782159
2024-09-23 12:47:33.541471,41.41,21.899566,-0.0028354659767690416,-0.023877669304275123,0.09680407370509965,32.08287849390507,-92.24360919585227,84.22370748782159
2024-09-23 12:47:33.553020,41.41,21.899664,-0.002636491424507565,-0.023877669304275123,0.09680407370509965,32.08287849390507,-92.24360919585227,80.21211738781929
2024-09-23 12:47:33.597104,41.41,21.899759,-0.002636491424507565,-0.02352945757203875,0.09740101331113918,36.09446859390736,-100.26678939585686,76.200527287817
2024-09-23 12:47:33.640422,41.41,21.899759,-0.002785727465249955,-0.023330473146428877,0.09740101331113918,36.09446859390736,-100.26678939585686,76.200527287817
2024-09-23 12:47:33.652197,41.41,21.899759,-0.002785727465249955,-0.023330473146428877,0.09740101331113918,24.06297849342227,-104.27510100388527,76.200527287817
2024-09-23 12:47:33.694389,41.41,21.89981,-0.004029355252068585,-0.02313149783467906,0.09750050628343246,28.07457030097246,-104.27510100388527,72.1922225099802
2024-09-23 12:47:33.737957,41.21,21.899861,-0.004029355252068585,-0.02313149783467906,0.09750050628343246,28.07457030097246,-92.24360919585227,76.200527287817
2024-09-23 12:47:33.748893,41.21,21.899861,-0.0030344509719951677,-0.023230986250042305,0.09670458680871308,28.07457030097246,-92.24360919585227,76.200527287817
2024-09-23 12:47:33.792033,41.21,21.899861,-0.0030344509719951677,-0.023230986250042305,0.09670458680871308,44.11764879391193,-96.25519929585457,80.21211738781929
2024-09-23 12:47:33.834077,41.21,21.899912,-0.0030344509719951677,-0.023230986250042305,0.09670458680871308,44.11764879391193,-96.25519929585457,80.21211738781929
2024-09-23 12:47:33.845254,41.21,21.899912,-0.003631395514708897,-0.02338022115155219,0.09705279702197278,36.09446859390736,-96.25519929585457,80.21211738781929
2024-09-23 12:47:33.888644,41.21,21.899962,-0.0034324103296106863,-0.023579196463302005,0.09755024973162574,36.09446859390736,-96.25519929585457,80.21211738781929
2024-09-23 12:47:33.900954,41.21,21.899962,-0.0034324103296106863,-0.023579196463302005,0.09755024973162574,32.08287849390507,-96.25519929585457,80.21211738781929
2024-09-23 12:47:33.933201,41.21,21.900013,-0.0034324103296106863,-0.023579196463302005,0.09755024973162574,32.08287849390507,-100.26678939585686,76.200527287817
2024-09-23 12:47:33.944826,41.21,21.900013,-0.0026862297461545674,-0.023280723622328886,0.0973015264147526,32.08287849390507,-100.26678939585686,76.200527287817
2024-09-23 12:47:33.987750,41.21,21.900101,-0.0030841997366068195,-0.023429960042815445,0.0973015264147526,36.09446859390736,-108.28669110388756,80.21211738781929
2024-09-23 12:47:34.030063,41.21,21.900101,-0.0030841997366068195,-0.023429960042815445,0.09670458680871308,36.09446859390736,-100.26678939585686,80.21211738781929
2024-09-23 12:47:34.041204,41.21,21.900151,-0.0034324103296106863,-0.023429960042815445,0.09670458680871308,36.09446859390736,-100.26678939585686,80.21211738781929
2024-09-23 12:47:34.083201,41.21,21.900151,-0.0034324103296106863,-0.023181236725942318,0.0973512698629459,40.106058693909645,-100.26678939585686,76.200527287817
2024-09-23 12:47:34.095521,41.21,21.900246,-0.0034324103296106863,-0.023181236725942318,0.0973512698629459,40.106058693909645,-100.26678939585686,76.200527287817
2024-09-23 12:47:34.128821,41.21,21.900246,-0.0036811340262279837,-0.023230986250042305,0.09670458680871308,40.106058693909645,-100.26678939585686,76.200527287817
2024-09-23 12:47:34.140681,41.21,21.900246,-0.0036811340262279837,-0.023230986250042305,0.09670458680871308,44.11764879391193,-100.26678939585686,84.22370748782159
2024-09-23 12:47:34.172775,41.21,21.900298,-0.0036811340262279837,-0.023230986250042305,0.09670458680871308,44.11764879391193,-100.26678939585686,84.22370748782159
2024-09-23 12:47:34.183824,41.21,21.900298,-0.0029847020175114316,-0.02308174982955575,0.09725178296655933,36.09446859390736,-100.26678939585686,84.22370748782159
2024-09-23 12:47:34.226488,41.21,21.900348,-0.002636491424507565,-0.02308174982955575,0.09725178296655933,36.09446859390736,-100.26678939585686,84.22370748782159
2024-09-23 12:47:34.237399,41.21,21.900348,-0.002636491424507565,-0.023429960042815445,0.0973015264147526,32.08287849390507,-100.26678939585686,84.22370748782159
2024-09-23 12:47:34.279977,41.21,21.900399,-0.003233425524256645,-0.02293251340906919,0.09685382322919964,32.08287849390507,-92.24360919585227,80.21211738781929
2024-09-23 12:47:34.322473,41.21,21.900399,-0.003233425524256645,-0.02293251340906919,0.09685382322919964,32.08287849390507,-96.25519929585457,76.200527287817
2024-09-23 12:47:34.334532,41.21,21.90045,-0.0035318979854855937,-0.02367869399252531,0.09685382322919964,32.08287849390507,-96.25519929585457,76.200527287817
2024-09-23 12:47:34.377648,41.21,21.900501,-0.0033329230534799477,-0.02367869399252531,0.0970030596496862,40.106058693909645,-100.26678939585686,76.200527287817
2024-09-23 12:47:34.420336,41.21,21.900501,-0.0033329230534799477,-0.023429960042815445,0.0973015264147526,40.106058693909645,-100.26678939585686,76.200527287817
2024-09-23 12:47:34.431615,41.21,21.900501,-0.0033329230534799477,-0.023429960042815445,0.0973015264147526,40.106058693909645,-96.25519929585457,76.200527287817
2024-09-23 12:47:34.475266,41.21,21.900587,-0.002785727465249955,-0.02352945757203875,0.09695331012558621,44.11764879391193,-100.26678939585686,76.200527287817
2024-09-23 12:47:34.518118,41.21,21.900639,-0.0031836870127375577,-0.02352945757203875,0.09695331012558621,44.11764879391193,-100.26678939585686,76.200527287817
2024-09-23 12:47:34.529801,41.21,21.900639,-0.0031836870127375577,-0.023429960042815445,0.09680407370509965,44.11764879391193,-100.26678939585686,76.200527287817
2024-09-23 12:47:34.613244,41.21,21.900639,-0.0031836870127375577,-0.023429960042815445,0.09680407370509965,32.08287849390507,-100.26678939585686,76.200527287817
2024-09-23 12:47:34.625215,41.21,21.90069,-0.0031836870127375577,-0.023230986250042305,0.09680407370509965,32.08287849390507,-96.25519929585457,76.200527287817
2024-09-23 12:47:34.668123,41.21,21.90069,-0.0031836870127375577,-0.023230986250042305,0.09710254654607277,28.07457030097246,-92.24360919585227,92.24360919585227
2024-09-23 12:47:34.679117,41.21,21.90074,-0.0028852147413806935,-0.023230986250042305,0.09710254654607277,28.07457030097246,-92.24360919585227,92.24360919585227
2024-09-23 12:47:34.711645,41.21,21.90074,-0.0028852147413806935,-0.02313149783467906,0.09695331012558621,28.07457030097246,-92.24360919585227,92.24360919585227
2024-09-23 12:47:34.722970,41.21,21.900791,-0.0028852147413806935,-0.02313149783467906,0.09695331012558621,40.106058693909645,-96.25519929585457,84.22370748782159
2024-09-23 12:47:34.765645,40.81,21.900791,-0.0031836870127375577,-0.023479709566915436,0.0970030596496862,40.106058693909645,-96.25519929585457,84.22370748782159
2024-09-23 12:47:34.777436,40.81,21.900791,-0.0031836870127375577,-0.023479709566915436,0.0970030596496862,40.106058693909645,-96.25519929585457,84.22370748782159
2024-09-23 12:47:34.809746,40.81,21.90088,-0.0034324103296106863,-0.023479709566915436,0.0970030596496862,40.106058693909645,-96.25519929585457,84.22370748782159
2024-09-23 12:47:34.821604,40.81,21.90088,-0.0034324103296106863,-0.02367869399252531,0.0973015264147526,32.08287849390507,-100.26678939585686,84.22370748782159
2024-09-23 12:47:34.865025,40.81,21.900979,-0.0028852147413806935,-0.023728432883788564,0.09670458680871308,32.08287849390507,-100.26678939585686,88.23529758782387
2024-09-23 12:47:34.908896,40.81,21.90103,-0.0028852147413806935,-0.023728432883788564,0.09670458680871308,32.08287849390507,-104.27510100388527,84.22370748782159
2024-09-23 12:47:34.920124,40.81,21.90103,-0.0031339382481259063,-0.023181236725942318,0.0973512698629459,32.08287849390507,-104.27510100388527,84.22370748782159
2024-09-23 12:47:34.962255,40.81,21.90108,-0.0030344509719951677,-0.02338022115155219,0.0973512698629459,36.09446859390736,-96.25519929585457,76.200527287817
2024-09-23 12:47:35.004242,40.81,21.90108,-0.0030344509719951677,-0.02338022115155219,0.09725178296655933,44.11764879391193,-96.25519929585457,76.200527287817
2024-09-23 12:47:35.015608,40.81,21.901131,-0.0030841997366068195,-0.02338022115155219,0.09725178296655933,44.11764879391193,-100.26678939585686,76.200527287817
2024-09-23 12:47:35.058478,40.81,21.901221,-0.0030841997366068195,-0.02278327698858263,0.0973015264147526,36.09446859390736,-104.27510100388527,80.21211738781929
2024-09-23 12:47:35.102096,40.81,21.901221,-0.0033329230534799477,-0.02338022115155219,0.0973015264147526,36.09446859390736,-104.27510100388527,80.21211738781929
2024-09-23 12:47:35.113301,40.81,21.901221,-0.0033329230534799477,-0.02338022115155219,0.09720203344245934,36.09446859390736,-92.24360919585227,76.200527287817
2024-09-23 12:47:35.156929,40.81,21.901273,-0.0031836870127375577,-0.023429960042815445,0.09755024973162574,36.09446859390736,-92.24360919585227,76.200527287817
2024-09-23 12:47:35.168723,40.81,21.901273,-0.0031836870127375577,-0.023429960042815445,0.09755024973162574,36.09446859390736,-104.27510100388527,76.200527287817
2024-09-23 12:47:35.200934,40.81,21.901323,-0.003382661564999035,-0.023429960042815445,0.09755024973162574,36.09446859390736,-104.27510100388527,72.1922225099802
2024-09-23 12:47:35.212369,40.81,21.901323,-0.003382661564999035,-0.02352945757203875,0.0973512698629459,36.09446859390736,-104.27510100388527,72.1922225099802
2024-09-23 12:47:35.254946,40.81,21.901374,-0.0035816467500972456,-0.023579196463302005,0.09745075675933246,36.09446859390736,-104.27510100388527,80.21211738781929
2024-09-23 12:47:35.297350,40.81,21.901374,-0.0035816467500972456,-0.023579196463302005,0.09745075675933246,40.106058693909645,-100.26678939585686,80.21211738781929
2024-09-23 12:47:35.308735,40.81,21.901425,-0.0032831742888682963,-0.023330473146428877,0.09745075675933246,40.106058693909645,-100.26678939585686,80.21211738781929
2024-09-23 12:47:35.351483,40.81,21.901475,-0.0028852147413806935,-0.023330473146428877,0.09755024973162574,32.08287849390507,-108.28669110388756,80.21211738781929
2024-09-23 12:47:35.393395,40.81,21.901475,-0.0028852147413806935,-0.02303200030545576,0.09695331012558621,32.08287849390507,-108.28669110388756,80.21211738781929
2024-09-23 12:47:35.405195,40.81,21.901562,-0.0028852147413806935,-0.02303200030545576,0.09695331012558621,44.11764879391193,-96.25519929585457,76.200527287817
2024-09-23 12:47:35.448588,40.81,21.901562,-0.0027359787006383035,-0.023230986250042305,0.09725178296655933,36.09446859390736,-100.26678939585686,80.21211738781929
2024-09-23 12:47:35.492380,40.81,21.901614,-0.0033329230534799477,-0.02367869399252531,0.09725178296655933,36.09446859390736,-100.26678939585686,80.21211738781929
2024-09-23 12:47:35.503327,40.81,21.901614,-0.0033329230534799477,-0.02367869399252531,0.09750050628343246,32.08287849390507,-96.25519929585457,80.21211738781929
2024-09-23 12:47:35.547627,40.81,21.901665,-0.0030344509719951677,-0.0228827638849692,0.09745075675933246,36.09446859390736,-96.25519929585457,76.200527287817
2024-09-23 12:47:35.641416,40.81,21.901715,-0.0034324103296106863,-0.0228827638849692,0.09745075675933246,36.09446859390736,-96.25519929585457,80.21211738781929
2024-09-23 12:47:35.653306,40.81,21.901715,-0.0034324103296106863,-0.02362894446842532,0.09705279702197278,36.09446859390736,-96.25519929585457,80.21211738781929
2024-09-23 12:47:35.686780,40.81,21.901715,-0.0034324103296106863,-0.02362894446842532,0.09705279702197278,44.11764879391193,-96.25519929585457,80.21211738781929
2024-09-23 12:47:35.698709,40.81,21.901766,-0.0035318979854855937,-0.023429960042815445,0.09705279702197278,44.11764879391193,-96.25519929585457,80.21211738781929
2024-09-23 12:47:35.742187,40.81,21.901817,-0.003382661564999035,-0.023429960042815445,0.09670458680871308,36.09446859390736,-96.25519929585457,80.21211738781929
2024-09-23 12:47:35.786517,40.74,21.901817,-0.003382661564999035,-0.023181236725942318,0.0966050877605131,32.08287849390507,-96.25519929585457,80.21211738781929
2024-09-23 12:47:35.798206,40.74,21.901904,-0.003382661564999035,-0.023181236725942318,0.0966050877605131,32.08287849390507,-104.27510100388527,80.21211738781929
2024-09-23 12:47:35.830699,40.74,21.901904,-0.0028852147413806935,-0.023181236725942318,0.0966050877605131,32.08287849390507,-104.27510100388527,80.21211738781929
2024-09-23 12:47:35.841959,40.74,21.901904,-0.0028852147413806935,-0.02293251340906919,0.09690356060148622,40.106058693909645,-96.25519929585457,84.22370748782159
2024-09-23 12:47:35.883831,40.74,21.902002,-0.003631395514708897,-0.02352945757203875,0.09690356060148622,40.106058693909645,-96.25519929585457,84.22370748782159
2024-09-23 12:47:35.895747,40.74,21.902002,-0.003631395514708897,-0.02352945757203875,0.09720203344245934,36.09446859390736,-104.27510100388527,84.22370748782159
2024-09-23 12:47:35.928131,40.74,21.902002,-0.003631395514708897,-0.02352945757203875,0.09720203344245934,36.09446859390736,-104.27510100388527,84.22370748782159
2024-09-23 12:47:35.939868,40.74,21.902053,-0.0030841997366068195,-0.023728432883788564,0.09705279702197278,32.08287849390507,-104.27510100388527,84.22370748782159
2024-09-23 12:47:35.983261,40.74,21.902104,-0.0035816467500972456,-0.023728432883788564,0.09705279702197278,32.08287849390507,-104.27510100388527,84.22370748782159
2024-09-23 12:47:35.996193,40.74,21.902104,-0.0035816467500972456,-0.02313149783467906,0.0970030596496862,32.08287849390507,-104.27510100388527,84.22370748782159
2024-09-23 12:47:36.029822,40.74,21.902104,-0.0035816467500972456,-0.02313149783467906,0.0970030596496862,36.09446859390736,-96.25519929585457,84.22370748782159
2024-09-23 12:47:36.041391,40.74,21.902155,-0.0038801188315820256,-0.023330473146428877,0.0970030596496862,36.09446859390736,-96.25519929585457,84.22370748782159
2024-09-23 12:47:36.083651,40.74,21.902205,-0.002785727465249955,-0.023330473146428877,0.09745075675933246,36.09446859390736,-112.29828120388984,68.18063240997792
2024-09-23 12:47:36.126783,40.74,21.902205,-0.002785727465249955,-0.02303200030545576,0.09740101331113918,32.08287849390507,-112.29828120388984,68.18063240997792
2024-09-23 12:47:36.141923,40.74,21.902294,-0.002785727465249955,-0.02303200030545576,0.09740101331113918,32.08287849390507,-96.25519929585457,80.21211738781929
2024-09-23 12:47:36.174066,40.74,21.902294,-0.0034324103296106863,-0.023728432883788564,0.09740101331113918,32.08287849390507,-96.25519929585457,80.21211738781929
2024-09-23 12:47:36.185570,40.74,21.902294,-0.0034324103296106863,-0.023728432883788564,0.09720203344245934,32.08287849390507,-96.25519929585457,80.21211738781929
2024-09-23 12:47:36.227607,40.74,21.902345,-0.0036811340262279837,-0.023330473146428877,0.09655535038822652,36.09446859390736,-96.25519929585457,80.21211738781929
2024-09-23 12:47:36.239856,40.74,21.902345,-0.0036811340262279837,-0.023330473146428877,0.09655535038822652,36.09446859390736,-100.26678939585686,80.21211738781929
2024-09-23 12:47:36.271864,40.74,21.902396,-0.0036811340262279837,-0.023330473146428877,0.09655535038822652,36.09446859390736,-100.26678939585686,76.200527287817
2024-09-23 12:47:36.283045,40.74,21.902396,-0.0035816467500972456,-0.02313149783467906,0.09695331012558621,36.09446859390736,-100.26678939585686,76.200527287817
2024-09-23 12:47:36.377225,40.74,21.902447,-0.0030344509719951677,-0.023429960042815445,0.09740101331113918,36.09446859390736,-96.25519929585457,76.200527287817
2024-09-23 12:47:36.421365,40.74,21.902497,-0.0030344509719951677,-0.023429960042815445,0.09740101331113918,44.11764879391193,-100.26678939585686,80.21211738781929
2024-09-23 12:47:36.433279,40.74,21.902497,-0.0029349636958644295,-0.022982261414192504,0.09740101331113918,44.11764879391193,-100.26678939585686,80.21211738781929
2024-09-23 12:47:36.466036,40.74,21.902497,-0.0029349636958644295,-0.022982261414192504,0.09725178296655933,44.11764879391193,-100.26678939585686,80.21211738781929
2024-09-23 12:47:36.477858,40.74,21.902548,-0.0031339382481259063,-0.022982261414192504,0.09725178296655933,40.106058693909645,-96.25519929585457,80.21211738781929
2024-09-23 12:47:36.520508,40.74,21.902548,-0.0031339382481259063,-0.023579196463302005,0.09665483728461309,36.09446859390736,-100.26678939585686,80.21211738781929
2024-09-23 12:47:36.532575,40.74,21.902636,-0.0031339382481259063,-0.023579196463302005,0.09665483728461309,36.09446859390736,-100.26678939585686,80.21211738781929
2024-09-23 12:47:36.565384,40.74,21.902636,-0.003382661564999035,-0.02278327698858263,0.09670458680871308,36.09446859390736,-100.26678939585686,80.21211738781929
2024-09-23 12:47:36.577399,40.74,21.902636,-0.003382661564999035,-0.02278327698858263,0.09670458680871308,44.11764879391193,-100.26678939585686,84.22370748782159
2024-09-23 12:47:36.620006,40.74,21.902733,-0.0029847020175114316,-0.02308174982955575,0.09680407370509965,32.08287849390507,-92.24360919585227,84.22370748782159
2024-09-23 12:47:36.663101,40.74,21.902784,-0.0035318979854855937,-0.02308174982955575,0.09680407370509965,32.08287849390507,-92.24360919585227,80.21211738781929
2024-09-23 12:47:36.674886,40.74,21.902784,-0.0035318979854855937,-0.02313149783467906,0.09745075675933246,36.09446859390736,-92.24360919585227,80.21211738781929
2024-09-23 12:47:36.717330,40.74,21.902835,-0.0032831742888682963,-0.02362894446842532,0.0970030596496862,36.09446859390736,-96.25519929585457,80.21211738781929
2024-09-23 12:47:36.762295,40.74,21.902835,-0.0032831742888682963,-0.02362894446842532,0.0970030596496862,44.11764879391193,-96.25519929585457,76.200527287817
2024-09-23 12:47:36.773689,40.74,21.902886,-0.0030841997366068195,-0.02338022115155219,0.0970030596496862,44.11764879391193,-96.25519929585457,76.200527287817
2024-09-23 12:47:36.806468,41.04,21.902886,-0.0030841997366068195,-0.02338022115155219,0.09665483728461309,44.11764879391193,-96.25519929585457,76.200527287817
2024-09-23 12:47:36.818119,41.04,21.902936,-0.0037308827908396356,-0.02338022115155219,0.09665483728461309,44.11764879391193,-100.26678939585686,80.21211738781929
2024-09-23 12:47:36.860749,41.04,21.902936,-0.0037308827908396356,-0.023230986250042305,0.09715228999426605,36.09446859390736,-96.25519929585457,80.21211738781929
2024-09-23 12:47:36.872577,41.04,21.903025,-0.0037308827908396356,-0.023230986250042305,0.09715228999426605,36.09446859390736,-96.25519929585457,80.21211738781929
2024-09-23 12:47:36.904352,41.04,21.903025,-0.0029847020175114316,-0.023280723622328886,0.09715228999426605,36.09446859390736,-96.25519929585457,80.21211738781929
2024-09-23 12:47:36.957143,41.04,21.903025,-0.0029847020175114316,-0.023280723622328886,0.0970030596496862,40.106058693909645,-96.25519929585457,84.22370748782159
2024-09-23 12:47:36.968978,41.04,21.903077,-0.003233425524256645,-0.023280723622328886,0.0970030596496862,40.106058693909645,-96.25519929585457,84.22370748782159
2024-09-23 12:47:37.000679,41.04,21.903077,-0.003233425524256645,-0.023479709566915436,0.0970030596496862,40.106058693909645,-96.25519929585457,84.22370748782159
2024-09-23 12:47:37.012660,41.04,21.903077,-0.003233425524256645,-0.023479709566915436,0.09745075675933246,40.106058693909645,-96.25519929585457,84.22370748782159
2024-09-23 12:47:37.054789,41.04,21.903127,-0.003233425524256645,-0.023479709566915436,0.09745075675933246,40.106058693909645,-92.24360919585227,84.22370748782159
2024-09-23 12:47:37.066071,41.04,21.903127,-0.0031339382481259063,-0.023877669304275123,0.09705279702197278,40.106058693909645,-92.24360919585227,84.22370748782159
2024-09-23 12:47:37.098175,41.04,21.903127,-0.0031339382481259063,-0.023877669304275123,0.09705279702197278,40.106058693909645,-92.24360919585227,84.22370748782159
2024-09-23 12:47:37.109792,41.04,21.903178,-0.0032831742888682963,-0.023579196463302005,0.09705279702197278,40.106058693909645,-96.25519929585457,84.22370748782159
2024-09-23 12:47:37.152517,41.04,21.903178,-0.0032831742888682963,-0.023579196463302005,0.0973512698629459,40.106058693909645,-96.25519929585457,84.22370748782159
2024-09-23 12:47:37.163773,41.04,21.903229,-0.003631395514708897,-0.023579196463302005,0.0973512698629459,40.106058693909645,-96.25519929585457,84.22370748782159
2024-09-23 12:47:37.195432,41.04,21.903229,-0.003631395514708897,-0.022833026512682618,0.0973512698629459,40.106058693909645,-96.25519929585457,84.22370748782159
2024-09-23 12:47:37.207249,41.04,21.903319,-0.003631395514708897,-0.022833026512682618,0.0973015264147526,36.09446859390736,-100.26678939585686,76.200527287817
2024-09-23 12:47:37.249165,41.04,21.903319,-0.003382661564999035,-0.023827930413011865,0.09725178296655933,40.106058693909645,-100.26678939585686,76.200527287817
2024-09-23 12:47:37.260749,41.04,21.903319,-0.003382661564999035,-0.023827930413011865,0.09725178296655933,40.106058693909645,-96.25519929585457,80.21211738781929
2024-09-23 12:47:37.292872,41.04,21.903416,-0.003382661564999035,-0.023827930413011865,0.09725178296655933,40.106058693909645,-96.25519929585457,80.21211738781929
2024-09-23 12:47:37.303819,41.04,21.903416,-0.0030344509719951677,-0.023181236725942318,0.09680407370509965,32.08287849390507,-100.26678939585686,80.21211738781929
2024-09-23 12:47:37.345675,41.04,21.903467,-0.003382661564999035,-0.023181236725942318,0.09680407370509965,32.08287849390507,-100.26678939585686,84.22370748782159
2024-09-23 12:47:37.357168,41.04,21.903467,-0.003382661564999035,-0.023479709566915436,0.09695331012558621,36.09446859390736,-100.26678939585686,84.22370748782159
2024-09-23 12:47:37.400231,41.04,21.903518,-0.003631395514708897,-0.02338022115155219,0.09715228999426605,36.09446859390736,-96.25519929585457,80.21211738781929
2024-09-23 12:47:37.442764,41.04,21.903518,-0.003631395514708897,-0.02338022115155219,0.09715228999426605,36.09446859390736,-100.26678939585686,80.21211738781929
2024-09-23 12:47:37.454530,41.04,21.903568,-0.003482159473966507,-0.023479709566915436,0.09715228999426605,36.09446859390736,-100.26678939585686,80.21211738781929
2024-09-23 12:47:37.497727,41.04,21.903619,-0.0028354659767690416,-0.023479709566915436,0.09685382322919964,44.11764879391193,-100.26678939585686,76.200527287817
