Ayaan's Suite
Timestamp,Sample Rate (Hz),Time,Ax,Ay,Az,Gx,Gy,Gz
2024-09-23 00:02:51.172219,0,1.594014,-0.015976452377836518,0.02085484192155066,1.01542506864433,0.40685746554275976,-1.1243154934130608,-1.3999655917346479
2024-09-23 00:02:51.204790,0,1.594014,-0.015976452377836518,0.019513251341567978,1.01542506864433,0.40685746554275976,-1.1243154934130608,-1.3999655917346479
2024-09-23 00:02:51.215679,0,1.5941,-0.015976452377836518,0.019513251341567978,1.0131688171448936,0.42433269754573705,-1.0893650827679784,-1.518109550486505
2024-09-23 00:02:51.258367,0,1.5941,-0.013842202047081654,0.021830479121718566,1.0134127283436565,0.37184974532118065,-1.0893650827679784,-1.518109550486505
2024-09-23 00:02:51.270598,0,1.5941,-0.013842202047081654,0.021830479121718566,1.0134127283436565,0.37184974532118065,-1.216217962712422,-1.4655692620050162
2024-09-23 00:02:51.303182,0,1.594152,-0.011220081471035847,0.021830479121718566,1.0134127283436565,0.37184974532118065,-1.216217962712422,-1.4655692620050162
2024-09-23 00:02:51.315728,0,1.594152,-0.011220081471035847,0.019330377182586234,1.0151811574455674,0.26247207069927825,-1.014995075006783,-1.4655692620050162
2024-09-23 00:02:51.359261,0,1.594203,-0.013232416455291218,0.02097675802753849,1.0104856967439952,0.29306802074806765,-1.014995075006783,-1.5487055005352943
2024-09-23 00:02:51.401248,0,1.594203,-0.013232416455291218,0.02097675802753849,1.0104856967439952,0.29306802074806765,-1.0543573625463993,-1.4787472629468887
2024-09-23 00:02:51.412346,0,1.594253,-0.012378695361111141,0.022318348607521174,1.011034569852092,0.29306802074806765,-1.0543573625463993,-1.4787472629468887
2024-09-23 00:02:51.455333,0,1.594304,-0.015488684663471218,0.020306014382754138,1.011034569852092,0.38932495064372197,-1.1024857741333545,-1.4874562908612192
2024-09-23 00:02:51.497471,0,1.594304,-0.015488684663471218,0.020306014382754138,1.017254451242305,0.38932495064372197,-1.1024857741333545,-1.4874562908612192
2024-09-23 00:02:51.508946,0,1.594355,-0.014939857124674697,0.020306014382754138,1.017254451242305,0.3280757409696467,-1.0630662837389857,-1.4787472629468887
2024-09-23 00:02:51.551129,0,1.594355,-0.014939857124674697,0.02048899031317319,1.0157299333391567,0.3456082558686845,-1.0674780539117754,-1.4787472629468887
2024-09-23 00:02:51.562901,0,1.594442,-0.014939857124674697,0.02048899031317319,1.0157299333391567,0.3456082558686845,-1.0674780539117754,-1.3911993609655648
2024-09-23 00:02:51.594709,0,1.594442,-0.015000815177668611,0.02048899031317319,1.0157299333391567,0.3456082558686845,-1.0674780539117754,-1.3911993609655648
2024-09-23 00:02:51.606092,0,1.594442,-0.015000815177668611,0.020306014382754138,1.0132298678554648,0.3280757409696467,-1.2118635021161288,-1.474335492774099
2024-09-23 00:02:51.649134,0,1.594493,-0.015793578218854774,0.021281651582922046,1.0151202039495033,0.3280757409696467,-1.2118635021161288,-1.474335492774099
2024-09-23 00:02:51.660805,0,1.594493,-0.015793578218854774,0.021281651582922046,1.0151202039495033,0.3062460483703762,-1.1024857741333545,-1.474335492774099
2024-09-23 00:02:51.694655,0,1.594544,-0.015793578218854774,0.021281651582922046,1.0151202039495033,0.3062460483703762,-1.1024857741333545,-1.483101830264926
2024-09-23 00:02:51.705919,0,1.594544,-0.01408613603049462,0.018293680157987106,1.016705578134208,0.27123832814879717,-1.1024857741333545,-1.483101830264926
2024-09-23 00:02:51.749187,0,1.594595,-0.012988480952901577,0.021952496999143704,1.0113394345469187,0.27123832814879717,-1.1287272635858505,-1.4655692620050162
2024-09-23 00:02:51.792611,0,1.594595,-0.012988480952901577,0.021952496999143704,1.0113394345469187,0.31060053564710544,-1.1199610328167677,-1.4218526205908506
2024-09-23 00:02:51.804368,0,1.594645,-0.012988480952901577,0.019940162774376668,1.0113394345469187,0.31060053564710544,-1.1199610328167677,-1.4218526205908506
2024-09-23 00:02:51.847198,0,1.594696,-0.012256778495634975,0.019940162774376668,1.018413053740055,0.3543172304221429,-1.1506142924420535,-1.434973311956227
2024-09-23 00:02:51.889945,0,1.594696,-0.012256778495634975,0.01926931735815501,1.0135347325502915,0.29306802074806765,-1.1506142924420535,-1.434973311956227
2024-09-23 00:02:51.901414,0,1.594783,-0.012256778495634975,0.01926931735815501,1.0135347325502915,0.29306802074806765,-1.0937195433642715,-1.5355847024481744
2024-09-23 00:02:51.944394,0,1.594783,-0.01219582044264106,0.018598572194393984,1.0148152420401695,0.29747979092085736,-1.0105833048339934,-1.469981032177806
2024-09-23 00:02:51.988315,0,1.594835,-0.010244444270867941,0.018049744655597465,1.0146933350480416,0.29747979092085736,-1.0105833048339934,-1.469981032177806
2024-09-23 00:02:51.999990,0,1.594835,-0.010244444270867941,0.018049744655597465,1.0146933350480416,0.42433269754573705,-1.0718325145080685,-1.469981032177806
2024-09-23 00:02:52.042381,0,1.594885,-0.006829663944049955,0.02213537267710212,1.0113394345469187,0.3543172304221429,-1.0718325145080685,-1.6099547102093696
2024-09-23 00:02:52.085263,0,1.594936,-0.006829663944049955,0.02213537267710212,1.0113394345469187,0.3543172304221429,-1.0499454856518655,-1.5136977803137153
2024-09-23 00:02:52.097231,0,1.594936,-0.011159123418041933,0.020549948366167105,1.0167666288447792,0.3543172304221429,-1.0499454856518655,-1.5136977803137153
2024-09-23 00:02:52.130216,0,1.594936,-0.011159123418041933,0.020549948366167105,1.0167666288447792,0.3411964856958948,-1.0499454856518655,-1.5136977803137153
2024-09-23 00:02:52.141689,0,1.594987,-0.009512741813601339,0.01890346574977754,1.0167666288447792,0.3411964856958948,-1.1068402347296475,-1.43932777255252
2024-09-23 00:02:52.184023,42.99,1.594987,-0.009512741813601339,0.01890346574977754,1.0148152420401695,0.27559278874509036,-1.0893650827679784,-1.461214801408723
2024-09-23 00:02:52.195599,42.99,1.595038,-0.011281142054955407,0.01890346574977754,1.0148152420401695,0.27559278874509036,-1.0893650827679784,-1.461214801408723
2024-09-23 00:02:52.228458,42.99,1.595038,-0.011281142054955407,0.021464627513341095,1.0148152420401695,0.27559278874509036,-1.0893650827679784,-1.461214801408723
2024-09-23 00:02:52.281421,42.99,1.595038,-0.011281142054955407,0.021464627513341095,1.0134127283436565,0.27559278874509036,-1.0893650827679784,-1.461214801408723
2024-09-23 00:02:52.334610,42.99,1.595124,-0.014695923141261731,0.020306014382754138,1.0134127283436565,0.2668265312955715,-1.0237041029211134,-1.4787472629468887
2024-09-23 00:02:52.377692,42.99,1.595124,-0.014695923141261731,0.020306014382754138,1.0167666288447792,0.3237212803733535,-0.993108152872324,-1.4787472629468887
2024-09-23 00:02:52.389362,42.99,1.595176,-0.010915188675140628,0.020306014382754138,1.0167666288447792,0.3237212803733535,-0.993108152872324,-1.4655692620050162
2024-09-23 00:02:52.431840,42.99,1.595226,-0.010915188675140628,0.01798878660260355,1.0134127283436565,0.3630834878716618,-1.0805987452771515,-1.474335492774099
2024-09-23 00:02:52.474334,42.99,1.595226,-0.014147094083488534,0.02018409827676631,1.0134127283436565,0.3630834878716618,-1.0805987452771515,-1.474335492774099
2024-09-23 00:02:52.486392,42.99,1.595226,-0.014147094083488534,0.02018409827676631,1.0140835084438808,0.40685746554275976,-1.0587118231426924,-1.3999655917346479
2024-09-23 00:02:52.528824,42.99,1.595277,-0.013049540777332799,0.02067186599113161,1.015608026347029,0.26247207069927825,-1.0587118231426924,-1.3999655917346479
2024-09-23 00:02:52.540895,42.99,1.595277,-0.013049540777332799,0.02067186599113161,1.015608026347029,0.26247207069927825,-1.1068402347296475,-1.3999655917346479
2024-09-23 00:02:52.573005,42.99,1.595418,-0.013049540777332799,0.02067186599113161,1.015608026347029,0.26247207069927825,-1.1068402347296475,-1.4524485706396402
2024-09-23 00:02:52.584785,42.99,1.595418,-0.010793271809664462,0.02237930666051509,1.0152421109416312,0.2318188110739924,-1.1068402347296475,-1.4524485706396402
2024-09-23 00:02:52.617822,42.99,1.595418,-0.010793271809664462,0.02237930666051509,1.0152421109416312,0.2318188110739924,-1.0543573625463993,-1.4524485706396402
2024-09-23 00:02:52.629339,42.99,1.595469,-0.017257084904825287,0.02237930666051509,1.0152421109416312,0.2318188110739924,-1.0543573625463993,-1.3255955839734523
2024-09-23 00:02:52.671980,42.99,1.595469,-0.017257084904825287,0.02085484192155066,1.0165227176460165,0.3280757409696467,-0.9843418153814971,-1.3255955839734523
2024-09-23 00:02:52.683873,42.99,1.59552,-0.017257084904825287,0.02085484192155066,1.0165227176460165,0.3280757409696467,-0.9843418153814971,-1.3255955839734523
2024-09-23 00:02:52.716591,42.99,1.59552,-0.013476350438704184,0.02085484192155066,1.0165227176460165,0.3280757409696467,-0.9843418153814971,-1.3255955839734523
2024-09-23 00:02:52.730000,42.99,1.59552,-0.013476350438704184,0.019696228790963704,1.0135347325502915,0.3849704900474288,-1.0455910250555724,-1.539996472620964
2024-09-23 00:02:52.772685,42.99,1.595571,-0.012927522899907663,0.02067186599113161,1.0114614387535539,0.3630834878716618,-1.1199610328167677,-1.539996472620964
2024-09-23 00:02:52.815172,42.99,1.59566,-0.012927522899907663,0.02067186599113161,1.0114614387535539,0.3630834878716618,-1.1199610328167677,-1.469981032177806
2024-09-23 00:02:52.826155,42.99,1.59566,-0.01378124399408774,0.01939133523558015,1.0124370835486052,0.3630834878716618,-1.1199610328167677,-1.469981032177806
2024-09-23 00:02:52.869974,42.99,1.595712,-0.015183792627064338,0.022318348607521174,1.0176813201437667,0.3630834878716618,-1.3080631224352866,-1.4306188513599336
2024-09-23 00:02:52.912344,42.99,1.595712,-0.015183792627064338,0.022318348607521174,1.0176813201437667,0.3499627431454137,-1.1506142924420535,-1.4306188513599336
2024-09-23 00:02:52.923665,42.99,1.595763,-0.011403058160943235,0.020549948366167105,1.0176813201437667,0.3499627431454137,-1.1506142924420535,-1.5136977803137153
2024-09-23 00:02:52.966033,42.99,1.595813,-0.011403058160943235,0.020549948366167105,1.013778546534547,0.3543172304221429,-1.1899764732599258,-1.43932777255252
2024-09-23 00:02:52.978221,42.99,1.595813,-0.01341539238571027,0.020549948366167105,1.013778546534547,0.3543172304221429,-1.1899764732599258,-1.43932777255252
2024-09-23 00:02:53.009969,42.99,1.595813,-0.01341539238571027,0.01926931735815501,1.0134736818397203,0.3543172304221429,-1.1899764732599258,-1.43932777255252
2024-09-23 00:02:53.021235,42.99,1.595904,-0.01341539238571027,0.01926931735815501,1.0134736818397203,0.2668265312955715,-1.0455910250555724,-1.5136977803137153
2024-09-23 00:02:53.063708,42.99,1.595904,-0.012073802565215924,0.02097675802753849,1.0133517748475924,0.3543172304221429,-0.9974626134686172,-1.5136977803137153
2024-09-23 00:02:53.075468,42.99,1.595904,-0.012073802565215924,0.02097675802753849,1.0133517748475924,0.3543172304221429,-0.9974626134686172,-1.5268184716790913
2024-09-23 00:02:53.108724,42.99,1.595956,-0.01146401621393715,0.019879204721382753,1.0133517748475924,0.3543172304221429,-0.9974626134686172,-1.5268184716790913
2024-09-23 00:02:53.120544,42.99,1.595956,-0.01146401621393715,0.019879204721382753,1.0143883731387076,0.3368419984191656,-1.0718325145080685,-1.5268184716790913
2024-09-23 00:02:53.163223,42.99,1.596006,-0.010610295879245411,0.020366972435748053,1.0125589905407328,0.26247207069927825,-1.0718325145080685,-1.4568603408124299
2024-09-23 00:02:53.205917,42.54,1.596057,-0.010610295879245411,0.020366972435748053,1.0125589905407328,0.26247207069927825,-1.2687009416174144,-1.3911993609655648
2024-09-23 00:02:53.217195,42.54,1.596057,-0.012256778495634975,0.019879204721382753,1.014205512650516,0.26247207069927825,-1.2687009416174144,-1.3911993609655648
2024-09-23 00:02:53.260634,42.54,1.596108,-0.01408613603049462,0.021586543619328925,1.014205512650516,0.28871353347133843,-1.1462025222692638,-1.3606034109167755
2024-09-23 00:02:53.302462,42.54,1.596108,-0.01408613603049462,0.021586543619328925,1.01231507934197,0.3368419984191656,-1.1462025222692638,-1.3606034109167755
2024-09-23 00:02:53.313651,42.54,1.596159,-0.013232416455291218,0.021586543619328925,1.01231507934197,0.3368419984191656,-1.0937195433642715,-1.483101830264926
2024-09-23 00:02:53.355770,42.54,1.596159,-0.013232416455291218,0.019818144896951533,1.0104856967439952,0.37620423259790986,-1.1287272635858505,-1.4568603408124299
2024-09-23 00:02:53.367467,42.54,1.596246,-0.013232416455291218,0.019818144896951533,1.0104856967439952,0.37620423259790986,-1.1287272635858505,-1.4568603408124299
2024-09-23 00:02:53.399998,42.54,1.596246,-0.011586034850850625,0.01914740125216718,1.0104856967439952,0.37620423259790986,-1.1287272635858505,-1.4568603408124299
2024-09-23 00:02:53.411477,42.54,1.596246,-0.011586034850850625,0.01914740125216718,1.0130469101527657,0.3149550229238346,-1.028115873093903,-1.5443510399390012
2024-09-23 00:02:53.454247,42.54,1.596297,-0.011159123418041933,0.019452293288574063,1.0135347325502915,0.3368419984191656,-1.0718325145080685,-1.5443510399390012
2024-09-23 00:02:53.497936,42.54,1.596348,-0.011159123418041933,0.019452293288574063,1.0135347325502915,0.3368419984191656,-1.0718325145080685,-1.5005769822265953
2024-09-23 00:02:53.509482,42.54,1.596348,-0.014634963569291141,0.01768389456619667,1.017010540043542,0.3062460483703762,-1.0718325145080685,-1.5005769822265953
2024-09-23 00:02:53.553296,42.54,1.596398,-0.01256167205101853,0.020001120827370582,1.0150592504534395,0.3062460483703762,-1.0455910250555724,-1.3168293532043696
2024-09-23 00:02:53.597893,42.54,1.596398,-0.01256167205101853,0.020001120827370582,1.0150592504534395,0.3280757409696467,-1.0674780539117754,-1.3080631224352866
2024-09-23 00:02:53.610022,42.54,1.596449,-0.013842202047081654,0.019879204721382753,1.0150592504534395,0.3280757409696467,-1.0674780539117754,-1.3080631224352866
2024-09-23 00:02:53.641937,42.54,1.596449,-0.013842202047081654,0.019879204721382753,1.015668979843093,0.3280757409696467,-1.0674780539117754,-1.3080631224352866
2024-09-23 00:02:53.653648,42.54,1.5965,-0.015549642716465131,0.019879204721382753,1.015668979843093,0.3237212803733535,-1.0674780539117754,-1.3387163820605725
2024-09-23 00:02:53.696614,42.54,1.5965,-0.015549642716465131,0.019025483627202678,1.0151202039495033,0.38932495064372197,-1.1287272635858505,-1.4306188513599336
2024-09-23 00:02:53.708389,42.54,1.596587,-0.015549642716465131,0.019025483627202678,1.0151202039495033,0.38932495064372197,-1.1287272635858505,-1.4306188513599336
2024-09-23 00:02:53.740637,42.54,1.596587,-0.011768909009832369,0.02311100987727003,1.0151202039495033,0.38932495064372197,-1.1287272635858505,-1.4306188513599336
2024-09-23 00:02:53.751912,42.54,1.596587,-0.011768909009832369,0.02311100987727003,1.0178032271358946,0.38932495064372197,-1.1199610328167677,-1.553117270708084
2024-09-23 00:02:53.793723,42.54,1.596638,-0.013720285941093825,0.020610907938137694,1.0114614387535539,0.38932495064372197,-1.1199610328167677,-1.553117270708084
2024-09-23 00:02:53.804873,42.54,1.596638,-0.013720285941093825,0.020610907938137694,1.0114614387535539,0.3499627431454137,-1.1374934943549335,-1.553117270708084
2024-09-23 00:02:53.836498,42.54,1.596638,-0.013720285941093825,0.020610907938137694,1.0114614387535539,0.3499627431454137,-1.1374934943549335,-1.6056002496130763
2024-09-23 00:02:53.848057,42.54,1.596689,-0.012622630104012445,0.01939133523558015,1.01426646614658,0.3237212803733535,-1.1374934943549335,-1.6056002496130763
2024-09-23 00:02:53.890137,42.54,1.59674,-0.014512945691866003,0.01939133523558015,1.01426646614658,0.3237212803733535,-1.0762442846808582,-1.3999655917346479
2024-09-23 00:02:53.902027,42.54,1.59674,-0.014512945691866003,0.021159735476934217,1.0157299333391567,0.3237212803733535,-1.0762442846808582,-1.3999655917346479
2024-09-23 00:02:53.933575,42.54,1.59674,-0.014512945691866003,0.021159735476934217,1.0157299333391567,0.3280757409696467,-1.0762442846808582,-1.3999655917346479
2024-09-23 00:02:53.944600,42.54,1.596791,-0.009451681989170117,0.021464627513341095,1.0157299333391567,0.3280757409696467,-1.1068402347296475,-1.4174980532728136
2024-09-23 00:02:53.987355,42.54,1.596791,-0.009451681989170117,0.021464627513341095,1.015608026347029,0.3280757409696467,-1.1068402347296475,-1.4174980532728136
2024-09-23 00:02:54.040636,42.54,1.596841,-0.012073802565215924,0.020366972435748053,1.015608026347029,0.3324875378228724,-1.1549687530383468,-1.539996472620964
2024-09-23 00:02:54.084137,42.54,1.596841,-0.012073802565215924,0.020366972435748053,1.0146322843374704,0.29747979092085736,-1.0849533125951887,-1.539996472620964
2024-09-23 00:02:54.095698,42.54,1.596928,-0.010854230622146716,0.020366972435748053,1.0146322843374704,0.29747979092085736,-1.0849533125951887,-1.5443510399390012
2024-09-23 00:02:54.138354,42.54,1.59698,-0.010854230622146716,0.020610907938137694,1.0137175930384832,0.41121195281948897,-1.1768557818945498,-1.504988752399385
2024-09-23 00:02:54.181430,42.54,1.59698,-0.009756574785065334,0.02134260963591596,1.0131078636488298,0.41121195281948897,-1.1768557818945498,-1.504988752399385
2024-09-23 00:02:54.193207,42.54,1.59698,-0.009756574785065334,0.02134260963591596,1.0131078636488298,0.37620423259790986,-1.1330817241821438,-1.426207081187144
2024-09-23 00:02:54.236257,42.92,1.597031,-0.013171458402297304,0.02097675802753849,1.0119492611510794,0.3018342781975865,-1.1024857741333545,-1.426207081187144
2024-09-23 00:02:54.278827,42.92,1.597124,-0.013598266544692013,0.02097675802753849,1.0119492611510794,0.3018342781975865,-1.1024857741333545,-1.509343212995678
2024-09-23 00:02:54.290254,42.92,1.597124,-0.013598266544692013,0.021159735476934217,1.018534960732183,0.3237212803733535,-1.1024857741333545,-1.509343212995678
2024-09-23 00:02:54.373840,42.92,1.597124,-0.013598266544692013,0.021159735476934217,1.018534960732183,0.3237212803733535,-1.1199610328167677,-1.509343212995678
2024-09-23 00:02:54.385209,42.92,1.597175,-0.01408613603049462,0.020366972435748053,1.0122541258459061,0.3237212803733535,-1.1199610328167677,-1.4174980532728136
2024-09-23 00:02:54.428669,42.92,1.597226,-0.010488379013769245,0.020366972435748053,1.0122541258459061,0.42433269754573705,-1.1287272635858505,-1.3649578715130686
2024-09-23 00:02:54.472418,42.92,1.597226,-0.010488379013769245,0.01939133523558015,1.0151811574455674,0.42433269754573705,-1.1287272635858505,-1.3649578715130686
2024-09-23 00:02:54.483685,42.92,1.597277,-0.010488379013769245,0.01939133523558015,1.0151811574455674,0.3456082558686845,-1.2293386540777982,-1.5443510399390012
2024-09-23 00:02:54.526439,42.92,1.597277,-0.012744546969488612,0.022989092252305523,1.015668979843093,0.4155664400962181,-1.0455910250555724,-1.5443510399390012
2024-09-23 00:02:54.538479,42.92,1.597277,-0.012744546969488612,0.022989092252305523,1.015668979843093,0.4155664400962181,-1.0455910250555724,-1.4306188513599336
2024-09-23 00:02:54.570052,42.92,1.597367,-0.013232416455291218,0.022989092252305523,1.015668979843093,0.4155664400962181,-1.0455910250555724,-1.4306188513599336
2024-09-23 00:02:54.581904,42.92,1.597367,-0.013232416455291218,0.022318348607521174,1.0129859566567019,0.3849704900474288,-1.216217962712422,-1.4306188513599336
2024-09-23 00:02:54.623724,42.92,1.597465,-0.013842202047081654,0.02201345505213762,1.015973941752427,0.3849704900474288,-1.216217962712422,-1.4787472629468887
2024-09-23 00:02:54.635811,42.92,1.597465,-0.013842202047081654,0.02201345505213762,1.015973941752427,0.3018342781975865,-1.216217962712422,-1.4787472629468887
2024-09-23 00:02:54.667948,42.92,1.597465,-0.013842202047081654,0.02201345505213762,1.015973941752427,0.3018342781975865,-1.0980740039605648,-1.4437395427253097
2024-09-23 00:02:54.679500,42.92,1.597516,-0.012012843752733671,0.01890346574977754,1.016705578134208,0.3018342781975865,-1.0980740039605648,-1.4437395427253097
2024-09-23 00:02:54.722483,42.92,1.597567,-0.013842202047081654,0.018171764051999276,1.016705578134208,0.28871353347133843,-1.1111946953259408,-1.4655692620050162
2024-09-23 00:02:54.764464,42.92,1.597567,-0.013842202047081654,0.018171764051999276,1.0159129882563631,0.4287444677185267,-1.1111946953259408,-1.4655692620050162
2024-09-23 00:02:54.776345,42.92,1.597618,-0.01408613603049462,0.018171764051999276,1.0159129882563631,0.4287444677185267,-1.0849533125951887,-1.3780785628784449
2024-09-23 00:02:54.818874,42.92,1.597618,-0.01408613603049462,0.02176952106872465,1.0146322843374704,0.3237212803733535,-1.1418479549512268,-1.3780785628784449
2024-09-23 00:02:54.831173,42.92,1.597708,-0.01408613603049462,0.02176952106872465,1.0146322843374704,0.3237212803733535,-1.1418479549512268,-1.539996472620964
2024-09-23 00:02:54.862701,42.92,1.597708,-0.012927522899907663,0.02213537267710212,1.0146322843374704,0.3237212803733535,-1.1418479549512268,-1.539996472620964
2024-09-23 00:02:54.873962,42.92,1.597708,-0.012927522899907663,0.02213537267710212,1.0134127283436565,0.3368419984191656,-1.1506142924420535,-1.553117270708084
2024-09-23 00:02:54.916978,42.92,1.59776,-0.013232416455291218,0.022867176146317694,1.0143274196426437,0.3237212803733535,-1.1506142924420535,-1.553117270708084
2024-09-23 00:02:54.928726,42.92,1.59776,-0.013232416455291218,0.022867176146317694,1.0143274196426437,0.3237212803733535,-1.203097164625302,-1.553117270708084
2024-09-23 00:02:54.961881,42.92,1.59781,-0.013049540777332799,0.022867176146317694,1.0143274196426437,0.3237212803733535,-1.203097164625302,-1.4087318225037306
2024-09-23 00:02:54.973266,42.92,1.59781,-0.013049540777332799,0.021159735476934217,1.0130469101527657,0.3280757409696467,-1.203097164625302,-1.4087318225037306
2024-09-23 00:02:55.015858,42.92,1.597861,-0.012134760618209839,0.019330377182586234,1.01542506864433,0.3280757409696467,-1.0937195433642715,-1.3649578715130686
2024-09-23 00:02:55.059009,42.92,1.597861,-0.012134760618209839,0.019330377182586234,1.01542506864433,0.38061600277069957,-1.0893650827679784,-1.3343619214642792
2024-09-23 00:02:55.070303,42.92,1.597912,-0.01365932788809991,0.02207441310513153,1.01542506864433,0.38061600277069957,-1.0893650827679784,-1.3343619214642792
2024-09-23 00:02:55.112189,42.92,1.597962,-0.012500713238536278,0.02207441310513153,1.0149372462468045,0.37620423259790986,-1.1943309338562191,-1.4174980532728136
2024-09-23 00:02:55.154760,42.92,1.597962,-0.012500713238536278,0.01890346574977754,1.0159129882563631,0.37620423259790986,-1.1943309338562191,-1.4174980532728136
2024-09-23 00:02:55.166436,42.92,1.598049,-0.012500713238536278,0.01890346574977754,1.0159129882563631,0.3368419984191656,-1.1243154934130608,-1.483101830264926
2024-09-23 00:02:55.209586,42.92,1.598049,-0.01573262016586086,0.017561976941232165,1.0121322188537785,0.3411964856958948,-1.1199610328167677,-1.4874562908612192
2024-09-23 00:02:55.252777,42.27,1.598101,-0.013903160100075569,0.017561976941232165,1.0121322188537785,0.3411964856958948,-1.1199610328167677,-1.4874562908612192
2024-09-23 00:02:55.263894,42.27,1.598101,-0.013903160100075569,0.02122069352992813,1.0128639524500669,0.3674952580444515,-0.9886962759777903,-1.4874562908612192
2024-09-23 00:02:55.308196,42.27,1.598152,-0.010854230622146716,0.020732824044125523,1.015608026347029,0.3849704900474288,-0.9886962759777903,-1.3518370734259486
2024-09-23 00:02:55.351459,42.27,1.598202,-0.010854230622146716,0.020732824044125523,1.015608026347029,0.3849704900474288,-1.0587118231426924,-1.3780785628784449
2024-09-23 00:02:55.363274,42.27,1.598202,-0.014025177977500705,0.020732824044125523,1.015608026347029,0.3849704900474288,-1.0587118231426924,-1.3780785628784449
2024-09-23 00:02:55.405674,42.27,1.598253,-0.014025177977500705,0.02085484192155066,1.0152421109416312,0.40685746554275976,-1.0368247942864894,-1.4218526205908506
2024-09-23 00:02:55.449234,42.27,1.598253,-0.01042742096077533,0.021708563015730736,1.0132908213515286,0.40685746554275976,-1.0368247942864894,-1.4218526205908506
2024-09-23 00:02:55.460848,42.27,1.598253,-0.01042742096077533,0.021708563015730736,1.0132908213515286,0.27559278874509036,-1.1287272635858505,-1.483101830264926
2024-09-23 00:02:55.503345,42.27,1.598304,-0.015549642716465131,0.019025483627202678,1.0153031616522024,0.40685746554275976,-1.0587118231426924,-1.483101830264926
2024-09-23 00:02:55.546811,42.27,1.598391,-0.01445198763887209,0.019025483627202678,1.0153031616522024,0.40685746554275976,-1.0587118231426924,-1.4874562908612192
2024-09-23 00:02:55.558662,42.27,1.598391,-0.01445198763887209,0.018781549643789714,1.0120712653577144,0.3149550229238346,-1.0587118231426924,-1.4874562908612192
2024-09-23 00:02:55.591180,42.27,1.598391,-0.01445198763887209,0.018781549643789714,1.0120712653577144,0.3149550229238346,-1.1680894444037229,-1.4874562908612192
2024-09-23 00:02:55.602478,42.27,1.598442,-0.01408613603049462,0.02134260963591596,1.019693563229933,0.3149550229238346,-1.1680894444037229,-1.4655692620050162
2024-09-23 00:02:55.644343,42.27,1.598493,-0.01408613603049462,0.02134260963591596,1.019693563229933,0.39373674749694765,-1.1943309338562191,-1.434973311956227
2024-09-23 00:02:55.656126,42.27,1.598493,-0.013354434332716355,0.019513251341567978,1.019693563229933,0.39373674749694765,-1.1943309338562191,-1.434973311956227
2024-09-23 00:02:55.688511,42.27,1.598493,-0.013354434332716355,0.019513251341567978,1.012620041251304,0.39373674749694765,-1.1943309338562191,-1.434973311956227
2024-09-23 00:02:55.741128,42.27,1.598493,-0.013354434332716355,0.019513251341567978,1.012620041251304,0.37620423259790986,-1.0718325145080685,-1.448094003321603
2024-09-23 00:02:55.752704,42.27,1.598543,-0.013354434332716355,0.02048899031317319,1.012620041251304,0.37620423259790986,-1.0718325145080685,-1.448094003321603
2024-09-23 00:02:55.797015,42.27,1.598634,-0.012866564846913748,0.02048899031317319,1.0114614387535539,0.3280757409696467,-1.1199610328167677,-1.496222521630302
2024-09-23 00:02:55.840174,42.27,1.598634,-0.012866564846913748,0.020610907938137694,1.0123761300525411,0.4155664400962181,-1.1199610328167677,-1.496222521630302
2024-09-23 00:02:55.851246,42.27,1.598686,-0.012866564846913748,0.020610907938137694,1.0123761300525411,0.4155664400962181,-1.1199610328167677,-1.3737241022821516
2024-09-23 00:02:55.893964,42.27,1.598686,-0.011342100107949322,0.018842507696783625,1.01426646614658,0.3543172304221429,-1.1899764732599258,-1.43932777255252
2024-09-23 00:02:55.936287,42.27,1.598737,-0.012805606793919833,0.02201345505213762,1.01426646614658,0.3543172304221429,-1.1899764732599258,-1.43932777255252
2024-09-23 00:02:55.948377,42.27,1.598737,-0.012805606793919833,0.02201345505213762,1.0167666288447792,0.3237212803733535,-1.0805987452771515,-1.43932777255252
2024-09-23 00:02:55.991749,42.27,1.59883,-0.01219582044264106,0.01939133523558015,1.012620041251304,0.3062460483703762,-1.0805987452771515,-1.3956111311383546
2024-09-23 00:02:56.035191,42.27,1.598881,-0.01219582044264106,0.01939133523558015,1.012620041251304,0.3062460483703762,-1.0674780539117754,-1.4787472629468887
2024-09-23 00:02:56.046736,42.27,1.598881,-0.012927522899907663,0.02134260963591596,1.01737645544894,0.3062460483703762,-1.0674780539117754,-1.4787472629468887
2024-09-23 00:02:56.080590,42.27,1.598881,-0.012927522899907663,0.02134260963591596,1.01737645544894,0.2405850685235113,-1.0674780539117754,-1.4787472629468887
2024-09-23 00:02:56.092325,42.27,1.598932,-0.011220081471035847,0.020001120827370582,1.01737645544894,0.2405850685235113,-1.0587118231426924,-1.4524485706396402
2024-09-23 00:02:56.135087,42.27,1.598983,-0.011220081471035847,0.020001120827370582,1.0113394345469187,0.29306802074806765,-1.028115873093903,-1.509343212995678
2024-09-23 00:02:56.147240,42.27,1.598983,-0.012439653414105056,0.020001120827370582,1.0113394345469187,0.29306802074806765,-1.028115873093903,-1.509343212995678
2024-09-23 00:02:56.179977,42.27,1.598983,-0.012439653414105056,0.02140366946034718,1.0134736818397203,0.3411964856958948,-1.028115873093903,-1.509343212995678
2024-09-23 00:02:56.191925,42.27,1.599073,-0.012439653414105056,0.02140366946034718,1.0134736818397203,0.3411964856958948,-1.1111946953259408,-1.2643463742993772
2024-09-23 00:02:56.234514,42.27,1.599073,-0.011768909009832369,0.01798878660260355,1.0143274196426437,0.3543172304221429,-0.9843418153814971,-1.4174980532728136
2024-09-23 00:02:56.277802,42.01,1.599125,-0.012744546969488612,0.020427930488741967,1.0143274196426437,0.3543172304221429,-0.9843418153814971,-1.4174980532728136
2024-09-23 00:02:56.289847,42.01,1.599125,-0.012744546969488612,0.020427930488741967,1.0131078636488298,0.39809120809324083,-1.0674780539117754,-1.4174980532728136
2024-09-23 00:02:56.332988,42.01,1.599175,-0.0073783897114091685,0.018781549643789714,1.0136566395424191,0.38932495064372197,-1.0674780539117754,-1.4655692620050162
2024-09-23 00:02:56.375095,42.01,1.599226,-0.0073783897114091685,0.018781549643789714,1.0136566395424191,0.38932495064372197,-1.0455910250555724,-1.5005769822265953
2024-09-23 00:02:56.386140,42.01,1.599226,-0.011524974266931064,0.022501222766502915,1.0136566395424191,0.38932495064372197,-1.0455910250555724,-1.5005769822265953
2024-09-23 00:02:56.429411,42.01,1.599277,-0.014391029585878175,0.022501222766502915,1.0153641151482662,0.35872900059493257,-1.0412365644592791,-1.483101830264926
2024-09-23 00:02:56.473077,42.01,1.599277,-0.014391029585878175,0.01926931735815501,1.0189618296336447,0.27123832814879717,-1.0412365644592791,-1.483101830264926
2024-09-23 00:02:56.484420,42.01,1.599328,-0.014391029585878175,0.01926931735815501,1.0189618296336447,0.27123832814879717,-1.028115873093903,-1.4087318225037306
2024-09-23 00:02:56.526741,42.01,1.599328,-0.012073802565215924,0.023050050305299438,1.01542506864433,0.27994727602181957,-1.1068402347296475,-1.2643463742993772
2024-09-23 00:02:56.569917,42.01,1.599415,-0.013110498830326714,0.020366972435748053,1.01542506864433,0.27994727602181957,-1.1068402347296475,-1.2643463742993772
2024-09-23 00:02:56.581622,42.01,1.599415,-0.013110498830326714,0.020366972435748053,1.0164007134393813,0.37184974532118065,-1.1243154934130608,-1.2643463742993772
2024-09-23 00:02:56.624396,42.01,1.599466,-0.011951885699739756,0.021464627513341095,1.0115833457456815,0.3543172304221429,-1.1243154934130608,-1.448094003321603
2024-09-23 00:02:56.666998,42.01,1.599517,-0.011951885699739756,0.021464627513341095,1.0115833457456815,0.3543172304221429,-1.1680894444037229,-1.509343212995678
2024-09-23 00:02:56.678343,42.01,1.599517,-0.014208053655459124,0.02213537267710212,1.0097540603622142,0.3543172304221429,-1.1680894444037229,-1.509343212995678
2024-09-23 00:02:56.721675,42.01,1.599567,-0.009085831140280984,0.02140366946034718,1.0097540603622142,0.3062460483703762,-0.971221124016121,-1.4218526205908506
2024-09-23 00:02:56.764364,42.01,1.599567,-0.009085831140280984,0.02140366946034718,1.015546975636458,0.3062460483703762,-0.971221124016121,-1.4218526205908506
2024-09-23 00:02:56.816617,42.01,1.599618,-0.009085831140280984,0.02140366946034718,1.015546975636458,0.27559278874509036,-1.0805987452771515,-1.461214801408723
2024-09-23 00:02:56.829071,42.01,1.599618,-0.012012843752733671,0.021281651582922046,1.015546975636458,0.27559278874509036,-1.0805987452771515,-1.461214801408723
2024-09-23 00:02:56.861295,42.01,1.599618,-0.012012843752733671,0.021281651582922046,1.0117664006628877,0.39809120809324083,-1.0805987452771515,-1.461214801408723
2024-09-23 00:02:56.872473,42.01,1.599707,-0.013293374508285133,0.021281651582922046,1.0117664006628877,0.39809120809324083,-0.958100325929001,-1.434973311956227
2024-09-23 00:02:56.914260,42.01,1.599707,-0.013293374508285133,0.02365983741606655,1.0151202039495033,0.27559278874509036,-1.1462025222692638,-1.3999655917346479
2024-09-23 00:02:56.925938,42.01,1.599758,-0.013293374508285133,0.02365983741606655,1.0151202039495033,0.27559278874509036,-1.1462025222692638,-1.3999655917346479
2024-09-23 00:02:56.959295,42.01,1.599758,-0.012927522899907663,0.01926931735815501,1.0151202039495033,0.27559278874509036,-1.1462025222692638,-1.3999655917346479
2024-09-23 00:02:56.970506,42.01,1.599758,-0.012927522899907663,0.01926931735815501,1.014144559154452,0.27559278874509036,-1.0893650827679784,-1.539996472620964
2024-09-23 00:02:57.013433,42.01,1.599809,-0.013476350438704184,0.018598572194393984,1.0171934977462411,0.3849704900474288,-1.1111946953259408,-1.539996472620964
2024-09-23 00:02:57.056104,42.01,1.599903,-0.013476350438704184,0.018598572194393984,1.0171934977462411,0.3849704900474288,-1.1111946953259408,-1.413086283100024
2024-09-23 00:02:57.067344,42.01,1.599903,-0.011281142054955407,0.021037716080532405,1.012925003160638,0.3499627431454137,-1.1111946953259408,-1.413086283100024
2024-09-23 00:02:57.110695,42.01,1.599954,-0.012927522899907663,0.02097675802753849,1.0164616669354454,0.3499627431454137,-1.1374934943549335,-1.4568603408124299
2024-09-23 00:02:57.153162,42.01,1.599954,-0.012927522899907663,0.02097675802753849,1.0164616669354454,0.3062460483703762,-1.0718325145080685,-1.4568603408124299
2024-09-23 00:02:57.164405,42.01,1.600005,-0.013537308491698099,0.018781549643789714,1.0164616669354454,0.3062460483703762,-1.0718325145080685,-1.448094003321603
2024-09-23 00:02:57.207199,42.01,1.600055,-0.013537308491698099,0.018781549643789714,1.0189008761375808,0.3543172304221429,-1.1330817241821438,-1.4874562908612192
2024-09-23 00:02:57.218795,42.01,1.600055,-0.011768909009832369,0.018781549643789714,1.0189008761375808,0.3543172304221429,-1.1330817241821438,-1.4874562908612192
2024-09-23 00:02:57.250772,42.01,1.600055,-0.011768909009832369,0.01963527073796979,1.0188399226415168,0.3543172304221429,-1.1330817241821438,-1.4874562908612192
2024-09-23 00:02:57.262075,42.01,1.600145,-0.011768909009832369,0.01963527073796979,1.0188399226415168,0.27123832814879717,-1.1199610328167677,-1.509343212995678
2024-09-23 00:02:57.304998,41.82,1.600145,-0.011951885699739756,0.02262324216290473,1.0146322843374704,0.2362305812467821,-1.0630662837389857,-1.509343212995678
2024-09-23 00:02:57.317126,41.82,1.600145,-0.011951885699739756,0.02262324216290473,1.0146322843374704,0.2362305812467821,-1.0630662837389857,-1.3780785628784449
2024-09-23 00:02:57.350767,41.82,1.600197,-0.009939551474972724,0.01811080599900536,1.0146322843374704,0.2362305812467821,-1.0630662837389857,-1.3780785628784449
2024-09-23 00:02:57.361899,41.82,1.600197,-0.009939551474972724,0.01811080599900536,1.0149982969573756,0.3280757409696467,-1.0849533125951887,-1.3780785628784449
2024-09-23 00:02:57.404521,41.82,1.600248,-0.010122528164880112,0.019452293288574063,1.0124370835486052,0.29747979092085736,-1.0849533125951887,-1.4787472629468887
2024-09-23 00:02:57.447140,41.82,1.600299,-0.010122528164880112,0.019452293288574063,1.0124370835486052,0.29747979092085736,-1.1462025222692638,-1.4437395427253097
2024-09-23 00:02:57.458478,41.82,1.600299,-0.010671253932239326,0.02067186599113161,1.0176202694331955,0.29747979092085736,-1.1462025222692638,-1.4437395427253097
2024-09-23 00:02:57.501805,41.82,1.600349,-0.012317737308117227,0.019330377182586234,1.0176202694331955,0.3149550229238346,-1.0499454856518655,-1.4655692620050162
2024-09-23 00:02:57.544290,41.82,1.600349,-0.012317737308117227,0.019330377182586234,1.012742045457939,0.3280757409696467,-1.0499454856518655,-1.4655692620050162
2024-09-23 00:02:57.555858,41.82,1.6004,-0.013354434332716355,0.019330377182586234,1.012742045457939,0.3280757409696467,-1.1680894444037229,-1.4787472629468887
2024-09-23 00:02:57.599543,41.82,1.600487,-0.013354434332716355,0.01975718684395762,1.01426646614658,0.29747979092085736,-1.1243154934130608,-1.4087318225037306
2024-09-23 00:02:57.642518,41.82,1.600487,-0.010732313756670548,0.019818144896951533,1.01426646614658,0.29747979092085736,-1.1243154934130608,-1.4087318225037306
2024-09-23 00:02:57.653598,41.82,1.600487,-0.010732313756670548,0.019818144896951533,1.0175593159371317,0.3237212803733535,-1.0980740039605648,-1.5005769822265953
2024-09-23 00:02:57.695690,41.82,1.600538,-0.01408613603049462,0.020610907938137694,1.0158518403312846,0.3411964856958948,-0.958100325929001,-1.5005769822265953
2024-09-23 00:02:57.738435,41.82,1.600589,-0.01408613603049462,0.020610907938137694,1.0158518403312846,0.3411964856958948,-0.958100325929001,-1.4087318225037306
2024-09-23 00:02:57.749299,41.82,1.600589,-0.009512741813601339,0.02122069352992813,1.0135956860463553,0.39373674749694765,-0.958100325929001,-1.4087318225037306
2024-09-23 00:02:57.791909,41.82,1.600589,-0.009512741813601339,0.02122069352992813,1.0135956860463553,0.39373674749694765,-1.028115873093903,-1.4087318225037306
2024-09-23 00:02:57.833946,41.82,1.600589,-0.009512741813601339,0.02122069352992813,1.0135956860463553,0.39373674749694765,-1.028115873093903,-1.4087318225037306
2024-09-23 00:02:57.846241,41.82,1.60064,-0.012256778495634975,0.020549948366167105,1.0176202694331955,0.3324875378228724,-1.028115873093903,-1.4087318225037306
2024-09-23 00:02:57.888279,41.82,1.600691,-0.015000815177668611,0.020549948366167105,1.0176202694331955,0.3324875378228724,-1.1111946953259408,-1.3606034109167755
2024-09-23 00:02:57.899428,41.82,1.600691,-0.015000815177668611,0.021037716080532405,1.0143883731387076,0.3324875378228724,-1.1111946953259408,-1.3606034109167755
2024-09-23 00:02:57.932128,41.82,1.600691,-0.015000815177668611,0.021037716080532405,1.0143883731387076,0.37184974532118065,-1.1111946953259408,-1.3606034109167755
2024-09-23 00:02:57.943527,41.82,1.600741,-0.012256778495634975,0.018293680157987106,1.0143883731387076,0.37184974532118065,-1.1549687530383468,-1.4306188513599336
2024-09-23 00:02:57.986654,41.82,1.600828,-0.012256778495634975,0.018293680157987106,1.0129859566567019,0.29306802074806765,-1.1374934943549335,-1.496222521630302
2024-09-23 00:02:57.998386,41.82,1.600828,-0.01378124399408774,0.018293680157987106,1.0129859566567019,0.29306802074806765,-1.1374934943549335,-1.496222521630302
2024-09-23 00:02:58.030504,41.82,1.600828,-0.01378124399408774,0.01975718684395762,1.0129859566567019,0.29306802074806765,-1.1374934943549335,-1.496222521630302
2024-09-23 00:02:58.042418,41.82,1.600879,-0.01378124399408774,0.01975718684395762,1.0116442992417454,0.3237212803733535,-1.0718325145080685,-1.461214801408723
2024-09-23 00:02:58.084735,41.82,1.600879,-0.013476350438704184,0.02048899031317319,1.0138396944596255,0.29747979092085736,-1.0718325145080685,-1.461214801408723
2024-09-23 00:02:58.097214,41.82,1.600879,-0.013476350438704184,0.02048899031317319,1.0138396944596255,0.29747979092085736,-1.0193495356030762,-1.3562488435987383
2024-09-23 00:02:58.130237,41.82,1.600975,-0.011586034850850625,0.01926931735815501,1.0138396944596255,0.29747979092085736,-1.0193495356030762,-1.3562488435987383
2024-09-23 00:02:58.141336,41.82,1.600975,-0.011586034850850625,0.01926931735815501,1.0111565740587272,0.3062460483703762,-1.0237041029211134,-1.3562488435987383
2024-09-23 00:02:58.183815,41.82,1.601026,-0.012500713238536278,0.02213537267710212,1.015668979843093,0.3411964856958948,-1.0237041029211134,-1.3212411233771593
2024-09-23 00:02:58.226671,41.82,1.601026,-0.012500713238536278,0.02213537267710212,1.015668979843093,0.3411964856958948,-1.0237041029211134,-1.3911993609655648
2024-09-23 00:02:58.238012,41.82,1.601077,-0.012866564846913748,0.023598879363072634,1.015546975636458,0.3411964856958948,-1.0237041029211134,-1.3911993609655648
2024-09-23 00:02:58.281278,41.82,1.601128,-0.010610295879245411,0.023598879363072634,1.015546975636458,0.24935132597303017,-1.0499454856518655,-1.3780785628784449
2024-09-23 00:02:58.292815,41.82,1.601128,-0.010610295879245411,0.021586543619328925,1.015546975636458,0.24935132597303017,-1.0499454856518655,-1.3780785628784449
2024-09-23 00:02:58.325055,42.01,1.601128,-0.010610295879245411,0.021586543619328925,1.013778546534547,0.2537058132497594,-1.0630662837389857,-1.3780785628784449
2024-09-23 00:02:58.337708,42.01,1.601178,-0.011890927646745842,0.021586543619328925,1.013778546534547,0.2537058132497594,-1.0630662837389857,-1.3649578715130686
2024-09-23 00:02:58.370338,42.01,1.601178,-0.011890927646745842,0.02201345505213762,1.013778546534547,0.2537058132497594,-1.0630662837389857,-1.3649578715130686
2024-09-23 00:02:58.382042,42.01,1.601267,-0.011890927646745842,0.02201345505213762,1.014144559154452,0.28871353347133843,-1.1374934943549335,-1.426207081187144
2024-09-23 00:02:58.424415,42.01,1.601267,-0.013232416455291218,0.021586543619328925,1.0125589905407328,0.2843590461946093,-1.1374934943549335,-1.426207081187144
2024-09-23 00:02:58.436355,42.01,1.601267,-0.013232416455291218,0.021586543619328925,1.0125589905407328,0.2843590461946093,-1.0805987452771515,-1.426207081187144
2024-09-23 00:02:58.469712,42.01,1.601318,-0.012988480952901577,0.021586543619328925,1.0125589905407328,0.2843590461946093,-1.0805987452771515,-1.426207081187144
2024-09-23 00:02:58.523668,42.01,1.601318,-0.012988480952901577,0.02085484192155066,1.012925003160638,0.3630834878716618,-1.1812102424908428,-1.461214801408723
2024-09-23 00:02:58.535651,42.01,1.601369,-0.012988480952901577,0.02085484192155066,1.012925003160638,0.3630834878716618,-1.1812102424908428,-1.461214801408723
2024-09-23 00:02:58.567482,42.01,1.601369,-0.011098165365048018,0.021037716080532405,1.012925003160638,0.3630834878716618,-1.1812102424908428,-1.461214801408723
2024-09-23 00:02:58.578517,42.01,1.601369,-0.011098165365048018,0.021037716080532405,1.0179862820531007,0.4287444677185267,-1.0237041029211134,-1.4437395427253097
2024-09-23 00:02:58.621233,42.01,1.60142,-0.010854230622146716,0.02085484192155066,1.0168275823408433,0.3411964856958948,-1.0237041029211134,-1.4437395427253097
2024-09-23 00:02:58.632843,42.01,1.60142,-0.010854230622146716,0.02085484192155066,1.0168275823408433,0.3411964856958948,-1.0324703336901964,-1.4437395427253097
2024-09-23 00:02:58.664159,42.01,1.601471,-0.010854230622146716,0.02085484192155066,1.0168275823408433,0.3411964856958948,-1.0324703336901964,-1.413086283100024
2024-09-23 00:02:58.675594,42.01,1.601471,-0.010854230622146716,0.020549948366167105,1.0148762927507406,0.35872900059493257,-1.0324703336901964,-1.413086283100024
2024-09-23 00:02:58.717865,42.01,1.601521,-0.013598266544692013,0.020549948366167105,1.0148762927507406,0.35872900059493257,-1.1549687530383468,-1.4655692620050162
2024-09-23 00:02:58.730548,42.01,1.601521,-0.013598266544692013,0.018964423802771455,1.0109126628599643,0.35872900059493257,-1.1549687530383468,-1.4655692620050162
2024-09-23 00:02:58.763157,42.01,1.601521,-0.013598266544692013,0.018964423802771455,1.0109126628599643,0.3062460483703762,-1.0805987452771515,-1.4655692620050162
2024-09-23 00:02:58.774563,42.01,1.60161,-0.014391029585878175,0.02012303845233509,1.0109126628599643,0.3062460483703762,-1.0805987452771515,-1.461214801408723
2024-09-23 00:02:58.818024,42.01,1.601661,-0.012012843752733671,0.02012303845233509,1.0162788064472537,0.35872900059493257,-1.014995075006783,-1.43932777255252
2024-09-23 00:02:58.861122,42.01,1.601661,-0.012012843752733671,0.02213537267710212,1.0151811574455674,0.28871353347133843,-1.014995075006783,-1.43932777255252
2024-09-23 00:02:58.873198,42.01,1.601754,-0.012012843752733671,0.02213537267710212,1.0151811574455674,0.28871353347133843,-1.1330817241821438,-1.4306188513599336
2024-09-23 00:02:58.916806,42.01,1.601754,-0.010915188675140628,0.017622936513202757,1.0146322843374704,0.38061600277069957,-0.9799873547852039,-1.4218526205908506
2024-09-23 00:02:58.958693,42.01,1.601806,-0.011403058160943235,0.017622936513202757,1.0146322843374704,0.38061600277069957,-0.9799873547852039,-1.4218526205908506
2024-09-23 00:02:58.969744,42.01,1.601806,-0.011403058160943235,0.019574312684975875,1.0120102146471432,0.3237212803733535,-1.0937195433642715,-1.4218526205908506
2024-09-23 00:02:59.013123,42.01,1.601857,-0.01408613603049462,0.020062078880364497,1.0135347325502915,0.3324875378228724,-1.0937195433642715,-1.413086283100024
2024-09-23 00:02:59.055669,42.01,1.601907,-0.01408613603049462,0.020062078880364497,1.0135347325502915,0.3324875378228724,-1.1506142924420535,-1.4174980532728136
2024-09-23 00:02:59.066829,42.01,1.601907,-0.011403058160943235,0.021464627513341095,1.0122541258459061,0.3324875378228724,-1.1506142924420535,-1.4174980532728136
2024-09-23 00:02:59.109405,42.01,1.601958,-0.013903160100075569,0.020306014382754138,1.0122541258459061,0.3324875378228724,-1.1243154934130608,-1.474335492774099
2024-09-23 00:02:59.152419,42.01,1.601958,-0.013903160100075569,0.020306014382754138,1.0151811574455674,0.37620423259790986,-1.1243154934130608,-1.474335492774099
2024-09-23 00:02:59.163580,42.01,1.602009,-0.013049540777332799,0.020306014382754138,1.0151811574455674,0.37620423259790986,-1.0718325145080685,-1.3693696416858583
2024-09-23 00:02:59.206173,42.01,1.602009,-0.013049540777332799,0.0187205915907958,1.0162178529511898,0.3411964856958948,-1.0455910250555724,-1.483101830264926
2024-09-23 00:02:59.218182,42.01,1.602096,-0.013049540777332799,0.0187205915907958,1.0162178529511898,0.3411964856958948,-1.0455910250555724,-1.483101830264926
2024-09-23 00:02:59.252261,42.01,1.602096,-0.016037512202267738,0.018659531766364576,1.0149372462468045,0.3411964856958948,-1.0455910250555724,-1.483101830264926
2024-09-23 00:02:59.263858,42.01,1.602096,-0.016037512202267738,0.018659531766364576,1.0149372462468045,0.3849704900474288,-1.0499454856518655,-1.474335492774099
2024-09-23 00:02:59.306766,42.01,1.602147,-0.011586034850850625,0.02140366946034718,1.0159129882563631,0.3456082558686845,-0.9755755846124142,-1.474335492774099
2024-09-23 00:02:59.349232,42.13,1.602198,-0.010915188675140628,0.02140366946034718,1.0159129882563631,0.3456082558686845,-0.9755755846124142,-1.461214801408723
2024-09-23 00:02:59.360805,42.13,1.602198,-0.010915188675140628,0.02097675802753849,1.0159129882563631,0.3456082558686845,-0.9755755846124142,-1.461214801408723
2024-09-23 00:02:59.404381,42.13,1.602249,-0.01445198763887209,0.019452293288574063,1.0159129882563631,0.3368419984191656,-1.1024857741333545,-1.434973311956227
2024-09-23 00:02:59.447508,42.13,1.602249,-0.01445198763887209,0.019452293288574063,1.0132908213515286,0.2843590461946093,-1.1330817241821438,-1.469981032177806
2024-09-23 00:02:59.459104,42.13,1.602299,-0.011951885699739756,0.019452293288574063,1.0132908213515286,0.2843590461946093,-1.1330817241821438,-1.469981032177806
2024-09-23 00:02:59.491161,42.13,1.602299,-0.011951885699739756,0.02262324216290473,1.0132908213515286,0.2843590461946093,-1.1330817241821438,-1.469981032177806
2024-09-23 00:02:59.502705,42.13,1.60235,-0.011951885699739756,0.02262324216290473,1.0159129882563631,0.3018342781975865,-1.0543573625463993,-1.3824903330512346
2024-09-23 00:02:59.544778,42.13,1.60235,-0.014695923141261731,0.017196025080394063,1.0139616014517532,0.3149550229238346,-1.0543573625463993,-1.3824903330512346
2024-09-23 00:02:59.556411,42.13,1.60235,-0.014695923141261731,0.017196025080394063,1.0139616014517532,0.3149550229238346,-1.0805987452771515,-1.4655692620050162
2024-09-23 00:02:59.598361,42.13,1.602437,-0.013049540777332799,0.0187205915907958,1.013778546534547,0.3411964856958948,-1.0893650827679784,-1.4655692620050162
2024-09-23 00:02:59.641030,42.13,1.602488,-0.010488379013769245,0.0187205915907958,1.013778546534547,0.3411964856958948,-1.0893650827679784,-1.448094003321603
2024-09-23 00:02:59.652624,42.13,1.602488,-0.010488379013769245,0.019330377182586234,1.0145713308414066,0.3324875378228724,-1.0893650827679784,-1.448094003321603
2024-09-23 00:02:59.695488,42.13,1.60254,-0.013842202047081654,0.019940162774376668,1.0103637897518674,0.3324875378228724,-1.1462025222692638,-1.4174980532728136
2024-09-23 00:02:59.738102,42.13,1.60254,-0.013842202047081654,0.019940162774376668,1.0103637897518674,0.3543172304221429,-1.1987427040290088,-1.4174980532728136
2024-09-23 00:02:59.750351,42.13,1.60259,-0.01445198763887209,0.02207441310513153,1.0103637897518674,0.3543172304221429,-1.1987427040290088,-1.5618261919006706
2024-09-23 00:02:59.793455,42.13,1.602641,-0.012317737308117227,0.02207441310513153,1.0162178529511898,0.39809120809324083,-1.1374934943549335,-1.5705924226697534
2024-09-23 00:02:59.836254,42.13,1.602641,-0.012317737308117227,0.021708563015730736,1.0125589905407328,0.3368419984191656,-1.1374934943549335,-1.5705924226697534
2024-09-23 00:02:59.848238,42.13,1.602641,-0.012317737308117227,0.021708563015730736,1.0125589905407328,0.3368419984191656,-1.0455910250555724,-1.5705924226697534
2024-09-23 00:02:59.891370,42.13,1.60273,-0.013842202047081654,0.020366972435748053,1.0143883731387076,0.31060053564710544,-1.0455910250555724,-1.434973311956227
2024-09-23 00:02:59.933995,42.13,1.602781,-0.013842202047081654,0.020366972435748053,1.0143883731387076,0.31060053564710544,-1.0980740039605648,-1.3255955839734523
2024-09-23 00:02:59.945002,42.13,1.602781,-0.008354128683014382,0.02048899031317319,1.0146933350480416,0.31060053564710544,-1.0980740039605648,-1.3255955839734523
2024-09-23 00:02:59.988211,42.13,1.602832,-0.015793578218854774,0.02085484192155066,1.0146933350480416,0.39809120809324083,-1.1111946953259408,-1.483101830264926
2024-09-23 00:03:00.031610,42.13,1.602832,-0.015793578218854774,0.02085484192155066,1.0130469101527657,0.3018342781975865,-1.1068402347296475,-1.483101830264926
2024-09-23 00:03:00.043052,42.13,1.602883,-0.010976248499571852,0.02085484192155066,1.0130469101527657,0.3018342781975865,-1.1068402347296475,-1.3693696416858583
2024-09-23 00:03:00.085754,42.13,1.602933,-0.010976248499571852,0.02201345505213762,1.01231507934197,0.27994727602181957,-1.0630662837389857,-1.3606034109167755
2024-09-23 00:03:00.127455,42.13,1.602933,-0.011159123418041933,0.020610907938137694,1.01231507934197,0.27994727602181957,-1.0630662837389857,-1.3606034109167755
2024-09-23 00:03:00.139244,42.13,1.602933,-0.011159123418041933,0.020610907938137694,1.0107906586533293,0.29306802074806765,-1.1812102424908428,-1.4787472629468887
2024-09-23 00:03:00.182152,42.13,1.603023,-0.011159123418041933,0.02237930666051509,1.0134736818397203,0.3674952580444515,-1.1812102424908428,-1.4787472629468887
2024-09-23 00:03:00.193706,42.13,1.603023,-0.011159123418041933,0.02237930666051509,1.0134736818397203,0.3674952580444515,-1.1068402347296475,-1.4787472629468887
2024-09-23 00:03:00.226367,42.13,1.603074,-0.012500713238536278,0.02237930666051509,1.0134736818397203,0.3674952580444515,-1.1068402347296475,-1.448094003321603
2024-09-23 00:03:00.237893,42.13,1.603074,-0.012500713238536278,0.019086441680196593,1.0148762927507406,0.3849704900474288,-1.1068402347296475,-1.448094003321603
2024-09-23 00:03:00.281746,42.13,1.603125,-0.014512945691866003,0.021037716080532405,1.0158518403312846,0.3849704900474288,-1.15932321363464,-1.3999655917346479
2024-09-23 00:03:00.324931,42.13,1.603125,-0.014512945691866003,0.021037716080532405,1.0158518403312846,0.38932495064372197,-1.1243154934130608,-1.3999655917346479
2024-09-23 00:03:00.337158,42.13,1.603175,-0.012622630104012445,0.02097675802753849,1.0158518403312846,0.38932495064372197,-1.1243154934130608,-1.4437395427253097
2024-09-23 00:03:00.370252,42.02,1.603175,-0.012622630104012445,0.02097675802753849,1.0157908868352208,0.38932495064372197,-1.1243154934130608,-1.4437395427253097
2024-09-23 00:03:00.381719,42.02,1.603226,-0.011890927646745842,0.02097675802753849,1.0157908868352208,0.3149550229238346,-1.0630662837389857,-1.3693696416858583
2024-09-23 00:03:00.425098,42.02,1.603226,-0.011890927646745842,0.020062078880364497,1.0140835084438808,0.29306802074806765,-1.0412365644592791,-1.461214801408723
2024-09-23 00:03:00.436899,42.02,1.603314,-0.011890927646745842,0.020062078880364497,1.0140835084438808,0.29306802074806765,-1.0412365644592791,-1.461214801408723
2024-09-23 00:03:00.468460,42.02,1.603314,-0.011890927646745842,0.022196330730096036,1.0140835084438808,0.29306802074806765,-1.0412365644592791,-1.461214801408723
2024-09-23 00:03:00.479879,42.02,1.603314,-0.011890927646745842,0.022196330730096036,1.01542506864433,0.3324875378228724,-0.9493340951599181,-1.413086283100024
2024-09-23 00:03:00.524073,42.02,1.603366,-0.015122834574070423,0.01664729931303485,1.015973941752427,0.3543172304221429,-0.971221124016121,-1.413086283100024
2024-09-23 00:03:00.566622,42.02,1.603417,-0.015122834574070423,0.01664729931303485,1.015973941752427,0.3543172304221429,-0.971221124016121,-1.3693696416858583
2024-09-23 00:03:00.578150,42.02,1.603417,-0.014208053655459124,0.018415698035412244,1.012498037044669,0.3543172304221429,-0.971221124016121,-1.3693696416858583
2024-09-23 00:03:00.621154,42.02,1.603467,-0.011890927646745842,0.021464627513341095,1.012498037044669,0.3543172304221429,-1.0718325145080685,-1.461214801408723
2024-09-23 00:03:00.632902,42.02,1.603467,-0.011890927646745842,0.021464627513341095,1.0143883731387076,0.3543172304221429,-1.0718325145080685,-1.461214801408723
2024-09-23 00:03:00.666166,42.02,1.603467,-0.011890927646745842,0.021464627513341095,1.0143883731387076,0.2537058132497594,-1.1111946953259408,-1.434973311956227
2024-09-23 00:03:00.678048,42.02,1.603518,-0.012500713238536278,0.02012303845233509,1.0143883731387076,0.2537058132497594,-1.1111946953259408,-1.434973311956227
2024-09-23 00:03:00.710068,42.02,1.603518,-0.012500713238536278,0.02012303845233509,1.012498037044669,0.2537058132497594,-1.1111946953259408,-1.434973311956227
2024-09-23 00:03:00.721635,42.02,1.603569,-0.012622630104012445,0.02012303845233509,1.012498037044669,0.28871353347133843,-1.1855647030871361,-1.504988752399385
2024-09-23 00:03:00.763955,42.02,1.603569,-0.012622630104012445,0.021281651582922046,1.0145713308414066,0.3674952580444515,-1.1156065722204744,-1.504988752399385
2024-09-23 00:03:00.775545,42.02,1.603656,-0.012622630104012445,0.021281651582922046,1.0145713308414066,0.3674952580444515,-1.1156065722204744,-1.3649578715130686
2024-09-23 00:03:00.807818,42.02,1.603656,-0.018171764051999276,0.021281651582922046,1.0145713308414066,0.3674952580444515,-1.1156065722204744,-1.3649578715130686
2024-09-23 00:03:00.819125,42.02,1.603656,-0.018171764051999276,0.019696228790963704,1.015608026347029,0.3368419984191656,-1.0455910250555724,-1.3430708426568656
2024-09-23 00:03:00.861229,42.02,1.603707,-0.016037512202267738,0.020245056329760223,1.0176202694331955,0.3368419984191656,-1.0455910250555724,-1.3430708426568656
2024-09-23 00:03:00.873218,42.02,1.603707,-0.016037512202267738,0.020245056329760223,1.0176202694331955,0.2843590461946093,-1.1156065722204744,-1.3430708426568656
2024-09-23 00:03:00.905120,42.02,1.603707,-0.016037512202267738,0.020245056329760223,1.0176202694331955,0.2843590461946093,-1.1156065722204744,-1.448094003321603
2024-09-23 00:03:00.916544,42.02,1.603758,-0.011768909009832369,0.021037716080532405,1.0122541258459061,0.3018342781975865,-1.1156065722204744,-1.448094003321603
2024-09-23 00:03:00.959091,42.02,1.603809,-0.01573262016586086,0.021037716080532405,1.0122541258459061,0.3018342781975865,-1.1243154934130608,-1.518109550486505
2024-09-23 00:03:00.970150,42.02,1.603809,-0.01573262016586086,0.019330377182586234,1.0149372462468045,0.3018342781975865,-1.1243154934130608,-1.518109550486505
2024-09-23 00:03:01.003360,42.02,1.603809,-0.01573262016586086,0.019330377182586234,1.0149372462468045,0.29747979092085736,-1.1243154934130608,-1.518109550486505
2024-09-23 00:03:01.015717,42.02,1.60386,-0.01378124399408774,0.022867176146317694,1.0149372462468045,0.29747979092085736,-1.1287272635858505,-1.531230241851881
2024-09-23 00:03:01.059049,42.02,1.603911,-0.013537308491698099,0.022867176146317694,1.015486022140394,0.3674952580444515,-1.1724439050000162,-1.461214801408723
2024-09-23 00:03:01.102342,42.02,1.603911,-0.013537308491698099,0.01914740125216718,1.0101198785531047,0.3674952580444515,-1.1724439050000162,-1.461214801408723
2024-09-23 00:03:01.113844,42.02,1.603997,-0.013537308491698099,0.01914740125216718,1.0101198785531047,0.35872900059493257,-1.1243154934130608,-1.4787472629468887
2024-09-23 00:03:01.157295,42.02,1.603997,-0.010549337066763158,0.020610907938137694,1.0151202039495033,0.2581175834225491,-1.0499454856518655,-1.474335492774099
2024-09-23 00:03:01.199919,42.02,1.604048,-0.012439653414105056,0.020610907938137694,1.0151202039495033,0.2581175834225491,-1.0499454856518655,-1.474335492774099
2024-09-23 00:03:01.211227,42.02,1.604048,-0.012439653414105056,0.01786687049661572,1.0117053499523165,0.3674952580444515,-1.0193495356030762,-1.474335492774099
2024-09-23 00:03:01.254525,42.02,1.604099,-0.011220081471035847,0.01713506550842347,1.014205512650516,0.3674952580444515,-1.0193495356030762,-1.4655692620050162
2024-09-23 00:03:01.266054,42.02,1.604099,-0.011220081471035847,0.01713506550842347,1.014205512650516,0.3018342781975865,-1.0193495356030762,-1.4655692620050162
2024-09-23 00:03:01.298799,42.02,1.60415,-0.011220081471035847,0.01713506550842347,1.014205512650516,0.3018342781975865,-1.0412365644592791,-1.448094003321603
2024-09-23 00:03:01.310623,42.02,1.60415,-0.009634658679077505,0.01914740125216718,1.0131078636488298,0.3018342781975865,-1.0412365644592791,-1.448094003321603
2024-09-23 00:03:01.353002,42.02,1.604201,-0.012744546969488612,0.020245056329760223,1.0131078636488298,0.3237212803733535,-1.1111946953259408,-1.434973311956227
2024-09-23 00:03:01.396389,42.4,1.604201,-0.012744546969488612,0.020245056329760223,1.0130469101527657,0.38061600277069957,-1.1111946953259408,-1.434973311956227
2024-09-23 00:03:01.408237,42.4,1.604251,-0.012256778495634975,0.020245056329760223,1.0130469101527657,0.38061600277069957,-1.1156065722204744,-1.4174980532728136
2024-09-23 00:03:01.450815,42.4,1.604338,-0.012256778495634975,0.020001120827370582,1.0206693052394917,0.29747979092085736,-1.1330817241821438,-1.3999655917346479
2024-09-23 00:03:01.493419,42.4,1.604338,-0.015061773230662524,0.019940162774376668,1.0158518403312846,0.29747979092085736,-1.1330817241821438,-1.3999655917346479
2024-09-23 00:03:01.504795,42.4,1.604338,-0.015061773230662524,0.019940162774376668,1.0158518403312846,0.3149550229238346,-1.1724439050000162,-1.434973311956227
2024-09-23 00:03:01.548535,42.4,1.60439,-0.012805606793919833,0.020915799974544576,1.0168886330514144,0.3280757409696467,-1.1199610328167677,-1.434973311956227
2024-09-23 00:03:01.590159,42.4,1.60444,-0.012805606793919833,0.020915799974544576,1.0168886330514144,0.3280757409696467,-1.1199610328167677,-1.3999655917346479
2024-09-23 00:03:01.601997,42.4,1.60444,-0.014208053655459124,0.020306014382754138,1.0159129882563631,0.27559278874509036,-1.1199610328167677,-1.3999655917346479
2024-09-23 00:03:01.645161,42.4,1.604491,-0.01433007153288426,0.02237930666051509,1.0159129882563631,0.27559278874509036,-1.0674780539117754,-1.3518370734259486
2024-09-23 00:03:01.656973,42.4,1.604491,-0.01433007153288426,0.02237930666051509,1.0140835084438808,0.27559278874509036,-1.0674780539117754,-1.3518370734259486
2024-09-23 00:03:01.689266,42.4,1.604491,-0.01433007153288426,0.02237930666051509,1.0140835084438808,0.26247207069927825,-1.1287272635858505,-1.3911993609655648
2024-09-23 00:03:01.700941,42.4,1.604542,-0.01365932788809991,0.01963527073796979,1.0140835084438808,0.26247207069927825,-1.1287272635858505,-1.3911993609655648
2024-09-23 00:03:01.743228,42.4,1.604593,-0.014574005516297226,0.01963527073796979,1.0146933350480416,0.27559278874509036,-1.1987427040290088,-1.469981032177806
2024-09-23 00:03:01.785910,42.4,1.604593,-0.014574005516297226,0.022318348607521174,1.0173154047383688,0.3018342781975865,-1.1987427040290088,-1.469981032177806
2024-09-23 00:03:01.797536,42.4,1.604679,-0.014574005516297226,0.022318348607521174,1.0173154047383688,0.3018342781975865,-1.1287272635858505,-1.434973311956227
2024-09-23 00:03:01.840691,42.4,1.604679,-0.01445198763887209,0.022928134199311608,1.0151202039495033,0.3543172304221429,-1.1812102424908428,-1.474335492774099
2024-09-23 00:03:01.934538,42.4,1.604731,-0.012805606793919833,0.01975718684395762,1.011034569852092,0.3543172304221429,-1.1812102424908428,-1.474335492774099
2024-09-23 00:03:01.946408,42.4,1.604731,-0.012805606793919833,0.01975718684395762,1.011034569852092,0.4287444677185267,-1.0237041029211134,-1.474335492774099
2024-09-23 00:03:01.979231,42.4,1.604731,-0.012805606793919833,0.01975718684395762,1.011034569852092,0.4287444677185267,-1.0237041029211134,-1.469981032177806
2024-09-23 00:03:01.990707,42.4,1.604782,-0.011951885699739756,0.01811080599900536,1.01542506864433,0.4418652124447748,-1.0237041029211134,-1.469981032177806
2024-09-23 00:03:02.033293,42.4,1.604832,-0.012866564846913748,0.02122069352992813,1.01542506864433,0.4418652124447748,-1.0805987452771515,-1.4568603408124299
2024-09-23 00:03:02.045061,42.4,1.604832,-0.012866564846913748,0.02122069352992813,1.014022554947817,0.4418652124447748,-1.0805987452771515,-1.4568603408124299
2024-09-23 00:03:02.077179,42.4,1.604832,-0.012866564846913748,0.02122069352992813,1.014022554947817,0.3280757409696467,-1.0412365644592791,-1.4568603408124299
2024-09-23 00:03:02.089100,42.4,1.604883,-0.011281142054955407,0.02122069352992813,1.014022554947817,0.3280757409696467,-1.0412365644592791,-1.4306188513599336
2024-09-23 00:03:02.131471,42.4,1.604883,-0.011281142054955407,0.021830479121718566,1.0120102146471432,0.28871353347133843,-0.9624548932470381,-1.4174980532728136
2024-09-23 00:03:02.143162,42.4,1.604934,-0.011281142054955407,0.021830479121718566,1.0120102146471432,0.28871353347133843,-0.9624548932470381,-1.4174980532728136
2024-09-23 00:03:02.174884,42.4,1.604934,-0.012805606793919833,0.019330377182586234,1.0120102146471432,0.28871353347133843,-0.9624548932470381,-1.4174980532728136
2024-09-23 00:03:02.186272,42.4,1.604934,-0.012805606793919833,0.019330377182586234,1.016705578134208,0.35872900059493257,-1.0543573625463993,-1.404320052330941
2024-09-23 00:03:02.229180,42.4,1.60507,-0.010976248499571852,0.01963527073796979,1.0128639524500669,0.3499627431454137,-1.0543573625463993,-1.404320052330941
2024-09-23 00:03:02.241670,42.4,1.60507,-0.010976248499571852,0.01963527073796979,1.0128639524500669,0.3499627431454137,-1.1418479549512268,-1.404320052330941
2024-09-23 00:03:02.274093,42.4,1.605121,-0.01182986782231462,0.01963527073796979,1.0128639524500669,0.3499627431454137,-1.1418479549512268,-1.504988752399385
2024-09-23 00:03:02.285783,42.4,1.605121,-0.01182986782231462,0.022318348607521174,1.0148762927507406,0.39809120809324083,-1.1418479549512268,-1.504988752399385
2024-09-23 00:03:02.329403,42.4,1.605172,-0.010976248499571852,0.023050050305299438,1.0121322188537785,0.39809120809324083,-1.1418479549512268,-1.5005769822265953
2024-09-23 00:03:02.371216,42.4,1.605172,-0.010976248499571852,0.023050050305299438,1.0121322188537785,0.3149550229238346,-1.0980740039605648,-1.518109550486505
2024-09-23 00:03:02.382805,42.4,1.605222,-0.010244444270867941,0.021952496999143704,1.0121322188537785,0.3149550229238346,-1.0980740039605648,-1.518109550486505
2024-09-23 00:03:02.425778,42.18,1.605273,-0.011037206552565765,0.021952496999143704,1.0146933350480416,0.29306802074806765,-1.1768557818945498,-1.404320052330941
2024-09-23 00:03:02.469096,42.18,1.605273,-0.011037206552565765,0.020062078880364497,1.0176202694331955,0.35872900059493257,-1.1768557818945498,-1.404320052330941
2024-09-23 00:03:02.480597,42.18,1.605362,-0.011037206552565765,0.020062078880364497,1.0176202694331955,0.35872900059493257,-1.0805987452771515,-1.4655692620050162
2024-09-23 00:03:02.523243,42.18,1.605362,-0.01396421992450679,0.02237930666051509,1.0145713308414066,0.3193667930966243,-1.0980740039605648,-1.56623796207346
2024-09-23 00:03:02.566497,42.18,1.605414,-0.011403058160943235,0.02097675802753849,1.0145713308414066,0.3193667930966243,-1.0980740039605648,-1.56623796207346
2024-09-23 00:03:02.578419,42.18,1.605414,-0.011403058160943235,0.02097675802753849,1.01426646614658,0.3149550229238346,-1.0368247942864894,-1.56623796207346
2024-09-23 00:03:02.620916,42.18,1.605464,-0.015610600769459046,0.021464627513341095,1.0168886330514144,0.39373674749694765,-1.0368247942864894,-1.43932777255252
2024-09-23 00:03:02.663014,42.18,1.605464,-0.015610600769459046,0.021464627513341095,1.0168886330514144,0.39373674749694765,-1.0543573625463993,-1.4874562908612192
2024-09-23 00:03:02.674544,42.18,1.605515,-0.012012843752733671,0.020001120827370582,1.0158518403312846,0.39373674749694765,-1.0543573625463993,-1.4874562908612192
2024-09-23 00:03:02.718870,42.18,1.605515,-0.012012843752733671,0.020001120827370582,1.0158518403312846,0.35872900059493257,-1.0543573625463993,-1.4874562908612192
2024-09-23 00:03:02.762702,42.18,1.605566,-0.012012843752733671,0.020001120827370582,1.0158518403312846,0.35872900059493257,-1.0543573625463993,-1.4568603408124299
2024-09-23 00:03:02.773828,42.18,1.605566,-0.01268358815700636,0.018964423802771455,1.0136566395424191,0.35872900059493257,-1.0543573625463993,-1.4568603408124299
2024-09-23 00:03:02.816987,42.18,1.605616,-0.014391029585878175,0.020245056329760223,1.0136566395424191,0.38061600277069957,-1.0543573625463993,-1.434973311956227
2024-09-23 00:03:02.861390,42.18,1.605616,-0.014391029585878175,0.020245056329760223,1.01426646614658,0.3411964856958948,-1.0718325145080685,-1.43932777255252
2024-09-23 00:03:02.874430,42.18,1.605703,-0.010854230622146716,0.020245056329760223,1.01426646614658,0.3411964856958948,-1.0718325145080685,-1.43932777255252
2024-09-23 00:03:02.958374,42.18,1.605703,-0.010854230622146716,0.02225739055452726,1.0119492611510794,0.3237212803733535,-1.0762442846808582,-1.43932777255252
2024-09-23 00:03:02.973950,42.18,1.605755,-0.010854230622146716,0.02225739055452726,1.0119492611510794,0.3237212803733535,-1.0762442846808582,-1.413086283100024
2024-09-23 00:03:03.006599,42.18,1.605755,-0.014939857124674697,0.01811080599900536,1.0120102146471432,0.3237212803733535,-1.0762442846808582,-1.413086283100024
2024-09-23 00:03:03.017738,42.18,1.605755,-0.014939857124674697,0.01811080599900536,1.0120102146471432,0.2843590461946093,-1.0062288442377,-1.413086283100024
2024-09-23 00:03:03.050001,42.18,1.605755,-0.014939857124674697,0.01811080599900536,1.0120102146471432,0.2843590461946093,-1.0062288442377,-1.3780785628784449
2024-09-23 00:03:03.102732,42.18,1.60585,-0.010061467580960552,0.01768389456619667,1.0120102146471432,0.2843590461946093,-1.0062288442377,-1.3780785628784449
2024-09-23 00:03:03.114145,42.18,1.60585,-0.010061467580960552,0.01768389456619667,1.0157908868352208,0.27994727602181957,-1.1549687530383468,-1.3780785628784449
2024-09-23 00:03:03.156856,42.18,1.605901,-0.015671560341429636,0.01963527073796979,1.0164616669354454,0.3280757409696467,-1.1549687530383468,-1.3518370734259486
2024-09-23 00:03:03.198685,42.18,1.605901,-0.015671560341429636,0.01963527073796979,1.0164616669354454,0.3280757409696467,-1.2424594521649182,-1.3911993609655648
2024-09-23 00:03:03.210629,42.18,1.605952,-0.013842202047081654,0.021159735476934217,1.0135956860463553,0.3280757409696467,-1.2424594521649182,-1.3911993609655648
2024-09-23 00:03:03.253956,42.18,1.606047,-0.012256778495634975,0.022196330730096036,1.0135956860463553,0.3368419984191656,-1.014995075006783,-1.461214801408723
2024-09-23 00:03:03.295866,42.18,1.606047,-0.012256778495634975,0.022196330730096036,1.012498037044669,0.38932495064372197,-1.014995075006783,-1.461214801408723
2024-09-23 00:03:03.307374,42.18,1.606097,-0.01341539238571027,0.022196330730096036,1.012498037044669,0.38932495064372197,-1.0805987452771515,-1.3780785628784449
2024-09-23 00:03:03.349909,42.18,1.606097,-0.01341539238571027,0.02140366946034718,1.0143883731387076,0.3499627431454137,-1.1068402347296475,-1.4087318225037306
2024-09-23 00:03:03.362067,42.18,1.60624,-0.01341539238571027,0.02140366946034718,1.0143883731387076,0.3499627431454137,-1.1068402347296475,-1.4087318225037306
2024-09-23 00:03:03.393944,42.18,1.60624,-0.012439653414105056,0.02097675802753849,1.0143883731387076,0.3499627431454137,-1.1068402347296475,-1.4087318225037306
2024-09-23 00:03:03.405013,42.18,1.60624,-0.012439653414105056,0.02097675802753849,1.0165836711420804,0.3411964856958948,-1.1068402347296475,-1.5224640110827983
2024-09-23 00:03:03.447699,41.88,1.606291,-0.015061773230662524,0.01975718684395762,1.0115833457456815,0.2843590461946093,-1.1068402347296475,-1.5224640110827983
2024-09-23 00:03:03.460150,41.88,1.606291,-0.015061773230662524,0.01975718684395762,1.0115833457456815,0.2843590461946093,-1.0849533125951887,-1.5224640110827983
2024-09-23 00:03:03.492230,41.88,1.606342,-0.012378695361111141,0.01975718684395762,1.0115833457456815,0.2843590461946093,-1.0849533125951887,-1.434973311956227
2024-09-23 00:03:03.503271,41.88,1.606342,-0.012378695361111141,0.018293680157987106,1.0162178529511898,0.40244569536997005,-1.0849533125951887,-1.434973311956227
2024-09-23 00:03:03.545418,41.88,1.606393,-0.014939857124674697,0.017622936513202757,1.0134736818397203,0.40244569536997005,-1.1637349838074296,-1.474335492774099
2024-09-23 00:03:03.588459,41.88,1.606393,-0.014939857124674697,0.017622936513202757,1.0134736818397203,0.39809120809324083,-1.1199610328167677,-1.474335492774099
2024-09-23 00:03:03.599998,41.88,1.606443,-0.013232416455291218,0.021952496999143704,1.0134736818397203,0.39809120809324083,-1.1199610328167677,-1.491868061034009
2024-09-23 00:03:03.643113,41.88,1.606494,-0.013232416455291218,0.021952496999143704,1.0153641151482662,0.3543172304221429,-1.1462025222692638,-1.3868447936475277
2024-09-23 00:03:03.654845,41.88,1.606494,-0.013598266544692013,0.021952496999143704,1.0153641151482662,0.3543172304221429,-1.1462025222692638,-1.3868447936475277
2024-09-23 00:03:03.687850,41.88,1.606494,-0.013598266544692013,0.020427930488741967,1.0168886330514144,0.37620423259790986,-1.1462025222692638,-1.3868447936475277
2024-09-23 00:03:03.699288,41.88,1.606581,-0.013598266544692013,0.020427930488741967,1.0168886330514144,0.37620423259790986,-1.014995075006783,-1.5136977803137153
2024-09-23 00:03:03.742794,41.88,1.606581,-0.012988480952901577,0.019330377182586234,1.0134736818397203,0.4593404177673161,-1.1199610328167677,-1.4524485706396402
2024-09-23 00:03:03.785713,41.88,1.606632,-0.01433007153288426,0.019330377182586234,1.0134736818397203,0.4593404177673161,-1.1199610328167677,-1.4524485706396402
2024-09-23 00:03:03.797127,41.88,1.606632,-0.01433007153288426,0.018415698035412244,1.0137175930384832,0.2581175834225491,-1.0849533125951887,-1.4524485706396402
2024-09-23 00:03:03.830491,41.88,1.606632,-0.01433007153288426,0.018415698035412244,1.0137175930384832,0.2581175834225491,-1.0849533125951887,-1.3868447936475277
2024-09-23 00:03:03.843769,41.88,1.606683,-0.0076832825073043865,0.021830479121718566,1.0092051872541172,0.29306802074806765,-1.0849533125951887,-1.3868447936475277
2024-09-23 00:03:03.886478,41.88,1.606734,-0.012378695361111141,0.02402578927690465,1.0092051872541172,0.29306802074806765,-1.1462025222692638,-1.3518370734259486
2024-09-23 00:03:03.897833,41.88,1.606734,-0.012378695361111141,0.02402578927690465,1.015608026347029,0.29306802074806765,-1.1462025222692638,-1.3518370734259486
2024-09-23 00:03:03.929665,41.88,1.606734,-0.012378695361111141,0.02402578927690465,1.015608026347029,0.28871353347133843,-1.1024857741333545,-1.3518370734259486
2024-09-23 00:03:03.941030,41.88,1.606784,-0.008537002841996126,0.018659531766364576,1.015608026347029,0.28871353347133843,-1.1024857741333545,-1.404320052330941
2024-09-23 00:03:03.984341,41.88,1.606784,-0.008537002841996126,0.018659531766364576,1.012498037044669,0.28871353347133843,-1.1024857741333545,-1.404320052330941
2024-09-23 00:03:04.027281,41.88,1.606784,-0.008537002841996126,0.018659531766364576,1.012498037044669,0.3018342781975865,-1.0630662837389857,-1.404320052330941
2024-09-23 00:03:04.038565,41.88,1.606835,-0.014512945691866003,0.019025483627202678,1.012498037044669,0.3018342781975865,-1.0630662837389857,-1.4568603408124299
2024-09-23 00:03:04.081026,41.88,1.606922,-0.014512945691866003,0.019025483627202678,1.0160348952484908,0.28871353347133843,-1.1243154934130608,-1.4218526205908506
2024-09-23 00:03:04.093257,41.88,1.606922,-0.011951885699739756,0.019025483627202678,1.0160348952484908,0.28871353347133843,-1.1243154934130608,-1.4218526205908506
2024-09-23 00:03:04.126861,41.88,1.606922,-0.011951885699739756,0.018964423802771455,1.0143274196426437,0.37184974532118065,-1.1243154934130608,-1.4218526205908506
2024-09-23 00:03:04.137917,41.88,1.606974,-0.011951885699739756,0.018964423802771455,1.0143274196426437,0.37184974532118065,-1.0980740039605648,-1.3737241022821516
2024-09-23 00:03:04.180665,41.88,1.606974,-0.014208053655459124,0.02048899031317319,1.015668979843093,0.27994727602181957,-1.1855647030871361,-1.4306188513599336
2024-09-23 00:03:04.223745,41.88,1.607024,-0.011586034850850625,0.022684200215898644,1.015668979843093,0.27994727602181957,-1.1855647030871361,-1.4306188513599336
2024-09-23 00:03:04.235732,41.88,1.607024,-0.011586034850850625,0.022684200215898644,1.0131078636488298,0.3499627431454137,-1.1243154934130608,-1.4306188513599336
2024-09-23 00:03:04.271247,41.88,1.607118,-0.011586034850850625,0.022684200215898644,1.0131078636488298,0.3499627431454137,-1.1243154934130608,-1.4437395427253097
2024-09-23 00:03:04.282427,41.88,1.607118,-0.013293374508285133,0.02085484192155066,1.0116442992417454,0.3237212803733535,-1.1243154934130608,-1.4437395427253097
2024-09-23 00:03:04.325384,41.88,1.607169,-0.011951885699739756,0.022318348607521174,1.0116442992417454,0.3237212803733535,-1.1637349838074296,-1.518109550486505
2024-09-23 00:03:04.337668,41.88,1.607169,-0.011951885699739756,0.022318348607521174,1.012498037044669,0.3237212803733535,-1.1637349838074296,-1.518109550486505
2024-09-23 00:03:04.370067,41.88,1.607169,-0.011951885699739756,0.022318348607521174,1.012498037044669,0.28871353347133843,-1.1462025222692638,-1.469981032177806
2024-09-23 00:03:04.381055,41.88,1.60722,-0.013171458402297304,0.02152558556633501,1.012498037044669,0.28871353347133843,-1.1462025222692638,-1.469981032177806
2024-09-23 00:03:04.423057,41.88,1.607271,-0.01146401621393715,0.02152558556633501,1.0143883731387076,0.3411964856958948,-1.1549687530383468,-1.4655692620050162
2024-09-23 00:03:04.465454,41.94,1.607271,-0.01146401621393715,0.021952496999143704,1.0121931723498423,0.3411964856958948,-1.1549687530383468,-1.4655692620050162
2024-09-23 00:03:04.478004,41.94,1.607361,-0.01146401621393715,0.021952496999143704,1.0121931723498423,0.3456082558686845,-1.0849533125951887,-1.3737241022821516
2024-09-23 00:03:04.521856,41.94,1.607361,-0.013049540777332799,0.020793883868556746,1.0136566395424191,0.3499627431454137,-1.1637349838074296,-1.448094003321603
2024-09-23 00:03:04.565765,41.94,1.607412,-0.014574005516297226,0.020549948366167105,1.0136566395424191,0.3499627431454137,-1.1637349838074296,-1.448094003321603
2024-09-23 00:03:04.577676,41.94,1.607412,-0.014574005516297226,0.020549948366167105,1.0139006479556893,0.39373674749694765,-1.0937195433642715,-1.448094003321603
2024-09-23 00:03:04.610046,41.94,1.607412,-0.014574005516297226,0.020549948366167105,1.0139006479556893,0.39373674749694765,-1.0937195433642715,-1.474335492774099
2024-09-23 00:03:04.621590,41.94,1.607463,-0.012317737308117227,0.018476656088406155,1.015546975636458,0.3280757409696467,-1.0937195433642715,-1.474335492774099
2024-09-23 00:03:04.664198,41.94,1.607514,-0.014512945691866003,0.018476656088406155,1.015546975636458,0.3280757409696467,-1.0674780539117754,-1.3956111311383546
2024-09-23 00:03:04.675254,41.94,1.607514,-0.014512945691866003,0.017622936513202757,1.0144494238492787,0.3280757409696467,-1.0674780539117754,-1.3956111311383546
2024-09-23 00:03:04.707644,41.94,1.607514,-0.014512945691866003,0.017622936513202757,1.0144494238492787,0.2143435924112331,-1.0674780539117754,-1.3956111311383546
2024-09-23 00:03:04.721371,41.94,1.607564,-0.011524974266931064,0.01890346574977754,1.0144494238492787,0.2143435924112331,-1.1199610328167677,-1.434973311956227
2024-09-23 00:03:04.763828,41.94,1.607615,-0.011524974266931064,0.01890346574977754,1.01426646614658,0.3149550229238346,-0.9974626134686172,-1.491868061034009
2024-09-23 00:03:04.775582,41.94,1.607615,-0.011890927646745842,0.01890346574977754,1.01426646614658,0.3149550229238346,-0.9974626134686172,-1.491868061034009
2024-09-23 00:03:04.807309,41.94,1.607615,-0.011890927646745842,0.021464627513341095,1.0124370835486052,0.3149550229238346,-0.9974626134686172,-1.491868061034009
2024-09-23 00:03:04.818492,41.94,1.607702,-0.011890927646745842,0.021464627513341095,1.0124370835486052,0.3543172304221429,-1.0412365644592791,-1.413086283100024
2024-09-23 00:03:04.861358,41.94,1.607702,-0.01164699290384454,0.021586543619328925,1.0147542885441054,0.3062460483703762,-1.0893650827679784,-1.413086283100024
2024-09-23 00:03:04.873799,41.94,1.607702,-0.01164699290384454,0.021586543619328925,1.0147542885441054,0.3062460483703762,-1.0893650827679784,-1.4874562908612192
2024-09-23 00:03:04.906477,41.94,1.607754,-0.013354434332716355,0.019696228790963704,1.0147542885441054,0.3062460483703762,-1.0893650827679784,-1.4874562908612192
2024-09-23 00:03:04.918101,41.94,1.607754,-0.013354434332716355,0.019696228790963704,1.0181691425412924,0.2581175834225491,-1.0849533125951887,-1.4874562908612192
2024-09-23 00:03:04.960377,41.94,1.607804,-0.01585453627184869,0.022501222766502915,1.0121322188537785,0.31060053564710544,-1.0849533125951887,-1.4437395427253097
2024-09-23 00:03:05.003751,41.94,1.607804,-0.01585453627184869,0.022501222766502915,1.0121322188537785,0.31060053564710544,-1.1680894444037229,-1.43932777255252
2024-09-23 00:03:05.015519,41.94,1.607855,-0.013537308491698099,0.01914740125216718,1.015546975636458,0.31060053564710544,-1.1680894444037229,-1.43932777255252
2024-09-23 00:03:05.058019,41.94,1.607906,-0.013354434332716355,0.021037716080532405,1.015546975636458,0.3324875378228724,-1.0718325145080685,-1.3956111311383546
2024-09-23 00:03:05.100022,41.94,1.607906,-0.013354434332716355,0.021037716080532405,1.0130469101527657,0.28871353347133843,-1.0718325145080685,-1.3956111311383546
2024-09-23 00:03:05.112074,41.94,1.607956,-0.013476350438704184,0.021037716080532405,1.0130469101527657,0.28871353347133843,-1.0762442846808582,-1.3868447936475277
2024-09-23 00:03:05.154960,41.94,1.607956,-0.013476350438704184,0.017379001010813116,1.0117053499523165,0.3193667930966243,-1.1418479549512268,-1.4655692620050162
2024-09-23 00:03:05.166403,41.94,1.608043,-0.013476350438704184,0.017379001010813116,1.0117053499523165,0.3193667930966243,-1.1418479549512268,-1.4655692620050162
2024-09-23 00:03:05.198983,41.94,1.608043,-0.009512741813601339,0.020306014382754138,1.015668979843093,0.3193667930966243,-1.1418479549512268,-1.4655692620050162
2024-09-23 00:03:05.210542,41.94,1.608043,-0.009512741813601339,0.020306014382754138,1.015668979843093,0.3674952580444515,-1.0718325145080685,-1.3999655917346479
2024-09-23 00:03:05.253326,41.94,1.608095,-0.015061773230662524,0.0187205915907958,1.0147542885441054,0.42433269754573705,-1.0587118231426924,-1.3999655917346479
2024-09-23 00:03:05.296064,41.94,1.608146,-0.010061467580960552,0.0187205915907958,1.0147542885441054,0.42433269754573705,-1.0587118231426924,-1.4306188513599336
2024-09-23 00:03:05.307281,41.94,1.608146,-0.010061467580960552,0.019452293288574063,1.0181081890452284,0.3849704900474288,-1.0587118231426924,-1.4306188513599336
2024-09-23 00:03:05.350351,41.94,1.608196,-0.013293374508285133,0.01786687049661572,1.0131078636488298,0.3849704900474288,-1.0762442846808582,-1.3518370734259486
2024-09-23 00:03:05.393852,41.94,1.608196,-0.013293374508285133,0.01786687049661572,1.0131078636488298,0.2537058132497594,-1.1549687530383468,-1.43932777255252
2024-09-23 00:03:05.405006,41.94,1.608247,-0.012378695361111141,0.018964423802771455,1.0131078636488298,0.2537058132497594,-1.1549687530383468,-1.43932777255252
2024-09-23 00:03:05.447977,41.94,1.608298,-0.01341539238571027,0.018964423802771455,1.0117664006628877,0.3674952580444515,-1.1330817241821438,-1.3999655917346479
2024-09-23 00:03:05.490900,42.2,1.608298,-0.01341539238571027,0.023537919791102042,1.012802998954003,0.31060053564710544,-1.1330817241821438,-1.3999655917346479
2024-09-23 00:03:05.503067,42.2,1.608384,-0.01341539238571027,0.023537919791102042,1.012802998954003,0.31060053564710544,-1.0237041029211134,-1.3911993609655648
2024-09-23 00:03:05.545728,42.2,1.608384,-0.012805606793919833,0.01939133523558015,1.0103637897518674,0.3368419984191656,-1.0718325145080685,-1.518109550486505
2024-09-23 00:03:05.588111,42.2,1.608436,-0.01536666678604608,0.01939133523558015,1.0103637897518674,0.3368419984191656,-1.0718325145080685,-1.518109550486505
2024-09-23 00:03:05.599062,42.2,1.608436,-0.01536666678604608,0.02262324216290473,1.0168886330514144,0.3018342781975865,-1.0499454856518655,-1.518109550486505
2024-09-23 00:03:05.642049,42.2,1.608487,-0.011890927646745842,0.02085484192155066,1.0189008761375808,0.2581175834225491,-1.0499454856518655,-1.448094003321603
2024-09-23 00:03:05.684493,42.2,1.608487,-0.011890927646745842,0.02085484192155066,1.0189008761375808,0.2581175834225491,-1.0455910250555724,-1.4087318225037306
2024-09-23 00:03:05.695832,42.2,1.608538,-0.013476350438704184,0.02097675802753849,1.0157908868352208,0.2581175834225491,-1.0455910250555724,-1.4087318225037306
2024-09-23 00:03:05.737621,42.2,1.608588,-0.013476350438704184,0.02097675802753849,1.0157908868352208,0.27123832814879717,-1.2336931146740913,-1.491868061034009
2024-09-23 00:03:05.751443,42.2,1.608588,-0.012866564846913748,0.020427930488741967,1.0157908868352208,0.27123832814879717,-1.2336931146740913,-1.491868061034009
2024-09-23 00:03:05.783518,42.2,1.608588,-0.012866564846913748,0.020427930488741967,1.0146933350480416,0.24499683869630098,-1.1418479549512268,-1.491868061034009
2024-09-23 00:03:05.794566,42.2,1.608639,-0.010183486217874026,0.020427930488741967,1.0146933350480416,0.24499683869630098,-1.1418479549512268,-1.43932777255252
2024-09-23 00:03:05.837720,42.2,1.608639,-0.010183486217874026,0.01975718684395762,1.0165227176460165,0.3149550229238346,-1.0937195433642715,-1.553117270708084
2024-09-23 00:03:05.849069,42.2,1.608726,-0.010183486217874026,0.01975718684395762,1.0165227176460165,0.3149550229238346,-1.0937195433642715,-1.553117270708084
2024-09-23 00:03:05.882417,42.2,1.608726,-0.01481783924724956,0.019513251341567978,1.0176202694331955,0.3149550229238346,-1.0937195433642715,-1.553117270708084
2024-09-23 00:03:05.893687,42.2,1.608726,-0.01481783924724956,0.019513251341567978,1.0176202694331955,0.40244569536997005,-1.0849533125951887,-1.483101830264926
2024-09-23 00:03:05.936810,42.2,1.608777,-0.012744546969488612,0.02122069352992813,1.0140835084438808,0.27559278874509036,-1.028115873093903,-1.483101830264926
2024-09-23 00:03:05.978649,42.2,1.608828,-0.01219582044264106,0.02122069352992813,1.0140835084438808,0.27559278874509036,-1.028115873093903,-1.4874562908612192
2024-09-23 00:03:05.990698,42.2,1.608828,-0.01219582044264106,0.022196330730096036,1.015546975636458,0.3368419984191656,-1.028115873093903,-1.4874562908612192
2024-09-23 00:03:06.034136,42.2,1.608879,-0.011524974266931064,0.019574312684975875,1.0170715907541132,0.3368419984191656,-1.0237041029211134,-1.518109550486505
2024-09-23 00:03:06.076457,42.2,1.608879,-0.011524974266931064,0.019574312684975875,1.0170715907541132,0.27994727602181957,-1.0237041029211134,-1.518109550486505
2024-09-23 00:03:06.128719,42.2,1.608929,-0.013110498830326714,0.02201345505213762,1.0170715907541132,0.27994727602181957,-1.0368247942864894,-1.434973311956227
2024-09-23 00:03:06.141079,42.2,1.608929,-0.013110498830326714,0.02201345505213762,1.015973941752427,0.27994727602181957,-1.0368247942864894,-1.434973311956227
2024-09-23 00:03:06.174108,42.2,1.608929,-0.013110498830326714,0.02201345505213762,1.015973941752427,0.2318188110739924,-1.0980740039605648,-1.3999655917346479
2024-09-23 00:03:06.185800,42.2,1.60898,-0.011159123418041933,0.021159735476934217,1.015973941752427,0.2318188110739924,-1.0980740039605648,-1.3999655917346479
2024-09-23 00:03:06.228993,42.2,1.609067,-0.01433007153288426,0.021159735476934217,1.0121322188537785,0.26247207069927825,-1.0237041029211134,-1.3299501512914895
2024-09-23 00:03:06.271085,42.2,1.609067,-0.01433007153288426,0.020793883868556746,1.0149372462468045,0.31060053564710544,-1.0237041029211134,-1.3299501512914895
2024-09-23 00:03:06.283138,42.2,1.609119,-0.01433007153288426,0.020793883868556746,1.0149372462468045,0.31060053564710544,-1.0368247942864894,-1.3999655917346479
2024-09-23 00:03:06.326607,42.2,1.609119,-0.012317737308117227,0.02140366946034718,1.0164007134393813,0.468106701897271,-1.0630662837389857,-1.4218526205908506
2024-09-23 00:03:06.368396,42.2,1.609214,-0.013537308491698099,0.019330377182586234,1.0164007134393813,0.468106701897271,-1.0630662837389857,-1.4218526205908506
2024-09-23 00:03:06.379273,42.2,1.609214,-0.013537308491698099,0.019330377182586234,1.012498037044669,0.41121195281948897,-1.1199610328167677,-1.4218526205908506
2024-09-23 00:03:06.423119,42.2,1.609265,-0.010732313756670548,0.020062078880364497,1.0148762927507406,0.39809120809324083,-1.1199610328167677,-1.3430708426568656
2024-09-23 00:03:06.464991,42.2,1.609265,-0.010732313756670548,0.020062078880364497,1.0148762927507406,0.39809120809324083,-1.0893650827679784,-1.4306188513599336
2024-09-23 00:03:06.476128,42.2,1.609316,-0.01433007153288426,0.020732824044125523,1.0146322843374704,0.39809120809324083,-1.0893650827679784,-1.4306188513599336
2024-09-23 00:03:06.518602,42.19,1.609367,-0.011159123418041933,0.020732824044125523,1.0146322843374704,0.28871353347133843,-1.0630662837389857,-1.3824903330512346
2024-09-23 00:03:06.530918,42.19,1.609367,-0.011159123418041933,0.023720795469060463,1.0146322843374704,0.28871353347133843,-1.0630662837389857,-1.3824903330512346
2024-09-23 00:03:06.563787,42.19,1.609367,-0.011159123418041933,0.023720795469060463,1.0145713308414066,0.3411964856958948,-0.9405678643908352,-1.3824903330512346
2024-09-23 00:03:06.575429,42.19,1.609417,-0.013232416455291218,0.023720795469060463,1.0145713308414066,0.3411964856958948,-0.9405678643908352,-1.3737241022821516
2024-09-23 00:03:06.617955,42.19,1.609506,-0.013232416455291218,0.020427930488741967,1.0131078636488298,0.40244569536997005,-1.1024857741333545,-1.5268184716790913
2024-09-23 00:03:06.661362,42.19,1.609506,-0.010183486217874026,0.01890346574977754,1.017254451242305,0.40244569536997005,-1.1024857741333545,-1.5268184716790913
2024-09-23 00:03:06.673014,42.19,1.609506,-0.010183486217874026,0.01890346574977754,1.017254451242305,0.3411964856958948,-1.1855647030871361,-1.474335492774099
2024-09-23 00:03:06.715996,42.19,1.609557,-0.01433007153288426,0.01890346574977754,1.017254451242305,0.3411964856958948,-1.1855647030871361,-1.474335492774099
2024-09-23 00:03:06.759434,42.19,1.609557,-0.01433007153288426,0.01890346574977754,1.0182300960373563,0.35872900059493257,-1.1855647030871361,-1.474335492774099
2024-09-23 00:03:06.770738,42.19,1.609608,-0.01433007153288426,0.01890346574977754,1.0182300960373563,0.35872900059493257,-1.0805987452771515,-1.3693696416858583
2024-09-23 00:03:06.814345,42.19,1.609608,-0.015122834574070423,0.02048899031317319,1.015668979843093,0.26247207069927825,-1.0543573625463993,-1.434973311956227
2024-09-23 00:03:06.856681,42.19,1.609659,-0.012439653414105056,0.019940162774376668,1.015668979843093,0.26247207069927825,-1.0543573625463993,-1.434973311956227
2024-09-23 00:03:06.867806,42.19,1.609659,-0.012439653414105056,0.019940162774376668,1.0123761300525411,0.3193667930966243,-1.1287272635858505,-1.434973311956227
2024-09-23 00:03:06.910420,42.19,1.60971,-0.013171458402297304,0.023050050305299438,1.0168886330514144,0.3411964856958948,-1.1287272635858505,-1.461214801408723
2024-09-23 00:03:06.953153,42.19,1.60976,-0.013171458402297304,0.023050050305299438,1.0168886330514144,0.3411964856958948,-1.1156065722204744,-1.4655692620050162
2024-09-23 00:03:06.965061,42.19,1.60976,-0.012317737308117227,0.021464627513341095,1.0153641151482662,0.3411964856958948,-1.1156065722204744,-1.4655692620050162
2024-09-23 00:03:07.007233,42.19,1.609849,-0.01219582044264106,0.020732824044125523,1.0153641151482662,0.4155664400962181,-1.0368247942864894,-1.461214801408723
2024-09-23 00:03:07.050585,42.19,1.609849,-0.01219582044264106,0.020732824044125523,1.0139006479556893,0.3062460483703762,-1.0368247942864894,-1.461214801408723
2024-09-23 00:03:07.062406,42.19,1.6099,-0.012927522899907663,0.020732824044125523,1.0139006479556893,0.3062460483703762,-1.0018170740649104,-1.469981032177806
2024-09-23 00:03:07.105773,42.19,1.609994,-0.012927522899907663,0.023720795469060463,1.0174983624410678,0.39373674749694765,-1.0674780539117754,-1.426207081187144
2024-09-23 00:03:07.150754,42.19,1.609994,-0.011768909009832369,0.02152558556633501,1.0095710054450078,0.39373674749694765,-1.0674780539117754,-1.426207081187144
2024-09-23 00:03:07.162436,42.19,1.609994,-0.011768909009832369,0.02152558556633501,1.0095710054450078,0.27994727602181957,-1.1068402347296475,-1.3387163820605725
2024-09-23 00:03:07.195473,42.19,1.610045,-0.011768909009832369,0.02152558556633501,1.0095710054450078,0.27994727602181957,-1.1068402347296475,-1.3387163820605725
2024-09-23 00:03:07.207359,42.19,1.610045,-0.013354434332716355,0.018781549643789714,1.0150592504534395,0.29747979092085736,-1.1111946953259408,-1.3387163820605725
2024-09-23 00:03:07.249846,42.19,1.610096,-0.01695219134944173,0.019940162774376668,1.0113394345469187,0.29747979092085736,-1.1111946953259408,-1.3911993609655648
2024-09-23 00:03:07.262036,42.19,1.610096,-0.01695219134944173,0.019940162774376668,1.0113394345469187,0.3368419984191656,-1.1111946953259408,-1.3911993609655648
2024-09-23 00:03:07.294554,42.19,1.610096,-0.01695219134944173,0.019940162774376668,1.0113394345469187,0.3368419984191656,-1.0893650827679784,-1.504988752399385
2024-09-23 00:03:07.305907,42.19,1.610146,-0.011403058160943235,0.020915799974544576,1.013778546534547,0.3368419984191656,-1.0893650827679784,-1.504988752399385
2024-09-23 00:03:07.349211,42.19,1.610197,-0.01433007153288426,0.02225739055452726,1.013778546534547,0.35872900059493257,-1.1111946953259408,-1.4787472629468887
2024-09-23 00:03:07.392592,42.19,1.610197,-0.01433007153288426,0.02225739055452726,1.0152421109416312,0.26247207069927825,-1.1243154934130608,-1.4787472629468887
2024-09-23 00:03:07.404276,42.19,1.610248,-0.012622630104012445,0.02225739055452726,1.0152421109416312,0.26247207069927825,-1.1243154934130608,-1.404320052330941
2024-09-23 00:03:07.447577,42.19,1.610335,-0.012622630104012445,0.021464627513341095,1.012742045457939,0.3018342781975865,-1.0718325145080685,-1.474335492774099
2024-09-23 00:03:07.489850,42.19,1.610335,-0.010549337066763158,0.018415698035412244,1.012925003160638,0.3018342781975865,-1.0718325145080685,-1.474335492774099
2024-09-23 00:03:07.501722,42.19,1.610335,-0.010549337066763158,0.018415698035412244,1.012925003160638,0.31060053564710544,-1.0893650827679784,-1.474335492774099
2024-09-23 00:03:07.543750,42.19,1.610386,-0.014025177977500705,0.02274515826889256,1.015486022140394,0.3674952580444515,-1.1330817241821438,-1.474335492774099
2024-09-23 00:03:07.588042,42.19,1.610437,-0.01695219134944173,0.02274515826889256,1.015486022140394,0.3674952580444515,-1.1330817241821438,-1.4087318225037306
2024-09-23 00:03:07.599119,42.19,1.610437,-0.01695219134944173,0.02201345505213762,1.0132298678554648,0.3411964856958948,-1.1330817241821438,-1.4087318225037306
2024-09-23 00:03:07.642044,42.19,1.610488,-0.01445198763887209,0.01890346574977754,1.0153031616522024,0.3411964856958948,-1.0937195433642715,-1.404320052330941
2024-09-23 00:03:07.685338,42.19,1.610488,-0.01445198763887209,0.01890346574977754,1.0153031616522024,0.35872900059493257,-1.0849533125951887,-1.3649578715130686
2024-09-23 00:03:07.697184,42.19,1.610539,-0.013171458402297304,0.021952496999143704,1.0153031616522024,0.35872900059493257,-1.0849533125951887,-1.3649578715130686
2024-09-23 00:03:07.729791,42.19,1.610539,-0.013171458402297304,0.021952496999143704,1.0133517748475924,0.35872900059493257,-1.0849533125951887,-1.3649578715130686
2024-09-23 00:03:07.740882,42.19,1.610589,-0.011220081471035847,0.021952496999143704,1.0133517748475924,0.3543172304221429,-1.1111946953259408,-1.3737241022821516
2024-09-23 00:03:07.782518,42.19,1.610589,-0.011220081471035847,0.019696228790963704,1.011217527554791,0.3237212803733535,-1.1111946953259408,-1.3737241022821516
2024-09-23 00:03:07.793461,42.19,1.610676,-0.011220081471035847,0.019696228790963704,1.011217527554791,0.3237212803733535,-1.0105833048339934,-1.4087318225037306
2024-09-23 00:03:07.836324,42.19,1.610676,-0.011951885699739756,0.020793883868556746,1.0149982969573756,0.39809120809324083,-1.0980740039605648,-1.496222521630302
2024-09-23 00:03:07.878952,42.19,1.610728,-0.014695923141261731,0.020793883868556746,1.0149982969573756,0.39809120809324083,-1.0980740039605648,-1.496222521630302
2024-09-23 00:03:07.890146,42.19,1.610728,-0.014695923141261731,0.022562284109910815,1.0145103773453428,0.3280757409696467,-1.0849533125951887,-1.496222521630302
2024-09-23 00:03:07.932384,42.19,1.610779,-0.012378695361111141,0.01835463821098102,1.0165227176460165,0.3280757409696467,-1.0849533125951887,-1.5005769822265953
2024-09-23 00:03:07.944881,42.19,1.610779,-0.012378695361111141,0.01835463821098102,1.0165227176460165,0.3499627431454137,-1.0849533125951887,-1.5005769822265953
2024-09-23 00:03:07.976934,42.19,1.610829,-0.012378695361111141,0.01835463821098102,1.0165227176460165,0.3499627431454137,-0.936213403794542,-1.4655692620050162
2024-09-23 00:03:08.029258,42.19,1.610829,-0.013842202047081654,0.020915799974544576,1.0178032271358946,0.27994727602181957,-1.0455910250555724,-1.4655692620050162
2024-09-23 00:03:08.040974,42.19,1.610829,-0.013842202047081654,0.020915799974544576,1.0178032271358946,0.27994727602181957,-1.0455910250555724,-1.5618261919006706
2024-09-23 00:03:08.074754,42.19,1.61088,-0.010732313756670548,0.020915799974544576,1.0178032271358946,0.27994727602181957,-1.0455910250555724,-1.5618261919006706
2024-09-23 00:03:08.086563,42.19,1.61088,-0.010732313756670548,0.021708563015730736,1.0137175930384832,0.3499627431454137,-1.0674780539117754,-1.5618261919006706
2024-09-23 00:03:08.129371,42.19,1.610931,-0.01365932788809991,0.01798878660260355,1.0164616669354454,0.3411964856958948,-1.0674780539117754,-1.5355847024481744
2024-09-23 00:03:08.172846,42.19,1.611017,-0.01365932788809991,0.01798878660260355,1.0164616669354454,0.3411964856958948,-1.0543573625463993,-1.43932777255252
2024-09-23 00:03:08.184207,42.19,1.611017,-0.01573262016586086,0.02048899031317319,1.015608026347029,0.3411964856958948,-1.0543573625463993,-1.43932777255252
2024-09-23 00:03:08.226938,42.19,1.611068,-0.013049540777332799,0.02134260963591596,1.015608026347029,0.38932495064372197,-1.1024857741333545,-1.461214801408723
2024-09-23 00:03:08.270257,42.19,1.611068,-0.013049540777332799,0.02134260963591596,1.0132908213515286,0.35872900059493257,-1.1768557818945498,-1.461214801408723
2024-09-23 00:03:08.281821,42.19,1.611119,-0.014695923141261731,0.02134260963591596,1.0132908213515286,0.35872900059493257,-1.1768557818945498,-1.474335492774099
2024-09-23 00:03:08.325329,42.19,1.611212,-0.014695923141261731,0.01914740125216718,1.0129859566567019,0.3280757409696467,-1.0455910250555724,-1.4174980532728136
2024-09-23 00:03:08.368068,42.19,1.611212,-0.01433007153288426,0.020001120827370582,1.0129859566567019,0.3280757409696467,-1.0455910250555724,-1.4174980532728136
2024-09-23 00:03:08.379605,42.19,1.611212,-0.01433007153288426,0.020001120827370582,1.0160348952484908,0.31060053564710544,-1.1506142924420535,-1.3824903330512346
2024-09-23 00:03:08.422018,42.19,1.611264,-0.01042742096077533,0.020306014382754138,1.0146933350480416,0.38932495064372197,-1.0543573625463993,-1.3824903330512346
2024-09-23 00:03:08.465825,42.19,1.611314,-0.010305402323861856,0.020306014382754138,1.0146933350480416,0.38932495064372197,-1.0543573625463993,-1.4306188513599336
2024-09-23 00:03:08.477098,42.19,1.611314,-0.010305402323861856,0.02097675802753849,1.011217527554791,0.223109849860752,-1.0543573625463993,-1.4306188513599336
2024-09-23 00:03:08.520485,42.19,1.611365,-0.013598266544692013,0.020610907938137694,1.0162788064472537,0.223109849860752,-1.0105833048339934,-1.3999655917346479
2024-09-23 00:03:08.562226,41.91,1.611365,-0.013598266544692013,0.020610907938137694,1.0162788064472537,0.3018342781975865,-1.028115873093903,-1.4524485706396402
2024-09-23 00:03:08.573786,41.91,1.611416,-0.010854230622146716,0.02152558556633501,1.0162788064472537,0.3018342781975865,-1.028115873093903,-1.4524485706396402
2024-09-23 00:03:08.617039,41.91,1.611466,-0.013110498830326714,0.02152558556633501,1.0123761300525411,0.26247207069927825,-1.1243154934130608,-1.3562488435987383
2024-09-23 00:03:08.659014,41.91,1.611466,-0.013110498830326714,0.018842507696783625,1.0123761300525411,0.26247207069927825,-1.1243154934130608,-1.3562488435987383
2024-09-23 00:03:08.712276,41.91,1.611466,-0.013110498830326714,0.018842507696783625,1.0131688171448936,0.2537058132497594,-1.1987427040290088,-1.483101830264926
2024-09-23 00:03:08.725097,41.91,1.611553,-0.013232416455291218,0.018842507696783625,1.0131688171448936,0.2537058132497594,-1.1987427040290088,-1.483101830264926
2024-09-23 00:03:08.757999,41.91,1.611553,-0.013232416455291218,0.018171764051999276,1.013778546534547,0.3368419984191656,-1.1987427040290088,-1.483101830264926
2024-09-23 00:03:08.770001,41.91,1.611605,-0.013232416455291218,0.018171764051999276,1.013778546534547,0.3368419984191656,-1.0543573625463993,-1.483101830264926
2024-09-23 00:03:08.804180,41.91,1.611605,-0.012256778495634975,0.018171764051999276,1.013778546534547,0.3368419984191656,-1.0543573625463993,-1.483101830264926
2024-09-23 00:03:08.815288,41.91,1.611605,-0.012256778495634975,0.01750101888823825,1.0160348952484908,0.3280757409696467,-1.0980740039605648,-1.4568603408124299
2024-09-23 00:03:08.858736,41.91,1.611656,-0.009451681989170117,0.021037716080532405,1.0132908213515286,0.39373674749694765,-1.0980740039605648,-1.4568603408124299
2024-09-23 00:03:08.870928,41.91,1.611656,-0.009451681989170117,0.021037716080532405,1.0132908213515286,0.39373674749694765,-1.1506142924420535,-1.4568603408124299
2024-09-23 00:03:08.903687,41.91,1.611706,-0.012256778495634975,0.021037716080532405,1.0132908213515286,0.39373674749694765,-1.1506142924420535,-1.4218526205908506
2024-09-23 00:03:08.915310,41.91,1.611706,-0.012256778495634975,0.01963527073796979,1.0136566395424191,0.3018342781975865,-1.1506142924420535,-1.4218526205908506
2024-09-23 00:03:08.957191,41.91,1.611799,-0.011951885699739756,0.02213537267710212,1.0149372462468045,0.3018342781975865,-1.1506142924420535,-1.5136977803137153
2024-09-23 00:03:08.999948,41.91,1.611799,-0.011951885699739756,0.02213537267710212,1.0149372462468045,0.31060053564710544,-1.1637349838074296,-1.5136977803137153
2024-09-23 00:03:09.011020,41.91,1.611849,-0.010976248499571852,0.01853761414140007,1.0149372462468045,0.31060053564710544,-1.1637349838074296,-1.5224640110827983
2024-09-23 00:03:09.053420,41.91,1.6119,-0.010976248499571852,0.01853761414140007,1.012802998954003,0.3456082558686845,-1.238104991568625,-1.5749469899877906
2024-09-23 00:03:09.065616,41.91,1.6119,-0.011768909009832369,0.01853761414140007,1.012802998954003,0.3456082558686845,-1.238104991568625,-1.5749469899877906
2024-09-23 00:03:09.098414,41.91,1.6119,-0.011768909009832369,0.019574312684975875,1.0149372462468045,0.3456082558686845,-1.238104991568625,-1.5749469899877906
2024-09-23 00:03:09.109556,41.91,1.611992,-0.011768909009832369,0.019574312684975875,1.0149372462468045,0.3193667930966243,-1.1287272635858505,-1.43932777255252
2024-09-23 00:03:09.152984,41.91,1.611992,-0.012500713238536278,0.01975718684395762,1.015486022140394,0.3018342781975865,-1.014995075006783,-1.3999655917346479
2024-09-23 00:03:09.196302,41.91,1.612044,-0.010366361136344109,0.019208359305161096,1.015486022140394,0.3018342781975865,-1.014995075006783,-1.3999655917346479
2024-09-23 00:03:09.208029,41.91,1.612044,-0.010366361136344109,0.019208359305161096,1.0167666288447792,0.3456082558686845,-1.0674780539117754,-1.3999655917346479
2024-09-23 00:03:09.252110,41.91,1.612094,-0.014512945691866003,0.02067186599113161,1.0123761300525411,0.29306802074806765,-1.0674780539117754,-1.461214801408723
2024-09-23 00:03:09.295314,41.91,1.612145,-0.013293374508285133,0.02067186599113161,1.0123761300525411,0.29306802074806765,-1.0980740039605648,-1.426207081187144
2024-09-23 00:03:09.349194,41.91,1.612196,-0.013293374508285133,0.02237930666051509,1.0159129882563631,0.2581175834225491,-1.1287272635858505,-1.4655692620050162
2024-09-23 00:03:09.393125,41.91,1.612196,-0.014269113479890346,0.021098777423940302,1.0106077981651376,0.3411964856958948,-1.1287272635858505,-1.4655692620050162
2024-09-23 00:03:09.404725,41.91,1.612196,-0.014269113479890346,0.021098777423940302,1.0106077981651376,0.3411964856958948,-1.1506142924420535,-1.461214801408723
2024-09-23 00:03:09.436662,41.91,1.612246,-0.014269113479890346,0.021098777423940302,1.0106077981651376,0.3411964856958948,-1.1506142924420535,-1.461214801408723
2024-09-23 00:03:09.447890,41.91,1.612246,-0.01146401621393715,0.020306014382754138,1.0162178529511898,0.3062460483703762,-1.1374934943549335,-1.461214801408723
2024-09-23 00:03:09.490368,41.91,1.612334,-0.014269113479890346,0.020732824044125523,1.0162178529511898,0.3062460483703762,-1.1374934943549335,-1.448094003321603
2024-09-23 00:03:09.505927,41.91,1.612334,-0.014269113479890346,0.020732824044125523,1.0162788064472537,0.3849704900474288,-1.1374934943549335,-1.448094003321603
2024-09-23 00:03:09.538682,41.91,1.612384,-0.014269113479890346,0.020732824044125523,1.0162788064472537,0.3849704900474288,-1.0630662837389857,-1.4874562908612192
2024-09-23 00:03:09.550068,41.91,1.612384,-0.013049540777332799,0.02152558556633501,1.0149982969573756,0.3849704900474288,-1.0630662837389857,-1.4874562908612192
2024-09-23 00:03:09.592446,41.78,1.612435,-0.013293374508285133,0.021098777423940302,1.0149982969573756,0.3849704900474288,-1.028115873093903,-1.4568603408124299
2024-09-23 00:03:09.635064,41.78,1.612435,-0.013293374508285133,0.021098777423940302,1.0180472355491645,0.3368419984191656,-1.028115873093903,-1.4568603408124299
2024-09-23 00:03:09.646840,41.78,1.612486,-0.01256167205101853,0.021098777423940302,1.0180472355491645,0.3368419984191656,-1.1111946953259408,-1.518109550486505
2024-09-23 00:03:09.689458,41.78,1.612577,-0.01256167205101853,0.022928134199311608,1.0165836711420804,0.31060053564710544,-1.1024857741333545,-1.5005769822265953
2024-09-23 00:03:09.731976,41.78,1.612577,-0.013232416455291218,0.020549948366167105,1.0159129882563631,0.31060053564710544,-1.1024857741333545,-1.5005769822265953
2024-09-23 00:03:09.743427,41.78,1.612577,-0.013232416455291218,0.020549948366167105,1.0159129882563631,0.3411964856958948,-1.1024857741333545,-1.4524485706396402
2024-09-23 00:03:09.787325,41.78,1.612629,-0.013232416455291218,0.020549948366167105,1.0159129882563631,0.3411964856958948,-1.1024857741333545,-1.4524485706396402
2024-09-23 00:03:09.830843,41.78,1.612629,-0.010549337066763158,0.019879204721382753,1.0144494238492787,0.3411964856958948,-1.1024857741333545,-1.4524485706396402
2024-09-23 00:03:09.841931,41.78,1.612629,-0.010549337066763158,0.019879204721382753,1.0144494238492787,0.3280757409696467,-1.0805987452771515,-1.3824903330512346
2024-09-23 00:03:09.885372,41.78,1.612679,-0.013537308491698099,0.02225739055452726,1.0160958487445546,0.29747979092085736,-1.0805987452771515,-1.3824903330512346
2024-09-23 00:03:09.928300,41.78,1.61273,-0.013537308491698099,0.02225739055452726,1.0160958487445546,0.29747979092085736,-1.0805987452771515,-1.469981032177806
2024-09-23 00:03:09.939411,41.78,1.61273,-0.012439653414105056,0.02140366946034718,1.0162788064472537,0.29747979092085736,-1.0805987452771515,-1.469981032177806
2024-09-23 00:03:09.981892,41.78,1.612781,-0.016281345933220073,0.022684200215898644,1.0162788064472537,0.3368419984191656,-1.1156065722204744,-1.3387163820605725
2024-09-23 00:03:10.025360,41.78,1.612781,-0.016281345933220073,0.022684200215898644,1.0160348952484908,0.31060053564710544,-1.1156065722204744,-1.3387163820605725
2024-09-23 00:03:10.036992,41.78,1.612831,-0.012805606793919833,0.022684200215898644,1.0160348952484908,0.31060053564710544,-1.0762442846808582,-1.426207081187144
2024-09-23 00:03:10.079344,41.78,1.612921,-0.012805606793919833,0.01914740125216718,1.014022554947817,0.3543172304221429,-1.2118635021161288,-1.3999655917346479
2024-09-23 00:03:10.122535,41.78,1.612921,-0.016159429827232244,0.020915799974544576,1.0143883731387076,0.3543172304221429,-1.2118635021161288,-1.3999655917346479
2024-09-23 00:03:10.134730,41.78,1.612921,-0.016159429827232244,0.020915799974544576,1.0143883731387076,0.3280757409696467,-1.0849533125951887,-1.4218526205908506
2024-09-23 00:03:10.177216,41.78,1.613017,-0.014512945691866003,0.019208359305161096,1.0143274196426437,0.27559278874509036,-1.0499454856518655,-1.4218526205908506
2024-09-23 00:03:10.220064,41.78,1.613068,-0.011159123418041933,0.019208359305161096,1.0143274196426437,0.27559278874509036,-1.0499454856518655,-1.4568603408124299
2024-09-23 00:03:10.231483,41.78,1.613068,-0.011159123418041933,0.020062078880364497,1.0132908213515286,0.26247207069927825,-1.0499454856518655,-1.4568603408124299
2024-09-23 00:03:10.274331,41.78,1.613118,-0.013293374508285133,0.02225739055452726,1.0151811574455674,0.26247207069927825,-1.1374934943549335,-1.3518370734259486
2024-09-23 00:03:10.317933,41.78,1.613118,-0.013293374508285133,0.02225739055452726,1.0151811574455674,0.3280757409696467,-1.1287272635858505,-1.3518370734259486
2024-09-23 00:03:10.329794,41.78,1.613169,-0.012622630104012445,0.021159735476934217,1.0151811574455674,0.3280757409696467,-1.1287272635858505,-1.483101830264926
2024-09-23 00:03:10.371735,41.78,1.61322,-0.012378695361111141,0.021159735476934217,1.0134127283436565,0.3280757409696467,-1.1243154934130608,-1.5618261919006706
2024-09-23 00:03:10.415100,41.78,1.61322,-0.012378695361111141,0.02237930666051509,1.012742045457939,0.35872900059493257,-1.1243154934130608,-1.5618261919006706
2024-09-23 00:03:10.426688,41.78,1.613309,-0.012378695361111141,0.02237930666051509,1.012742045457939,0.35872900059493257,-1.1418479549512268,-1.4524485706396402
2024-09-23 00:03:10.469229,41.78,1.613309,-0.013232416455291218,0.019696228790963704,1.0147542885441054,0.41997821026900783,-1.1768557818945498,-1.4087318225037306
2024-09-23 00:03:10.511278,41.78,1.61336,-0.014269113479890346,0.019696228790963704,1.0147542885441054,0.41997821026900783,-1.1768557818945498,-1.4087318225037306
2024-09-23 00:03:10.523199,41.78,1.61336,-0.014269113479890346,0.023598879363072634,1.0148152420401695,0.37184974532118065,-1.1549687530383468,-1.4087318225037306
2024-09-23 00:03:10.565899,41.78,1.613411,-0.010915188675140628,0.019696228790963704,1.0111565740587272,0.37184974532118065,-1.1549687530383468,-1.539996472620964
2024-09-23 00:03:10.577694,41.78,1.613411,-0.010915188675140628,0.019696228790963704,1.0111565740587272,0.3849704900474288,-1.1549687530383468,-1.539996472620964
2024-09-23 00:03:10.611244,41.6,1.613461,-0.010915188675140628,0.019696228790963704,1.0111565740587272,0.3849704900474288,-1.0980740039605648,-1.448094003321603
2024-09-23 00:03:10.622531,41.6,1.613461,-0.012378695361111141,0.020001120827370582,1.0157299333391567,0.3849704900474288,-1.0980740039605648,-1.448094003321603
2024-09-23 00:03:10.654800,41.6,1.613461,-0.012378695361111141,0.020001120827370582,1.0157299333391567,0.3456082558686845,-1.0980740039605648,-1.448094003321603
2024-09-23 00:03:10.665740,41.6,1.613512,-0.012317737308117227,0.02085484192155066,1.0157299333391567,0.3456082558686845,-1.0324703336901964,-1.4306188513599336
2024-09-23 00:03:10.708286,41.6,1.613512,-0.012317737308117227,0.02085484192155066,1.0153641151482662,0.3018342781975865,-1.0805987452771515,-1.4306188513599336
2024-09-23 00:03:10.719931,41.6,1.613563,-0.012805606793919833,0.02085484192155066,1.0153641151482662,0.3018342781975865,-1.0805987452771515,-1.426207081187144
2024-09-23 00:03:10.762537,41.6,1.61365,-0.012805606793919833,0.01798878660260355,1.0146322843374704,0.3280757409696467,-1.0718325145080685,-1.3911993609655648
2024-09-23 00:03:10.804912,41.6,1.61365,-0.015976452377836518,0.020610907938137694,1.0203033898340939,0.3280757409696467,-1.0718325145080685,-1.3911993609655648
2024-09-23 00:03:10.816471,41.6,1.61365,-0.015976452377836518,0.020610907938137694,1.0203033898340939,0.2668265312955715,-1.0368247942864894,-1.4087318225037306
2024-09-23 00:03:10.859205,41.6,1.613701,-0.013354434332716355,0.01939133523558015,1.0151811574455674,0.26247207069927825,-1.0937195433642715,-1.4087318225037306
2024-09-23 00:03:10.902632,41.6,1.613752,-0.014269113479890346,0.01939133523558015,1.0151811574455674,0.26247207069927825,-1.0937195433642715,-1.3824903330512346
2024-09-23 00:03:10.914205,41.6,1.613752,-0.014269113479890346,0.020549948366167105,1.0164616669354454,0.3237212803733535,-1.0937195433642715,-1.3824903330512346
2024-09-23 00:03:10.998936,41.6,1.613752,-0.014269113479890346,0.020549948366167105,1.0164616669354454,0.3237212803733535,-1.0587118231426924,-1.518109550486505
2024-09-23 00:03:11.010729,41.6,1.613803,-0.015793578218854774,0.01750101888823825,1.0162178529511898,0.3237212803733535,-1.0587118231426924,-1.518109550486505
2024-09-23 00:03:11.054446,41.6,1.613853,-0.011768909009832369,0.020306014382754138,1.0162178529511898,0.39373674749694765,-1.1243154934130608,-1.43932777255252
2024-09-23 00:03:11.098002,41.6,1.613853,-0.011768909009832369,0.020306014382754138,1.0150592504534395,0.3280757409696467,-1.0543573625463993,-1.43932777255252
2024-09-23 00:03:11.109454,41.6,1.613904,-0.013110498830326714,0.020306014382754138,1.0150592504534395,0.3280757409696467,-1.0543573625463993,-1.43932777255252
2024-09-23 00:03:11.152016,41.6,1.613991,-0.013110498830326714,0.02237930666051509,1.01426646614658,0.26247207069927825,-1.1330817241821438,-1.469981032177806
2024-09-23 00:03:11.194975,41.6,1.613991,-0.011707950956838454,0.020001120827370582,1.0126809947473678,0.26247207069927825,-1.1330817241821438,-1.469981032177806
2024-09-23 00:03:11.206603,41.6,1.613991,-0.011707950956838454,0.020001120827370582,1.0126809947473678,0.40685746554275976,-1.1637349838074296,-1.4174980532728136
2024-09-23 00:03:11.248832,41.6,1.614089,-0.012439653414105056,0.020001120827370582,1.0126809947473678,0.40685746554275976,-1.1637349838074296,-1.4174980532728136
2024-09-23 00:03:11.290932,41.6,1.614089,-0.012439653414105056,0.019940162774376668,1.0128639524500669,0.40685746554275976,-1.1637349838074296,-1.4174980532728136
2024-09-23 00:03:11.302645,41.6,1.61414,-0.012439653414105056,0.019940162774376668,1.0128639524500669,0.4155664400962181,-1.1374934943549335,-1.4655692620050162
2024-09-23 00:03:11.346090,41.6,1.61414,-0.010549337066763158,0.022562284109910815,1.0138396944596255,0.3280757409696467,-1.0630662837389857,-1.4655692620050162
2024-09-23 00:03:11.357646,41.6,1.61414,-0.010549337066763158,0.022562284109910815,1.0138396944596255,0.3280757409696467,-1.0630662837389857,-1.469981032177806
2024-09-23 00:03:11.389898,41.6,1.614191,-0.014574005516297226,0.015610600769459046,1.0138396944596255,0.3280757409696467,-1.0630662837389857,-1.469981032177806
2024-09-23 00:03:11.401638,41.6,1.614191,-0.014574005516297226,0.015610600769459046,1.015546975636458,0.3237212803733535,-1.1068402347296475,-1.469981032177806
2024-09-23 00:03:11.445221,41.6,1.614242,-0.01219582044264106,0.021830479121718566,1.0135956860463553,0.37620423259790986,-1.1068402347296475,-1.491868061034009
2024-09-23 00:03:11.487487,41.6,1.614242,-0.01219582044264106,0.021830479121718566,1.0135956860463553,0.37620423259790986,-1.1199610328167677,-1.4524485706396402
2024-09-23 00:03:11.499286,41.6,1.614292,-0.013232416455291218,0.01768389456619667,1.0131078636488298,0.37620423259790986,-1.1199610328167677,-1.4524485706396402
2024-09-23 00:03:11.541775,41.6,1.614383,-0.011281142054955407,0.02402578927690465,1.0131078636488298,0.3543172304221429,-1.1330817241821438,-1.461214801408723
2024-09-23 00:03:11.585955,41.6,1.614383,-0.011281142054955407,0.02402578927690465,1.0135956860463553,0.38061600277069957,-1.0805987452771515,-1.461214801408723
2024-09-23 00:03:11.597643,41.6,1.614434,-0.012073802565215924,0.02402578927690465,1.0135956860463553,0.38061600277069957,-1.0805987452771515,-1.426207081187144
2024-09-23 00:03:11.629680,41.04,1.614434,-0.012073802565215924,0.02012303845233509,1.0135956860463553,0.38061600277069957,-1.0805987452771515,-1.426207081187144
2024-09-23 00:03:11.641281,41.04,1.614434,-0.012073802565215924,0.02012303845233509,1.0135347325502915,0.27559278874509036,-1.0368247942864894,-1.426207081187144
2024-09-23 00:03:11.684326,41.04,1.614527,-0.015488684663471218,0.02122069352992813,1.0135347325502915,0.27559278874509036,-1.0368247942864894,-1.3956111311383546
2024-09-23 00:03:11.696377,41.04,1.614527,-0.015488684663471218,0.02122069352992813,1.0165836711420804,0.29747979092085736,-1.0368247942864894,-1.3956111311383546
2024-09-23 00:03:11.729051,41.04,1.614527,-0.015488684663471218,0.02122069352992813,1.0165836711420804,0.29747979092085736,-1.1111946953259408,-1.3956111311383546
2024-09-23 00:03:11.741173,41.04,1.614579,-0.01182986782231462,0.01914740125216718,1.0090832802619896,0.29747979092085736,-1.1111946953259408,-1.4306188513599336
2024-09-23 00:03:11.784455,41.04,1.614629,-0.013598266544692013,0.021037716080532405,1.0090832802619896,0.4155664400962181,-1.1987427040290088,-1.496222521630302
2024-09-23 00:03:11.827519,41.04,1.614629,-0.013598266544692013,0.021037716080532405,1.0131688171448936,0.3237212803733535,-1.1987427040290088,-1.496222521630302
2024-09-23 00:03:11.839182,41.04,1.61468,-0.012866564846913748,0.021037716080532405,1.0131688171448936,0.3237212803733535,-1.0499454856518655,-1.3868447936475277
2024-09-23 00:03:11.882665,41.04,1.61468,-0.012866564846913748,0.019086441680196593,1.0112784810508548,0.3368419984191656,-1.0980740039605648,-1.413086283100024
2024-09-23 00:03:11.894348,41.04,1.614731,-0.012866564846913748,0.019086441680196593,1.0112784810508548,0.3368419984191656,-1.0980740039605648,-1.413086283100024
2024-09-23 00:03:11.927953,41.04,1.614731,-0.012073802565215924,0.02237930666051509,1.0135347325502915,0.3193667930966243,-1.0980740039605648,-1.413086283100024
2024-09-23 00:03:11.939237,41.04,1.614731,-0.012073802565215924,0.02237930666051509,1.0135347325502915,0.3193667930966243,-1.1549687530383468,-1.3299501512914895
2024-09-23 00:03:11.972800,41.04,1.61482,-0.012073802565215924,0.02237930666051509,1.0135347325502915,0.3193667930966243,-1.1549687530383468,-1.3299501512914895
2024-09-23 00:03:11.984719,41.04,1.61482,-0.01408613603049462,0.019513251341567978,1.0123761300525411,0.39373674749694765,-1.0587118231426924,-1.3299501512914895
2024-09-23 00:03:12.027334,41.04,1.614872,-0.015427726610477303,0.018476656088406155,1.016705578134208,0.39373674749694765,-1.0587118231426924,-1.461214801408723
2024-09-23 00:03:12.039388,41.04,1.614872,-0.015427726610477303,0.018476656088406155,1.016705578134208,0.4287444677185267,-1.0587118231426924,-1.461214801408723
2024-09-23 00:03:12.070826,41.04,1.614872,-0.015427726610477303,0.018476656088406155,1.016705578134208,0.4287444677185267,-1.1199610328167677,-1.4568603408124299
2024-09-23 00:03:12.082100,41.04,1.614922,-0.008537002841996126,0.020245056329760223,1.0169495865474782,0.4287444677185267,-1.1199610328167677,-1.4568603408124299
2024-09-23 00:03:12.124304,41.04,1.614973,-0.008537002841996126,0.020245056329760223,1.0169495865474782,0.3849704900474288,-1.0849533125951887,-1.4787472629468887
2024-09-23 00:03:12.135692,41.04,1.614973,-0.014208053655459124,0.019208359305161096,1.0169495865474782,0.3849704900474288,-1.0849533125951887,-1.4787472629468887
2024-09-23 00:03:12.168647,41.04,1.614973,-0.014208053655459124,0.019208359305161096,1.0176813201437667,0.4549859571710229,-1.0849533125951887,-1.4787472629468887
2024-09-23 00:03:12.180517,41.04,1.615024,-0.01365932788809991,0.019208359305161096,1.0176813201437667,0.4549859571710229,-1.15932321363464,-1.509343212995678
2024-09-23 00:03:12.224185,41.04,1.615112,-0.01365932788809991,0.02189143717471248,1.0148762927507406,0.4636949317244813,-1.0980740039605648,-1.434973311956227
2024-09-23 00:03:12.267333,41.04,1.615112,-0.01146401621393715,0.020549948366167105,1.0151202039495033,0.4636949317244813,-1.0980740039605648,-1.434973311956227
2024-09-23 00:03:12.279208,41.04,1.615112,-0.01146401621393715,0.020549948366167105,1.0151202039495033,0.38932495064372197,-1.1330817241821438,-1.3474826128296553
2024-09-23 00:03:12.321411,41.04,1.615164,-0.014574005516297226,0.021464627513341095,1.0111565740587272,0.3193667930966243,-1.1330817241821438,-1.3474826128296553
2024-09-23 00:03:12.364696,41.04,1.615214,-0.013354434332716355,0.021464627513341095,1.0111565740587272,0.3193667930966243,-1.1330817241821438,-1.3911993609655648
2024-09-23 00:03:12.376183,41.04,1.615214,-0.013354434332716355,0.02225739055452726,1.0148762927507406,0.3456082558686845,-1.1330817241821438,-1.3911993609655648
2024-09-23 00:03:12.419330,41.04,1.615265,-0.015549642716465131,0.021586543619328925,1.0166446246381442,0.3456082558686845,-1.1068402347296475,-1.4437395427253097
2024-09-23 00:03:12.462599,41.04,1.615265,-0.015549642716465131,0.021586543619328925,1.0166446246381442,0.39809120809324083,-1.1243154934130608,-1.469981032177806
2024-09-23 00:03:12.474076,41.04,1.615316,-0.012500713238536278,0.02018409827676631,1.0166446246381442,0.39809120809324083,-1.1243154934130608,-1.469981032177806
2024-09-23 00:03:12.516742,41.04,1.615367,-0.011586034850850625,0.02018409827676631,1.0179862820531007,0.3849704900474288,-1.0105833048339934,-1.434973311956227
2024-09-23 00:03:12.558854,41.04,1.615367,-0.011586034850850625,0.020366972435748053,1.0135956860463553,0.3849704900474288,-1.0105833048339934,-1.434973311956227
2024-09-23 00:03:12.570341,41.04,1.615453,-0.011586034850850625,0.020366972435748053,1.0135956860463553,0.35872900059493257,-1.1374934943549335,-1.4787472629468887
2024-09-23 00:03:12.613030,41.04,1.615453,-0.010305402323861856,0.017927828549609635,1.0165836711420804,0.3499627431454137,-1.1199610328167677,-1.4568603408124299
2024-09-23 00:03:12.655446,41.25,1.615505,-0.013598266544692013,0.017927828549609635,1.0165836711420804,0.3499627431454137,-1.1199610328167677,-1.4568603408124299
2024-09-23 00:03:12.667084,41.25,1.615505,-0.013598266544692013,0.019940162774376668,1.0152421109416312,0.40685746554275976,-1.0718325145080685,-1.4568603408124299
2024-09-23 00:03:12.710333,41.25,1.615556,-0.013903160100075569,0.022318348607521174,1.0144494238492787,0.40685746554275976,-1.0718325145080685,-1.448094003321603
2024-09-23 00:03:12.722475,41.25,1.615556,-0.013903160100075569,0.022318348607521174,1.0144494238492787,0.3499627431454137,-1.0718325145080685,-1.448094003321603
2024-09-23 00:03:12.754985,41.25,1.615606,-0.013903160100075569,0.022318348607521174,1.0144494238492787,0.3499627431454137,-1.1243154934130608,-1.5005769822265953
2024-09-23 00:03:12.766443,41.25,1.615606,-0.013842202047081654,0.018415698035412244,1.0180472355491645,0.3499627431454137,-1.1243154934130608,-1.5005769822265953
2024-09-23 00:03:12.809472,41.25,1.615657,-0.01396421992450679,0.02134260963591596,1.0180472355491645,0.4155664400962181,-1.1462025222692638,-1.5136977803137153
2024-09-23 00:03:12.851926,41.25,1.615657,-0.01396421992450679,0.02134260963591596,1.0177422736398305,0.3499627431454137,-1.1330817241821438,-1.5136977803137153
