Ayaan's Suite
Timestamp,Sample Rate (Hz),Time,Ax,Ay,Az,Gx,Gy,Gz
2024-09-23 18:07:19.385860,0,41.085945,-0.0021887829225362256,-0.02313149783467906,0.09675432418099966,40.106058693909645,-100.26678939585686,76.200527287817
2024-09-23 18:07:19.397114,0,41.085945,-0.003233425524256645,-0.02313149783467906,0.09675432418099966,40.106058693909645,-100.26678939585686,76.200527287817
2024-09-23 18:07:19.429217,0,41.085945,-0.003233425524256645,-0.02313149783467906,0.09745075675933246,40.106058693909645,-100.26678939585686,76.200527287817
2024-09-23 18:07:19.441093,0,41.085995,-0.0028354659767690416,-0.02313149783467906,0.09745075675933246,44.11764879391193,-96.25519929585457,76.200527287817
2024-09-23 18:07:19.483926,0,41.085995,-0.0028354659767690416,-0.023479709566915436,0.09690356060148622,48.12595698684454,-96.25519929585457,76.200527287817
2024-09-23 18:07:19.496968,0,41.086082,-0.0028354659767690416,-0.023479709566915436,0.09690356060148622,48.12595698684454,-96.25519929585457,76.200527287817
2024-09-23 18:07:19.528813,0,41.086082,-0.0027359787006383035,-0.02338022115155219,0.09690356060148622,48.12595698684454,-96.25519929585457,76.200527287817
2024-09-23 18:07:19.540372,0,41.086082,-0.0027359787006383035,-0.02338022115155219,0.09705279702197278,48.12595698684454,-100.26678939585686,76.200527287817
2024-09-23 18:07:19.583135,0,41.086134,-0.003631395514708897,-0.02278327698858263,0.09675432418099966,36.09446859390736,-100.26678939585686,76.200527287817
2024-09-23 18:07:19.595303,0,41.086134,-0.003631395514708897,-0.02278327698858263,0.09675432418099966,36.09446859390736,-92.24360919585227,76.200527287817
2024-09-23 18:07:19.628130,0,41.086185,-0.0027359787006383035,-0.02278327698858263,0.09675432418099966,36.09446859390736,-92.24360919585227,88.23529758782387
2024-09-23 18:07:19.680498,0,41.086185,-0.0027359787006383035,-0.02293251340906919,0.09720203344245934,40.106058693909645,-88.23529758782387,76.200527287817
2024-09-23 18:07:19.692277,0,41.086235,-0.0027359787006383035,-0.02293251340906919,0.09720203344245934,40.106058693909645,-88.23529758782387,76.200527287817
2024-09-23 18:07:19.724261,0,41.086235,-0.0026862297461545674,-0.023230986250042305,0.09720203344245934,40.106058693909645,-88.23529758782387,76.200527287817
2024-09-23 18:07:19.736405,0,41.086235,-0.0026862297461545674,-0.023230986250042305,0.09655535038822652,44.11764879391193,-92.24360919585227,72.1922225099802
2024-09-23 18:07:19.779405,0,41.086286,-0.0027359787006383035,-0.023230986250042305,0.09670458680871308,40.106058693909645,-92.24360919585227,72.1922225099802
2024-09-23 18:07:19.790706,0,41.086286,-0.0027359787006383035,-0.023230986250042305,0.09670458680871308,40.106058693909645,-92.24360919585227,72.1922225099802
2024-09-23 18:07:19.875802,0,41.086337,-0.0031836870127375577,-0.02352945757203875,0.09670458680871308,40.106058693909645,-92.24360919585227,76.200527287817
2024-09-23 18:07:19.889993,0,41.086337,-0.0031836870127375577,-0.02352945757203875,0.09720203344245934,52.137550501942634,-92.24360919585227,76.200527287817
2024-09-23 18:07:19.922275,0,41.086424,-0.0031836870127375577,-0.02352945757203875,0.09720203344245934,52.137550501942634,-100.26678939585686,80.21211738781929
2024-09-23 18:07:19.933657,0,41.086424,-0.0029349636958644295,-0.023230986250042305,0.09675432418099966,52.137550501942634,-100.26678939585686,80.21211738781929
2024-09-23 18:07:19.965747,0,41.086424,-0.0029349636958644295,-0.023230986250042305,0.09675432418099966,40.106058693909645,-100.26678939585686,80.21211738781929
2024-09-23 18:07:19.977681,0,41.086475,-0.003233425524256645,-0.023429960042815445,0.09675432418099966,40.106058693909645,-92.24360919585227,80.21211738781929
2024-09-23 18:07:20.021705,0,41.086526,-0.003233425524256645,-0.023429960042815445,0.0973015264147526,36.09446859390736,-92.24360919585227,80.21211738781929
2024-09-23 18:07:20.033285,0,41.086526,-0.0033329230534799477,-0.023429960042815445,0.0973015264147526,36.09446859390736,-92.24360919585227,80.21211738781929
2024-09-23 18:07:20.065163,0,41.086526,-0.0033329230534799477,-0.023280723622328886,0.0973015264147526,36.09446859390736,-92.24360919585227,80.21211738781929
2024-09-23 18:07:20.076290,0,41.086619,-0.0033329230534799477,-0.023280723622328886,0.0973015264147526,48.12595698684454,-96.25519929585457,72.1922225099802
2024-09-23 18:07:20.118146,0,41.086619,-0.002636491424507565,-0.023280723622328886,0.09764974270391902,40.106058693909645,-84.22370748782159,72.1922225099802
2024-09-23 18:07:20.130018,0,41.086619,-0.002636491424507565,-0.023280723622328886,0.09764974270391902,40.106058693909645,-84.22370748782159,72.1922225099802
2024-09-23 18:07:20.162534,0,41.086717,-0.0028852147413806935,-0.023280723622328886,0.09764974270391902,40.106058693909645,-84.22370748782159,72.1922225099802
2024-09-23 18:07:20.174022,0,41.086717,-0.0028852147413806935,-0.023827930413011865,0.09685382322919964,40.106058693909645,-92.24360919585227,72.1922225099802
2024-09-23 18:07:20.215659,0,41.086768,-0.0032831742888682963,-0.023230986250042305,0.0976994861521123,40.106058693909645,-92.24360919585227,72.1922225099802
2024-09-23 18:07:20.227282,0,41.086768,-0.0032831742888682963,-0.023230986250042305,0.0976994861521123,48.12595698684454,-92.24360919585227,72.1922225099802
2024-09-23 18:07:20.259343,0,41.086768,-0.0032831742888682963,-0.023230986250042305,0.0976994861521123,48.12595698684454,-92.24360919585227,72.1922225099802
2024-09-23 18:07:20.271060,0,41.086819,-0.0029847020175114316,-0.023330473146428877,0.0976994861521123,48.12595698684454,-92.24360919585227,76.200527287817
2024-09-23 18:07:20.313567,0,41.086819,-0.0029847020175114316,-0.023330473146428877,0.09710254654607277,48.12595698684454,-100.26678939585686,76.200527287817
2024-09-23 18:07:20.326356,0,41.086869,-0.0029847020175114316,-0.023330473146428877,0.09710254654607277,48.12595698684454,-100.26678939585686,76.200527287817
2024-09-23 18:07:20.359215,45.26,41.086869,-0.0029847020175114316,-0.023429960042815445,0.09685382322919964,44.11764879391193,-100.26678939585686,76.200527287817
2024-09-23 18:07:20.371284,45.26,41.08692,-0.0029847020175114316,-0.023429960042815445,0.09685382322919964,44.11764879391193,-100.26678939585686,80.21211738781929
2024-09-23 18:07:20.414750,45.26,41.08692,-0.0027359787006383035,-0.023330473146428877,0.0970030596496862,44.11764879391193,-96.25519929585457,72.1922225099802
2024-09-23 18:07:20.458332,45.26,41.087009,-0.002785727465249955,-0.02293251340906919,0.0970030596496862,44.11764879391193,-96.25519929585457,72.1922225099802
2024-09-23 18:07:20.470099,45.26,41.087009,-0.002785727465249955,-0.02293251340906919,0.09755024973162574,44.11764879391193,-88.23529758782387,72.1922225099802
2024-09-23 18:07:20.502977,45.26,41.087009,-0.002785727465249955,-0.02293251340906919,0.09755024973162574,44.11764879391193,-88.23529758782387,72.1922225099802
2024-09-23 18:07:20.514430,45.26,41.08706,-0.0030841997366068195,-0.023330473146428877,0.09715228999426605,48.12595698684454,-88.23529758782387,72.1922225099802
2024-09-23 18:07:20.555957,45.26,41.087111,-0.0029349636958644295,-0.023330473146428877,0.09715228999426605,48.12595698684454,-100.26678939585686,68.18063240997792
2024-09-23 18:07:20.567070,45.26,41.087111,-0.0029349636958644295,-0.023778180888911878,0.09690356060148622,48.12595698684454,-100.26678939585686,68.18063240997792
2024-09-23 18:07:20.610152,45.26,41.087161,-0.0031836870127375577,-0.023280723622328886,0.09690356060148622,40.106058693909645,-104.27510100388527,72.1922225099802
2024-09-23 18:07:20.654298,45.26,41.087161,-0.0031836870127375577,-0.023280723622328886,0.09715228999426605,40.106058693909645,-100.26678939585686,72.1922225099802
2024-09-23 18:07:20.665682,45.26,41.087212,-0.0033329230534799477,-0.023280723622328886,0.09715228999426605,40.106058693909645,-100.26678939585686,72.1922225099802
2024-09-23 18:07:20.698235,45.26,41.087212,-0.0033329230534799477,-0.02303200030545576,0.09715228999426605,40.106058693909645,-100.26678939585686,72.1922225099802
2024-09-23 18:07:20.710166,45.26,41.087301,-0.0033329230534799477,-0.02303200030545576,0.09705279702197278,44.11764879391193,-88.23529758782387,76.200527287817
2024-09-23 18:07:20.753081,45.26,41.087301,-0.0031836870127375577,-0.023479709566915436,0.09755024973162574,44.11764879391193,-92.24360919585227,76.200527287817
2024-09-23 18:07:20.764852,45.26,41.087301,-0.0031836870127375577,-0.023479709566915436,0.09755024973162574,44.11764879391193,-92.24360919585227,76.200527287817
2024-09-23 18:07:20.848331,45.26,41.087353,-0.0031836870127375577,-0.023479709566915436,0.09755024973162574,44.11764879391193,-92.24360919585227,76.200527287817
2024-09-23 18:07:20.902152,45.26,41.087353,-0.0031339382481259063,-0.023181236725942318,0.0973512698629459,40.106058693909645,-92.24360919585227,72.1922225099802
2024-09-23 18:07:20.945147,45.26,41.087404,-0.0029847020175114316,-0.02308174982955575,0.0973512698629459,40.106058693909645,-92.24360919585227,72.1922225099802
2024-09-23 18:07:20.956828,45.26,41.087404,-0.0029847020175114316,-0.02308174982955575,0.09779897304849887,44.11764879391193,-92.24360919585227,72.1922225099802
2024-09-23 18:07:20.990723,45.26,41.087404,-0.0029847020175114316,-0.02308174982955575,0.09779897304849887,44.11764879391193,-92.24360919585227,76.200527287817
2024-09-23 18:07:21.001885,45.26,41.087455,-0.0030344509719951677,-0.022833026512682618,0.09705279702197278,36.09446859390736,-92.24360919585227,76.200527287817
2024-09-23 18:07:21.043783,45.26,41.087506,-0.0029847020175114316,-0.022833026512682618,0.09705279702197278,36.09446859390736,-92.24360919585227,80.21211738781929
2024-09-23 18:07:21.055482,45.26,41.087506,-0.0029847020175114316,-0.02313149783467906,0.09720203344245934,36.09446859390736,-92.24360919585227,80.21211738781929
2024-09-23 18:07:21.086876,45.26,41.087506,-0.0029847020175114316,-0.02313149783467906,0.09720203344245934,40.106058693909645,-92.24360919585227,80.21211738781929
2024-09-23 18:07:21.098573,45.26,41.087556,-0.0028852147413806935,-0.022982261414192504,0.09720203344245934,40.106058693909645,-100.26678939585686,72.1922225099802
2024-09-23 18:07:21.141107,45.26,41.087556,-0.0028852147413806935,-0.022982261414192504,0.09740101331113918,40.106058693909645,-92.24360919585227,76.200527287817
2024-09-23 18:07:21.152609,45.26,41.087694,-0.0028354659767690416,-0.022982261414192504,0.09740101331113918,40.106058693909645,-92.24360919585227,76.200527287817
2024-09-23 18:07:21.184602,45.26,41.087694,-0.0028354659767690416,-0.023330473146428877,0.09740101331113918,40.106058693909645,-92.24360919585227,76.200527287817
2024-09-23 18:07:21.195750,45.26,41.087789,-0.0028354659767690416,-0.023330473146428877,0.09685382322919964,44.11764879391193,-96.25519929585457,80.21211738781929
2024-09-23 18:07:21.238762,45.26,41.087789,-0.0030841997366068195,-0.0225345536717095,0.0970030596496862,48.12595698684454,-96.25519929585457,80.21211738781929
2024-09-23 18:07:21.249795,45.26,41.087789,-0.0030841997366068195,-0.0225345536717095,0.0970030596496862,48.12595698684454,-100.26678939585686,64.16903547978401
2024-09-23 18:07:21.282059,45.26,41.08784,-0.0030841997366068195,-0.0225345536717095,0.0970030596496862,48.12595698684454,-100.26678939585686,64.16903547978401
2024-09-23 18:07:21.293831,45.26,41.08784,-0.0030841997366068195,-0.023330473146428877,0.09745075675933246,48.12595698684454,-92.24360919585227,64.16903547978401
2024-09-23 18:07:21.336972,45.26,41.087891,-0.0024872551938930902,-0.02313149783467906,0.09680407370509965,48.12595698684454,-92.24360919585227,76.200527287817
2024-09-23 18:07:21.349046,45.26,41.087891,-0.0024872551938930902,-0.02313149783467906,0.09680407370509965,40.106058693909645,-92.24360919585227,76.200527287817
2024-09-23 18:07:21.381321,44.64,41.087891,-0.0024872551938930902,-0.02313149783467906,0.09680407370509965,40.106058693909645,-92.24360919585227,76.200527287817
2024-09-23 18:07:21.392886,44.64,41.087942,-0.0028852147413806935,-0.02352945757203875,0.09670458680871308,40.106058693909645,-92.24360919585227,76.200527287817
2024-09-23 18:07:21.435333,44.64,41.087993,-0.002636491424507565,-0.02352945757203875,0.09670458680871308,40.106058693909645,-100.26678939585686,72.1922225099802
2024-09-23 18:07:21.447305,44.64,41.087993,-0.002636491424507565,-0.02313149783467906,0.09670458680871308,40.106058693909645,-100.26678939585686,72.1922225099802
2024-09-23 18:07:21.480434,44.64,41.087993,-0.002636491424507565,-0.02313149783467906,0.09720203344245934,44.11764879391193,-100.26678939585686,72.1922225099802
2024-09-23 18:07:21.491848,44.64,41.088043,-0.002636491424507565,-0.02313149783467906,0.09720203344245934,44.11764879391193,-100.26678939585686,64.16903547978401
2024-09-23 18:07:21.534347,44.64,41.088043,-0.0029349636958644295,-0.022833026512682618,0.09720203344245934,36.09446859390736,-96.25519929585457,64.16903547978401
2024-09-23 18:07:21.546904,44.64,41.088043,-0.0029349636958644295,-0.022833026512682618,0.09720203344245934,36.09446859390736,-96.25519929585457,80.21211738781929
2024-09-23 18:07:21.578911,44.64,41.08813,-0.003382661564999035,-0.022833026512682618,0.09720203344245934,36.09446859390736,-96.25519929585457,80.21211738781929
2024-09-23 18:07:21.591778,44.64,41.08813,-0.003382661564999035,-0.02338022115155219,0.09745075675933246,44.11764879391193,-96.25519929585457,80.21211738781929
2024-09-23 18:07:21.626259,44.64,41.088182,-0.003382661564999035,-0.02338022115155219,0.09745075675933246,44.11764879391193,-96.25519929585457,80.21211738781929
2024-09-23 18:07:21.637474,44.64,41.088182,-0.0032831742888682963,-0.023181236725942318,0.09710254654607277,44.11764879391193,-96.25519929585457,80.21211738781929
2024-09-23 18:07:21.681276,44.64,41.088232,-0.0030344509719951677,-0.023579196463302005,0.09685382322919964,44.11764879391193,-96.25519929585457,76.200527287817
2024-09-23 18:07:21.724486,44.64,41.088232,-0.0030344509719951677,-0.023579196463302005,0.09685382322919964,48.12595698684454,-96.25519929585457,76.200527287817
2024-09-23 18:07:21.735788,44.64,41.088283,-0.003482159473966507,-0.023330473146428877,0.09685382322919964,48.12595698684454,-96.25519929585457,76.200527287817
2024-09-23 18:07:21.778396,44.64,41.088334,-0.0029847020175114316,-0.023330473146428877,0.0973015264147526,44.11764879391193,-104.27510100388527,76.200527287817
2024-09-23 18:07:21.821046,44.64,41.088334,-0.0029847020175114316,-0.02367869399252531,0.09715228999426605,44.11764879391193,-104.27510100388527,76.200527287817
2024-09-23 18:07:21.832928,44.64,41.088422,-0.0029847020175114316,-0.02367869399252531,0.09715228999426605,48.12595698684454,-96.25519929585457,72.1922225099802
2024-09-23 18:07:21.876657,44.64,41.088422,-0.0027359787006383035,-0.02367869399252531,0.09715228999426605,48.12595698684454,-96.25519929585457,72.1922225099802
2024-09-23 18:07:21.919808,44.64,41.088422,-0.0027359787006383035,-0.023280723622328886,0.09695331012558621,48.12595698684454,-96.25519929585457,72.1922225099802
2024-09-23 18:07:21.931046,44.64,41.088474,-0.0027359787006383035,-0.023280723622328886,0.09695331012558621,48.12595698684454,-100.26678939585686,72.1922225099802
2024-09-23 18:07:21.974352,44.64,41.088474,-0.0028852147413806935,-0.023429960042815445,0.0970030596496862,48.12595698684454,-96.25519929585457,72.1922225099802
2024-09-23 18:07:21.986123,44.64,41.088474,-0.0028852147413806935,-0.023429960042815445,0.0970030596496862,48.12595698684454,-96.25519929585457,76.200527287817
2024-09-23 18:07:22.019129,44.64,41.088525,-0.002437506429281439,-0.023230986250042305,0.09715228999426605,48.12595698684454,-96.25519929585457,76.200527287817
2024-09-23 18:07:22.030671,44.64,41.088525,-0.002437506429281439,-0.023230986250042305,0.09715228999426605,44.11764879391193,-88.23529758782387,76.200527287817
2024-09-23 18:07:22.063329,44.64,41.088525,-0.002437506429281439,-0.023230986250042305,0.09715228999426605,44.11764879391193,-88.23529758782387,76.200527287817
2024-09-23 18:07:22.074758,44.64,41.088575,-0.0026862297461545674,-0.023280723622328886,0.09690356060148622,52.137550501942634,-88.23529758782387,76.200527287817
2024-09-23 18:07:22.118435,44.64,41.088626,-0.0029847020175114316,-0.023280723622328886,0.09690356060148622,52.137550501942634,-96.25519929585457,72.1922225099802
2024-09-23 18:07:22.130534,44.64,41.088626,-0.0029847020175114316,-0.023230986250042305,0.09690356060148622,52.137550501942634,-96.25519929585457,72.1922225099802
2024-09-23 18:07:22.162832,44.64,41.088626,-0.0029847020175114316,-0.023230986250042305,0.09725178296655933,40.106058693909645,-92.24360919585227,72.1922225099802
2024-09-23 18:07:22.173792,44.64,41.088717,-0.0029847020175114316,-0.023230986250042305,0.09725178296655933,40.106058693909645,-92.24360919585227,76.200527287817
2024-09-23 18:07:22.216352,44.64,41.088768,-0.0029847020175114316,-0.023778180888911878,0.09685382322919964,36.09446859390736,-96.25519929585457,84.22370748782159
2024-09-23 18:07:22.261410,44.64,41.088768,-0.0028852147413806935,-0.023479709566915436,0.09695331012558621,36.09446859390736,-96.25519929585457,84.22370748782159
2024-09-23 18:07:22.272822,44.64,41.088768,-0.0028852147413806935,-0.023479709566915436,0.09695331012558621,36.09446859390736,-96.25519929585457,80.21211738781929
2024-09-23 18:07:22.307146,44.64,41.088861,-0.0028852147413806935,-0.023479709566915436,0.09695331012558621,36.09446859390736,-96.25519929585457,80.21211738781929
2024-09-23 18:07:22.318616,44.64,41.088861,-0.0028354659767690416,-0.023479709566915436,0.09764974270391902,32.08287849390507,-92.24360919585227,80.21211738781929
2024-09-23 18:07:22.361149,44.64,41.088913,-0.002139034157924574,-0.02293251340906919,0.0970030596496862,32.08287849390507,-92.24360919585227,72.1922225099802
2024-09-23 18:07:22.373083,44.64,41.088913,-0.002139034157924574,-0.02293251340906919,0.0970030596496862,36.09446859390736,-92.24360919585227,72.1922225099802
2024-09-23 18:07:22.405725,44.73,41.088913,-0.002139034157924574,-0.02293251340906919,0.0970030596496862,36.09446859390736,-92.24360919585227,68.18063240997792
2024-09-23 18:07:22.416929,44.73,41.088963,-0.0033329230534799477,-0.023728432883788564,0.0973512698629459,36.09446859390736,-92.24360919585227,68.18063240997792
2024-09-23 18:07:22.461338,44.73,41.089014,-0.0028852147413806935,-0.023181236725942318,0.0973512698629459,32.08287849390507,-84.22370748782159,80.21211738781929
2024-09-23 18:07:22.504071,44.73,41.089014,-0.0028852147413806935,-0.023181236725942318,0.09725178296655933,40.106058693909645,-96.25519929585457,80.21211738781929
2024-09-23 18:07:22.515771,44.73,41.089065,-0.0026862297461545674,-0.023181236725942318,0.09725178296655933,40.106058693909645,-96.25519929585457,84.22370748782159
2024-09-23 18:07:22.558159,44.73,41.089154,-0.0026862297461545674,-0.023579196463302005,0.09764974270391902,44.11764879391193,-96.25519929585457,76.200527287817
2024-09-23 18:07:22.602256,44.73,41.089154,-0.002139034157924574,-0.02313149783467906,0.09695331012558621,44.11764879391193,-96.25519929585457,76.200527287817
2024-09-23 18:07:22.613458,44.73,41.089154,-0.002139034157924574,-0.02313149783467906,0.09695331012558621,40.106058693909645,-100.26678939585686,76.200527287817
2024-09-23 18:07:22.656151,44.73,41.089205,-0.0027359787006383035,-0.023280723622328886,0.09779897304849887,40.106058693909645,-96.25519929585457,76.200527287817
2024-09-23 18:07:22.698096,44.73,41.089256,-0.0027359787006383035,-0.023280723622328886,0.09779897304849887,40.106058693909645,-96.25519929585457,76.200527287817
2024-09-23 18:07:22.713861,44.73,41.089256,-0.0036811340262279837,-0.02367869399252531,0.098047696365372,36.09446859390736,-96.25519929585457,76.200527287817
2024-09-23 18:07:22.746106,44.73,41.089256,-0.0036811340262279837,-0.02367869399252531,0.098047696365372,36.09446859390736,-92.24360919585227,76.200527287817
2024-09-23 18:07:22.757343,44.73,41.089307,-0.0030344509719951677,-0.023230986250042305,0.09685382322919964,36.09446859390736,-92.24360919585227,76.200527287817
2024-09-23 18:07:22.799548,44.73,41.089357,-0.0030344509719951677,-0.023230986250042305,0.09685382322919964,48.12595698684454,-96.25519929585457,72.1922225099802
2024-09-23 18:07:22.810938,44.73,41.089357,-0.002636491424507565,-0.02303200030545576,0.09685382322919964,48.12595698684454,-96.25519929585457,72.1922225099802
2024-09-23 18:07:22.844146,44.73,41.089357,-0.002636491424507565,-0.02303200030545576,0.09690356060148622,48.12595698684454,-96.25519929585457,72.1922225099802
2024-09-23 18:07:22.855608,44.73,41.089408,-0.0028354659767690416,-0.02303200030545576,0.09690356060148622,48.12595698684454,-100.26678939585686,72.1922225099802
2024-09-23 18:07:22.898235,44.73,41.089408,-0.0028354659767690416,-0.023181236725942318,0.09750050628343246,48.12595698684454,-100.26678939585686,72.1922225099802
2024-09-23 18:07:22.940911,44.73,41.089408,-0.0028354659767690416,-0.023181236725942318,0.09750050628343246,44.11764879391193,-96.25519929585457,72.1922225099802
2024-09-23 18:07:22.952520,44.73,41.089495,-0.0030344509719951677,-0.02293251340906919,0.09750050628343246,44.11764879391193,-96.25519929585457,76.200527287817
2024-09-23 18:07:22.995636,44.73,41.089547,-0.0030344509719951677,-0.02293251340906919,0.0976994861521123,36.09446859390736,-96.25519929585457,72.1922225099802
2024-09-23 18:07:23.007567,44.73,41.089547,-0.0026862297461545674,-0.02293251340906919,0.0976994861521123,36.09446859390736,-96.25519929585457,72.1922225099802
2024-09-23 18:07:23.039725,44.73,41.089547,-0.0026862297461545674,-0.02293251340906919,0.09725178296655933,36.09446859390736,-96.25519929585457,72.1922225099802
2024-09-23 18:07:23.051635,44.73,41.089597,-0.0026862297461545674,-0.02293251340906919,0.09725178296655933,44.11764879391193,-96.25519929585457,76.200527287817
2024-09-23 18:07:23.095384,44.73,41.089597,-0.003233425524256645,-0.023728432883788564,0.09720203344245934,40.106058693909645,-96.25519929585457,76.200527287817
2024-09-23 18:07:23.137586,44.73,41.089648,-0.0028852147413806935,-0.023330473146428877,0.09720203344245934,40.106058693909645,-96.25519929585457,76.200527287817
2024-09-23 18:07:23.149601,44.73,41.089648,-0.0028852147413806935,-0.023330473146428877,0.09740101331113918,44.11764879391193,-92.24360919585227,76.200527287817
2024-09-23 18:07:23.192492,44.73,41.08974,-0.0030344509719951677,-0.02338022115155219,0.09710254654607277,44.11764879391193,-92.24360919585227,76.200527287817
2024-09-23 18:07:23.235390,44.73,41.089791,-0.0030344509719951677,-0.02338022115155219,0.09710254654607277,44.11764879391193,-88.23529758782387,76.200527287817
2024-09-23 18:07:23.246807,44.73,41.089791,-0.003233425524256645,-0.02338022115155219,0.0973015264147526,44.11764879391193,-88.23529758782387,76.200527287817
2024-09-23 18:07:23.289071,44.73,41.089842,-0.0034324103296106863,-0.02352945757203875,0.0973015264147526,40.106058693909645,-92.24360919585227,84.22370748782159
2024-09-23 18:07:23.331167,44.73,41.089842,-0.0034324103296106863,-0.02352945757203875,0.09750050628343246,40.106058693909645,-92.24360919585227,84.22370748782159
2024-09-23 18:07:23.342543,44.73,41.089892,-0.003233425524256645,-0.02352945757203875,0.09750050628343246,40.106058693909645,-100.26678939585686,76.200527287817
2024-09-23 18:07:23.438164,43.48,41.089983,-0.003233425524256645,-0.02308174982955575,0.09685382322919964,36.09446859390736,-92.24360919585227,80.21211738781929
2024-09-23 18:07:23.480826,43.48,41.089983,-0.002586742470023829,-0.02308174982955575,0.09710254654607277,36.09446859390736,-92.24360919585227,80.21211738781929
2024-09-23 18:07:23.492457,43.48,41.089983,-0.002586742470023829,-0.02308174982955575,0.09710254654607277,44.11764879391193,-100.26678939585686,72.1922225099802
2024-09-23 18:07:23.525038,43.48,41.090034,-0.002586742470023829,-0.02308174982955575,0.09710254654607277,44.11764879391193,-100.26678939585686,72.1922225099802
2024-09-23 18:07:23.537020,43.48,41.090034,-0.0030344509719951677,-0.02313149783467906,0.0973015264147526,44.11764879391193,-96.25519929585457,72.1922225099802
2024-09-23 18:07:23.578849,43.48,41.090085,-0.0028852147413806935,-0.02308174982955575,0.0973015264147526,44.11764879391193,-96.25519929585457,76.200527287817
2024-09-23 18:07:23.593884,43.48,41.090085,-0.0028852147413806935,-0.02308174982955575,0.09720203344245934,44.11764879391193,-96.25519929585457,76.200527287817
2024-09-23 18:07:23.627164,43.48,41.090135,-0.0029847020175114316,-0.02308174982955575,0.09720203344245934,44.11764879391193,-96.25519929585457,80.21211738781929
2024-09-23 18:07:23.638351,43.48,41.090135,-0.0029847020175114316,-0.02338022115155219,0.09740101331113918,44.11764879391193,-96.25519929585457,80.21211738781929
2024-09-23 18:07:23.680708,43.48,41.090228,-0.003233425524256645,-0.023728432883788564,0.09740101331113918,44.11764879391193,-96.25519929585457,80.21211738781929
2024-09-23 18:07:23.723365,43.48,41.090228,-0.003233425524256645,-0.023728432883788564,0.09710254654607277,40.106058693909645,-88.23529758782387,80.21211738781929
2024-09-23 18:07:23.734779,43.48,41.090279,-0.0029349636958644295,-0.023728432883788564,0.09710254654607277,40.106058693909645,-88.23529758782387,80.21211738781929
2024-09-23 18:07:23.777356,43.48,41.090373,-0.0029349636958644295,-0.02362894446842532,0.09715228999426605,36.09446859390736,-92.24360919585227,76.200527287817
2024-09-23 18:07:23.820856,43.48,41.090373,-0.003233425524256645,-0.02367869399252531,0.09675432418099966,36.09446859390736,-92.24360919585227,76.200527287817
2024-09-23 18:07:23.832420,43.48,41.090373,-0.003233425524256645,-0.02367869399252531,0.09675432418099966,44.11764879391193,-92.24360919585227,76.200527287817
2024-09-23 18:07:23.875120,43.48,41.090424,-0.0030344509719951677,-0.02293251340906919,0.09755024973162574,44.11764879391193,-92.24360919585227,76.200527287817
2024-09-23 18:07:23.917316,43.48,41.090475,-0.0029349636958644295,-0.02293251340906919,0.09755024973162574,44.11764879391193,-92.24360919585227,76.200527287817
2024-09-23 18:07:23.929057,43.48,41.090475,-0.0029349636958644295,-0.023181236725942318,0.09755024973162574,44.11764879391193,-92.24360919585227,76.200527287817
2024-09-23 18:07:23.972054,43.48,41.090525,-0.0025369937054121774,-0.023181236725942318,0.09720203344245934,48.12595698684454,-92.24360919585227,72.1922225099802
2024-09-23 18:07:24.014194,43.48,41.090525,-0.0025369937054121774,-0.02352945757203875,0.09680407370509965,48.12595698684454,-92.24360919585227,72.1922225099802
2024-09-23 18:07:24.026103,43.48,41.090576,-0.0025369937054121774,-0.02352945757203875,0.09680407370509965,40.106058693909645,-92.24360919585227,80.21211738781929
2024-09-23 18:07:24.067834,43.48,41.090576,-0.0030841997366068195,-0.02338022115155219,0.09705279702197278,40.106058693909645,-100.26678939585686,80.21211738781929
2024-09-23 18:07:24.111139,43.48,41.090576,-0.0030841997366068195,-0.02338022115155219,0.09705279702197278,40.106058693909645,-100.26678939585686,68.18063240997792
2024-09-23 18:07:24.164750,43.48,41.090627,-0.0029349636958644295,-0.023330473146428877,0.09755024973162574,48.12595698684454,-100.26678939585686,68.18063240997792
2024-09-23 18:07:24.176530,43.48,41.090627,-0.0029349636958644295,-0.023330473146428877,0.09755024973162574,48.12595698684454,-96.25519929585457,68.18063240997792
2024-09-23 18:07:24.209402,43.48,41.090627,-0.0029349636958644295,-0.023330473146428877,0.09755024973162574,48.12595698684454,-96.25519929585457,76.200527287817
2024-09-23 18:07:24.221372,43.48,41.090714,-0.0030841997366068195,-0.02308174982955575,0.09675432418099966,44.11764879391193,-96.25519929585457,76.200527287817
2024-09-23 18:07:24.263645,43.48,41.090765,-0.003382661564999035,-0.02352945757203875,0.09675432418099966,44.11764879391193,-96.25519929585457,84.22370748782159
2024-09-23 18:07:24.275465,43.48,41.090765,-0.003382661564999035,-0.02352945757203875,0.09695331012558621,44.11764879391193,-96.25519929585457,84.22370748782159
2024-09-23 18:07:24.307688,43.48,41.090765,-0.003382661564999035,-0.02352945757203875,0.09695331012558621,36.09446859390736,-96.25519929585457,80.21211738781929
2024-09-23 18:07:24.320068,43.48,41.090816,-0.0031339382481259063,-0.02308174982955575,0.09695331012558621,36.09446859390736,-96.25519929585457,80.21211738781929
2024-09-23 18:07:24.362305,43.48,41.090867,-0.0030841997366068195,-0.02308174982955575,0.09740101331113918,40.106058693909645,-96.25519929585457,72.1922225099802
2024-09-23 18:07:24.404221,43.48,41.090867,-0.0030841997366068195,-0.023827930413011865,0.0973015264147526,40.106058693909645,-96.25519929585457,72.1922225099802
2024-09-23 18:07:24.415558,43.48,41.091006,-0.0030841997366068195,-0.023827930413011865,0.0973015264147526,40.106058693909645,-96.25519929585457,80.21211738781929
2024-09-23 18:07:24.459075,43.2,41.091006,-0.0030344509719951677,-0.02338022115155219,0.0976994861521123,40.106058693909645,-92.24360919585227,80.21211738781929
2024-09-23 18:07:24.470774,43.2,41.091006,-0.0030344509719951677,-0.02338022115155219,0.0976994861521123,40.106058693909645,-92.24360919585227,76.200527287817
2024-09-23 18:07:24.502590,43.2,41.091058,-0.002586742470023829,-0.02338022115155219,0.0976994861521123,40.106058693909645,-92.24360919585227,76.200527287817
2024-09-23 18:07:24.514298,43.2,41.091058,-0.002586742470023829,-0.023579196463302005,0.0970030596496862,48.12595698684454,-100.26678939585686,76.200527287817
2024-09-23 18:07:24.556631,43.2,41.091108,-0.0033329230534799477,-0.02367869399252531,0.0973512698629459,48.12595698684454,-100.26678939585686,80.21211738781929
2024-09-23 18:07:24.568838,43.2,41.091108,-0.0033329230534799477,-0.02367869399252531,0.0973512698629459,44.11764879391193,-100.26678939585686,80.21211738781929
2024-09-23 18:07:24.601124,43.2,41.091159,-0.0033329230534799477,-0.02367869399252531,0.0973512698629459,44.11764879391193,-104.27510100388527,68.18063240997792
2024-09-23 18:07:24.612787,43.2,41.091159,-0.0031836870127375577,-0.02303200030545576,0.09685382322919964,44.11764879391193,-104.27510100388527,68.18063240997792
2024-09-23 18:07:24.655787,43.2,41.09121,-0.0027359787006383035,-0.02397715620066169,0.09685382322919964,44.11764879391193,-104.27510100388527,80.21211738781929
2024-09-23 18:07:24.698256,43.2,41.09121,-0.0027359787006383035,-0.02397715620066169,0.09690356060148622,44.11764879391193,-100.26678939585686,80.21211738781929
2024-09-23 18:07:24.710132,43.2,41.09126,-0.0033329230534799477,-0.02397715620066169,0.09690356060148622,44.11764879391193,-100.26678939585686,80.21211738781929
2024-09-23 18:07:24.743245,43.2,41.09126,-0.0033329230534799477,-0.023230986250042305,0.09690356060148622,44.11764879391193,-100.26678939585686,80.21211738781929
2024-09-23 18:07:24.796043,43.2,41.09126,-0.0033329230534799477,-0.023230986250042305,0.0970030596496862,40.106058693909645,-96.25519929585457,80.21211738781929
2024-09-23 18:07:24.807171,43.2,41.091347,-0.0033329230534799477,-0.023230986250042305,0.0970030596496862,40.106058693909645,-96.25519929585457,72.1922225099802
2024-09-23 18:07:24.850390,43.2,41.091347,-0.0031836870127375577,-0.023579196463302005,0.09685382322919964,32.08287849390507,-92.24360919585227,80.21211738781929
2024-09-23 18:07:24.892900,43.2,41.0914,-0.002785727465249955,-0.023579196463302005,0.09685382322919964,32.08287849390507,-92.24360919585227,80.21211738781929
2024-09-23 18:07:24.903824,43.2,41.0914,-0.002785727465249955,-0.023579196463302005,0.09690356060148622,40.106058693909645,-88.23529758782387,80.21211738781929
2024-09-23 18:07:24.945765,43.2,41.09145,-0.002785727465249955,-0.023579196463302005,0.09690356060148622,40.106058693909645,-88.23529758782387,76.200527287817
2024-09-23 18:07:24.988622,43.2,41.09145,-0.0033329230534799477,-0.022833026512682618,0.09690356060148622,40.106058693909645,-88.23529758782387,76.200527287817
2024-09-23 18:07:24.999884,43.2,41.09145,-0.0033329230534799477,-0.022833026512682618,0.09755024973162574,48.12595698684454,-96.25519929585457,76.200527287817
2024-09-23 18:07:25.041927,43.2,41.091501,-0.0024872551938930902,-0.02362894446842532,0.09750050628343246,48.12595698684454,-96.25519929585457,76.200527287817
2024-09-23 18:07:25.053125,43.2,41.091501,-0.0024872551938930902,-0.02362894446842532,0.09750050628343246,40.106058693909645,-100.26678939585686,76.200527287817
2024-09-23 18:07:25.087276,43.2,41.091593,-0.0024872551938930902,-0.02362894446842532,0.09750050628343246,40.106058693909645,-100.26678939585686,76.200527287817
2024-09-23 18:07:25.098804,43.2,41.091593,-0.0028852147413806935,-0.02352945757203875,0.09690356060148622,36.09446859390736,-100.26678939585686,76.200527287817
2024-09-23 18:07:25.141113,43.2,41.091644,-0.0030344509719951677,-0.023280723622328886,0.09715228999426605,36.09446859390736,-96.25519929585457,76.200527287817
2024-09-23 18:07:25.184048,43.2,41.091644,-0.0030344509719951677,-0.023280723622328886,0.09715228999426605,44.11764879391193,-96.25519929585457,76.200527287817
2024-09-23 18:07:25.196048,43.2,41.091738,-0.0028852147413806935,-0.023429960042815445,0.09715228999426605,44.11764879391193,-96.25519929585457,76.200527287817
2024-09-23 18:07:25.279444,43.2,41.091738,-0.0028852147413806935,-0.023429960042815445,0.09755024973162574,44.11764879391193,-96.25519929585457,76.200527287817
2024-09-23 18:07:25.291319,43.2,41.091789,-0.0029847020175114316,-0.023429960042815445,0.09755024973162574,40.106058693909645,-100.26678939585686,76.200527287817
2024-09-23 18:07:25.334623,43.2,41.091789,-0.0029847020175114316,-0.023579196463302005,0.09750050628343246,40.106058693909645,-100.26678939585686,76.200527287817
2024-09-23 18:07:25.345889,43.2,41.091884,-0.0029847020175114316,-0.023579196463302005,0.09750050628343246,40.106058693909645,-100.26678939585686,76.200527287817
2024-09-23 18:07:25.378170,43.2,41.091884,-0.0030841997366068195,-0.023579196463302005,0.09750050628343246,40.106058693909645,-100.26678939585686,76.200527287817
2024-09-23 18:07:25.389358,43.2,41.091884,-0.0030841997366068195,-0.02352945757203875,0.09705279702197278,48.12595698684454,-96.25519929585457,76.200527287817
2024-09-23 18:07:25.432109,43.2,41.091935,-0.0030841997366068195,-0.023579196463302005,0.09750050628343246,48.12595698684454,-96.25519929585457,76.200527287817
2024-09-23 18:07:25.443421,43.2,41.091935,-0.0030841997366068195,-0.023579196463302005,0.09750050628343246,48.12595698684454,-92.24360919585227,76.200527287817
2024-09-23 18:07:25.476525,43.05,41.091986,-0.0030841997366068195,-0.023579196463302005,0.09750050628343246,48.12595698684454,-92.24360919585227,72.1922225099802
2024-09-23 18:07:25.487765,43.05,41.091986,-0.0030841997366068195,-0.02338022115155219,0.09705279702197278,48.12595698684454,-92.24360919585227,72.1922225099802
2024-09-23 18:07:25.530036,43.05,41.09208,-0.0030841997366068195,-0.02338022115155219,0.09705279702197278,48.12595698684454,-96.25519929585457,76.200527287817
2024-09-23 18:07:25.541847,43.05,41.09208,-0.0030841997366068195,-0.023280723622328886,0.0973015264147526,48.12595698684454,-96.25519929585457,76.200527287817
2024-09-23 18:07:25.574395,43.05,41.09208,-0.0030841997366068195,-0.023280723622328886,0.0973015264147526,48.12595698684454,-92.24360919585227,76.200527287817
2024-09-23 18:07:25.586380,43.05,41.092131,-0.002586742470023829,-0.023330473146428877,0.0973015264147526,48.12595698684454,-92.24360919585227,80.21211738781929
2024-09-23 18:07:25.628738,43.05,41.092182,-0.0024872551938930902,-0.023330473146428877,0.09690356060148622,44.11764879391193,-92.24360919585227,72.1922225099802
2024-09-23 18:07:25.671402,43.05,41.092182,-0.0024872551938930902,-0.02313149783467906,0.0973015264147526,44.11764879391193,-92.24360919585227,72.1922225099802
2024-09-23 18:07:25.682810,43.05,41.092274,-0.0024872551938930902,-0.02313149783467906,0.0973015264147526,40.106058693909645,-92.24360919585227,80.21211738781929
2024-09-23 18:07:25.725708,43.05,41.092274,-0.0028852147413806935,-0.023230986250042305,0.09670458680871308,40.106058693909645,-88.23529758782387,80.21211738781929
2024-09-23 18:07:25.737570,43.05,41.092274,-0.0028852147413806935,-0.023230986250042305,0.09670458680871308,40.106058693909645,-88.23529758782387,80.21211738781929
2024-09-23 18:07:25.769707,43.05,41.092325,-0.002785727465249955,-0.023230986250042305,0.09670458680871308,40.106058693909645,-88.23529758782387,80.21211738781929
2024-09-23 18:07:25.780918,43.05,41.092325,-0.002785727465249955,-0.023429960042815445,0.09715228999426605,40.106058693909645,-88.23529758782387,80.21211738781929
2024-09-23 18:07:25.824797,43.05,41.092376,-0.0033329230534799477,-0.02303200030545576,0.09670458680871308,40.106058693909645,-88.23529758782387,72.1922225099802
2024-09-23 18:07:25.866740,43.05,41.092376,-0.0033329230534799477,-0.02303200030545576,0.09670458680871308,40.106058693909645,-92.24360919585227,72.1922225099802
2024-09-23 18:07:25.877836,43.05,41.092427,-0.0028852147413806935,-0.02338022115155219,0.09665483728461309,40.106058693909645,-92.24360919585227,72.1922225099802
2024-09-23 18:07:25.920507,43.05,41.092478,-0.0033329230534799477,-0.02338022115155219,0.09665483728461309,40.106058693909645,-92.24360919585227,76.200527287817
2024-09-23 18:07:25.933207,43.05,41.092478,-0.0033329230534799477,-0.02308174982955575,0.09665483728461309,40.106058693909645,-92.24360919585227,76.200527287817
2024-09-23 18:07:25.965564,43.05,41.092478,-0.0033329230534799477,-0.02308174982955575,0.09759999317981902,44.11764879391193,-92.24360919585227,76.200527287817
2024-09-23 18:07:26.018189,43.05,41.092528,-0.002636491424507565,-0.023181236725942318,0.0973015264147526,44.11764879391193,-92.24360919585227,76.200527287817
2024-09-23 18:07:26.060220,43.05,41.092528,-0.002636491424507565,-0.023181236725942318,0.0973015264147526,40.106058693909645,-92.24360919585227,76.200527287817
2024-09-23 18:07:26.113364,43.05,41.092615,-0.0030344509719951677,-0.023181236725942318,0.0973015264147526,40.106058693909645,-92.24360919585227,80.21211738781929
2024-09-23 18:07:26.124696,43.05,41.092615,-0.0030344509719951677,-0.023280723622328886,0.09750050628343246,40.106058693909645,-92.24360919585227,80.21211738781929
2024-09-23 18:07:26.167374,43.05,41.092667,-0.0029349636958644295,-0.02338022115155219,0.09750050628343246,44.11764879391193,-92.24360919585227,76.200527287817
2024-09-23 18:07:26.210509,43.05,41.092667,-0.0029349636958644295,-0.02338022115155219,0.09675432418099966,44.11764879391193,-96.25519929585457,76.200527287817
2024-09-23 18:07:26.222154,43.05,41.092717,-0.0030841997366068195,-0.02338022115155219,0.09675432418099966,44.11764879391193,-96.25519929585457,76.200527287817
2024-09-23 18:07:26.254204,43.05,41.092717,-0.0030841997366068195,-0.02338022115155219,0.09675432418099966,44.11764879391193,-96.25519929585457,76.200527287817
2024-09-23 18:07:26.265942,43.05,41.092768,-0.0030841997366068195,-0.02338022115155219,0.09670458680871308,40.106058693909645,-88.23529758782387,80.21211738781929
2024-09-23 18:07:26.307863,43.05,41.092768,-0.003233425524256645,-0.023479709566915436,0.09725178296655933,40.106058693909645,-88.23529758782387,80.21211738781929
2024-09-23 18:07:26.320257,43.05,41.092768,-0.003233425524256645,-0.023479709566915436,0.09725178296655933,40.106058693909645,-100.26678939585686,72.1922225099802
2024-09-23 18:07:26.353728,43.05,41.092908,-0.0029847020175114316,-0.023479709566915436,0.09725178296655933,40.106058693909645,-100.26678939585686,72.1922225099802
2024-09-23 18:07:26.365449,43.05,41.092908,-0.0029847020175114316,-0.02367869399252531,0.09690356060148622,44.11764879391193,-88.23529758782387,72.1922225099802
2024-09-23 18:07:26.407347,43.05,41.092959,-0.002636491424507565,-0.023280723622328886,0.09745075675933246,44.11764879391193,-88.23529758782387,76.200527287817
2024-09-23 18:07:26.419116,43.05,41.092959,-0.002636491424507565,-0.023280723622328886,0.09745075675933246,48.12595698684454,-88.23529758782387,76.200527287817
2024-09-23 18:07:26.451680,43.05,41.092959,-0.002636491424507565,-0.023280723622328886,0.09745075675933246,48.12595698684454,-92.24360919585227,72.1922225099802
2024-09-23 18:07:26.462901,43.05,41.09301,-0.002785727465249955,-0.02313149783467906,0.0970030596496862,48.12595698684454,-92.24360919585227,72.1922225099802
2024-09-23 18:07:26.505552,43.01,41.093061,-0.002586742470023829,-0.02313149783467906,0.0970030596496862,48.12595698684454,-96.25519929585457,68.18063240997792
2024-09-23 18:07:26.517656,43.01,41.093061,-0.002586742470023829,-0.02362894446842532,0.0970030596496862,48.12595698684454,-96.25519929585457,68.18063240997792
2024-09-23 18:07:26.550080,43.01,41.093061,-0.002586742470023829,-0.02362894446842532,0.09705279702197278,36.09446859390736,-96.25519929585457,68.18063240997792
2024-09-23 18:07:26.562137,43.01,41.093111,-0.0028852147413806935,-0.02362894446842532,0.09705279702197278,36.09446859390736,-96.25519929585457,76.200527287817
2024-09-23 18:07:26.604940,43.01,41.0932,-0.0028852147413806935,-0.023280723622328886,0.0973015264147526,44.11764879391193,-96.25519929585457,76.200527287817
2024-09-23 18:07:26.646686,43.01,41.0932,-0.0031836870127375577,-0.02293251340906919,0.0973015264147526,44.11764879391193,-96.25519929585457,76.200527287817
2024-09-23 18:07:26.657676,43.01,41.0932,-0.0031836870127375577,-0.02293251340906919,0.09670458680871308,32.08287849390507,-92.24360919585227,76.200527287817
2024-09-23 18:07:26.700882,43.01,41.093252,-0.0027359787006383035,-0.022733528983459317,0.09670458680871308,32.08287849390507,-92.24360919585227,76.200527287817
2024-09-23 18:07:26.743549,43.01,41.093252,-0.0027359787006383035,-0.022733528983459317,0.09685382322919964,32.08287849390507,-92.24360919585227,76.200527287817
2024-09-23 18:07:26.755237,43.01,41.093302,-0.0030344509719951677,-0.022733528983459317,0.09685382322919964,36.09446859390736,-92.24360919585227,72.1922225099802
2024-09-23 18:07:26.797621,43.01,41.093302,-0.0030344509719951677,-0.023579196463302005,0.09755024973162574,44.11764879391193,-100.26678939585686,76.200527287817
2024-09-23 18:07:26.809839,43.01,41.093353,-0.0030344509719951677,-0.023579196463302005,0.09755024973162574,44.11764879391193,-100.26678939585686,76.200527287817
2024-09-23 18:07:26.841707,43.01,41.093353,-0.002785727465249955,-0.022982261414192504,0.09755024973162574,44.11764879391193,-100.26678939585686,76.200527287817
2024-09-23 18:07:26.853711,43.01,41.093353,-0.002785727465249955,-0.022982261414192504,0.09740101331113918,44.11764879391193,-92.24360919585227,76.200527287817
2024-09-23 18:07:26.895891,43.01,41.093404,-0.0031339382481259063,-0.02367869399252531,0.09705279702197278,40.106058693909645,-92.24360919585227,76.200527287817
2024-09-23 18:07:26.907443,43.01,41.093404,-0.0031339382481259063,-0.02367869399252531,0.09705279702197278,40.106058693909645,-92.24360919585227,76.200527287817
2024-09-23 18:07:26.939897,43.01,41.093454,-0.0031339382481259063,-0.02367869399252531,0.09705279702197278,40.106058693909645,-92.24360919585227,76.200527287817
2024-09-23 18:07:26.951175,43.01,41.093454,-0.002636491424507565,-0.02338022115155219,0.0973512698629459,44.11764879391193,-92.24360919585227,76.200527287817
2024-09-23 18:07:26.993793,43.01,41.093543,-0.002636491424507565,-0.02338022115155219,0.0973512698629459,44.11764879391193,-96.25519929585457,76.200527287817
2024-09-23 18:07:27.035737,43.01,41.093543,-0.002785727465249955,-0.02338022115155219,0.0973512698629459,44.11764879391193,-96.25519929585457,76.200527287817
2024-09-23 18:07:27.047311,43.01,41.093543,-0.002785727465249955,-0.02338022115155219,0.09705279702197278,40.106058693909645,-92.24360919585227,80.21211738781929
2024-09-23 18:07:27.090067,43.01,41.093594,-0.003482159473966507,-0.023330473146428877,0.09690356060148622,40.106058693909645,-92.24360919585227,80.21211738781929
2024-09-23 18:07:27.102077,43.01,41.093594,-0.003482159473966507,-0.023330473146428877,0.09690356060148622,40.106058693909645,-100.26678939585686,80.21211738781929
2024-09-23 18:07:27.134299,43.01,41.093644,-0.003482159473966507,-0.023330473146428877,0.09690356060148622,40.106058693909645,-100.26678939585686,76.200527287817
2024-09-23 18:07:27.145318,43.01,41.093644,-0.0032831742888682963,-0.02338022115155219,0.09675432418099966,44.11764879391193,-100.26678939585686,76.200527287817
2024-09-23 18:07:27.188518,43.01,41.093736,-0.0030841997366068195,-0.02367869399252531,0.09685382322919964,44.11764879391193,-88.23529758782387,80.21211738781929
2024-09-23 18:07:27.231908,43.01,41.093736,-0.0030841997366068195,-0.02367869399252531,0.09685382322919964,44.11764879391193,-92.24360919585227,80.21211738781929
2024-09-23 18:07:27.243071,43.01,41.093788,-0.002636491424507565,-0.022484804147609512,0.09685382322919964,44.11764879391193,-92.24360919585227,76.200527287817
2024-09-23 18:07:27.285630,43.01,41.093788,-0.002636491424507565,-0.022484804147609512,0.09755024973162574,40.106058693909645,-100.26678939585686,80.21211738781929
2024-09-23 18:07:27.297261,43.01,41.093839,-0.003233425524256645,-0.022484804147609512,0.09755024973162574,40.106058693909645,-100.26678939585686,80.21211738781929
2024-09-23 18:07:27.329378,43.01,41.093839,-0.003233425524256645,-0.023579196463302005,0.0973015264147526,40.106058693909645,-100.26678939585686,80.21211738781929
2024-09-23 18:07:27.341146,43.01,41.093931,-0.003233425524256645,-0.023579196463302005,0.0973015264147526,36.09446859390736,-96.25519929585457,76.200527287817
2024-09-23 18:07:27.383638,43.01,41.093931,-0.0026862297461545674,-0.023479709566915436,0.0966050877605131,40.106058693909645,-96.25519929585457,72.1922225099802
2024-09-23 18:07:27.426367,43.01,41.093983,-0.0030344509719951677,-0.023479709566915436,0.0966050877605131,40.106058693909645,-96.25519929585457,72.1922225099802
2024-09-23 18:07:27.437975,43.01,41.093983,-0.0030344509719951677,-0.023579196463302005,0.09685382322919964,36.09446859390736,-100.26678939585686,72.1922225099802
2024-09-23 18:07:27.480888,43.01,41.094034,-0.0029847020175114316,-0.02313149783467906,0.0970030596496862,36.09446859390736,-100.26678939585686,72.1922225099802
2024-09-23 18:07:27.493184,43.01,41.094034,-0.0029847020175114316,-0.02313149783467906,0.0970030596496862,52.137550501942634,-100.26678939585686,72.1922225099802
2024-09-23 18:07:27.524578,43.15,41.094034,-0.0029847020175114316,-0.02313149783467906,0.0970030596496862,52.137550501942634,-92.24360919585227,72.1922225099802
2024-09-23 18:07:27.535532,43.15,41.094084,-0.0030841997366068195,-0.023181236725942318,0.09759999317981902,52.137550501942634,-92.24360919585227,72.1922225099802
2024-09-23 18:07:27.578548,43.15,41.094135,-0.0034324103296106863,-0.023181236725942318,0.09759999317981902,44.11764879391193,-92.24360919585227,76.200527287817
2024-09-23 18:07:27.590174,43.15,41.094135,-0.0034324103296106863,-0.023330473146428877,0.09759999317981902,44.11764879391193,-92.24360919585227,76.200527287817
2024-09-23 18:07:27.622035,43.15,41.094135,-0.0034324103296106863,-0.023330473146428877,0.09764974270391902,48.12595698684454,-92.24360919585227,76.200527287817
2024-09-23 18:07:27.633959,43.15,41.094186,-0.003631395514708897,-0.023330473146428877,0.09764974270391902,48.12595698684454,-88.23529758782387,76.200527287817
2024-09-23 18:07:27.675789,43.15,41.094186,-0.003631395514708897,-0.023579196463302005,0.09740101331113918,44.11764879391193,-96.25519929585457,72.1922225099802
2024-09-23 18:07:27.688014,43.15,41.094273,-0.003631395514708897,-0.023579196463302005,0.09740101331113918,44.11764879391193,-96.25519929585457,72.1922225099802
2024-09-23 18:07:27.719823,43.15,41.094273,-0.0025369937054121774,-0.023181236725942318,0.09740101331113918,44.11764879391193,-96.25519929585457,72.1922225099802
2024-09-23 18:07:27.731235,43.15,41.094273,-0.0025369937054121774,-0.023181236725942318,0.09755024973162574,36.09446859390736,-92.24360919585227,76.200527287817
2024-09-23 18:07:27.773795,43.15,41.094324,-0.003233425524256645,-0.02313149783467906,0.09705279702197278,32.08287849390507,-92.24360919585227,76.200527287817
2024-09-23 18:07:27.816167,43.15,41.094375,-0.003233425524256645,-0.02313149783467906,0.09705279702197278,32.08287849390507,-92.24360919585227,80.21211738781929
2024-09-23 18:07:27.829425,43.15,41.094375,-0.0025369937054121774,-0.023778180888911878,0.09655535038822652,32.08287849390507,-92.24360919585227,80.21211738781929
2024-09-23 18:07:27.872393,43.15,41.094425,-0.0036811340262279837,-0.0225345536717095,0.09759999317981902,32.08287849390507,-96.25519929585457,76.200527287817
2024-09-23 18:07:27.915395,43.15,41.094425,-0.0036811340262279837,-0.0225345536717095,0.09759999317981902,44.11764879391193,-92.24360919585227,72.1922225099802
2024-09-23 18:07:27.927124,43.15,41.094476,-0.0035816467500972456,-0.023579196463302005,0.09759999317981902,44.11764879391193,-92.24360919585227,72.1922225099802
2024-09-23 18:07:27.969915,43.15,41.094527,-0.0026862297461545674,-0.023579196463302005,0.09720203344245934,40.106058693909645,-96.25519929585457,72.1922225099802
2024-09-23 18:07:28.011787,43.15,41.094527,-0.0026862297461545674,-0.023579196463302005,0.09725178296655933,40.106058693909645,-96.25519929585457,72.1922225099802
2024-09-23 18:07:28.065983,43.15,41.094614,-0.0033329230534799477,-0.023429960042815445,0.09725178296655933,44.11764879391193,-92.24360919585227,76.200527287817
2024-09-23 18:07:28.109293,43.15,41.094614,-0.0033329230534799477,-0.023429960042815445,0.09715228999426605,44.11764879391193,-92.24360919585227,76.200527287817
2024-09-23 18:07:28.121322,43.15,41.094665,-0.002785727465249955,-0.023429960042815445,0.09715228999426605,48.12595698684454,-96.25519929585457,84.22370748782159
2024-09-23 18:07:28.164411,43.15,41.094665,-0.002785727465249955,-0.02263404056809607,0.09759999317981902,48.12595698684454,-104.27510100388527,76.200527287817
2024-09-23 18:07:28.176209,43.15,41.094716,-0.002785727465249955,-0.02263404056809607,0.09759999317981902,48.12595698684454,-104.27510100388527,76.200527287817
2024-09-23 18:07:28.209325,43.15,41.094716,-0.0028852147413806935,-0.02338022115155219,0.09695331012558621,44.11764879391193,-104.27510100388527,76.200527287817
2024-09-23 18:07:28.220949,43.15,41.094716,-0.0028852147413806935,-0.02338022115155219,0.09695331012558621,44.11764879391193,-96.25519929585457,76.200527287817
2024-09-23 18:07:28.252884,43.15,41.094767,-0.0028852147413806935,-0.02338022115155219,0.09695331012558621,44.11764879391193,-96.25519929585457,76.200527287817
2024-09-23 18:07:28.264511,43.15,41.094767,-0.002785727465249955,-0.023479709566915436,0.09759999317981902,36.09446859390736,-96.25519929585457,76.200527287817
2024-09-23 18:07:28.306575,43.15,41.094859,-0.0030841997366068195,-0.023479709566915436,0.09759999317981902,36.09446859390736,-96.25519929585457,76.200527287817
2024-09-23 18:07:28.318623,43.15,41.094859,-0.0030841997366068195,-0.02338022115155219,0.09675432418099966,36.09446859390736,-96.25519929585457,76.200527287817
2024-09-23 18:07:28.350528,43.15,41.094859,-0.0030841997366068195,-0.02338022115155219,0.09675432418099966,36.09446859390736,-92.24360919585227,76.200527287817
2024-09-23 18:07:28.362028,43.15,41.09491,-0.0029847020175114316,-0.023330473146428877,0.0973015264147526,36.09446859390736,-92.24360919585227,76.200527287817
2024-09-23 18:07:28.404635,43.15,41.09491,-0.0029847020175114316,-0.023330473146428877,0.0973015264147526,32.08287849390507,-92.24360919585227,76.200527287817
2024-09-23 18:07:28.416367,43.15,41.09496,-0.003631395514708897,-0.023230986250042305,0.0973015264147526,32.08287849390507,-92.24360919585227,76.200527287817
2024-09-23 18:07:28.448538,43.15,41.09496,-0.003631395514708897,-0.023230986250042305,0.09725178296655933,32.08287849390507,-92.24360919585227,76.200527287817
2024-09-23 18:07:28.459740,43.15,41.095011,-0.002586742470023829,-0.023230986250042305,0.09725178296655933,44.11764879391193,-96.25519929585457,80.21211738781929
2024-09-23 18:07:28.501931,43.15,41.095011,-0.002586742470023829,-0.02308174982955575,0.09680407370509965,44.11764879391193,-100.26678939585686,80.21211738781929
2024-09-23 18:07:28.513001,43.15,41.095101,-0.002586742470023829,-0.02308174982955575,0.09680407370509965,44.11764879391193,-100.26678939585686,76.200527287817
2024-09-23 18:07:28.556010,43.2,41.095101,-0.0030344509719951677,-0.0228827638849692,0.09740101331113918,48.12595698684454,-100.26678939585686,76.200527287817
2024-09-23 18:07:28.598510,43.2,41.095153,-0.0027359787006383035,-0.023181236725942318,0.09740101331113918,48.12595698684454,-100.26678939585686,76.200527287817
2024-09-23 18:07:28.609891,43.2,41.095153,-0.0027359787006383035,-0.023181236725942318,0.09750050628343246,44.11764879391193,-88.23529758782387,76.200527287817
2024-09-23 18:07:28.652568,43.2,41.095203,-0.0024872551938930902,-0.023778180888911878,0.09750050628343246,44.11764879391193,-88.23529758782387,72.1922225099802
2024-09-23 18:07:28.694400,43.2,41.095203,-0.0024872551938930902,-0.023778180888911878,0.09690356060148622,36.09446859390736,-88.23529758782387,72.1922225099802
2024-09-23 18:07:28.706353,43.2,41.095254,-0.003482159473966507,-0.023778180888911878,0.09690356060148622,36.09446859390736,-88.23529758782387,76.200527287817
2024-09-23 18:07:28.749724,43.2,41.095305,-0.003482159473966507,-0.023579196463302005,0.09655535038822652,48.12595698684454,-96.25519929585457,72.1922225099802
2024-09-23 18:07:28.792429,43.2,41.095305,-0.0026862297461545674,-0.023280723622328886,0.09690356060148622,48.12595698684454,-96.25519929585457,72.1922225099802
2024-09-23 18:07:28.803331,43.2,41.095305,-0.0026862297461545674,-0.023280723622328886,0.09690356060148622,48.12595698684454,-100.26678939585686,76.200527287817
2024-09-23 18:07:28.846415,43.2,41.095356,-0.002785727465249955,-0.02352945757203875,0.09695331012558621,40.106058693909645,-100.26678939585686,76.200527287817
2024-09-23 18:07:28.889190,43.2,41.095443,-0.002785727465249955,-0.02352945757203875,0.09695331012558621,40.106058693909645,-100.26678939585686,76.200527287817
2024-09-23 18:07:28.900392,43.2,41.095443,-0.002636491424507565,-0.02362894446842532,0.09680407370509965,44.11764879391193,-100.26678939585686,76.200527287817
2024-09-23 18:07:28.943359,43.2,41.095494,-0.0028852147413806935,-0.023479709566915436,0.09680407370509965,44.11764879391193,-100.26678939585686,80.21211738781929
2024-09-23 18:07:28.955549,43.2,41.095494,-0.0028852147413806935,-0.023479709566915436,0.09725178296655933,44.11764879391193,-100.26678939585686,80.21211738781929
2024-09-23 18:07:28.987250,43.2,41.095494,-0.0028852147413806935,-0.023479709566915436,0.09725178296655933,44.11764879391193,-100.26678939585686,80.21211738781929
2024-09-23 18:07:28.998674,43.2,41.095545,-0.0031836870127375577,-0.023330473146428877,0.09725178296655933,44.11764879391193,-100.26678939585686,80.21211738781929
2024-09-23 18:07:29.041095,43.2,41.095545,-0.0031836870127375577,-0.023330473146428877,0.09740101331113918,44.11764879391193,-96.25519929585457,76.200527287817
2024-09-23 18:07:29.083443,43.2,41.095595,-0.0031836870127375577,-0.023330473146428877,0.09740101331113918,44.11764879391193,-96.25519929585457,76.200527287817
2024-09-23 18:07:29.095518,43.2,41.095595,-0.0031836870127375577,-0.023330473146428877,0.09759999317981902,32.08287849390507,-100.26678939585686,76.200527287817
2024-09-23 18:07:29.137923,43.2,41.095686,-0.0028354659767690416,-0.023330473146428877,0.0973512698629459,32.08287849390507,-100.26678939585686,76.200527287817
2024-09-23 18:07:29.149918,43.2,41.095686,-0.0028354659767690416,-0.023330473146428877,0.0973512698629459,44.11764879391193,-100.26678939585686,76.200527287817
2024-09-23 18:07:29.181754,43.2,41.095686,-0.0028354659767690416,-0.023330473146428877,0.0973512698629459,44.11764879391193,-92.24360919585227,76.200527287817
2024-09-23 18:07:29.193624,43.2,41.095738,-0.002636491424507565,-0.02303200030545576,0.09745075675933246,44.11764879391193,-92.24360919585227,76.200527287817
2024-09-23 18:07:29.236740,43.2,41.095738,-0.002636491424507565,-0.02303200030545576,0.09745075675933246,44.11764879391193,-100.26678939585686,76.200527287817
2024-09-23 18:07:29.280921,43.2,41.095788,-0.0028852147413806935,-0.02303200030545576,0.09745075675933246,44.11764879391193,-100.26678939585686,76.200527287817
2024-09-23 18:07:29.292700,43.2,41.095788,-0.0028852147413806935,-0.023429960042815445,0.0973512698629459,36.09446859390736,-100.26678939585686,76.200527287817
2024-09-23 18:07:29.335106,43.2,41.095839,-0.002636491424507565,-0.023429960042815445,0.09685382322919964,36.09446859390736,-96.25519929585457,76.200527287817
2024-09-23 18:07:29.378609,43.2,41.095839,-0.002636491424507565,-0.023429960042815445,0.09685382322919964,40.106058693909645,-96.25519929585457,76.200527287817
2024-09-23 18:07:29.390701,43.2,41.09593,-0.0028852147413806935,-0.023330473146428877,0.09685382322919964,40.106058693909645,-96.25519929585457,76.200527287817
2024-09-23 18:07:29.433089,43.2,41.095982,-0.003382661564999035,-0.023330473146428877,0.09685382322919964,36.09446859390736,-92.24360919585227,76.200527287817
2024-09-23 18:07:29.475530,43.2,41.095982,-0.003382661564999035,-0.02313149783467906,0.09665483728461309,48.12595698684454,-92.24360919585227,76.200527287817
2024-09-23 18:07:29.487055,43.2,41.096032,-0.003382661564999035,-0.02313149783467906,0.09665483728461309,48.12595698684454,-96.25519929585457,76.200527287817
2024-09-23 18:07:29.529711,43.2,41.096032,-0.002437506429281439,-0.02362894446842532,0.09645586349183995,36.09446859390736,-96.25519929585457,76.200527287817
2024-09-23 18:07:29.572458,42.92,41.096126,-0.0026862297461545674,-0.02362894446842532,0.09645586349183995,36.09446859390736,-96.25519929585457,76.200527287817
2024-09-23 18:07:29.584051,42.92,41.096126,-0.0026862297461545674,-0.023728432883788564,0.09675432418099966,36.09446859390736,-100.26678939585686,76.200527287817
2024-09-23 18:07:29.626988,42.92,41.096178,-0.0028852147413806935,-0.023280723622328886,0.09725178296655933,36.09446859390736,-100.26678939585686,72.1922225099802
2024-09-23 18:07:29.639372,42.92,41.096178,-0.0028852147413806935,-0.023280723622328886,0.09725178296655933,40.106058693909645,-100.26678939585686,72.1922225099802
2024-09-23 18:07:29.672293,42.92,41.096228,-0.0032831742888682963,-0.023280723622328886,0.09725178296655933,40.106058693909645,-92.24360919585227,80.21211738781929
2024-09-23 18:07:29.684186,42.92,41.096228,-0.0032831742888682963,-0.023330473146428877,0.0973512698629459,40.106058693909645,-92.24360919585227,80.21211738781929
2024-09-23 18:07:29.718441,42.92,41.096228,-0.0032831742888682963,-0.023330473146428877,0.0973512698629459,44.11764879391193,-92.24360919585227,76.200527287817
2024-09-23 18:07:29.730015,42.92,41.096279,-0.0031836870127375577,-0.023230986250042305,0.0973512698629459,44.11764879391193,-92.24360919585227,76.200527287817
2024-09-23 18:07:29.772470,42.92,41.096329,-0.0029349636958644295,-0.023230986250042305,0.0966050877605131,44.11764879391193,-100.26678939585686,76.200527287817
2024-09-23 18:07:29.815267,42.92,41.096329,-0.0029349636958644295,-0.023778180888911878,0.09720203344245934,44.11764879391193,-100.26678939585686,76.200527287817
2024-09-23 18:07:29.826339,42.92,41.096418,-0.0029349636958644295,-0.023778180888911878,0.09720203344245934,48.12595698684454,-92.24360919585227,72.1922225099802
2024-09-23 18:07:29.869196,42.92,41.096418,-0.0025369937054121774,-0.02338022115155219,0.09745075675933246,40.106058693909645,-92.24360919585227,72.1922225099802
2024-09-23 18:07:29.881277,42.92,41.096418,-0.0025369937054121774,-0.02338022115155219,0.09745075675933246,40.106058693909645,-92.24360919585227,80.21211738781929
2024-09-23 18:07:29.964188,42.92,41.096469,-0.0029349636958644295,-0.023330473146428877,0.09685382322919964,40.106058693909645,-92.24360919585227,80.21211738781929
2024-09-23 18:07:29.975827,42.92,41.096469,-0.0029349636958644295,-0.023330473146428877,0.09685382322919964,44.11764879391193,-96.25519929585457,80.21211738781929
2024-09-23 18:07:30.007967,42.92,41.096469,-0.0029349636958644295,-0.023330473146428877,0.09685382322919964,44.11764879391193,-96.25519929585457,68.18063240997792
2024-09-23 18:07:30.019593,42.92,41.09652,-0.0030841997366068195,-0.023579196463302005,0.09710254654607277,44.11764879391193,-96.25519929585457,68.18063240997792
2024-09-23 18:07:30.062384,42.92,41.09657,-0.0023380189632786156,-0.023579196463302005,0.09710254654607277,44.11764879391193,-96.25519929585457,80.21211738781929
2024-09-23 18:07:30.074203,42.92,41.09657,-0.0023380189632786156,-0.022982261414192504,0.09710254654607277,44.11764879391193,-96.25519929585457,80.21211738781929
2024-09-23 18:07:30.106872,42.92,41.09657,-0.0023380189632786156,-0.022982261414192504,0.09695331012558621,44.11764879391193,-96.25519929585457,80.21211738781929
2024-09-23 18:07:30.118280,42.92,41.096621,-0.003382661564999035,-0.022982261414192504,0.09695331012558621,40.106058693909645,-96.25519929585457,76.200527287817
2024-09-23 18:07:30.161594,42.92,41.096621,-0.003382661564999035,-0.02293251340906919,0.09705279702197278,52.137550501942634,-100.26678939585686,72.1922225099802
2024-09-23 18:07:30.173670,42.92,41.096672,-0.003382661564999035,-0.02293251340906919,0.09705279702197278,52.137550501942634,-100.26678939585686,72.1922225099802
2024-09-23 18:07:30.206241,42.92,41.096672,-0.0025369937054121774,-0.023429960042815445,0.09705279702197278,52.137550501942634,-100.26678939585686,72.1922225099802
2024-09-23 18:07:30.218298,42.92,41.096672,-0.0025369937054121774,-0.023429960042815445,0.09740101331113918,40.106058693909645,-104.27510100388527,72.1922225099802
2024-09-23 18:07:30.262156,42.92,41.096808,-0.0032831742888682963,-0.024026904205785005,0.09675432418099966,44.11764879391193,-116.30987130389214,72.1922225099802
2024-09-23 18:07:30.304497,42.92,41.096859,-0.0032831742888682963,-0.024026904205785005,0.09675432418099966,44.11764879391193,-116.30987130389214,68.18063240997792
2024-09-23 18:07:30.315509,42.92,41.096859,-0.0033329230534799477,-0.023479709566915436,0.09705279702197278,48.12595698684454,-116.30987130389214,68.18063240997792
2024-09-23 18:07:30.358591,42.92,41.09691,-0.0030841997366068195,-0.023429960042815445,0.09680407370509965,48.12595698684454,-92.24360919585227,72.1922225099802
2024-09-23 18:07:30.401862,42.92,41.09691,-0.0030841997366068195,-0.023429960042815445,0.09680407370509965,44.11764879391193,-100.26678939585686,72.1922225099802
2024-09-23 18:07:30.413801,42.92,41.096961,-0.0029349636958644295,-0.02362894446842532,0.09680407370509965,44.11764879391193,-100.26678939585686,76.200527287817
2024-09-23 18:07:30.457005,42.92,41.096961,-0.0029349636958644295,-0.02362894446842532,0.0966050877605131,40.106058693909645,-104.27510100388527,76.200527287817
2024-09-23 18:07:30.500559,42.92,41.097011,-0.002785727465249955,-0.023827930413011865,0.0966050877605131,40.106058693909645,-104.27510100388527,76.200527287817
2024-09-23 18:07:30.512366,42.92,41.097011,-0.002785727465249955,-0.023827930413011865,0.09705279702197278,44.11764879391193,-96.25519929585457,76.200527287817
2024-09-23 18:07:30.544869,42.92,41.097011,-0.002785727465249955,-0.023827930413011865,0.09705279702197278,44.11764879391193,-96.25519929585457,80.21211738781929
2024-09-23 18:07:30.556528,42.92,41.0971,-0.003233425524256645,-0.023429960042815445,0.0966050877605131,44.11764879391193,-96.25519929585457,80.21211738781929
2024-09-23 18:07:30.599166,42.68,41.097152,-0.0033329230534799477,-0.023429960042815445,0.0966050877605131,44.11764879391193,-100.26678939585686,72.1922225099802
2024-09-23 18:07:30.610620,42.68,41.097152,-0.0033329230534799477,-0.02313149783467906,0.09759999317981902,44.11764879391193,-100.26678939585686,72.1922225099802
2024-09-23 18:07:30.643075,42.68,41.097152,-0.0033329230534799477,-0.02313149783467906,0.09759999317981902,40.106058693909645,-100.26678939585686,72.1922225099802
2024-09-23 18:07:30.654486,42.68,41.097202,-0.0031339382481259063,-0.023280723622328886,0.09759999317981902,40.106058693909645,-100.26678939585686,72.1922225099802
2024-09-23 18:07:30.696920,42.68,41.097253,-0.0031339382481259063,-0.023280723622328886,0.0970030596496862,44.11764879391193,-100.26678939585686,72.1922225099802
2024-09-23 18:07:30.708568,42.68,41.097253,-0.0023380189632786156,-0.023280723622328886,0.0970030596496862,44.11764879391193,-100.26678939585686,72.1922225099802
2024-09-23 18:07:30.741996,42.68,41.097253,-0.0023380189632786156,-0.023778180888911878,0.09705279702197278,44.11764879391193,-100.26678939585686,72.1922225099802
2024-09-23 18:07:30.753474,42.68,41.097344,-0.0023380189632786156,-0.023778180888911878,0.09705279702197278,40.106058693909645,-96.25519929585457,76.200527287817
2024-09-23 18:07:30.795550,42.68,41.097344,-0.002785727465249955,-0.023230986250042305,0.09755024973162574,44.11764879391193,-96.25519929585457,76.200527287817
2024-09-23 18:07:30.807414,42.68,41.097344,-0.002785727465249955,-0.023230986250042305,0.09755024973162574,44.11764879391193,-96.25519929585457,72.1922225099802
2024-09-23 18:07:30.839133,42.68,41.097395,-0.002785727465249955,-0.023230986250042305,0.09755024973162574,44.11764879391193,-96.25519929585457,72.1922225099802
2024-09-23 18:07:30.850657,42.68,41.097395,-0.002785727465249955,-0.023827930413011865,0.09690356060148622,48.12595698684454,-96.25519929585457,72.1922225099802
2024-09-23 18:07:30.893050,42.68,41.097446,-0.0028354659767690416,-0.023181236725942318,0.09690356060148622,48.12595698684454,-96.25519929585457,80.21211738781929
2024-09-23 18:07:30.904927,42.68,41.097446,-0.0028354659767690416,-0.023181236725942318,0.0973512698629459,48.12595698684454,-96.25519929585457,80.21211738781929
2024-09-23 18:07:30.936699,42.68,41.097446,-0.0028354659767690416,-0.023181236725942318,0.0973512698629459,48.12595698684454,-96.25519929585457,80.21211738781929
2024-09-23 18:07:30.948655,42.68,41.097497,-0.0031339382481259063,-0.023280723622328886,0.09755024973162574,48.12595698684454,-96.25519929585457,80.21211738781929
2024-09-23 18:07:31.034688,42.68,41.097497,-0.0031339382481259063,-0.023280723622328886,0.09755024973162574,44.11764879391193,-96.25519929585457,84.22370748782159
2024-09-23 18:07:31.046149,42.68,41.097547,-0.0033329230534799477,-0.023429960042815445,0.09755024973162574,44.11764879391193,-96.25519929585457,84.22370748782159
2024-09-23 18:07:31.088744,42.68,41.097598,-0.0033329230534799477,-0.023429960042815445,0.0973015264147526,36.09446859390736,-100.26678939585686,72.1922225099802
2024-09-23 18:07:31.131500,42.68,41.097598,-0.002586742470023829,-0.02308174982955575,0.0973015264147526,36.09446859390736,-100.26678939585686,72.1922225099802
2024-09-23 18:07:31.142597,42.68,41.097598,-0.002586742470023829,-0.02308174982955575,0.09685382322919964,36.09446859390736,-104.27510100388527,72.1922225099802
2024-09-23 18:07:31.185353,42.68,41.097685,-0.0029847020175114316,-0.02367869399252531,0.09710254654607277,36.09446859390736,-104.27510100388527,72.1922225099802
2024-09-23 18:07:31.197335,42.68,41.097685,-0.0029847020175114316,-0.02367869399252531,0.09710254654607277,36.09446859390736,-96.25519929585457,72.1922225099802
2024-09-23 18:07:31.231078,42.68,41.097737,-0.0032831742888682963,-0.02367869399252531,0.09710254654607277,36.09446859390736,-96.25519929585457,76.200527287817
2024-09-23 18:07:31.242258,42.68,41.097737,-0.0032831742888682963,-0.023280723622328886,0.0973512698629459,40.106058693909645,-96.25519929585457,76.200527287817
2024-09-23 18:07:31.284811,42.68,41.097832,-0.0028354659767690416,-0.02308174982955575,0.0973015264147526,40.106058693909645,-104.27510100388527,68.18063240997792
2024-09-23 18:07:31.327534,42.68,41.097832,-0.0028354659767690416,-0.02308174982955575,0.0973015264147526,40.106058693909645,-96.25519929585457,76.200527287817
2024-09-23 18:07:31.339550,42.68,41.097884,-0.0028354659767690416,-0.02338022115155219,0.0973015264147526,40.106058693909645,-96.25519929585457,76.200527287817
2024-09-23 18:07:31.382263,42.68,41.097934,-0.0030344509719951677,-0.02338022115155219,0.098047696365372,36.09446859390736,-92.24360919585227,76.200527287817
2024-09-23 18:07:31.424338,42.68,41.097934,-0.0030344509719951677,-0.02338022115155219,0.09720203344245934,36.09446859390736,-92.24360919585227,76.200527287817
2024-09-23 18:07:31.436285,42.68,41.098027,-0.0030344509719951677,-0.02338022115155219,0.09720203344245934,40.106058693909645,-96.25519929585457,76.200527287817
2024-09-23 18:07:31.479843,42.68,41.098027,-0.003233425524256645,-0.022982261414192504,0.09789846602079214,36.09446859390736,-96.25519929585457,80.21211738781929
2024-09-23 18:07:31.521767,42.68,41.098078,-0.0030841997366068195,-0.022982261414192504,0.09789846602079214,36.09446859390736,-96.25519929585457,80.21211738781929
2024-09-23 18:07:31.532833,42.68,41.098078,-0.0030841997366068195,-0.023181236725942318,0.0973512698629459,36.09446859390736,-92.24360919585227,80.21211738781929
2024-09-23 18:07:31.575678,42.68,41.098129,-0.0031339382481259063,-0.023579196463302005,0.09750050628343246,36.09446859390736,-92.24360919585227,72.1922225099802
2024-09-23 18:07:31.587803,42.68,41.098129,-0.0031339382481259063,-0.023579196463302005,0.09750050628343246,40.106058693909645,-92.24360919585227,72.1922225099802
2024-09-23 18:07:31.619520,42.68,41.098129,-0.0031339382481259063,-0.023579196463302005,0.09750050628343246,40.106058693909645,-96.25519929585457,76.200527287817
2024-09-23 18:07:31.631024,42.68,41.098179,-0.0025369937054121774,-0.022982261414192504,0.0970030596496862,40.106058693909645,-96.25519929585457,76.200527287817
2024-09-23 18:07:31.674490,42.68,41.09823,-0.003233425524256645,-0.022982261414192504,0.0970030596496862,48.12595698684454,-96.25519929585457,76.200527287817
2024-09-23 18:07:31.686487,42.68,41.09823,-0.003233425524256645,-0.023230986250042305,0.0970030596496862,48.12595698684454,-96.25519929585457,76.200527287817
2024-09-23 18:07:31.721484,42.68,41.09823,-0.003233425524256645,-0.023230986250042305,0.09710254654607277,44.11764879391193,-96.25519929585457,76.200527287817
2024-09-23 18:07:31.733856,42.68,41.098281,-0.0028852147413806935,-0.023230986250042305,0.09710254654607277,44.11764879391193,-96.25519929585457,76.200527287817
2024-09-23 18:07:31.766647,42.68,41.098281,-0.0028852147413806935,-0.02308174982955575,0.09740101331113918,40.106058693909645,-96.25519929585457,76.200527287817
2024-09-23 18:07:31.777736,42.68,41.098368,-0.0028852147413806935,-0.02308174982955575,0.09740101331113918,40.106058693909645,-96.25519929585457,76.200527287817
2024-09-23 18:07:31.820032,42.68,41.098368,-0.0028852147413806935,-0.023579196463302005,0.09715228999426605,36.09446859390736,-100.26678939585686,76.200527287817
2024-09-23 18:07:31.863187,42.68,41.098419,-0.002288270198666964,-0.023579196463302005,0.09715228999426605,36.09446859390736,-100.26678939585686,76.200527287817
2024-09-23 18:07:31.874639,42.68,41.098419,-0.002288270198666964,-0.023230986250042305,0.09745075675933246,40.106058693909645,-96.25519929585457,76.200527287817
2024-09-23 18:07:31.917271,42.68,41.09847,-0.002586742470023829,-0.0228827638849692,0.09705279702197278,36.09446859390736,-96.25519929585457,76.200527287817
2024-09-23 18:07:31.959671,42.68,41.09847,-0.002586742470023829,-0.0228827638849692,0.09705279702197278,36.09446859390736,-100.26678939585686,76.200527287817
2024-09-23 18:07:31.971905,42.68,41.09852,-0.0028852147413806935,-0.023479709566915436,0.09685382322919964,36.09446859390736,-100.26678939585686,76.200527287817
2024-09-23 18:07:32.057065,42.68,41.09852,-0.0028852147413806935,-0.023479709566915436,0.09685382322919964,44.11764879391193,-100.26678939585686,76.200527287817
2024-09-23 18:07:32.069036,42.68,41.098571,-0.0025369937054121774,-0.023429960042815445,0.09685382322919964,44.11764879391193,-88.23529758782387,68.18063240997792
2024-09-23 18:07:32.113701,42.68,41.098622,-0.0031339382481259063,-0.023429960042815445,0.0970030596496862,40.106058693909645,-92.24360919585227,68.18063240997792
2024-09-23 18:07:32.156044,42.68,41.098622,-0.0031339382481259063,-0.02338022115155219,0.09690356060148622,40.106058693909645,-92.24360919585227,68.18063240997792
2024-09-23 18:07:32.167079,42.68,41.098709,-0.0031339382481259063,-0.02338022115155219,0.09690356060148622,40.106058693909645,-92.24360919585227,80.21211738781929
2024-09-23 18:07:32.209927,42.68,41.098709,-0.0027359787006383035,-0.023280723622328886,0.09705279702197278,44.11764879391193,-100.26678939585686,80.21211738781929
2024-09-23 18:07:32.221917,42.68,41.098709,-0.0027359787006383035,-0.023280723622328886,0.09705279702197278,44.11764879391193,-100.26678939585686,80.21211738781929
2024-09-23 18:07:32.253914,42.68,41.098761,-0.0030344509719951677,-0.023330473146428877,0.09705279702197278,44.11764879391193,-100.26678939585686,80.21211738781929
2024-09-23 18:07:32.265024,42.68,41.098761,-0.0030344509719951677,-0.023330473146428877,0.0973015264147526,40.106058693909645,-96.25519929585457,80.21211738781929
2024-09-23 18:07:32.308101,42.68,41.098856,-0.0028354659767690416,-0.023280723622328886,0.09740101331113918,40.106058693909645,-96.25519929585457,80.21211738781929
2024-09-23 18:07:32.350168,42.68,41.098856,-0.0028354659767690416,-0.023280723622328886,0.09740101331113918,40.106058693909645,-88.23529758782387,80.21211738781929
2024-09-23 18:07:32.361923,42.68,41.098907,-0.0033329230534799477,-0.02303200030545576,0.09685382322919964,40.106058693909645,-88.23529758782387,80.21211738781929
2024-09-23 18:07:32.406038,42.68,41.098958,-0.0034324103296106863,-0.02293251340906919,0.09685382322919964,36.09446859390736,-84.22370748782159,76.200527287817
2024-09-23 18:07:32.448175,42.68,41.098958,-0.0034324103296106863,-0.02293251340906919,0.09690356060148622,44.11764879391193,-84.22370748782159,76.200527287817
2024-09-23 18:07:32.459073,42.68,41.099009,-0.002785727465249955,-0.02293251340906919,0.09690356060148622,44.11764879391193,-88.23529758782387,80.21211738781929
2024-09-23 18:07:32.501600,42.68,41.099009,-0.002785727465249955,-0.02313149783467906,0.09665483728461309,36.09446859390736,-96.25519929585457,80.21211738781929
2024-09-23 18:07:32.513472,42.68,41.099099,-0.002785727465249955,-0.02313149783467906,0.09665483728461309,36.09446859390736,-96.25519929585457,80.21211738781929
2024-09-23 18:07:32.545655,42.68,41.099099,-0.0027359787006383035,-0.02313149783467906,0.09665483728461309,36.09446859390736,-96.25519929585457,80.21211738781929
2024-09-23 18:07:32.556870,42.68,41.099099,-0.0027359787006383035,-0.02313149783467906,0.09789846602079214,40.106058693909645,-96.25519929585457,76.200527287817
2024-09-23 18:07:32.599226,42.68,41.09915,-0.002586742470023829,-0.02313149783467906,0.09710254654607277,48.12595698684454,-96.25519929585457,76.200527287817
2024-09-23 18:07:32.611404,42.68,41.09915,-0.002586742470023829,-0.02313149783467906,0.09710254654607277,48.12595698684454,-92.24360919585227,76.200527287817
2024-09-23 18:07:32.643759,42.39,41.099201,-0.002586742470023829,-0.02313149783467906,0.09710254654607277,48.12595698684454,-92.24360919585227,76.200527287817
2024-09-23 18:07:32.655542,42.39,41.099201,-0.0029847020175114316,-0.023827930413011865,0.0966050877605131,48.12595698684454,-92.24360919585227,76.200527287817
2024-09-23 18:07:32.698148,42.39,41.099252,-0.003233425524256645,-0.02352945757203875,0.09685382322919964,48.12595698684454,-92.24360919585227,76.200527287817
2024-09-23 18:07:32.740259,42.39,41.099252,-0.003233425524256645,-0.02352945757203875,0.09685382322919964,48.12595698684454,-100.26678939585686,76.200527287817
2024-09-23 18:07:32.752462,42.39,41.099302,-0.0029349636958644295,-0.022833026512682618,0.09685382322919964,48.12595698684454,-100.26678939585686,76.200527287817
2024-09-23 18:07:32.795357,42.39,41.099353,-0.0029349636958644295,-0.022833026512682618,0.09695331012558621,44.11764879391193,-92.24360919585227,72.1922225099802
2024-09-23 18:07:32.806997,42.39,41.099353,-0.0032831742888682963,-0.022833026512682618,0.09695331012558621,44.11764879391193,-92.24360919585227,72.1922225099802
2024-09-23 18:07:32.839817,42.39,41.099353,-0.0032831742888682963,-0.02308174982955575,0.09715228999426605,40.106058693909645,-92.24360919585227,72.1922225099802
2024-09-23 18:07:32.851118,42.39,41.09944,-0.0032831742888682963,-0.02308174982955575,0.09715228999426605,40.106058693909645,-96.25519929585457,64.16903547978401
2024-09-23 18:07:32.894650,42.39,41.09944,-0.0034324103296106863,-0.02338022115155219,0.09755024973162574,44.11764879391193,-100.26678939585686,76.200527287817
2024-09-23 18:07:32.936533,42.39,41.099492,-0.0030344509719951677,-0.023280723622328886,0.09755024973162574,44.11764879391193,-100.26678939585686,76.200527287817
2024-09-23 18:07:32.947564,42.39,41.099492,-0.0030344509719951677,-0.023280723622328886,0.09640611396773996,32.08287849390507,-104.27510100388527,76.200527287817
2024-09-23 18:07:32.989450,42.39,41.099543,-0.0031339382481259063,-0.023181236725942318,0.09750050628343246,32.08287849390507,-104.27510100388527,80.21211738781929
2024-09-23 18:07:33.001819,42.39,41.099543,-0.0031339382481259063,-0.023181236725942318,0.09750050628343246,40.106058693909645,-104.27510100388527,80.21211738781929
2024-09-23 18:07:33.087072,42.39,41.099594,-0.0029349636958644295,-0.02338022115155219,0.09750050628343246,40.106058693909645,-96.25519929585457,84.22370748782159
2024-09-23 18:07:33.098733,42.39,41.099594,-0.0029349636958644295,-0.02338022115155219,0.09779897304849887,40.106058693909645,-96.25519929585457,84.22370748782159
2024-09-23 18:07:33.132607,42.39,41.099594,-0.0029349636958644295,-0.02338022115155219,0.09779897304849887,44.11764879391193,-100.26678939585686,72.1922225099802
2024-09-23 18:07:33.143979,42.39,41.099644,-0.003382661564999035,-0.02308174982955575,0.09779897304849887,44.11764879391193,-100.26678939585686,72.1922225099802
2024-09-23 18:07:33.187508,42.39,41.099695,-0.002586742470023829,-0.02308174982955575,0.09690356060148622,44.11764879391193,-96.25519929585457,80.21211738781929
2024-09-23 18:07:33.229613,42.39,41.099695,-0.002586742470023829,-0.023230986250042305,0.09680407370509965,44.11764879391193,-96.25519929585457,80.21211738781929
2024-09-23 18:07:33.241149,42.39,41.099781,-0.002586742470023829,-0.023230986250042305,0.09680407370509965,44.11764879391193,-96.25519929585457,72.1922225099802
2024-09-23 18:07:33.284419,42.39,41.099781,-0.002288270198666964,-0.023479709566915436,0.09720203344245934,40.106058693909645,-92.24360919585227,80.21211738781929
2024-09-23 18:07:33.327135,42.39,41.09988,-0.0030841997366068195,-0.02352945757203875,0.09720203344245934,40.106058693909645,-92.24360919585227,80.21211738781929
2024-09-23 18:07:33.338418,42.39,41.09988,-0.0030841997366068195,-0.02352945757203875,0.09705279702197278,44.11764879391193,-96.25519929585457,80.21211738781929
2024-09-23 18:07:33.381249,42.39,41.099931,-0.0019400594157910128,-0.023280723622328886,0.09745075675933246,44.11764879391193,-96.25519929585457,72.1922225099802
2024-09-23 18:07:33.425725,42.39,41.099982,-0.0019400594157910128,-0.023280723622328886,0.09745075675933246,44.11764879391193,-96.25519929585457,72.1922225099802
2024-09-23 18:07:33.436936,42.39,41.099982,-0.003482159473966507,-0.023280723622328886,0.09665483728461309,44.11764879391193,-96.25519929585457,72.1922225099802
2024-09-23 18:07:33.479356,42.39,41.100032,-0.0031339382481259063,-0.023181236725942318,0.09665483728461309,36.09446859390736,-100.26678939585686,76.200527287817
2024-09-23 18:07:33.522270,42.39,41.100032,-0.0031339382481259063,-0.023181236725942318,0.09740101331113918,44.11764879391193,-96.25519929585457,76.200527287817
2024-09-23 18:07:33.533844,42.39,41.100083,-0.002785727465249955,-0.023181236725942318,0.09740101331113918,44.11764879391193,-96.25519929585457,72.1922225099802
2024-09-23 18:07:33.576836,42.39,41.100083,-0.002785727465249955,-0.023230986250042305,0.09740101331113918,44.11764879391193,-96.25519929585457,72.1922225099802
2024-09-23 18:07:33.618973,42.39,41.100083,-0.002785727465249955,-0.023230986250042305,0.09670458680871308,44.11764879391193,-96.25519929585457,72.1922225099802
2024-09-23 18:07:33.630607,42.39,41.100171,-0.0029349636958644295,-0.023230986250042305,0.09670458680871308,44.11764879391193,-96.25519929585457,76.200527287817
2024-09-23 18:07:33.673719,42.4,41.100223,-0.0029349636958644295,-0.02313149783467906,0.09695331012558621,40.106058693909645,-92.24360919585227,76.200527287817
2024-09-23 18:07:33.716730,42.4,41.100223,-0.0034324103296106863,-0.023429960042815445,0.09675432418099966,40.106058693909645,-92.24360919585227,76.200527287817
2024-09-23 18:07:33.728479,42.4,41.100223,-0.0034324103296106863,-0.023429960042815445,0.09675432418099966,40.106058693909645,-92.24360919585227,76.200527287817
2024-09-23 18:07:33.771976,42.4,41.100274,-0.002636491424507565,-0.023280723622328886,0.09705279702197278,40.106058693909645,-92.24360919585227,76.200527287817
2024-09-23 18:07:33.814336,42.4,41.100324,-0.0030344509719951677,-0.023280723622328886,0.09705279702197278,40.106058693909645,-92.24360919585227,76.200527287817
2024-09-23 18:07:33.825991,42.4,41.100324,-0.0030344509719951677,-0.02338022115155219,0.09720203344245934,44.11764879391193,-92.24360919585227,76.200527287817
2024-09-23 18:07:33.868697,42.4,41.100417,-0.0028852147413806935,-0.023330473146428877,0.09725178296655933,44.11764879391193,-100.26678939585686,76.200527287817
2024-09-23 18:07:33.912874,42.4,41.100417,-0.0028852147413806935,-0.023330473146428877,0.09725178296655933,44.11764879391193,-92.24360919585227,76.200527287817
2024-09-23 18:07:33.924555,42.4,41.100468,-0.0032831742888682963,-0.023181236725942318,0.09725178296655933,44.11764879391193,-92.24360919585227,76.200527287817
2024-09-23 18:07:33.956918,42.4,41.100468,-0.0032831742888682963,-0.023181236725942318,0.09695331012558621,44.11764879391193,-92.24360919585227,76.200527287817
2024-09-23 18:07:33.968314,42.4,41.100519,-0.0028852147413806935,-0.023181236725942318,0.09695331012558621,40.106058693909645,-92.24360919585227,80.21211738781929
2024-09-23 18:07:34.010076,42.4,41.100519,-0.0028852147413806935,-0.02278327698858263,0.09675432418099966,36.09446859390736,-92.24360919585227,80.21211738781929
2024-09-23 18:07:34.022074,42.4,41.10061,-0.0028852147413806935,-0.02278327698858263,0.09675432418099966,36.09446859390736,-88.23529758782387,76.200527287817
2024-09-23 18:07:34.105810,42.4,41.10061,-0.0028354659767690416,-0.023728432883788564,0.09675432418099966,36.09446859390736,-88.23529758782387,76.200527287817
2024-09-23 18:07:34.117809,42.4,41.10061,-0.0028354659767690416,-0.023728432883788564,0.09705279702197278,36.09446859390736,-88.23529758782387,76.200527287817
2024-09-23 18:07:34.160963,42.4,41.100662,-0.0031339382481259063,-0.02268379009219606,0.09680407370509965,32.08287849390507,-88.23529758782387,76.200527287817
2024-09-23 18:07:34.204837,42.4,41.100712,-0.0033329230534799477,-0.02268379009219606,0.09680407370509965,32.08287849390507,-88.23529758782387,76.200527287817
2024-09-23 18:07:34.215974,42.4,41.100712,-0.0033329230534799477,-0.02352945757203875,0.0973015264147526,36.09446859390736,-88.23529758782387,76.200527287817
2024-09-23 18:07:34.258579,42.4,41.100764,-0.002785727465249955,-0.022733528983459317,0.09710254654607277,36.09446859390736,-92.24360919585227,84.22370748782159
2024-09-23 18:07:34.300959,42.4,41.100764,-0.002785727465249955,-0.022733528983459317,0.09710254654607277,40.106058693909645,-92.24360919585227,84.22370748782159
2024-09-23 18:07:34.353738,42.4,41.100814,-0.0028852147413806935,-0.022733528983459317,0.09710254654607277,40.106058693909645,-96.25519929585457,72.1922225099802
2024-09-23 18:07:34.364978,42.4,41.100814,-0.0028852147413806935,-0.02313149783467906,0.09710254654607277,40.106058693909645,-96.25519929585457,72.1922225099802
2024-09-23 18:07:34.397209,42.4,41.100814,-0.0028852147413806935,-0.02313149783467906,0.09710254654607277,48.12595698684454,-96.25519929585457,72.1922225099802
2024-09-23 18:07:34.408637,42.4,41.100905,-0.003233425524256645,-0.02303200030545576,0.09710254654607277,48.12595698684454,-88.23529758782387,84.22370748782159
2024-09-23 18:07:34.451946,42.4,41.101,-0.003233425524256645,-0.02303200030545576,0.09675432418099966,44.11764879391193,-92.24360919585227,76.200527287817
2024-09-23 18:07:34.463595,42.4,41.101,-0.0029349636958644295,-0.02303200030545576,0.09675432418099966,44.11764879391193,-92.24360919585227,76.200527287817
2024-09-23 18:07:34.495411,42.4,41.101,-0.0029349636958644295,-0.02338022115155219,0.09725178296655933,44.11764879391193,-92.24360919585227,76.200527287817
2024-09-23 18:07:34.507270,42.4,41.101052,-0.0029349636958644295,-0.02338022115155219,0.09725178296655933,44.11764879391193,-92.24360919585227,80.21211738781929
2024-09-23 18:07:34.550561,42.4,41.101052,-0.0027359787006383035,-0.02352945757203875,0.09715228999426605,40.106058693909645,-96.25519929585457,80.21211738781929
2024-09-23 18:07:34.562045,42.4,41.101052,-0.0027359787006383035,-0.02352945757203875,0.09715228999426605,40.106058693909645,-96.25519929585457,76.200527287817
2024-09-23 18:07:34.594675,42.4,41.101147,-0.002785727465249955,-0.023330473146428877,0.09715228999426605,40.106058693909645,-96.25519929585457,76.200527287817
2024-09-23 18:07:34.606094,42.4,41.101147,-0.002785727465249955,-0.023330473146428877,0.09710254654607277,36.09446859390736,-100.26678939585686,76.200527287817
2024-09-23 18:07:34.649092,42.4,41.101198,-0.0025369937054121774,-0.023728432883788564,0.09690356060148622,32.08287849390507,-100.26678939585686,68.18063240997792
2024-09-23 18:07:34.692367,42.21,41.101249,-0.0025369937054121774,-0.023728432883788564,0.09690356060148622,32.08287849390507,-96.25519929585457,76.200527287817
2024-09-23 18:07:34.704343,42.21,41.101249,-0.0028852147413806935,-0.023429960042815445,0.09685382322919964,32.08287849390507,-96.25519929585457,76.200527287817
2024-09-23 18:07:34.747287,42.21,41.1013,-0.0027359787006383035,-0.023280723622328886,0.09685382322919964,32.08287849390507,-96.25519929585457,76.200527287817
2024-09-23 18:07:34.791816,42.21,41.1013,-0.0027359787006383035,-0.023280723622328886,0.09759999317981902,40.106058693909645,-92.24360919585227,80.21211738781929
2024-09-23 18:07:34.803079,42.21,41.10135,-0.0029349636958644295,-0.023280723622328886,0.09759999317981902,40.106058693909645,-92.24360919585227,80.21211738781929
2024-09-23 18:07:34.836742,42.21,41.10135,-0.0029349636958644295,-0.023330473146428877,0.09720203344245934,40.106058693909645,-92.24360919585227,80.21211738781929
2024-09-23 18:07:34.848707,42.21,41.101439,-0.0029349636958644295,-0.023330473146428877,0.09720203344245934,40.106058693909645,-100.26678939585686,80.21211738781929
2024-09-23 18:07:34.892693,42.21,41.101439,-0.0029349636958644295,-0.02338022115155219,0.09759999317981902,40.106058693909645,-96.25519929585457,76.200527287817
2024-09-23 18:07:34.934698,42.21,41.101491,-0.0030344509719951677,-0.02338022115155219,0.09759999317981902,40.106058693909645,-96.25519929585457,76.200527287817
2024-09-23 18:07:34.987096,42.21,41.101491,-0.0030344509719951677,-0.022982261414192504,0.09710254654607277,48.12595698684454,-96.25519929585457,76.200527287817
2024-09-23 18:07:34.999090,42.21,41.101541,-0.0030344509719951677,-0.022982261414192504,0.09710254654607277,48.12595698684454,-96.25519929585457,76.200527287817
2024-09-23 18:07:35.031816,42.21,41.101541,-0.0033329230534799477,-0.02338022115155219,0.09710254654607277,48.12595698684454,-96.25519929585457,76.200527287817
2024-09-23 18:07:35.043638,42.21,41.101541,-0.0033329230534799477,-0.02338022115155219,0.0973512698629459,48.12595698684454,-96.25519929585457,72.1922225099802
2024-09-23 18:07:35.127021,42.21,41.101592,-0.0033329230534799477,-0.02338022115155219,0.0973512698629459,48.12595698684454,-96.25519929585457,72.1922225099802
2024-09-23 18:07:35.139213,42.21,41.101592,-0.0026862297461545674,-0.023181236725942318,0.09705279702197278,40.106058693909645,-92.24360919585227,72.1922225099802
2024-09-23 18:07:35.181328,42.21,41.101643,-0.0032831742888682963,-0.023927417309398437,0.09705279702197278,40.106058693909645,-92.24360919585227,84.22370748782159
2024-09-23 18:07:35.193119,42.21,41.101643,-0.0032831742888682963,-0.023927417309398437,0.09675432418099966,40.106058693909645,-92.24360919585227,84.22370748782159
2024-09-23 18:07:35.226138,42.21,41.101643,-0.0032831742888682963,-0.023927417309398437,0.09675432418099966,40.106058693909645,-96.25519929585457,84.22370748782159
2024-09-23 18:07:35.237088,42.21,41.101693,-0.0031339382481259063,-0.02313149783467906,0.0973512698629459,40.106058693909645,-96.25519929585457,80.21211738781929
2024-09-23 18:07:35.279786,42.21,41.101782,-0.0032831742888682963,-0.02313149783467906,0.0973512698629459,44.11764879391193,-92.24360919585227,80.21211738781929
2024-09-23 18:07:35.291314,42.21,41.101782,-0.0032831742888682963,-0.023181236725942318,0.0973512698629459,44.11764879391193,-92.24360919585227,80.21211738781929
2024-09-23 18:07:35.323643,42.21,41.101782,-0.0032831742888682963,-0.023181236725942318,0.09695331012558621,40.106058693909645,-92.24360919585227,80.21211738781929
2024-09-23 18:07:35.335251,42.21,41.101833,-0.0030344509719951677,-0.023181236725942318,0.09695331012558621,40.106058693909645,-92.24360919585227,76.200527287817
2024-09-23 18:07:35.377233,42.21,41.101833,-0.0030344509719951677,-0.023181236725942318,0.09745075675933246,44.11764879391193,-100.26678939585686,68.18063240997792
2024-09-23 18:07:35.389285,42.21,41.101975,-0.0030344509719951677,-0.023181236725942318,0.09745075675933246,44.11764879391193,-100.26678939585686,68.18063240997792
2024-09-23 18:07:35.421900,42.21,41.101975,-0.0029847020175114316,-0.023280723622328886,0.09745075675933246,44.11764879391193,-100.26678939585686,68.18063240997792
2024-09-23 18:07:35.433130,42.21,41.101975,-0.0029847020175114316,-0.023280723622328886,0.09675432418099966,48.12595698684454,-92.24360919585227,72.1922225099802
2024-09-23 18:07:35.475371,42.21,41.102027,-0.0030344509719951677,-0.0228827638849692,0.09640611396773996,48.12595698684454,-92.24360919585227,72.1922225099802
2024-09-23 18:07:35.486538,42.21,41.102027,-0.0030344509719951677,-0.0228827638849692,0.09640611396773996,40.106058693909645,-92.24360919585227,72.1922225099802
2024-09-23 18:07:35.519404,42.21,41.102077,-0.0030344509719951677,-0.0228827638849692,0.09640611396773996,40.106058693909645,-92.24360919585227,76.200527287817
2024-09-23 18:07:35.530575,42.21,41.102077,-0.002636491424507565,-0.023330473146428877,0.09665483728461309,48.12595698684454,-92.24360919585227,76.200527287817
2024-09-23 18:07:35.573006,42.21,41.102128,-0.0027359787006383035,-0.02338022115155219,0.09665483728461309,48.12595698684454,-100.26678939585686,72.1922225099802
2024-09-23 18:07:35.584861,42.21,41.102128,-0.0027359787006383035,-0.02338022115155219,0.09750050628343246,48.12595698684454,-100.26678939585686,72.1922225099802
2024-09-23 18:07:35.616802,42.21,41.102128,-0.0027359787006383035,-0.02338022115155219,0.09750050628343246,48.12595698684454,-88.23529758782387,72.1922225099802
2024-09-23 18:07:35.628714,42.21,41.102179,-0.0029349636958644295,-0.023181236725942318,0.09750050628343246,48.12595698684454,-88.23529758782387,84.22370748782159
2024-09-23 18:07:35.672189,42.21,41.102229,-0.0025369937054121774,-0.023181236725942318,0.09705279702197278,44.11764879391193,-92.24360919585227,84.22370748782159
2024-09-23 18:07:35.715664,42.29,41.102229,-0.0025369937054121774,-0.023579196463302005,0.09635636444363997,44.11764879391193,-92.24360919585227,84.22370748782159
2024-09-23 18:07:35.727163,42.29,41.102316,-0.0025369937054121774,-0.023579196463302005,0.09635636444363997,44.11764879391193,-88.23529758782387,72.1922225099802
2024-09-23 18:07:35.770028,42.29,41.102316,-0.0032831742888682963,-0.023778180888911878,0.09680407370509965,44.11764879391193,-96.25519929585457,72.1922225099802
2024-09-23 18:07:35.813328,42.29,41.102368,-0.0031339382481259063,-0.023181236725942318,0.09680407370509965,44.11764879391193,-96.25519929585457,72.1922225099802
2024-09-23 18:07:35.824624,42.29,41.102368,-0.0031339382481259063,-0.023181236725942318,0.09740101331113918,40.106058693909645,-100.26678939585686,72.1922225099802
2024-09-23 18:07:35.867256,42.29,41.102419,-0.0033329230534799477,-0.023181236725942318,0.09710254654607277,48.12595698684454,-100.26678939585686,80.21211738781929
2024-09-23 18:07:35.912301,42.29,41.102469,-0.0033329230534799477,-0.023181236725942318,0.09710254654607277,48.12595698684454,-96.25519929585457,76.200527287817
2024-09-23 18:07:35.924109,42.29,41.102469,-0.0028354659767690416,-0.023330473146428877,0.09690356060148622,48.12595698684454,-96.25519929585457,76.200527287817
2024-09-23 18:07:35.957274,42.29,41.102469,-0.0028354659767690416,-0.023330473146428877,0.09690356060148622,48.12595698684454,-96.25519929585457,76.200527287817
2024-09-23 18:07:35.968370,42.29,41.10252,-0.002586742470023829,-0.02338022115155219,0.09690356060148622,48.12595698684454,-92.24360919585227,80.21211738781929
2024-09-23 18:07:36.012794,42.29,41.102571,-0.002586742470023829,-0.02338022115155219,0.09784872257259886,40.106058693909645,-88.23529758782387,84.22370748782159
2024-09-23 18:07:36.023949,42.29,41.102571,-0.0030344509719951677,-0.02338022115155219,0.09784872257259886,40.106058693909645,-88.23529758782387,84.22370748782159
2024-09-23 18:07:36.055353,42.29,41.102571,-0.0030344509719951677,-0.023479709566915436,0.09670458680871308,40.106058693909645,-88.23529758782387,84.22370748782159
2024-09-23 18:07:36.066554,42.29,41.102658,-0.0030344509719951677,-0.023479709566915436,0.09670458680871308,44.11764879391193,-92.24360919585227,80.21211738781929
2024-09-23 18:07:36.160462,42.29,41.102658,-0.0029847020175114316,-0.023479709566915436,0.09670458680871308,44.11764879391193,-92.24360919585227,80.21211738781929
2024-09-23 18:07:36.203693,42.29,41.102658,-0.0029847020175114316,-0.02303200030545576,0.09725178296655933,48.12595698684454,-92.24360919585227,80.21211738781929
2024-09-23 18:07:36.214967,42.29,41.102709,-0.0029847020175114316,-0.02303200030545576,0.09725178296655933,48.12595698684454,-100.26678939585686,84.22370748782159
2024-09-23 18:07:36.257349,42.29,41.102709,-0.0028354659767690416,-0.023280723622328886,0.09710254654607277,48.12595698684454,-88.23529758782387,80.21211738781929
2024-09-23 18:07:36.300625,42.29,41.10276,-0.0028852147413806935,-0.02338022115155219,0.09710254654607277,48.12595698684454,-88.23529758782387,80.21211738781929
2024-09-23 18:07:36.312181,42.29,41.10276,-0.0028852147413806935,-0.02338022115155219,0.09745075675933246,40.106058693909645,-92.24360919585227,80.21211738781929
2024-09-23 18:07:36.355188,42.29,41.102811,-0.0031836870127375577,-0.023429960042815445,0.09650560086412653,40.106058693909645,-92.24360919585227,76.200527287817
2024-09-23 18:07:36.398196,42.29,41.102861,-0.0031836870127375577,-0.023429960042815445,0.09650560086412653,40.106058693909645,-96.25519929585457,76.200527287817
2024-09-23 18:07:36.409825,42.29,41.102861,-0.002288270198666964,-0.023429960042815445,0.09745075675933246,40.106058693909645,-96.25519929585457,76.200527287817
2024-09-23 18:07:36.452557,42.29,41.103001,-0.0025369937054121774,-0.023479709566915436,0.09745075675933246,44.11764879391193,-92.24360919585227,80.21211738781929
2024-09-23 18:07:36.496093,42.29,41.103001,-0.0025369937054121774,-0.023479709566915436,0.09680407370509965,44.11764879391193,-96.25519929585457,80.21211738781929
2024-09-23 18:07:36.507070,42.29,41.103052,-0.003233425524256645,-0.023479709566915436,0.09680407370509965,44.11764879391193,-96.25519929585457,80.21211738781929
2024-09-23 18:07:36.549797,42.29,41.103145,-0.003233425524256645,-0.023429960042815445,0.09675432418099966,44.11764879391193,-96.25519929585457,80.21211738781929
2024-09-23 18:07:36.593204,42.29,41.103145,-0.0028852147413806935,-0.023579196463302005,0.09690356060148622,44.11764879391193,-96.25519929585457,80.21211738781929
2024-09-23 18:07:36.604861,42.29,41.103145,-0.0028852147413806935,-0.023579196463302005,0.09690356060148622,40.106058693909645,-96.25519929585457,76.200527287817
2024-09-23 18:07:36.648256,42.29,41.103197,-0.0030841997366068195,-0.02303200030545576,0.09690356060148622,40.106058693909645,-96.25519929585457,76.200527287817
2024-09-23 18:07:36.690495,42.29,41.103247,-0.003382661564999035,-0.02303200030545576,0.09690356060148622,40.106058693909645,-96.25519929585457,76.200527287817
2024-09-23 18:07:36.702357,42.29,41.103247,-0.003382661564999035,-0.02308174982955575,0.09675432418099966,36.09446859390736,-96.25519929585457,76.200527287817
2024-09-23 18:07:36.745098,41.9,41.103298,-0.0032831742888682963,-0.02308174982955575,0.09720203344245934,36.09446859390736,-96.25519929585457,76.200527287817
2024-09-23 18:07:36.787639,41.9,41.103298,-0.0032831742888682963,-0.02308174982955575,0.09720203344245934,36.09446859390736,-88.23529758782387,80.21211738781929
2024-09-23 18:07:36.799000,41.9,41.103349,-0.0033329230534799477,-0.02308174982955575,0.09720203344245934,36.09446859390736,-88.23529758782387,80.21211738781929
2024-09-23 18:07:36.842225,41.9,41.103399,-0.003382661564999035,-0.02308174982955575,0.09745075675933246,36.09446859390736,-88.23529758782387,84.22370748782159
2024-09-23 18:07:36.885761,41.9,41.103399,-0.003382661564999035,-0.023479709566915436,0.09705279702197278,40.106058693909645,-88.23529758782387,84.22370748782159
2024-09-23 18:07:36.897284,41.9,41.103486,-0.003382661564999035,-0.023479709566915436,0.09705279702197278,40.106058693909645,-100.26678939585686,76.200527287817
2024-09-23 18:07:36.939851,41.9,41.103486,-0.0025369937054121774,-0.02313149783467906,0.09695331012558621,36.09446859390736,-96.25519929585457,80.21211738781929
2024-09-23 18:07:36.982842,41.9,41.103538,-0.0031836870127375577,-0.02313149783467906,0.09695331012558621,36.09446859390736,-96.25519929585457,80.21211738781929
2024-09-23 18:07:36.993943,41.9,41.103538,-0.0031836870127375577,-0.023579196463302005,0.09695331012558621,44.11764879391193,-96.25519929585457,80.21211738781929
2024-09-23 18:07:37.037202,41.9,41.103589,-0.0030344509719951677,-0.023579196463302005,0.09705279702197278,44.11764879391193,-96.25519929585457,80.21211738781929
2024-09-23 18:07:37.079275,41.9,41.103589,-0.0030344509719951677,-0.023579196463302005,0.09705279702197278,44.11764879391193,-96.25519929585457,80.21211738781929
2024-09-23 18:07:37.091271,41.9,41.10364,-0.0030344509719951677,-0.02338022115155219,0.09725178296655933,44.11764879391193,-96.25519929585457,80.21211738781929
2024-09-23 18:07:37.174650,41.9,41.10364,-0.0030344509719951677,-0.02338022115155219,0.09725178296655933,40.106058693909645,-96.25519929585457,80.21211738781929
2024-09-23 18:07:37.186036,41.9,41.10369,-0.0027359787006383035,-0.02308174982955575,0.09725178296655933,40.106058693909645,-96.25519929585457,80.21211738781929
2024-09-23 18:07:37.228876,41.9,41.10369,-0.0027359787006383035,-0.02308174982955575,0.09685382322919964,40.106058693909645,-104.27510100388527,80.21211738781929
2024-09-23 18:07:37.240425,41.9,41.103741,-0.002437506429281439,-0.02308174982955575,0.09685382322919964,40.106058693909645,-104.27510100388527,80.21211738781929
2024-09-23 18:07:37.272338,41.9,41.103741,-0.002437506429281439,-0.02362894446842532,0.09685382322919964,40.106058693909645,-104.27510100388527,80.21211738781929
2024-09-23 18:07:37.284252,41.9,41.103828,-0.002437506429281439,-0.02362894446842532,0.0970030596496862,44.11764879391193,-96.25519929585457,80.21211738781929
2024-09-23 18:07:37.378163,41.9,41.103828,-0.0026862297461545674,-0.023230986250042305,0.09715228999426605,40.106058693909645,-96.25519929585457,80.21211738781929
2024-09-23 18:07:37.422185,41.9,41.103879,-0.0026862297461545674,-0.023230986250042305,0.09715228999426605,40.106058693909645,-88.23529758782387,72.1922225099802
2024-09-23 18:07:37.433846,41.9,41.103879,-0.0031836870127375577,-0.023280723622328886,0.09725178296655933,40.106058693909645,-88.23529758782387,72.1922225099802
2024-09-23 18:07:37.475906,41.9,41.103975,-0.0031339382481259063,-0.023181236725942318,0.09725178296655933,40.106058693909645,-104.27510100388527,72.1922225099802
2024-09-23 18:07:37.517917,41.9,41.103975,-0.0031339382481259063,-0.023181236725942318,0.0973015264147526,40.106058693909645,-104.27510100388527,72.1922225099802
2024-09-23 18:07:37.529842,41.9,41.104026,-0.0033329230534799477,-0.023181236725942318,0.0973015264147526,40.106058693909645,-104.27510100388527,76.200527287817
2024-09-23 18:07:37.573742,41.9,41.104077,-0.0033329230534799477,-0.023330473146428877,0.09740101331113918,40.106058693909645,-100.26678939585686,72.1922225099802
2024-09-23 18:07:37.616715,41.9,41.104077,-0.0026862297461545674,-0.023579196463302005,0.09710254654607277,40.106058693909645,-100.26678939585686,72.1922225099802
2024-09-23 18:07:37.627921,41.9,41.104077,-0.0026862297461545674,-0.023579196463302005,0.09710254654607277,44.11764879391193,-96.25519929585457,80.21211738781929
2024-09-23 18:07:37.671490,41.9,41.104218,-0.0029847020175114316,-0.024026904205785005,0.09710254654607277,44.11764879391193,-100.26678939585686,80.21211738781929
2024-09-23 18:07:37.713562,41.9,41.10427,-0.003382661564999035,-0.024026904205785005,0.09710254654607277,44.11764879391193,-100.26678939585686,72.1922225099802
2024-09-23 18:07:37.724876,41.9,41.10427,-0.003382661564999035,-0.024076653729884996,0.09745075675933246,36.09446859390736,-100.26678939585686,72.1922225099802
2024-09-23 18:07:37.766567,41.1,41.10432,-0.0026862297461545674,-0.023479709566915436,0.09745075675933246,36.09446859390736,-96.25519929585457,72.1922225099802
2024-09-23 18:07:37.778302,41.1,41.10432,-0.0026862297461545674,-0.023479709566915436,0.09715228999426605,36.09446859390736,-96.25519929585457,72.1922225099802
2024-09-23 18:07:37.810154,41.1,41.10432,-0.0026862297461545674,-0.023479709566915436,0.09715228999426605,40.106058693909645,-96.25519929585457,72.1922225099802
2024-09-23 18:07:37.821567,41.1,41.104371,-0.0027359787006383035,-0.02303200030545576,0.09715228999426605,40.106058693909645,-96.25519929585457,76.200527287817
2024-09-23 18:07:37.863482,41.1,41.104422,-0.0027359787006383035,-0.02303200030545576,0.09740101331113918,44.11764879391193,-92.24360919585227,72.1922225099802
2024-09-23 18:07:37.875163,41.1,41.104422,-0.003233425524256645,-0.02303200030545576,0.09740101331113918,44.11764879391193,-92.24360919585227,72.1922225099802
2024-09-23 18:07:37.907730,41.1,41.104422,-0.003233425524256645,-0.02338022115155219,0.09745075675933246,44.11764879391193,-92.24360919585227,72.1922225099802
2024-09-23 18:07:37.919172,41.1,41.10451,-0.003233425524256645,-0.02338022115155219,0.09745075675933246,40.106058693909645,-92.24360919585227,80.21211738781929
2024-09-23 18:07:37.961116,41.1,41.10451,-0.0023380189632786156,-0.023230986250042305,0.09745075675933246,40.106058693909645,-92.24360919585227,80.21211738781929
2024-09-23 18:07:38.004167,41.1,41.10451,-0.0023380189632786156,-0.023230986250042305,0.09690356060148622,40.106058693909645,-92.24360919585227,80.21211738781929
2024-09-23 18:07:38.015420,41.1,41.104562,-0.002636491424507565,-0.023230986250042305,0.09690356060148622,40.106058693909645,-92.24360919585227,76.200527287817
2024-09-23 18:07:38.058340,41.1,41.104562,-0.002636491424507565,-0.023877669304275123,0.09755024973162574,40.106058693909645,-88.23529758782387,76.200527287817
2024-09-23 18:07:38.070965,41.1,41.104612,-0.002636491424507565,-0.023877669304275123,0.09755024973162574,40.106058693909645,-88.23529758782387,80.21211738781929
2024-09-23 18:07:38.104115,41.1,41.104612,-0.0026862297461545674,-0.023330473146428877,0.09755024973162574,40.106058693909645,-88.23529758782387,80.21211738781929
2024-09-23 18:07:38.115073,41.1,41.104612,-0.0026862297461545674,-0.023330473146428877,0.0973015264147526,40.106058693909645,-96.25519929585457,80.21211738781929
2024-09-23 18:07:38.200052,41.1,41.104663,-0.0029847020175114316,-0.023330473146428877,0.0973015264147526,40.106058693909645,-96.25519929585457,80.21211738781929
2024-09-23 18:07:38.211668,41.1,41.104663,-0.0029847020175114316,-0.02308174982955575,0.09750050628343246,52.137550501942634,-96.25519929585457,80.21211738781929
2024-09-23 18:07:38.254326,41.1,41.104714,-0.0020892956464054874,-0.02293251340906919,0.09750050628343246,52.137550501942634,-100.26678939585686,76.200527287817
2024-09-23 18:07:38.267146,41.1,41.104714,-0.0020892956464054874,-0.02293251340906919,0.09705279702197278,52.137550501942634,-100.26678939585686,76.200527287817
2024-09-23 18:07:38.300881,41.1,41.104804,-0.0020892956464054874,-0.02293251340906919,0.09705279702197278,40.106058693909645,-96.25519929585457,80.21211738781929
2024-09-23 18:07:38.312585,41.1,41.104804,-0.0032831742888682963,-0.02303200030545576,0.09705279702197278,40.106058693909645,-96.25519929585457,80.21211738781929
2024-09-23 18:07:38.344241,41.1,41.104804,-0.0032831742888682963,-0.02303200030545576,0.09759999317981902,40.106058693909645,-96.25519929585457,80.21211738781929
2024-09-23 18:07:38.356183,41.1,41.104855,-0.0030841997366068195,-0.02303200030545576,0.09759999317981902,28.07457030097246,-96.25519929585457,76.200527287817
2024-09-23 18:07:38.399739,41.1,41.104855,-0.0030841997366068195,-0.023778180888911878,0.09705279702197278,44.11764879391193,-92.24360919585227,76.200527287817
2024-09-23 18:07:38.411854,41.1,41.104906,-0.0030841997366068195,-0.023778180888911878,0.09705279702197278,44.11764879391193,-92.24360919585227,76.200527287817
2024-09-23 18:07:38.443733,41.1,41.104906,-0.0031836870127375577,-0.023181236725942318,0.09705279702197278,44.11764879391193,-92.24360919585227,76.200527287817
2024-09-23 18:07:38.455173,41.1,41.104906,-0.0031836870127375577,-0.023181236725942318,0.09705279702197278,44.11764879391193,-96.25519929585457,76.200527287817
2024-09-23 18:07:38.497055,41.1,41.105047,-0.0030841997366068195,-0.02367869399252531,0.0973512698629459,44.11764879391193,-96.25519929585457,76.200527287817
2024-09-23 18:07:38.509120,41.1,41.105047,-0.0030841997366068195,-0.02367869399252531,0.0973512698629459,44.11764879391193,-100.26678939585686,76.200527287817
2024-09-23 18:07:38.541780,41.1,41.105098,-0.0030841997366068195,-0.02367869399252531,0.0973512698629459,44.11764879391193,-100.26678939585686,76.200527287817
2024-09-23 18:07:38.552788,41.1,41.105098,-0.003233425524256645,-0.02362894446842532,0.09755024973162574,44.11764879391193,-100.26678939585686,76.200527287817
2024-09-23 18:07:38.595147,41.1,41.105098,-0.003233425524256645,-0.02362894446842532,0.09755024973162574,44.11764879391193,-84.22370748782159,76.200527287817
2024-09-23 18:07:38.636956,41.1,41.105098,-0.003233425524256645,-0.02362894446842532,0.09755024973162574,44.11764879391193,-84.22370748782159,84.22370748782159
2024-09-23 18:07:38.649962,41.1,41.105149,-0.0028354659767690416,-0.023579196463302005,0.09745075675933246,40.106058693909645,-84.22370748782159,84.22370748782159
2024-09-23 18:07:38.692508,41.1,41.1052,-0.0030344509719951677,-0.023579196463302005,0.09745075675933246,40.106058693909645,-88.23529758782387,80.21211738781929
2024-09-23 18:07:38.704372,41.1,41.1052,-0.0030344509719951677,-0.02308174982955575,0.0973512698629459,40.106058693909645,-88.23529758782387,80.21211738781929
2024-09-23 18:07:38.737294,41.1,41.1052,-0.0030344509719951677,-0.02308174982955575,0.0973512698629459,44.11764879391193,-92.24360919585227,80.21211738781929
2024-09-23 18:07:38.749553,41.1,41.10525,-0.003233425524256645,-0.023429960042815445,0.0973512698629459,44.11764879391193,-92.24360919585227,76.200527287817
2024-09-23 18:07:38.793245,41.32,41.105339,-0.0028354659767690416,-0.023429960042815445,0.09715228999426605,40.106058693909645,-96.25519929585457,80.21211738781929
2024-09-23 18:07:38.835111,41.32,41.105339,-0.0028354659767690416,-0.023827930413011865,0.09670458680871308,44.11764879391193,-96.25519929585457,80.21211738781929
2024-09-23 18:07:38.846058,41.32,41.10539,-0.0028354659767690416,-0.023827930413011865,0.09670458680871308,44.11764879391193,-88.23529758782387,76.200527287817
2024-09-23 18:07:38.888739,41.32,41.10539,-0.002785727465249955,-0.02352945757203875,0.09665483728461309,32.08287849390507,-96.25519929585457,80.21211738781929
2024-09-23 18:07:38.931586,41.32,41.105486,-0.0030841997366068195,-0.02352945757203875,0.09665483728461309,32.08287849390507,-96.25519929585457,80.21211738781929
2024-09-23 18:07:38.943358,41.32,41.105486,-0.0030841997366068195,-0.023877669304275123,0.09745075675933246,40.106058693909645,-96.25519929585457,80.21211738781929
2024-09-23 18:07:38.985217,41.32,41.105537,-0.0031836870127375577,-0.023280723622328886,0.09640611396773996,40.106058693909645,-96.25519929585457,76.200527287817
2024-09-23 18:07:38.997663,41.32,41.105537,-0.0031836870127375577,-0.023280723622328886,0.09640611396773996,44.11764879391193,-96.25519929585457,76.200527287817
2024-09-23 18:07:39.031336,41.32,41.105588,-0.0031836870127375577,-0.023280723622328886,0.09640611396773996,44.11764879391193,-100.26678939585686,68.18063240997792
2024-09-23 18:07:39.043050,41.32,41.105588,-0.0028852147413806935,-0.023728432883788564,0.09695331012558621,44.11764879391193,-100.26678939585686,68.18063240997792
2024-09-23 18:07:39.085129,41.32,41.105639,-0.003482159473966507,-0.023479709566915436,0.09695331012558621,40.106058693909645,-96.25519929585457,76.200527287817
2024-09-23 18:07:39.127715,41.32,41.105639,-0.003482159473966507,-0.023479709566915436,0.09705279702197278,44.11764879391193,-100.26678939585686,76.200527287817
2024-09-23 18:07:39.139060,41.32,41.105689,-0.0028852147413806935,-0.023479709566915436,0.09705279702197278,44.11764879391193,-100.26678939585686,72.1922225099802
2024-09-23 18:07:39.223358,41.32,41.105689,-0.0028852147413806935,-0.02352945757203875,0.09705279702197278,44.11764879391193,-100.26678939585686,72.1922225099802
2024-09-23 18:07:39.234623,41.32,41.105778,-0.0028852147413806935,-0.02352945757203875,0.0970030596496862,36.09446859390736,-96.25519929585457,76.200527287817
2024-09-23 18:07:39.278167,41.32,41.105778,-0.0031836870127375577,-0.022982261414192504,0.09720203344245934,32.08287849390507,-100.26678939585686,76.200527287817
2024-09-23 18:07:39.290106,41.32,41.105778,-0.0031836870127375577,-0.022982261414192504,0.09720203344245934,32.08287849390507,-100.26678939585686,76.200527287817
2024-09-23 18:07:39.321942,41.32,41.105829,-0.0028354659767690416,-0.022982261414192504,0.09720203344245934,32.08287849390507,-100.26678939585686,76.200527287817
2024-09-23 18:07:39.332965,41.32,41.105829,-0.0028354659767690416,-0.02263404056809607,0.09710254654607277,40.106058693909645,-104.27510100388527,76.200527287817
2024-09-23 18:07:39.375969,41.32,41.10588,-0.003233425524256645,-0.023280723622328886,0.0970030596496862,44.11764879391193,-104.27510100388527,76.200527287817
2024-09-23 18:07:39.418613,41.32,41.10588,-0.003233425524256645,-0.023280723622328886,0.0970030596496862,44.11764879391193,-96.25519929585457,72.1922225099802
2024-09-23 18:07:39.430156,41.32,41.105931,-0.0020395466919217514,-0.02313149783467906,0.09715228999426605,44.11764879391193,-96.25519929585457,72.1922225099802
2024-09-23 18:07:39.472572,41.32,41.106024,-0.0020395466919217514,-0.02313149783467906,0.09715228999426605,40.106058693909645,-96.25519929585457,72.1922225099802
2024-09-23 18:07:39.483661,41.32,41.106024,-0.002387757474797703,-0.023330473146428877,0.09715228999426605,40.106058693909645,-96.25519929585457,72.1922225099802
2024-09-23 18:07:39.516029,41.32,41.106024,-0.002387757474797703,-0.023330473146428877,0.09740101331113918,44.11764879391193,-96.25519929585457,72.1922225099802
2024-09-23 18:07:39.527756,41.32,41.106074,-0.0032831742888682963,-0.023330473146428877,0.09740101331113918,44.11764879391193,-96.25519929585457,72.1922225099802
2024-09-23 18:07:39.570402,41.32,41.106074,-0.0032831742888682963,-0.023181236725942318,0.09784872257259886,44.11764879391193,-96.25519929585457,80.21211738781929
2024-09-23 18:07:39.582244,41.32,41.106168,-0.0032831742888682963,-0.023181236725942318,0.09784872257259886,44.11764879391193,-96.25519929585457,80.21211738781929
2024-09-23 18:07:39.614130,41.32,41.106168,-0.0028852147413806935,-0.023181236725942318,0.09784872257259886,44.11764879391193,-96.25519929585457,80.21211738781929
2024-09-23 18:07:39.629875,41.32,41.106168,-0.0028852147413806935,-0.022833026512682618,0.0970030596496862,44.11764879391193,-104.27510100388527,72.1922225099802
2024-09-23 18:07:39.662029,41.32,41.106219,-0.0028852147413806935,-0.022833026512682618,0.0970030596496862,44.11764879391193,-104.27510100388527,72.1922225099802
2024-09-23 18:07:39.672962,41.32,41.106219,-0.002387757474797703,-0.023181236725942318,0.09720203344245934,44.11764879391193,-96.25519929585457,72.1922225099802
2024-09-23 18:07:39.714794,41.32,41.10627,-0.0031339382481259063,-0.02352945757203875,0.09720203344245934,44.11764879391193,-96.25519929585457,80.21211738781929
2024-09-23 18:07:39.726667,41.32,41.10627,-0.0031339382481259063,-0.02352945757203875,0.0973015264147526,40.106058693909645,-96.25519929585457,80.21211738781929
2024-09-23 18:07:39.759710,41.32,41.10627,-0.0031339382481259063,-0.02352945757203875,0.0973015264147526,40.106058693909645,-92.24360919585227,80.21211738781929
2024-09-23 18:07:39.770708,41.32,41.106321,-0.0031836870127375577,-0.023230986250042305,0.09740101331113918,40.106058693909645,-92.24360919585227,76.200527287817
2024-09-23 18:07:39.813330,41.6,41.106371,-0.0028354659767690416,-0.023230986250042305,0.09740101331113918,32.08287849390507,-96.25519929585457,76.200527287817
2024-09-23 18:07:39.825040,41.6,41.106371,-0.0028354659767690416,-0.022833026512682618,0.09740101331113918,32.08287849390507,-96.25519929585457,76.200527287817
2024-09-23 18:07:39.857745,41.6,41.106371,-0.0028354659767690416,-0.022833026512682618,0.09670458680871308,44.11764879391193,-96.25519929585457,76.200527287817
2024-09-23 18:07:39.869094,41.6,41.106422,-0.0030841997366068195,-0.022833026512682618,0.09670458680871308,44.11764879391193,-100.26678939585686,76.200527287817
2024-09-23 18:07:39.911173,41.6,41.106422,-0.0030841997366068195,-0.023230986250042305,0.09720203344245934,36.09446859390736,-96.25519929585457,76.200527287817
2024-09-23 18:07:39.922926,41.6,41.106509,-0.0030841997366068195,-0.023230986250042305,0.09720203344245934,36.09446859390736,-96.25519929585457,76.200527287817
2024-09-23 18:07:39.954897,41.6,41.106509,-0.0030841997366068195,-0.02303200030545576,0.09720203344245934,36.09446859390736,-96.25519929585457,76.200527287817
2024-09-23 18:07:39.966577,41.6,41.106509,-0.0030841997366068195,-0.02303200030545576,0.09665483728461309,40.106058693909645,-92.24360919585227,80.21211738781929
2024-09-23 18:07:40.009292,41.6,41.106561,-0.0035318979854855937,-0.023479709566915436,0.0976994861521123,44.11764879391193,-92.24360919585227,80.21211738781929
2024-09-23 18:07:40.021479,41.6,41.106561,-0.0035318979854855937,-0.023479709566915436,0.0976994861521123,44.11764879391193,-80.21211738781929,80.21211738781929
2024-09-23 18:07:40.053217,41.6,41.106611,-0.0035318979854855937,-0.023479709566915436,0.0976994861521123,44.11764879391193,-80.21211738781929,88.23529758782387
2024-09-23 18:07:40.064405,41.6,41.106611,-0.0030841997366068195,-0.023181236725942318,0.0973512698629459,44.11764879391193,-80.21211738781929,88.23529758782387
2024-09-23 18:07:40.108181,41.6,41.106662,-0.0029847020175114316,-0.02293251340906919,0.09759999317981902,44.11764879391193,-88.23529758782387,80.21211738781929
2024-09-23 18:07:40.151617,41.6,41.106662,-0.0029847020175114316,-0.02293251340906919,0.09759999317981902,44.11764879391193,-92.24360919585227,76.200527287817
2024-09-23 18:07:40.163447,41.6,41.106713,-0.0034324103296106863,-0.023181236725942318,0.09759999317981902,44.11764879391193,-92.24360919585227,76.200527287817
2024-09-23 18:07:40.196498,41.6,41.106713,-0.0034324103296106863,-0.023181236725942318,0.09715228999426605,44.11764879391193,-92.24360919585227,76.200527287817
2024-09-23 18:07:40.249589,41.6,41.106713,-0.0034324103296106863,-0.023181236725942318,0.09715228999426605,48.12595698684454,-96.25519929585457,72.1922225099802
2024-09-23 18:07:40.260610,41.6,41.106763,-0.0031836870127375577,-0.02338022115155219,0.09715228999426605,48.12595698684454,-96.25519929585457,72.1922225099802
2024-09-23 18:07:40.302804,41.6,41.106763,-0.0031836870127375577,-0.02338022115155219,0.0973015264147526,44.11764879391193,-100.26678939585686,72.1922225099802
2024-09-23 18:07:40.316201,41.6,41.10685,-0.0029349636958644295,-0.02338022115155219,0.0973015264147526,44.11764879391193,-100.26678939585686,72.1922225099802
2024-09-23 18:07:40.349447,41.6,41.10685,-0.0029349636958644295,-0.022982261414192504,0.0973512698629459,44.11764879391193,-100.26678939585686,72.1922225099802
2024-09-23 18:07:40.361327,41.6,41.106902,-0.0029349636958644295,-0.022982261414192504,0.0973512698629459,44.11764879391193,-100.26678939585686,72.1922225099802
2024-09-23 18:07:40.394743,41.6,41.106902,-0.0028852147413806935,-0.023280723622328886,0.0973512698629459,44.11764879391193,-100.26678939585686,72.1922225099802
2024-09-23 18:07:40.405899,41.6,41.106902,-0.0028852147413806935,-0.023280723622328886,0.09745075675933246,48.12595698684454,-100.26678939585686,76.200527287817
2024-09-23 18:07:40.448464,41.6,41.106953,-0.0031339382481259063,-0.023579196463302005,0.09740101331113918,48.12595698684454,-100.26678939585686,76.200527287817
2024-09-23 18:07:40.460528,41.6,41.106953,-0.0031339382481259063,-0.023579196463302005,0.09740101331113918,48.12595698684454,-100.26678939585686,76.200527287817
2024-09-23 18:07:40.492331,41.6,41.107046,-0.003382661564999035,-0.023579196463302005,0.09740101331113918,48.12595698684454,-100.26678939585686,76.200527287817
2024-09-23 18:07:40.544874,41.6,41.107046,-0.003382661564999035,-0.023429960042815445,0.09705279702197278,40.106058693909645,-92.24360919585227,76.200527287817
2024-09-23 18:07:40.556865,41.6,41.107097,-0.003382661564999035,-0.023429960042815445,0.09705279702197278,40.106058693909645,-92.24360919585227,76.200527287817
2024-09-23 18:07:40.589978,41.6,41.107097,-0.0024872551938930902,-0.02338022115155219,0.09705279702197278,40.106058693909645,-92.24360919585227,76.200527287817
2024-09-23 18:07:40.601965,41.6,41.107097,-0.0024872551938930902,-0.02338022115155219,0.09764974270391902,44.11764879391193,-96.25519929585457,76.200527287817
2024-09-23 18:07:40.644680,41.6,41.107148,-0.0028354659767690416,-0.02293251340906919,0.09675432418099966,40.106058693909645,-92.24360919585227,76.200527287817
2024-09-23 18:07:40.686786,41.6,41.107199,-0.0028354659767690416,-0.02293251340906919,0.09675432418099966,40.106058693909645,-92.24360919585227,76.200527287817
2024-09-23 18:07:40.699859,41.6,41.107199,-0.0029847020175114316,-0.02362894446842532,0.09715228999426605,40.106058693909645,-92.24360919585227,76.200527287817
2024-09-23 18:07:40.742401,41.6,41.107289,-0.0028852147413806935,-0.023877669304275123,0.09755024973162574,40.106058693909645,-92.24360919585227,72.1922225099802
2024-09-23 18:07:40.785753,41.6,41.107289,-0.0028852147413806935,-0.023877669304275123,0.09755024973162574,36.09446859390736,-96.25519929585457,68.18063240997792
2024-09-23 18:07:40.797351,41.6,41.107341,-0.0031836870127375577,-0.023479709566915436,0.09755024973162574,36.09446859390736,-96.25519929585457,68.18063240997792
2024-09-23 18:07:40.840059,41.79,41.107391,-0.0028852147413806935,-0.023479709566915436,0.09740101331113918,44.11764879391193,-100.26678939585686,72.1922225099802
2024-09-23 18:07:40.883421,41.79,41.107391,-0.0028852147413806935,-0.022833026512682618,0.09685382322919964,40.106058693909645,-100.26678939585686,72.1922225099802
