Ayaan's Suite
Timestamp,Sample Rate (Hz),Time,Ax,Ay,Az,Gx,Gy,Gz
2024-09-23 07:38:03.319181,0,3.328989,-0.0030344509719951677,-0.023877669304275123,0.09695331012558621,44.11764879391193,-92.24360919585227,76.200527287817
2024-09-23 07:38:03.331412,0,3.329076,-0.0030344509719951677,-0.023877669304275123,0.09695331012558621,44.11764879391193,-92.24360919585227,80.21211738781929
2024-09-23 07:38:03.363834,0,3.329076,-0.0036811340262279837,-0.023877669304275123,0.09695331012558621,44.11764879391193,-92.24360919585227,80.21211738781929
2024-09-23 07:38:03.375015,0,3.329076,-0.0036811340262279837,-0.023877669304275123,0.09690356060148622,40.106058693909645,-104.27510100388527,72.1922225099802
2024-09-23 07:38:03.417783,0,3.329127,-0.0029349636958644295,-0.023877669304275123,0.09670458680871308,44.11764879391193,-96.25519929585457,72.1922225099802
2024-09-23 07:38:03.511291,0,3.329178,-0.002785727465249955,-0.023877669304275123,0.09670458680871308,44.11764879391193,-96.25519929585457,76.200527287817
2024-09-23 07:38:03.522622,0,3.329178,-0.002785727465249955,-0.02397715620066169,0.09685382322919964,36.09446859390736,-96.25519929585457,76.200527287817
2024-09-23 07:38:03.565802,0,3.329229,-0.003631395514708897,-0.024325377046758124,0.09635636444363997,36.09446859390736,-96.25519929585457,80.21211738781929
2024-09-23 07:38:03.607785,0,3.329229,-0.003631395514708897,-0.024325377046758124,0.09635636444363997,36.09446859390736,-96.25519929585457,80.21211738781929
2024-09-23 07:38:03.618947,0,3.32928,-0.003631395514708897,-0.02397715620066169,0.09635636444363997,36.09446859390736,-96.25519929585457,80.21211738781929
2024-09-23 07:38:03.662494,0,3.32933,-0.003631395514708897,-0.02397715620066169,0.09685382322919964,36.09446859390736,-92.24360919585227,76.200527287817
2024-09-23 07:38:03.674118,0,3.32933,-0.0035318979854855937,-0.02397715620066169,0.09685382322919964,36.09446859390736,-92.24360919585227,76.200527287817
2024-09-23 07:38:03.706135,0,3.32933,-0.0035318979854855937,-0.024375126570858115,0.09680407370509965,36.09446859390736,-92.24360919585227,76.200527287817
2024-09-23 07:38:03.718931,0,3.32933,-0.0035318979854855937,-0.024375126570858115,0.09680407370509965,36.09446859390736,-92.24360919585227,84.22370748782159
2024-09-23 07:38:03.750768,0,3.329417,-0.0035318979854855937,-0.024375126570858115,0.09680407370509965,36.09446859390736,-92.24360919585227,84.22370748782159
2024-09-23 07:38:03.762174,0,3.329417,-0.0030344509719951677,-0.024275627522658133,0.0966050877605131,40.106058693909645,-92.24360919585227,84.22370748782159
2024-09-23 07:38:03.805171,0,3.329515,-0.0030841997366068195,-0.024076653729884996,0.0966050877605131,40.106058693909645,-92.24360919585227,76.200527287817
2024-09-23 07:38:03.817216,0,3.329515,-0.0030841997366068195,-0.024076653729884996,0.09710254654607277,48.12595698684454,-92.24360919585227,76.200527287817
2024-09-23 07:38:03.850047,0,3.329515,-0.0030841997366068195,-0.024076653729884996,0.09710254654607277,48.12595698684454,-96.25519929585457,76.200527287817
2024-09-23 07:38:03.861720,0,3.329566,-0.003780631555451287,-0.023778180888911878,0.09710254654607277,48.12595698684454,-96.25519929585457,72.1922225099802
2024-09-23 07:38:03.905471,0,3.329617,-0.003780631555451287,-0.023778180888911878,0.09710254654607277,48.12595698684454,-100.26678939585686,80.21211738781929
2024-09-23 07:38:03.918168,0,3.329617,-0.002785727465249955,-0.02412639262114825,0.09710254654607277,48.12595698684454,-100.26678939585686,80.21211738781929
2024-09-23 07:38:03.950926,0,3.329617,-0.002785727465249955,-0.02412639262114825,0.09685382322919964,32.08287849390507,-108.28669110388756,68.18063240997792
2024-09-23 07:38:03.962676,0,3.329668,-0.0029349636958644295,-0.02412639262114825,0.09685382322919964,32.08287849390507,-108.28669110388756,68.18063240997792
2024-09-23 07:38:03.994854,0,3.329668,-0.0029349636958644295,-0.024275627522658133,0.09685382322919964,32.08287849390507,-108.28669110388756,68.18063240997792
2024-09-23 07:38:04.006564,0,3.329758,-0.0029349636958644295,-0.024275627522658133,0.09759999317981902,40.106058693909645,-92.24360919585227,80.21211738781929
2024-09-23 07:38:04.048234,0,3.329758,-0.0030841997366068195,-0.023877669304275123,0.09675432418099966,40.106058693909645,-92.24360919585227,80.21211738781929
2024-09-23 07:38:04.059805,0,3.329758,-0.0030841997366068195,-0.023877669304275123,0.09675432418099966,36.09446859390736,-96.25519929585457,80.21211738781929
2024-09-23 07:38:04.103520,0,3.32981,-0.0034324103296106863,-0.023877669304275123,0.09725178296655933,44.11764879391193,-104.27510100388527,80.21211738781929
2024-09-23 07:38:04.148186,0,3.32986,-0.003233425524256645,-0.02412639262114825,0.09690356060148622,44.11764879391193,-104.27510100388527,68.18063240997792
2024-09-23 07:38:04.160394,0,3.32986,-0.003233425524256645,-0.02412639262114825,0.09690356060148622,36.09446859390736,-104.27510100388527,68.18063240997792
2024-09-23 07:38:04.192067,0,3.32986,-0.003233425524256645,-0.02412639262114825,0.09690356060148622,36.09446859390736,-100.26678939585686,72.1922225099802
2024-09-23 07:38:04.203421,0,3.329911,-0.003233425524256645,-0.023877669304275123,0.09650560086412653,36.09446859390736,-100.26678939585686,72.1922225099802
2024-09-23 07:38:04.245029,0,3.329962,-0.0033329230534799477,-0.023877669304275123,0.09650560086412653,36.09446859390736,-96.25519929585457,80.21211738781929
2024-09-23 07:38:04.257063,0,3.329962,-0.0033329230534799477,-0.023927417309398437,0.09650560086412653,36.09446859390736,-96.25519929585457,80.21211738781929
2024-09-23 07:38:04.289017,44.37,3.329962,-0.0033329230534799477,-0.023927417309398437,0.09715228999426605,36.09446859390736,-96.25519929585457,80.21211738781929
2024-09-23 07:38:04.300541,44.37,3.330012,-0.0033329230534799477,-0.023927417309398437,0.09715228999426605,36.09446859390736,-100.26678939585686,76.200527287817
2024-09-23 07:38:04.343822,44.37,3.330012,-0.0033329230534799477,-0.024176140626271565,0.09695331012558621,28.07457030097246,-100.26678939585686,80.21211738781929
2024-09-23 07:38:04.355491,44.37,3.3301,-0.0033329230534799477,-0.024176140626271565,0.09695331012558621,28.07457030097246,-100.26678939585686,80.21211738781929
2024-09-23 07:38:04.388353,44.37,3.3301,-0.002636491424507565,-0.02338022115155219,0.09665483728461309,28.07457030097246,-100.26678939585686,80.21211738781929
2024-09-23 07:38:04.399901,44.37,3.3301,-0.002636491424507565,-0.02338022115155219,0.09665483728461309,32.08287849390507,-100.26678939585686,72.1922225099802
2024-09-23 07:38:04.442534,44.37,3.330151,-0.003233425524256645,-0.023778180888911878,0.09695331012558621,44.11764879391193,-96.25519929585457,72.1922225099802
2024-09-23 07:38:04.485383,44.37,3.330202,-0.0029847020175114316,-0.023778180888911878,0.09695331012558621,44.11764879391193,-96.25519929585457,72.1922225099802
2024-09-23 07:38:04.496704,44.37,3.330202,-0.0029847020175114316,-0.02397715620066169,0.09680407370509965,40.106058693909645,-96.25519929585457,72.1922225099802
2024-09-23 07:38:04.540067,44.37,3.330252,-0.0034324103296106863,-0.023579196463302005,0.09715228999426605,40.106058693909645,-96.25519929585457,76.200527287817
2024-09-23 07:38:04.581945,44.37,3.330252,-0.0034324103296106863,-0.023579196463302005,0.09715228999426605,44.11764879391193,-100.26678939585686,76.200527287817
2024-09-23 07:38:04.592953,44.37,3.330303,-0.0035318979854855937,-0.023877669304275123,0.09715228999426605,44.11764879391193,-100.26678939585686,76.200527287817
2024-09-23 07:38:04.636351,44.37,3.330354,-0.0033329230534799477,-0.023877669304275123,0.0973015264147526,36.09446859390736,-96.25519929585457,76.200527287817
2024-09-23 07:38:04.729777,44.37,3.330354,-0.0033329230534799477,-0.02412639262114825,0.0970030596496862,44.11764879391193,-96.25519929585457,76.200527287817
2024-09-23 07:38:04.741905,44.37,3.330354,-0.0033329230534799477,-0.02412639262114825,0.0970030596496862,44.11764879391193,-92.24360919585227,76.200527287817
2024-09-23 07:38:04.785125,44.37,3.330441,-0.0032831742888682963,-0.024275627522658133,0.0970030596496862,40.106058693909645,-92.24360919585227,76.200527287817
2024-09-23 07:38:04.827297,44.37,3.330492,-0.0032831742888682963,-0.024275627522658133,0.0970030596496862,40.106058693909645,-100.26678939585686,76.200527287817
2024-09-23 07:38:04.838873,44.37,3.330492,-0.003482159473966507,-0.02352945757203875,0.09705279702197278,40.106058693909645,-100.26678939585686,76.200527287817
2024-09-23 07:38:04.881861,44.37,3.330543,-0.003482159473966507,-0.02457410036363125,0.09705279702197278,44.11764879391193,-100.26678939585686,76.200527287817
2024-09-23 07:38:04.925145,44.37,3.330543,-0.003482159473966507,-0.02457410036363125,0.09690356060148622,44.11764879391193,-92.24360919585227,76.200527287817
2024-09-23 07:38:04.936541,44.37,3.330594,-0.0028354659767690416,-0.02457410036363125,0.09690356060148622,44.11764879391193,-92.24360919585227,80.21211738781929
2024-09-23 07:38:04.979337,44.37,3.330687,-0.0028354659767690416,-0.024424863943144692,0.0976994861521123,40.106058693909645,-100.26678939585686,72.1922225099802
2024-09-23 07:38:05.022739,44.37,3.330687,-0.0030841997366068195,-0.024424863943144692,0.09695331012558621,40.106058693909645,-100.26678939585686,72.1922225099802
2024-09-23 07:38:05.034183,44.37,3.330687,-0.0030841997366068195,-0.024424863943144692,0.09695331012558621,40.106058693909645,-88.23529758782387,84.22370748782159
2024-09-23 07:38:05.077386,44.37,3.330783,-0.0036811340262279837,-0.02457410036363125,0.0970030596496862,44.11764879391193,-96.25519929585457,84.22370748782159
2024-09-23 07:38:05.120234,44.37,3.330834,-0.0036811340262279837,-0.02457410036363125,0.0970030596496862,44.11764879391193,-96.25519929585457,84.22370748782159
2024-09-23 07:38:05.132072,44.37,3.330834,-0.0033329230534799477,-0.023877669304275123,0.09725178296655933,40.106058693909645,-96.25519929585457,84.22370748782159
2024-09-23 07:38:05.165595,44.37,3.330834,-0.0033329230534799477,-0.023877669304275123,0.09725178296655933,40.106058693909645,-104.27510100388527,84.22370748782159
2024-09-23 07:38:05.176742,44.37,3.330885,-0.002785727465249955,-0.023728432883788564,0.09740101331113918,40.106058693909645,-104.27510100388527,80.21211738781929
2024-09-23 07:38:05.218817,44.37,3.330936,-0.002785727465249955,-0.023728432883788564,0.09740101331113918,48.12595698684454,-100.26678939585686,76.200527287817
2024-09-23 07:38:05.230169,44.37,3.330936,-0.0029847020175114316,-0.024474613467244683,0.09740101331113918,48.12595698684454,-100.26678939585686,76.200527287817
2024-09-23 07:38:05.262275,44.37,3.330936,-0.0029847020175114316,-0.024474613467244683,0.09680407370509965,48.12595698684454,-100.26678939585686,76.200527287817
2024-09-23 07:38:05.273874,44.37,3.330987,-0.0029349636958644295,-0.024474613467244683,0.09680407370509965,40.106058693909645,-92.24360919585227,76.200527287817
2024-09-23 07:38:05.316614,42.14,3.330987,-0.0029349636958644295,-0.024076653729884996,0.0970030596496862,32.08287849390507,-100.26678939585686,76.200527287817
2024-09-23 07:38:05.328611,42.14,3.331075,-0.0029349636958644295,-0.024076653729884996,0.0970030596496862,32.08287849390507,-100.26678939585686,76.200527287817
2024-09-23 07:38:05.361750,42.14,3.331075,-0.0029847020175114316,-0.02457410036363125,0.0970030596496862,32.08287849390507,-100.26678939585686,76.200527287817
2024-09-23 07:38:05.373871,42.14,3.331075,-0.0029847020175114316,-0.02457410036363125,0.09745075675933246,32.08287849390507,-100.26678939585686,76.200527287817
2024-09-23 07:38:05.417453,42.14,3.331126,-0.002785727465249955,-0.02362894446842532,0.09745075675933246,40.106058693909645,-96.25519929585457,80.21211738781929
2024-09-23 07:38:05.460958,42.14,3.331126,-0.002785727465249955,-0.02362894446842532,0.0970030596496862,44.11764879391193,-100.26678939585686,80.21211738781929
2024-09-23 07:38:05.472460,42.14,3.331177,-0.0029349636958644295,-0.02362894446842532,0.0970030596496862,44.11764879391193,-100.26678939585686,72.1922225099802
2024-09-23 07:38:05.516081,42.14,3.331227,-0.0029349636958644295,-0.023778180888911878,0.09690356060148622,40.106058693909645,-92.24360919585227,76.200527287817
2024-09-23 07:38:05.557757,42.14,3.331227,-0.002785727465249955,-0.023579196463302005,0.09675432418099966,40.106058693909645,-92.24360919585227,76.200527287817
2024-09-23 07:38:05.569068,42.14,3.331227,-0.002785727465249955,-0.023579196463302005,0.09675432418099966,40.106058693909645,-88.23529758782387,76.200527287817
2024-09-23 07:38:05.652161,42.14,3.331278,-0.002785727465249955,-0.023579196463302005,0.09675432418099966,40.106058693909645,-88.23529758782387,76.200527287817
2024-09-23 07:38:05.664236,42.14,3.331278,-0.002636491424507565,-0.02397715620066169,0.09725178296655933,40.106058693909645,-84.22370748782159,76.200527287817
2024-09-23 07:38:05.758864,42.14,3.331368,-0.0030841997366068195,-0.024026904205785005,0.09695331012558621,36.09446859390736,-84.22370748782159,84.22370748782159
2024-09-23 07:38:05.802574,42.14,3.331419,-0.0030841997366068195,-0.024026904205785005,0.09695331012558621,36.09446859390736,-92.24360919585227,84.22370748782159
2024-09-23 07:38:05.813806,42.14,3.331419,-0.0032831742888682963,-0.024026904205785005,0.09685382322919964,36.09446859390736,-92.24360919585227,84.22370748782159
2024-09-23 07:38:05.856250,42.14,3.331419,-0.0032831742888682963,-0.024026904205785005,0.09685382322919964,32.08287849390507,-88.23529758782387,80.21211738781929
2024-09-23 07:38:05.898367,42.14,3.33147,-0.0027359787006383035,-0.024026904205785005,0.09685382322919964,32.08287849390507,-88.23529758782387,80.21211738781929
2024-09-23 07:38:05.910496,42.14,3.33147,-0.0027359787006383035,-0.024026904205785005,0.09605789160266685,28.07457030097246,-96.25519929585457,80.21211738781929
2024-09-23 07:38:05.953866,42.14,3.331521,-0.003631395514708897,-0.02397715620066169,0.09695331012558621,36.09446859390736,-96.25519929585457,72.1922225099802
2024-09-23 07:38:05.997173,42.14,3.331708,-0.003631395514708897,-0.02397715620066169,0.09695331012558621,36.09446859390736,-100.26678939585686,72.1922225099802
2024-09-23 07:38:06.008850,42.14,3.331708,-0.0032831742888682963,-0.024176140626271565,0.09755024973162574,36.09446859390736,-100.26678939585686,72.1922225099802
2024-09-23 07:38:06.051641,42.14,3.33176,-0.0029847020175114316,-0.023827930413011865,0.09755024973162574,44.11764879391193,-92.24360919585227,80.21211738781929
2024-09-23 07:38:06.093381,42.14,3.33176,-0.0029847020175114316,-0.023827930413011865,0.09705279702197278,36.09446859390736,-92.24360919585227,80.21211738781929
2024-09-23 07:38:06.104545,42.14,3.331811,-0.002785727465249955,-0.023827930413011865,0.09705279702197278,36.09446859390736,-96.25519929585457,68.18063240997792
2024-09-23 07:38:06.146336,42.14,3.331811,-0.002785727465249955,-0.02367869399252531,0.09670458680871308,40.106058693909645,-96.25519929585457,68.18063240997792
2024-09-23 07:38:06.159352,42.14,3.331903,-0.002785727465249955,-0.02367869399252531,0.09670458680871308,40.106058693909645,-96.25519929585457,84.22370748782159
2024-09-23 07:38:06.191719,42.14,3.331903,-0.0034324103296106863,-0.02362894446842532,0.09670458680871308,40.106058693909645,-96.25519929585457,84.22370748782159
2024-09-23 07:38:06.203717,42.14,3.331903,-0.0034324103296106863,-0.02362894446842532,0.09779897304849887,36.09446859390736,-100.26678939585686,80.21211738781929
2024-09-23 07:38:06.246674,42.14,3.331955,-0.0030841997366068195,-0.023877669304275123,0.0970030596496862,36.09446859390736,-92.24360919585227,80.21211738781929
2024-09-23 07:38:06.288831,42.14,3.332006,-0.0030841997366068195,-0.023877669304275123,0.0970030596496862,36.09446859390736,-92.24360919585227,72.1922225099802
2024-09-23 07:38:06.301085,42.14,3.332006,-0.0031836870127375577,-0.024076653729884996,0.09710254654607277,36.09446859390736,-92.24360919585227,72.1922225099802
2024-09-23 07:38:06.344347,40.74,3.332056,-0.0034324103296106863,-0.024225890150371555,0.09620712802315341,36.09446859390736,-96.25519929585457,72.1922225099802
2024-09-23 07:38:06.387368,40.74,3.332056,-0.0034324103296106863,-0.024225890150371555,0.09620712802315341,44.11764879391193,-88.23529758782387,76.200527287817
2024-09-23 07:38:06.398726,40.74,3.332107,-0.0031339382481259063,-0.024474613467244683,0.09620712802315341,44.11764879391193,-88.23529758782387,76.200527287817
2024-09-23 07:38:06.441713,40.74,3.332157,-0.0032831742888682963,-0.024474613467244683,0.09675432418099966,44.11764879391193,-96.25519929585457,76.200527287817
2024-09-23 07:38:06.483432,40.74,3.332157,-0.0032831742888682963,-0.02397715620066169,0.09645586349183995,44.11764879391193,-96.25519929585457,76.200527287817
2024-09-23 07:38:06.494535,40.74,3.332245,-0.0032831742888682963,-0.02397715620066169,0.09645586349183995,40.106058693909645,-96.25519929585457,76.200527287817
2024-09-23 07:38:06.536877,40.74,3.332245,-0.0028354659767690416,-0.024225890150371555,0.09670458680871308,44.11764879391193,-96.25519929585457,76.200527287817
2024-09-23 07:38:06.549108,40.74,3.332245,-0.0028354659767690416,-0.024225890150371555,0.09670458680871308,44.11764879391193,-96.25519929585457,80.21211738781929
2024-09-23 07:38:06.582386,40.74,3.332296,-0.0031339382481259063,-0.02397715620066169,0.09670458680871308,44.11764879391193,-96.25519929585457,80.21211738781929
2024-09-23 07:38:06.593995,40.74,3.332296,-0.0031339382481259063,-0.02397715620066169,0.09675432418099966,40.106058693909645,-92.24360919585227,80.21211738781929
2024-09-23 07:38:06.636485,40.74,3.332347,-0.0029349636958644295,-0.023579196463302005,0.09635636444363997,40.106058693909645,-92.24360919585227,76.200527287817
2024-09-23 07:38:06.679386,40.74,3.332397,-0.0029349636958644295,-0.023579196463302005,0.09635636444363997,40.106058693909645,-100.26678939585686,76.200527287817
2024-09-23 07:38:06.693967,40.74,3.332397,-0.003233425524256645,-0.024176140626271565,0.09655535038822652,40.106058693909645,-100.26678939585686,76.200527287817
2024-09-23 07:38:06.777755,40.74,3.332397,-0.003233425524256645,-0.024176140626271565,0.09655535038822652,32.08287849390507,-96.25519929585457,80.21211738781929
2024-09-23 07:38:06.789227,40.74,3.332448,-0.002586742470023829,-0.024524361472367997,0.09655535038822652,32.08287849390507,-96.25519929585457,80.21211738781929
2024-09-23 07:38:06.833023,40.74,3.332448,-0.002586742470023829,-0.024524361472367997,0.09680407370509965,28.07457030097246,-104.27510100388527,76.200527287817
2024-09-23 07:38:06.875205,40.74,3.332499,-0.0032831742888682963,-0.024225890150371555,0.09680407370509965,28.07457030097246,-104.27510100388527,76.200527287817
2024-09-23 07:38:06.886526,40.74,3.332499,-0.0032831742888682963,-0.024225890150371555,0.09715228999426605,48.12595698684454,-96.25519929585457,76.200527287817
2024-09-23 07:38:06.928993,40.74,3.332586,-0.0031836870127375577,-0.024424863943144692,0.09635636444363997,28.07457030097246,-96.25519929585457,76.200527287817
2024-09-23 07:38:06.971565,40.74,3.332637,-0.0031836870127375577,-0.024424863943144692,0.09635636444363997,28.07457030097246,-100.26678939585686,80.21211738781929
2024-09-23 07:38:06.982749,40.74,3.332637,-0.0030841997366068195,-0.024076653729884996,0.09670458680871308,28.07457030097246,-100.26678939585686,80.21211738781929
2024-09-23 07:38:07.025365,40.74,3.332733,-0.0033329230534799477,-0.02397715620066169,0.09670458680871308,28.07457030097246,-100.26678939585686,84.22370748782159
2024-09-23 07:38:07.068604,40.74,3.332733,-0.0033329230534799477,-0.02397715620066169,0.09720203344245934,32.08287849390507,-100.26678939585686,84.22370748782159
2024-09-23 07:38:07.080728,40.74,3.332784,-0.0037308827908396356,-0.02397715620066169,0.09720203344245934,32.08287849390507,-104.27510100388527,80.21211738781929
2024-09-23 07:38:07.123705,40.74,3.332878,-0.0037308827908396356,-0.023827930413011865,0.09705279702197278,40.106058693909645,-92.24360919585227,76.200527287817
2024-09-23 07:38:07.165781,40.74,3.332878,-0.0031339382481259063,-0.023927417309398437,0.09705279702197278,40.106058693909645,-92.24360919585227,76.200527287817
2024-09-23 07:38:07.176869,40.74,3.332878,-0.0031339382481259063,-0.023927417309398437,0.09695331012558621,40.106058693909645,-96.25519929585457,76.200527287817
2024-09-23 07:38:07.219695,40.74,3.33293,-0.0030841997366068195,-0.023927417309398437,0.09675432418099966,36.09446859390736,-96.25519929585457,76.200527287817
2024-09-23 07:38:07.231380,40.74,3.33293,-0.0030841997366068195,-0.023927417309398437,0.09675432418099966,36.09446859390736,-96.25519929585457,76.200527287817
2024-09-23 07:38:07.263224,40.74,3.332981,-0.0030841997366068195,-0.023927417309398437,0.09675432418099966,36.09446859390736,-96.25519929585457,76.200527287817
2024-09-23 07:38:07.274544,40.74,3.332981,-0.003233425524256645,-0.02397715620066169,0.09705279702197278,36.09446859390736,-96.25519929585457,76.200527287817
2024-09-23 07:38:07.316551,40.74,3.333031,-0.0030841997366068195,-0.024026904205785005,0.09705279702197278,36.09446859390736,-92.24360919585227,84.22370748782159
2024-09-23 07:38:07.328642,40.74,3.333031,-0.0030841997366068195,-0.024026904205785005,0.09715228999426605,36.09446859390736,-92.24360919585227,84.22370748782159
2024-09-23 07:38:07.360727,40.64,3.333031,-0.0030841997366068195,-0.024026904205785005,0.09715228999426605,36.09446859390736,-96.25519929585457,84.22370748782159
2024-09-23 07:38:07.372052,40.64,3.333082,-0.003233425524256645,-0.02397715620066169,0.09715228999426605,36.09446859390736,-96.25519929585457,84.22370748782159
2024-09-23 07:38:07.413943,40.64,3.333133,-0.003233425524256645,-0.02397715620066169,0.09690356060148622,36.09446859390736,-100.26678939585686,76.200527287817
2024-09-23 07:38:07.425559,40.64,3.333133,-0.0030344509719951677,-0.02397715620066169,0.09690356060148622,36.09446859390736,-100.26678939585686,76.200527287817
2024-09-23 07:38:07.458126,40.64,3.333133,-0.0030344509719951677,-0.02367869399252531,0.09690356060148622,36.09446859390736,-100.26678939585686,76.200527287817
2024-09-23 07:38:07.469078,40.64,3.33322,-0.0030344509719951677,-0.02367869399252531,0.09755024973162574,44.11764879391193,-96.25519929585457,80.21211738781929
2024-09-23 07:38:07.563348,40.64,3.33322,-0.0029847020175114316,-0.024176140626271565,0.09670458680871308,36.09446859390736,-92.24360919585227,76.200527287817
2024-09-23 07:38:07.606537,40.64,3.333271,-0.0031836870127375577,-0.024026904205785005,0.09670458680871308,36.09446859390736,-92.24360919585227,76.200527287817
2024-09-23 07:38:07.618364,40.64,3.333271,-0.0031836870127375577,-0.024026904205785005,0.0973015264147526,32.08287849390507,-100.26678939585686,76.200527287817
2024-09-23 07:38:07.660637,40.64,3.333322,-0.0034324103296106863,-0.024275627522658133,0.09710254654607277,32.08287849390507,-100.26678939585686,80.21211738781929
2024-09-23 07:38:07.703408,40.64,3.333322,-0.0034324103296106863,-0.024275627522658133,0.09710254654607277,36.09446859390736,-104.27510100388527,76.200527287817
2024-09-23 07:38:07.715418,40.64,3.333372,-0.0031339382481259063,-0.023579196463302005,0.09710254654607277,36.09446859390736,-104.27510100388527,76.200527287817
2024-09-23 07:38:07.798810,40.64,3.333372,-0.0031339382481259063,-0.023579196463302005,0.09710254654607277,36.09446859390736,-104.27510100388527,76.200527287817
2024-09-23 07:38:07.851606,40.64,3.333423,-0.0037308827908396356,-0.023579196463302005,0.09710254654607277,36.09446859390736,-92.24360919585227,76.200527287817
2024-09-23 07:38:07.863571,40.64,3.333423,-0.0037308827908396356,-0.024275627522658133,0.09680407370509965,36.09446859390736,-92.24360919585227,76.200527287817
2024-09-23 07:38:07.896799,40.64,3.333423,-0.0037308827908396356,-0.024275627522658133,0.09680407370509965,32.08287849390507,-96.25519929585457,76.200527287817
2024-09-23 07:38:07.908082,40.64,3.333515,-0.003482159473966507,-0.023927417309398437,0.09680407370509965,32.08287849390507,-96.25519929585457,76.200527287817
2024-09-23 07:38:07.950656,40.64,3.33361,-0.003482159473966507,-0.023927417309398437,0.09680407370509965,40.106058693909645,-92.24360919585227,80.21211738781929
2024-09-23 07:38:07.962894,40.64,3.33361,-0.002785727465249955,-0.023927417309398437,0.09680407370509965,40.106058693909645,-92.24360919585227,80.21211738781929
2024-09-23 07:38:07.996175,40.64,3.33361,-0.002785727465249955,-0.02457410036363125,0.09675432418099966,28.07457030097246,-92.24360919585227,80.21211738781929
2024-09-23 07:38:08.007678,40.64,3.333661,-0.002785727465249955,-0.02457410036363125,0.09675432418099966,28.07457030097246,-96.25519929585457,76.200527287817
2024-09-23 07:38:08.050776,40.64,3.333661,-0.003482159473966507,-0.023728432883788564,0.09650560086412653,48.12595698684454,-100.26678939585686,76.200527287817
2024-09-23 07:38:08.094550,40.64,3.333805,-0.0029349636958644295,-0.024375126570858115,0.09705279702197278,48.12595698684454,-100.26678939585686,76.200527287817
2024-09-23 07:38:08.106101,40.64,3.333805,-0.0029349636958644295,-0.024375126570858115,0.09705279702197278,36.09446859390736,-92.24360919585227,76.200527287817
2024-09-23 07:38:08.138333,40.64,3.333805,-0.0029349636958644295,-0.024375126570858115,0.09705279702197278,36.09446859390736,-92.24360919585227,80.21211738781929
2024-09-23 07:38:08.149627,40.64,3.333857,-0.0031836870127375577,-0.023827930413011865,0.0973512698629459,40.106058693909645,-92.24360919585227,80.21211738781929
2024-09-23 07:38:08.191868,40.64,3.333907,-0.002586742470023829,-0.023827930413011865,0.0973512698629459,40.106058693909645,-84.22370748782159,88.23529758782387
2024-09-23 07:38:08.203678,40.64,3.333907,-0.002586742470023829,-0.023579196463302005,0.09665483728461309,40.106058693909645,-84.22370748782159,88.23529758782387
2024-09-23 07:38:08.236109,40.64,3.333907,-0.002586742470023829,-0.023579196463302005,0.09665483728461309,36.09446859390736,-84.22370748782159,88.23529758782387
2024-09-23 07:38:08.247342,40.64,3.333958,-0.0028852147413806935,-0.024176140626271565,0.09665483728461309,36.09446859390736,-88.23529758782387,84.22370748782159
2024-09-23 07:38:08.289346,40.64,3.333958,-0.0028852147413806935,-0.024176140626271565,0.09650560086412653,40.106058693909645,-92.24360919585227,84.22370748782159
2024-09-23 07:38:08.300847,40.64,3.334009,-0.003233425524256645,-0.024176140626271565,0.09650560086412653,40.106058693909645,-92.24360919585227,84.22370748782159
2024-09-23 07:38:08.342967,40.64,3.334097,-0.003233425524256645,-0.024375126570858115,0.09685382322919964,40.106058693909645,-88.23529758782387,84.22370748782159
2024-09-23 07:38:08.385643,40.51,3.334097,-0.0032831742888682963,-0.02397715620066169,0.09715228999426605,40.106058693909645,-88.23529758782387,84.22370748782159
2024-09-23 07:38:08.397240,40.51,3.334097,-0.0032831742888682963,-0.02397715620066169,0.09715228999426605,40.106058693909645,-96.25519929585457,80.21211738781929
2024-09-23 07:38:08.441449,40.51,3.334149,-0.0030344509719951677,-0.024375126570858115,0.0973015264147526,44.11764879391193,-88.23529758782387,80.21211738781929
2024-09-23 07:38:08.483362,40.51,3.3342,-0.0035318979854855937,-0.024375126570858115,0.0973015264147526,44.11764879391193,-88.23529758782387,80.21211738781929
2024-09-23 07:38:08.494754,40.51,3.3342,-0.0035318979854855937,-0.02457410036363125,0.09650560086412653,36.09446859390736,-88.23529758782387,80.21211738781929
2024-09-23 07:38:08.537774,40.51,3.33425,-0.0032831742888682963,-0.024076653729884996,0.0970030596496862,36.09446859390736,-100.26678939585686,72.1922225099802
2024-09-23 07:38:08.580266,40.51,3.33425,-0.0032831742888682963,-0.024076653729884996,0.0970030596496862,40.106058693909645,-100.26678939585686,76.200527287817
2024-09-23 07:38:08.591245,40.51,3.334302,-0.003929857343101113,-0.024076653729884996,0.0970030596496862,40.106058693909645,-100.26678939585686,76.200527287817
2024-09-23 07:38:08.633908,40.51,3.334352,-0.003233425524256645,-0.024076653729884996,0.0970030596496862,44.11764879391193,-104.27510100388527,76.200527287817
2024-09-23 07:38:08.677247,40.51,3.334352,-0.003233425524256645,-0.024176140626271565,0.0973015264147526,44.11764879391193,-104.27510100388527,76.200527287817
2024-09-23 07:38:08.688891,40.51,3.334438,-0.003233425524256645,-0.024176140626271565,0.0973015264147526,40.106058693909645,-104.27510100388527,80.21211738781929
2024-09-23 07:38:08.731074,40.51,3.334438,-0.003382661564999035,-0.024176140626271565,0.09710254654607277,36.09446859390736,-92.24360919585227,80.21211738781929
2024-09-23 07:38:08.743115,40.51,3.334438,-0.003382661564999035,-0.024176140626271565,0.09710254654607277,36.09446859390736,-92.24360919585227,76.200527287817
2024-09-23 07:38:08.826833,40.51,3.33449,-0.003382661564999035,-0.024176140626271565,0.09710254654607277,36.09446859390736,-92.24360919585227,76.200527287817
2024-09-23 07:38:08.880028,40.51,3.33449,-0.0031836870127375577,-0.023778180888911878,0.09665483728461309,40.106058693909645,-92.24360919585227,80.21211738781929
2024-09-23 07:38:08.923941,40.51,3.334541,-0.0032831742888682963,-0.023877669304275123,0.0970030596496862,40.106058693909645,-92.24360919585227,80.21211738781929
2024-09-23 07:38:08.935925,40.51,3.334541,-0.0032831742888682963,-0.023877669304275123,0.0970030596496862,40.106058693909645,-92.24360919585227,80.21211738781929
2024-09-23 07:38:08.968550,40.51,3.334541,-0.0032831742888682963,-0.023877669304275123,0.0970030596496862,40.106058693909645,-92.24360919585227,84.22370748782159
2024-09-23 07:38:08.979599,40.51,3.334591,-0.0035816467500972456,-0.024076653729884996,0.0973512698629459,36.09446859390736,-92.24360919585227,84.22370748782159
2024-09-23 07:38:09.022269,40.51,3.334642,-0.003631395514708897,-0.024076653729884996,0.0973512698629459,36.09446859390736,-96.25519929585457,76.200527287817
2024-09-23 07:38:09.034357,40.51,3.334642,-0.003631395514708897,-0.024076653729884996,0.0962568775472534,36.09446859390736,-96.25519929585457,76.200527287817
2024-09-23 07:38:09.066842,40.51,3.334642,-0.003631395514708897,-0.024076653729884996,0.0962568775472534,36.09446859390736,-96.25519929585457,76.200527287817
2024-09-23 07:38:09.078102,40.51,3.334693,-0.0030841997366068195,-0.023579196463302005,0.0962568775472534,36.09446859390736,-96.25519929585457,76.200527287817
2024-09-23 07:38:09.121333,40.51,3.334831,-0.003382661564999035,-0.023579196463302005,0.0966050877605131,44.11764879391193,-100.26678939585686,76.200527287817
2024-09-23 07:38:09.164272,40.51,3.334831,-0.003382661564999035,-0.023728432883788564,0.09670458680871308,44.11764879391193,-100.26678939585686,76.200527287817
2024-09-23 07:38:09.176098,40.51,3.334926,-0.003382661564999035,-0.023728432883788564,0.09670458680871308,40.106058693909645,-96.25519929585457,80.21211738781929
2024-09-23 07:38:09.218927,40.51,3.334926,-0.0024872551938930902,-0.024176140626271565,0.09720203344245934,40.106058693909645,-100.26678939585686,76.200527287817
2024-09-23 07:38:09.261305,40.51,3.334977,-0.0029349636958644295,-0.024176140626271565,0.09720203344245934,40.106058693909645,-100.26678939585686,76.200527287817
2024-09-23 07:38:09.273001,40.51,3.334977,-0.0029349636958644295,-0.02412639262114825,0.09695331012558621,36.09446859390736,-100.26678939585686,76.200527287817
2024-09-23 07:38:09.316586,40.51,3.335028,-0.0035318979854855937,-0.023827930413011865,0.09645586349183995,32.08287849390507,-100.26678939585686,80.21211738781929
2024-09-23 07:38:09.358770,40.51,3.335028,-0.0035318979854855937,-0.023827930413011865,0.09645586349183995,32.08287849390507,-96.25519929585457,76.200527287817
2024-09-23 07:38:09.370468,40.51,3.335079,-0.003780631555451287,-0.023728432883788564,0.0970030596496862,32.08287849390507,-96.25519929585457,76.200527287817
2024-09-23 07:38:09.412665,40.09,3.335129,-0.0031836870127375577,-0.023728432883788564,0.0970030596496862,44.11764879391193,-104.27510100388527,76.200527287817
2024-09-23 07:38:09.424882,40.09,3.335129,-0.0031836870127375577,-0.02367869399252531,0.0970030596496862,44.11764879391193,-104.27510100388527,76.200527287817
2024-09-23 07:38:09.456880,40.09,3.335129,-0.0031836870127375577,-0.02367869399252531,0.09665483728461309,36.09446859390736,-104.27510100388527,76.200527287817
2024-09-23 07:38:09.468159,40.09,3.33518,-0.0031836870127375577,-0.02367869399252531,0.09665483728461309,36.09446859390736,-96.25519929585457,84.22370748782159
2024-09-23 07:38:09.511096,40.09,3.33518,-0.0031836870127375577,-0.024076653729884996,0.09635636444363997,40.106058693909645,-96.25519929585457,80.21211738781929
2024-09-23 07:38:09.523070,40.09,3.335267,-0.0031836870127375577,-0.024076653729884996,0.09635636444363997,40.106058693909645,-96.25519929585457,80.21211738781929
2024-09-23 07:38:09.556982,40.09,3.335267,-0.0031339382481259063,-0.024026904205785005,0.09675432418099966,40.106058693909645,-96.25519929585457,80.21211738781929
2024-09-23 07:38:09.568595,40.09,3.335267,-0.0031339382481259063,-0.024026904205785005,0.09675432418099966,40.106058693909645,-92.24360919585227,72.1922225099802
2024-09-23 07:38:09.600544,40.09,3.335319,-0.0031339382481259063,-0.024026904205785005,0.09675432418099966,40.106058693909645,-92.24360919585227,72.1922225099802
2024-09-23 07:38:09.612313,40.09,3.335319,-0.0032831742888682963,-0.023927417309398437,0.0970030596496862,36.09446859390736,-104.27510100388527,72.1922225099802
2024-09-23 07:38:09.654426,40.09,3.335369,-0.0026862297461545674,-0.023927417309398437,0.0970030596496862,36.09446859390736,-104.27510100388527,80.21211738781929
2024-09-23 07:38:09.665683,40.09,3.335369,-0.0026862297461545674,-0.023778180888911878,0.09665483728461309,40.106058693909645,-104.27510100388527,80.21211738781929
2024-09-23 07:38:09.699621,40.09,3.335369,-0.0026862297461545674,-0.023778180888911878,0.09665483728461309,40.106058693909645,-96.25519929585457,80.21211738781929
2024-09-23 07:38:09.710618,40.09,3.33542,-0.0027359787006383035,-0.02412639262114825,0.09695331012558621,40.106058693909645,-96.25519929585457,76.200527287817
2024-09-23 07:38:09.754090,40.09,3.335471,-0.0027359787006383035,-0.02412639262114825,0.09695331012558621,52.137550501942634,-92.24360919585227,80.21211738781929
2024-09-23 07:38:09.766010,40.09,3.335471,-0.0037308827908396356,-0.024225890150371555,0.09695331012558621,52.137550501942634,-92.24360919585227,80.21211738781929
2024-09-23 07:38:09.798900,40.09,3.335471,-0.0037308827908396356,-0.024225890150371555,0.09685382322919964,44.11764879391193,-92.24360919585227,80.21211738781929
2024-09-23 07:38:09.810583,40.09,3.335521,-0.0030841997366068195,-0.024225890150371555,0.09685382322919964,44.11764879391193,-96.25519929585457,80.21211738781929
2024-09-23 07:38:09.895069,40.09,3.335521,-0.0030841997366068195,-0.024176140626271565,0.09675432418099966,44.11764879391193,-96.25519929585457,80.21211738781929
2024-09-23 07:38:09.907097,40.09,3.335521,-0.0030841997366068195,-0.024176140626271565,0.09675432418099966,36.09446859390736,-100.26678939585686,76.200527287817
2024-09-23 07:38:09.949736,40.09,3.335608,-0.0033329230534799477,-0.023728432883788564,0.09740101331113918,48.12595698684454,-100.26678939585686,76.200527287817
2024-09-23 07:38:09.961652,40.09,3.335608,-0.0033329230534799477,-0.023728432883788564,0.09740101331113918,48.12595698684454,-108.28669110388756,76.200527287817
2024-09-23 07:38:09.993358,40.09,3.33566,-0.0033329230534799477,-0.023728432883788564,0.09740101331113918,48.12595698684454,-108.28669110388756,76.200527287817
2024-09-23 07:38:10.004499,40.09,3.33566,-0.0035816467500972456,-0.024275627522658133,0.09620712802315341,40.106058693909645,-108.28669110388756,76.200527287817
2024-09-23 07:38:10.047897,40.09,3.33571,-0.0031339382481259063,-0.023827930413011865,0.09715228999426605,40.106058693909645,-100.26678939585686,76.200527287817
2024-09-23 07:38:10.090226,40.09,3.33571,-0.0031339382481259063,-0.023827930413011865,0.09715228999426605,40.106058693909645,-96.25519929585457,76.200527287817
2024-09-23 07:38:10.102224,40.09,3.335761,-0.0031339382481259063,-0.02472333678411781,0.09715228999426605,40.106058693909645,-96.25519929585457,80.21211738781929
2024-09-23 07:38:10.144987,40.09,3.335854,-0.0031339382481259063,-0.02472333678411781,0.09650560086412653,36.09446859390736,-100.26678939585686,76.200527287817
2024-09-23 07:38:10.156813,40.09,3.335854,-0.0026862297461545674,-0.02472333678411781,0.09650560086412653,36.09446859390736,-100.26678939585686,76.200527287817
2024-09-23 07:38:10.189466,40.09,3.335854,-0.0026862297461545674,-0.02352945757203875,0.0973512698629459,36.09446859390736,-100.26678939585686,76.200527287817
2024-09-23 07:38:10.200718,40.09,3.33595,-0.0026862297461545674,-0.02352945757203875,0.0973512698629459,36.09446859390736,-100.26678939585686,72.1922225099802
2024-09-23 07:38:10.243801,40.09,3.33595,-0.0033329230534799477,-0.024026904205785005,0.09685382322919964,36.09446859390736,-96.25519929585457,76.200527287817
2024-09-23 07:38:10.287749,40.09,3.336001,-0.003382661564999035,-0.024225890150371555,0.09685382322919964,36.09446859390736,-96.25519929585457,76.200527287817
2024-09-23 07:38:10.299262,40.09,3.336001,-0.003382661564999035,-0.024225890150371555,0.09720203344245934,40.106058693909645,-92.24360919585227,76.200527287817
2024-09-23 07:38:10.342715,40.09,3.336052,-0.0032831742888682963,-0.023877669304275123,0.09695331012558621,36.09446859390736,-92.24360919585227,76.200527287817
2024-09-23 07:38:10.384601,40.09,3.336102,-0.0032831742888682963,-0.023877669304275123,0.09695331012558621,36.09446859390736,-92.24360919585227,84.22370748782159
2024-09-23 07:38:10.396038,40.09,3.336102,-0.0030841997366068195,-0.02412639262114825,0.09725178296655933,36.09446859390736,-92.24360919585227,84.22370748782159
2024-09-23 07:38:10.438711,40.77,3.336153,-0.0034324103296106863,-0.024275627522658133,0.09725178296655933,40.106058693909645,-92.24360919585227,84.22370748782159
2024-09-23 07:38:10.481793,40.77,3.336153,-0.0034324103296106863,-0.024275627522658133,0.0970030596496862,40.106058693909645,-100.26678939585686,84.22370748782159
2024-09-23 07:38:10.492864,40.77,3.336204,-0.003482159473966507,-0.024275627522658133,0.0970030596496862,40.106058693909645,-100.26678939585686,88.23529758782387
2024-09-23 07:38:10.535370,40.77,3.336291,-0.003482159473966507,-0.024076653729884996,0.09670458680871308,44.11764879391193,-104.27510100388527,76.200527287817
2024-09-23 07:38:10.578375,40.77,3.336291,-0.003233425524256645,-0.023827930413011865,0.09670458680871308,44.11764879391193,-104.27510100388527,76.200527287817
2024-09-23 07:38:10.589380,40.77,3.336291,-0.003233425524256645,-0.023827930413011865,0.09710254654607277,36.09446859390736,-96.25519929585457,76.200527287817
2024-09-23 07:38:10.632165,40.77,3.336342,-0.0028852147413806935,-0.024275627522658133,0.0970030596496862,36.09446859390736,-96.25519929585457,76.200527287817
2024-09-23 07:38:10.644332,40.77,3.336342,-0.0028852147413806935,-0.024275627522658133,0.0970030596496862,36.09446859390736,-96.25519929585457,76.200527287817
2024-09-23 07:38:10.677650,40.77,3.336393,-0.0029847020175114316,-0.024275627522658133,0.0970030596496862,36.09446859390736,-96.25519929585457,76.200527287817
2024-09-23 07:38:10.689096,40.77,3.336393,-0.0029847020175114316,-0.023927417309398437,0.09705279702197278,44.11764879391193,-96.25519929585457,76.200527287817
2024-09-23 07:38:10.731308,40.77,3.336444,-0.0028852147413806935,-0.023877669304275123,0.09680407370509965,44.11764879391193,-96.25519929585457,80.21211738781929
2024-09-23 07:38:10.774093,40.77,3.336444,-0.0028852147413806935,-0.023877669304275123,0.09680407370509965,44.11764879391193,-100.26678939585686,76.200527287817
2024-09-23 07:38:10.785350,40.77,3.336494,-0.0031836870127375577,-0.02457410036363125,0.09680407370509965,44.11764879391193,-100.26678939585686,76.200527287817
2024-09-23 07:38:10.868737,40.77,3.336494,-0.0031836870127375577,-0.02457410036363125,0.09755024973162574,44.11764879391193,-100.26678939585686,76.200527287817
2024-09-23 07:38:10.880666,40.77,3.336545,-0.0034324103296106863,-0.02457410036363125,0.09755024973162574,44.11764879391193,-96.25519929585457,76.200527287817
2024-09-23 07:38:10.923431,40.77,3.336545,-0.0034324103296106863,-0.02397715620066169,0.09705279702197278,40.106058693909645,-100.26678939585686,76.200527287817
2024-09-23 07:38:10.935213,40.77,3.336632,-0.0034324103296106863,-0.02397715620066169,0.09705279702197278,40.106058693909645,-100.26678939585686,76.200527287817
2024-09-23 07:38:10.967787,40.77,3.336632,-0.003979606107712764,-0.02397715620066169,0.09705279702197278,40.106058693909645,-100.26678939585686,76.200527287817
2024-09-23 07:38:10.980132,40.77,3.336632,-0.003979606107712764,-0.024026904205785005,0.0970030596496862,48.12595698684454,-88.23529758782387,76.200527287817
2024-09-23 07:38:11.023059,40.77,3.336684,-0.0031836870127375577,-0.02397715620066169,0.0970030596496862,36.09446859390736,-88.23529758782387,76.200527287817
2024-09-23 07:38:11.034891,40.77,3.336684,-0.0031836870127375577,-0.02397715620066169,0.0970030596496862,36.09446859390736,-104.27510100388527,76.200527287817
2024-09-23 07:38:11.068086,40.77,3.336734,-0.0028852147413806935,-0.023479709566915436,0.0970030596496862,36.09446859390736,-104.27510100388527,80.21211738781929
2024-09-23 07:38:11.079750,40.77,3.336734,-0.0028852147413806935,-0.023479709566915436,0.09725178296655933,40.106058693909645,-104.27510100388527,80.21211738781929
2024-09-23 07:38:11.111880,40.77,3.336734,-0.0028852147413806935,-0.023479709566915436,0.09725178296655933,40.106058693909645,-96.25519929585457,80.21211738781929
2024-09-23 07:38:11.123610,40.77,3.336829,-0.0033329230534799477,-0.024026904205785005,0.09690356060148622,40.106058693909645,-96.25519929585457,80.21211738781929
2024-09-23 07:38:11.166536,40.77,3.33688,-0.0033329230534799477,-0.024026904205785005,0.09690356060148622,44.11764879391193,-100.26678939585686,80.21211738781929
2024-09-23 07:38:11.178422,40.77,3.33688,-0.003780631555451287,-0.023927417309398437,0.09690356060148622,44.11764879391193,-100.26678939585686,80.21211738781929
2024-09-23 07:38:11.210832,40.77,3.33688,-0.003780631555451287,-0.023927417309398437,0.09710254654607277,44.11764879391193,-100.26678939585686,80.21211738781929
2024-09-23 07:38:11.222298,40.77,3.33693,-0.0030344509719951677,-0.023927417309398437,0.09710254654607277,44.11764879391193,-92.24360919585227,80.21211738781929
2024-09-23 07:38:11.264392,40.77,3.33693,-0.0030344509719951677,-0.024026904205785005,0.09695331012558621,40.106058693909645,-92.24360919585227,80.21211738781929
2024-09-23 07:38:11.275942,40.77,3.337022,-0.0030344509719951677,-0.024026904205785005,0.09695331012558621,40.106058693909645,-92.24360919585227,80.21211738781929
2024-09-23 07:38:11.309256,40.77,3.337022,-0.003482159473966507,-0.023728432883788564,0.09695331012558621,40.106058693909645,-92.24360919585227,80.21211738781929
2024-09-23 07:38:11.320453,40.77,3.337022,-0.003482159473966507,-0.023728432883788564,0.09755024973162574,36.09446859390736,-96.25519929585457,80.21211738781929
2024-09-23 07:38:11.363378,40.77,3.337074,-0.0031339382481259063,-0.023877669304275123,0.09665483728461309,52.137550501942634,-96.25519929585457,80.21211738781929
2024-09-23 07:38:11.374966,40.77,3.337074,-0.0031339382481259063,-0.023877669304275123,0.09665483728461309,52.137550501942634,-92.24360919585227,80.21211738781929
2024-09-23 07:38:11.407080,40.77,3.337124,-0.0031339382481259063,-0.023877669304275123,0.09665483728461309,52.137550501942634,-92.24360919585227,80.21211738781929
2024-09-23 07:38:11.418425,40.77,3.337124,-0.0031836870127375577,-0.02397715620066169,0.09685382322919964,40.106058693909645,-92.24360919585227,80.21211738781929
2024-09-23 07:38:11.461314,41.17,3.337175,-0.0029349636958644295,-0.023927417309398437,0.09685382322919964,40.106058693909645,-96.25519929585457,80.21211738781929
2024-09-23 07:38:11.473083,41.17,3.337175,-0.0029349636958644295,-0.023927417309398437,0.09665483728461309,40.106058693909645,-96.25519929585457,80.21211738781929
2024-09-23 07:38:11.505635,41.17,3.337175,-0.0029349636958644295,-0.023927417309398437,0.09665483728461309,36.09446859390736,-96.25519929585457,80.21211738781929
2024-09-23 07:38:11.518444,41.17,3.337226,-0.003482159473966507,-0.023728432883788564,0.09665483728461309,36.09446859390736,-96.25519929585457,80.21211738781929
2024-09-23 07:38:11.550524,41.17,3.337226,-0.003482159473966507,-0.023728432883788564,0.09759999317981902,36.09446859390736,-96.25519929585457,80.21211738781929
2024-09-23 07:38:11.562050,41.17,3.337276,-0.003382661564999035,-0.023728432883788564,0.09759999317981902,36.09446859390736,-104.27510100388527,84.22370748782159
2024-09-23 07:38:11.604429,41.17,3.337276,-0.003382661564999035,-0.024325377046758124,0.09670458680871308,32.08287849390507,-96.25519929585457,84.22370748782159
2024-09-23 07:38:11.616058,41.17,3.337363,-0.003382661564999035,-0.024325377046758124,0.09670458680871308,32.08287849390507,-96.25519929585457,84.22370748782159
2024-09-23 07:38:11.649652,41.17,3.337363,-0.002586742470023829,-0.024325377046758124,0.09670458680871308,32.08287849390507,-96.25519929585457,84.22370748782159
2024-09-23 07:38:11.660691,41.17,3.337363,-0.002586742470023829,-0.024225890150371555,0.09690356060148622,36.09446859390736,-92.24360919585227,80.21211738781929
2024-09-23 07:38:11.704805,41.17,3.337415,-0.0031339382481259063,-0.024026904205785005,0.09645586349183995,44.11764879391193,-92.24360919585227,80.21211738781929
2024-09-23 07:38:11.716117,41.17,3.337415,-0.0031339382481259063,-0.024026904205785005,0.09645586349183995,44.11764879391193,-92.24360919585227,80.21211738781929
2024-09-23 07:38:11.748078,41.17,3.337466,-0.0031339382481259063,-0.024026904205785005,0.09645586349183995,44.11764879391193,-92.24360919585227,72.1922225099802
2024-09-23 07:38:11.759682,41.17,3.337466,-0.0032831742888682963,-0.024424863943144692,0.09759999317981902,36.09446859390736,-92.24360919585227,72.1922225099802
2024-09-23 07:38:11.802813,41.17,3.337516,-0.003382661564999035,-0.024325377046758124,0.09759999317981902,36.09446859390736,-96.25519929585457,80.21211738781929
2024-09-23 07:38:11.814339,41.17,3.337516,-0.003382661564999035,-0.024325377046758124,0.09680407370509965,36.09446859390736,-96.25519929585457,80.21211738781929
2024-09-23 07:38:11.847377,41.17,3.337516,-0.003382661564999035,-0.024325377046758124,0.09680407370509965,36.09446859390736,-104.27510100388527,76.200527287817
2024-09-23 07:38:11.858426,41.17,3.337567,-0.0028354659767690416,-0.023778180888911878,0.09680407370509965,36.09446859390736,-104.27510100388527,76.200527287817
2024-09-23 07:38:11.901325,41.17,3.337567,-0.0028354659767690416,-0.023778180888911878,0.0973015264147526,40.106058693909645,-104.27510100388527,76.200527287817
2024-09-23 07:38:11.996516,41.17,3.337618,-0.0028354659767690416,-0.023778180888911878,0.0973015264147526,40.106058693909645,-100.26678939585686,76.200527287817
2024-09-23 07:38:12.010490,41.17,3.337618,-0.0029349636958644295,-0.024325377046758124,0.09675432418099966,40.106058693909645,-100.26678939585686,76.200527287817
2024-09-23 07:38:12.043930,41.17,3.337618,-0.0029349636958644295,-0.024325377046758124,0.09675432418099966,36.09446859390736,-92.24360919585227,84.22370748782159
2024-09-23 07:38:12.055212,41.17,3.337705,-0.003233425524256645,-0.024176140626271565,0.09675432418099966,36.09446859390736,-92.24360919585227,84.22370748782159
2024-09-23 07:38:12.086909,41.17,3.337705,-0.003233425524256645,-0.024176140626271565,0.09695331012558621,36.09446859390736,-92.24360919585227,84.22370748782159
2024-09-23 07:38:12.098273,41.17,3.337756,-0.0031836870127375577,-0.024176140626271565,0.09695331012558621,36.09446859390736,-96.25519929585457,84.22370748782159
2024-09-23 07:38:12.140848,41.17,3.337756,-0.0031836870127375577,-0.023728432883788564,0.09675432418099966,44.11764879391193,-92.24360919585227,84.22370748782159
2024-09-23 07:38:12.152145,41.17,3.337807,-0.0031836870127375577,-0.023728432883788564,0.09675432418099966,44.11764879391193,-92.24360919585227,76.200527287817
2024-09-23 07:38:12.184522,41.17,3.337807,-0.0031339382481259063,-0.023728432883788564,0.09675432418099966,44.11764879391193,-92.24360919585227,76.200527287817
2024-09-23 07:38:12.195982,41.17,3.337807,-0.0031339382481259063,-0.023778180888911878,0.09725178296655933,32.08287849390507,-92.24360919585227,76.200527287817
2024-09-23 07:38:12.238778,41.17,3.337949,-0.0028354659767690416,-0.024026904205785005,0.09695331012558621,32.08287849390507,-92.24360919585227,76.200527287817
2024-09-23 07:38:12.250923,41.17,3.337949,-0.0028354659767690416,-0.024026904205785005,0.09695331012558621,36.09446859390736,-100.26678939585686,76.200527287817
2024-09-23 07:38:12.283802,41.17,3.338,-0.0028354659767690416,-0.024026904205785005,0.09695331012558621,36.09446859390736,-100.26678939585686,80.21211738781929
2024-09-23 07:38:12.295309,41.17,3.338,-0.0035318979854855937,-0.02412639262114825,0.09720203344245934,40.106058693909645,-100.26678939585686,80.21211738781929
2024-09-23 07:38:12.389601,41.17,3.338051,-0.0029847020175114316,-0.023877669304275123,0.09655535038822652,40.106058693909645,-92.24360919585227,76.200527287817
2024-09-23 07:38:12.432340,41.17,3.338051,-0.0029847020175114316,-0.023877669304275123,0.09655535038822652,40.106058693909645,-96.25519929585457,80.21211738781929
2024-09-23 07:38:12.443707,41.17,3.338102,-0.0028354659767690416,-0.02352945757203875,0.09655535038822652,40.106058693909645,-96.25519929585457,80.21211738781929
2024-09-23 07:38:12.485838,41.37,3.338152,-0.0028852147413806935,-0.02352945757203875,0.0973512698629459,44.11764879391193,-96.25519929585457,76.200527287817
2024-09-23 07:38:12.527741,41.37,3.338152,-0.0028852147413806935,-0.023778180888911878,0.0973015264147526,44.11764879391193,-96.25519929585457,76.200527287817
2024-09-23 07:38:12.540446,41.37,3.338241,-0.0028852147413806935,-0.023778180888911878,0.0973015264147526,36.09446859390736,-96.25519929585457,76.200527287817
2024-09-23 07:38:12.583025,41.37,3.338241,-0.002586742470023829,-0.024026904205785005,0.09750050628343246,44.11764879391193,-104.27510100388527,68.18063240997792
2024-09-23 07:38:12.624987,41.37,3.338339,-0.0032831742888682963,-0.024026904205785005,0.09750050628343246,44.11764879391193,-104.27510100388527,68.18063240997792
2024-09-23 07:38:12.636610,41.37,3.338339,-0.0032831742888682963,-0.024623849887731242,0.09680407370509965,44.11764879391193,-100.26678939585686,68.18063240997792
2024-09-23 07:38:12.680118,41.37,3.33839,-0.003382661564999035,-0.023778180888911878,0.09670458680871308,40.106058693909645,-100.26678939585686,76.200527287817
2024-09-23 07:38:12.724249,41.37,3.33839,-0.003382661564999035,-0.023778180888911878,0.09670458680871308,40.106058693909645,-100.26678939585686,80.21211738781929
2024-09-23 07:38:12.736007,41.37,3.338441,-0.0031339382481259063,-0.023927417309398437,0.09725178296655933,40.106058693909645,-100.26678939585686,80.21211738781929
2024-09-23 07:38:12.777876,41.37,3.338492,-0.0031339382481259063,-0.023827930413011865,0.09725178296655933,40.106058693909645,-92.24360919585227,76.200527287817
2024-09-23 07:38:12.820651,41.37,3.338492,-0.0031339382481259063,-0.023827930413011865,0.09715228999426605,40.106058693909645,-92.24360919585227,76.200527287817
2024-09-23 07:38:12.832172,41.37,3.338542,-0.0030841997366068195,-0.023827930413011865,0.09715228999426605,40.106058693909645,-92.24360919585227,80.21211738781929
2024-09-23 07:38:12.916666,41.37,3.338542,-0.0030841997366068195,-0.02412639262114825,0.09715228999426605,40.106058693909645,-92.24360919585227,80.21211738781929
2024-09-23 07:38:12.928592,41.37,3.338542,-0.0030841997366068195,-0.02412639262114825,0.09645586349183995,40.106058693909645,-92.24360919585227,80.21211738781929
2024-09-23 07:38:12.971787,41.37,3.338631,-0.0027359787006383035,-0.02412639262114825,0.09645586349183995,44.11764879391193,-104.27510100388527,76.200527287817
2024-09-23 07:38:12.983849,41.37,3.338631,-0.0027359787006383035,-0.02412639262114825,0.09645586349183995,44.11764879391193,-104.27510100388527,76.200527287817
2024-09-23 07:38:13.015596,41.37,3.338631,-0.0027359787006383035,-0.02412639262114825,0.09690356060148622,40.106058693909645,-104.27510100388527,76.200527287817
2024-09-23 07:38:13.026833,41.37,3.338682,-0.003382661564999035,-0.02412639262114825,0.09690356060148622,40.106058693909645,-92.24360919585227,68.18063240997792
2024-09-23 07:38:13.069403,41.37,3.338682,-0.003382661564999035,-0.024225890150371555,0.09685382322919964,40.106058693909645,-92.24360919585227,76.200527287817
2024-09-23 07:38:13.081191,41.37,3.338734,-0.003382661564999035,-0.024225890150371555,0.09685382322919964,40.106058693909645,-92.24360919585227,76.200527287817
2024-09-23 07:38:13.113012,41.37,3.338734,-0.0032831742888682963,-0.024026904205785005,0.09685382322919964,40.106058693909645,-92.24360919585227,76.200527287817
2024-09-23 07:38:13.124880,41.37,3.338734,-0.0032831742888682963,-0.024026904205785005,0.09710254654607277,40.106058693909645,-96.25519929585457,80.21211738781929
2024-09-23 07:38:13.167417,41.37,3.338784,-0.003233425524256645,-0.023827930413011865,0.09725178296655933,44.11764879391193,-96.25519929585457,80.21211738781929
2024-09-23 07:38:13.179483,41.37,3.338784,-0.003233425524256645,-0.023827930413011865,0.09725178296655933,44.11764879391193,-104.27510100388527,80.21211738781929
2024-09-23 07:38:13.211854,41.37,3.338924,-0.003233425524256645,-0.023827930413011865,0.09725178296655933,44.11764879391193,-104.27510100388527,76.200527287817
2024-09-23 07:38:13.222832,41.37,3.338924,-0.0034324103296106863,-0.023877669304275123,0.09715228999426605,44.11764879391193,-104.27510100388527,76.200527287817
2024-09-23 07:38:13.265256,41.37,3.338976,-0.0025369937054121774,-0.023877669304275123,0.09725178296655933,44.11764879391193,-96.25519929585457,84.22370748782159
2024-09-23 07:38:13.308561,41.37,3.338976,-0.0025369937054121774,-0.023877669304275123,0.09725178296655933,36.09446859390736,-104.27510100388527,84.22370748782159
2024-09-23 07:38:13.320088,41.37,3.339026,-0.0034324103296106863,-0.024275627522658133,0.09725178296655933,36.09446859390736,-104.27510100388527,84.22370748782159
2024-09-23 07:38:13.363698,41.37,3.339077,-0.0032831742888682963,-0.024275627522658133,0.09655535038822652,40.106058693909645,-96.25519929585457,72.1922225099802
2024-09-23 07:38:13.406015,41.37,3.339077,-0.0032831742888682963,-0.024076653729884996,0.09695331012558621,40.106058693909645,-96.25519929585457,72.1922225099802
2024-09-23 07:38:13.417194,41.37,3.339167,-0.0032831742888682963,-0.024076653729884996,0.09695331012558621,36.09446859390736,-104.27510100388527,76.200527287817
2024-09-23 07:38:13.460337,41.37,3.339167,-0.003382661564999035,-0.02397715620066169,0.09779897304849887,44.11764879391193,-92.24360919585227,76.200527287817
2024-09-23 07:38:13.502399,41.27,3.339219,-0.003382661564999035,-0.02397715620066169,0.09779897304849887,44.11764879391193,-92.24360919585227,76.200527287817
2024-09-23 07:38:13.555109,41.27,3.339219,-0.003482159473966507,-0.023579196463302005,0.09695331012558621,36.09446859390736,-92.24360919585227,76.200527287817
2024-09-23 07:38:13.567097,41.27,3.339219,-0.003482159473966507,-0.023579196463302005,0.09695331012558621,36.09446859390736,-96.25519929585457,80.21211738781929
2024-09-23 07:38:13.599748,41.27,3.339269,-0.003482159473966507,-0.023579196463302005,0.09695331012558621,36.09446859390736,-96.25519929585457,80.21211738781929
2024-09-23 07:38:13.611661,41.27,3.339269,-0.0032831742888682963,-0.023479709566915436,0.09675432418099966,36.09446859390736,-96.25519929585457,80.21211738781929
2024-09-23 07:38:13.653676,41.27,3.33932,-0.0031339382481259063,-0.023479709566915436,0.09750050628343246,36.09446859390736,-96.25519929585457,88.23529758782387
2024-09-23 07:38:13.665337,41.27,3.33932,-0.0031339382481259063,-0.023479709566915436,0.09750050628343246,40.106058693909645,-96.25519929585457,88.23529758782387
2024-09-23 07:38:13.698542,41.27,3.33932,-0.0031339382481259063,-0.023479709566915436,0.09750050628343246,40.106058693909645,-96.25519929585457,84.22370748782159
2024-09-23 07:38:13.709829,41.27,3.339371,-0.0030841997366068195,-0.023877669304275123,0.09710254654607277,40.106058693909645,-96.25519929585457,84.22370748782159
2024-09-23 07:38:13.752500,41.27,3.339421,-0.003482159473966507,-0.023877669304275123,0.09710254654607277,32.08287849390507,-100.26678939585686,76.200527287817
2024-09-23 07:38:13.764249,41.27,3.339421,-0.003482159473966507,-0.02397715620066169,0.09710254654607277,32.08287849390507,-100.26678939585686,76.200527287817
2024-09-23 07:38:13.796696,41.27,3.339421,-0.003482159473966507,-0.02397715620066169,0.09650560086412653,36.09446859390736,-100.26678939585686,76.200527287817
2024-09-23 07:38:13.808505,41.27,3.339511,-0.0028852147413806935,-0.02397715620066169,0.09650560086412653,36.09446859390736,-96.25519929585457,84.22370748782159
2024-09-23 07:38:13.851466,41.27,3.339606,-0.0028852147413806935,-0.024225890150371555,0.09680407370509965,44.11764879391193,-96.25519929585457,80.21211738781929
2024-09-23 07:38:13.946303,41.27,3.339606,-0.0028354659767690416,-0.023927417309398437,0.09675432418099966,44.11764879391193,-96.25519929585457,80.21211738781929
2024-09-23 07:38:13.958196,41.27,3.339606,-0.0028354659767690416,-0.023927417309398437,0.09675432418099966,36.09446859390736,-96.25519929585457,80.21211738781929
2024-09-23 07:38:13.990634,41.27,3.339657,-0.0028354659767690416,-0.023927417309398437,0.09675432418099966,36.09446859390736,-96.25519929585457,80.21211738781929
2024-09-23 07:38:14.002197,41.27,3.339657,-0.003382661564999035,-0.024026904205785005,0.0973015264147526,44.11764879391193,-92.24360919585227,80.21211738781929
2024-09-23 07:38:14.044211,41.27,3.339708,-0.0035318979854855937,-0.02457410036363125,0.0973512698629459,44.11764879391193,-92.24360919585227,76.200527287817
2024-09-23 07:38:14.056079,41.27,3.339708,-0.0035318979854855937,-0.02457410036363125,0.0973512698629459,48.12595698684454,-92.24360919585227,76.200527287817
2024-09-23 07:38:14.089357,41.27,3.339759,-0.0035318979854855937,-0.02457410036363125,0.0973512698629459,48.12595698684454,-92.24360919585227,80.21211738781929
2024-09-23 07:38:14.101045,41.27,3.339759,-0.0030344509719951677,-0.024225890150371555,0.09705279702197278,48.12595698684454,-92.24360919585227,80.21211738781929
2024-09-23 07:38:14.143478,41.27,3.339809,-0.0034324103296106863,-0.024026904205785005,0.09705279702197278,40.106058693909645,-92.24360919585227,76.200527287817
2024-09-23 07:38:14.185880,41.27,3.339809,-0.0034324103296106863,-0.024026904205785005,0.0973512698629459,40.106058693909645,-92.24360919585227,76.200527287817
2024-09-23 07:38:14.198238,41.27,3.339901,-0.003233425524256645,-0.024026904205785005,0.0973512698629459,40.106058693909645,-96.25519929585457,80.21211738781929
2024-09-23 07:38:14.240837,41.27,3.339996,-0.003233425524256645,-0.024176140626271565,0.09695331012558621,48.12595698684454,-96.25519929585457,80.21211738781929
2024-09-23 07:38:14.283169,41.27,3.339996,-0.003482159473966507,-0.024176140626271565,0.09695331012558621,48.12595698684454,-96.25519929585457,80.21211738781929
2024-09-23 07:38:14.336314,41.27,3.340047,-0.003482159473966507,-0.024176140626271565,0.09675432418099966,36.09446859390736,-100.26678939585686,80.21211738781929
2024-09-23 07:38:14.348588,41.27,3.340047,-0.0034324103296106863,-0.024176140626271565,0.09675432418099966,36.09446859390736,-100.26678939585686,80.21211738781929
2024-09-23 07:38:14.380572,41.27,3.340047,-0.0034324103296106863,-0.02397715620066169,0.0970030596496862,36.09446859390736,-100.26678939585686,80.21211738781929
2024-09-23 07:38:14.391621,41.27,3.340098,-0.0034324103296106863,-0.02397715620066169,0.0970030596496862,40.106058693909645,-92.24360919585227,76.200527287817
2024-09-23 07:38:14.434346,41.27,3.340098,-0.0031339382481259063,-0.023927417309398437,0.09720203344245934,36.09446859390736,-100.26678939585686,76.200527287817
2024-09-23 07:38:14.446090,41.27,3.340098,-0.0031339382481259063,-0.023927417309398437,0.09720203344245934,36.09446859390736,-100.26678939585686,76.200527287817
2024-09-23 07:38:14.477994,41.27,3.340149,-0.0028852147413806935,-0.023927417309398437,0.09720203344245934,36.09446859390736,-100.26678939585686,76.200527287817
2024-09-23 07:38:14.489456,41.27,3.340149,-0.0028852147413806935,-0.023827930413011865,0.0970030596496862,32.08287849390507,-100.26678939585686,76.200527287817
2024-09-23 07:38:14.531927,41.0,3.340199,-0.0029847020175114316,-0.024225890150371555,0.09715228999426605,32.08287849390507,-100.26678939585686,80.21211738781929
2024-09-23 07:38:14.543329,41.0,3.340199,-0.0029847020175114316,-0.024225890150371555,0.09715228999426605,44.11764879391193,-100.26678939585686,80.21211738781929
2024-09-23 07:38:14.575992,41.0,3.340199,-0.0029847020175114316,-0.024225890150371555,0.09715228999426605,44.11764879391193,-100.26678939585686,80.21211738781929
2024-09-23 07:38:14.587445,41.0,3.34029,-0.0038303700669703737,-0.024076653729884996,0.0966050877605131,44.11764879391193,-100.26678939585686,80.21211738781929
2024-09-23 07:38:14.629573,41.0,3.340341,-0.003482159473966507,-0.024076653729884996,0.0966050877605131,36.09446859390736,-92.24360919585227,84.22370748782159
2024-09-23 07:38:14.641739,41.0,3.340341,-0.003482159473966507,-0.023927417309398437,0.0966050877605131,36.09446859390736,-92.24360919585227,84.22370748782159
2024-09-23 07:38:14.674786,41.0,3.340341,-0.003482159473966507,-0.023927417309398437,0.09690356060148622,36.09446859390736,-92.24360919585227,84.22370748782159
2024-09-23 07:38:14.686231,41.0,3.340391,-0.003233425524256645,-0.023927417309398437,0.09690356060148622,36.09446859390736,-92.24360919585227,80.21211738781929
2024-09-23 07:38:14.729219,41.0,3.340483,-0.003233425524256645,-0.023877669304275123,0.09695331012558621,40.106058693909645,-92.24360919585227,80.21211738781929
2024-09-23 07:38:14.772208,41.0,3.340483,-0.0031339382481259063,-0.02397715620066169,0.09665483728461309,40.106058693909645,-92.24360919585227,80.21211738781929
2024-09-23 07:38:14.783665,41.0,3.340483,-0.0031339382481259063,-0.02397715620066169,0.09665483728461309,44.11764879391193,-84.22370748782159,84.22370748782159
2024-09-23 07:38:14.825994,41.0,3.340535,-0.0033329230534799477,-0.023778180888911878,0.09685382322919964,36.09446859390736,-92.24360919585227,84.22370748782159
2024-09-23 07:38:14.869261,41.0,3.340586,-0.0033329230534799477,-0.023778180888911878,0.09685382322919964,36.09446859390736,-92.24360919585227,80.21211738781929
2024-09-23 07:38:14.880578,41.0,3.340586,-0.0030344509719951677,-0.024424863943144692,0.09685382322919964,36.09446859390736,-92.24360919585227,80.21211738781929
2024-09-23 07:38:14.922525,41.0,3.340636,-0.002785727465249955,-0.02352945757203875,0.09675432418099966,36.09446859390736,-100.26678939585686,76.200527287817
2024-09-23 07:38:15.016867,41.0,3.340636,-0.002785727465249955,-0.02352945757203875,0.09675432418099966,40.106058693909645,-100.26678939585686,76.200527287817
2024-09-23 07:38:15.069978,41.0,3.340687,-0.0030841997366068195,-0.023877669304275123,0.09720203344245934,40.106058693909645,-100.26678939585686,80.21211738781929
2024-09-23 07:38:15.112214,41.0,3.340687,-0.0030841997366068195,-0.023877669304275123,0.09720203344245934,40.106058693909645,-96.25519929585457,80.21211738781929
2024-09-23 07:38:15.124155,41.0,3.340738,-0.0034324103296106863,-0.024076653729884996,0.0962568775472534,40.106058693909645,-96.25519929585457,80.21211738781929
2024-09-23 07:38:15.167394,41.0,3.340825,-0.0031339382481259063,-0.02397715620066169,0.0962568775472534,40.106058693909645,-96.25519929585457,80.21211738781929
2024-09-23 07:38:15.209201,41.0,3.340825,-0.0031339382481259063,-0.02397715620066169,0.09715228999426605,36.09446859390736,-96.25519929585457,80.21211738781929
2024-09-23 07:38:15.220407,41.0,3.340876,-0.003482159473966507,-0.02397715620066169,0.09715228999426605,36.09446859390736,-100.26678939585686,76.200527287817
2024-09-23 07:38:15.262232,41.0,3.340876,-0.003482159473966507,-0.02397715620066169,0.09720203344245934,44.11764879391193,-100.26678939585686,76.200527287817
2024-09-23 07:38:15.274219,41.0,3.340972,-0.003482159473966507,-0.02397715620066169,0.09720203344245934,44.11764879391193,-100.26678939585686,76.200527287817
2024-09-23 07:38:15.306651,41.0,3.340972,-0.0032831742888682963,-0.02397715620066169,0.09720203344245934,44.11764879391193,-100.26678939585686,76.200527287817
2024-09-23 07:38:15.318102,41.0,3.340972,-0.0032831742888682963,-0.023728432883788564,0.09725178296655933,32.08287849390507,-100.26678939585686,76.200527287817
2024-09-23 07:38:15.360057,41.0,3.341069,-0.0030344509719951677,-0.024176140626271565,0.09740101331113918,32.08287849390507,-100.26678939585686,76.200527287817
2024-09-23 07:38:15.371557,41.0,3.341069,-0.0030344509719951677,-0.024176140626271565,0.09740101331113918,44.11764879391193,-96.25519929585457,76.200527287817
2024-09-23 07:38:15.404846,41.0,3.34112,-0.0030344509719951677,-0.024176140626271565,0.09740101331113918,44.11764879391193,-96.25519929585457,76.200527287817
2024-09-23 07:38:15.416282,41.0,3.34112,-0.0036811340262279837,-0.023927417309398437,0.09685382322919964,36.09446859390736,-96.25519929585457,76.200527287817
2024-09-23 07:38:15.458408,41.0,3.341171,-0.0028354659767690416,-0.02352945757203875,0.09685382322919964,36.09446859390736,-100.26678939585686,80.21211738781929
2024-09-23 07:38:15.470087,41.0,3.341171,-0.0028354659767690416,-0.02352945757203875,0.09695331012558621,36.09446859390736,-100.26678939585686,80.21211738781929
2024-09-23 07:38:15.502493,41.0,3.341171,-0.0028354659767690416,-0.02352945757203875,0.09695331012558621,36.09446859390736,-104.27510100388527,80.21211738781929
2024-09-23 07:38:15.514365,41.0,3.341222,-0.003482159473966507,-0.024026904205785005,0.09695331012558621,36.09446859390736,-104.27510100388527,76.200527287817
2024-09-23 07:38:15.557890,41.11,3.341272,-0.003482159473966507,-0.024026904205785005,0.09680407370509965,40.106058693909645,-108.28669110388756,72.1922225099802
2024-09-23 07:38:15.569973,41.11,3.341272,-0.003382661564999035,-0.024026904205785005,0.09680407370509965,40.106058693909645,-108.28669110388756,72.1922225099802
2024-09-23 07:38:15.601642,41.11,3.341272,-0.003382661564999035,-0.024026904205785005,0.09665483728461309,36.09446859390736,-92.24360919585227,72.1922225099802
2024-09-23 07:38:15.613275,41.11,3.341361,-0.003382661564999035,-0.024026904205785005,0.09665483728461309,36.09446859390736,-92.24360919585227,80.21211738781929
2024-09-23 07:38:15.645731,41.11,3.341361,-0.0029349636958644295,-0.024026904205785005,0.09665483728461309,36.09446859390736,-92.24360919585227,80.21211738781929
2024-09-23 07:38:15.657174,41.11,3.341361,-0.0029349636958644295,-0.024026904205785005,0.09685382322919964,32.08287849390507,-100.26678939585686,80.21211738781929
2024-09-23 07:38:15.700190,41.11,3.341412,-0.0031836870127375577,-0.023728432883788564,0.09690356060148622,32.08287849390507,-100.26678939585686,80.21211738781929
2024-09-23 07:38:15.712015,41.11,3.341412,-0.0031836870127375577,-0.023728432883788564,0.09690356060148622,36.09446859390736,-96.25519929585457,80.21211738781929
2024-09-23 07:38:15.745646,41.11,3.341463,-0.0031836870127375577,-0.023728432883788564,0.09690356060148622,36.09446859390736,-96.25519929585457,80.21211738781929
2024-09-23 07:38:15.757799,41.11,3.341463,-0.0034324103296106863,-0.02397715620066169,0.09690356060148622,40.106058693909645,-96.25519929585457,80.21211738781929
2024-09-23 07:38:15.801006,41.11,3.341514,-0.0031836870127375577,-0.023778180888911878,0.09645586349183995,40.106058693909645,-92.24360919585227,72.1922225099802
2024-09-23 07:38:15.842833,41.11,3.341514,-0.0031836870127375577,-0.023778180888911878,0.09645586349183995,44.11764879391193,-96.25519929585457,72.1922225099802
2024-09-23 07:38:15.854182,41.11,3.341564,-0.0034324103296106863,-0.02352945757203875,0.09645586349183995,44.11764879391193,-96.25519929585457,76.200527287817
2024-09-23 07:38:15.897557,41.11,3.341615,-0.003233425524256645,-0.02352945757203875,0.09725178296655933,36.09446859390736,-96.25519929585457,76.200527287817
2024-09-23 07:38:15.940116,41.11,3.341615,-0.003233425524256645,-0.02367869399252531,0.09755024973162574,36.09446859390736,-96.25519929585457,76.200527287817
2024-09-23 07:38:15.951601,41.11,3.341702,-0.003233425524256645,-0.02367869399252531,0.09755024973162574,32.08287849390507,-96.25519929585457,76.200527287817
2024-09-23 07:38:15.993736,41.11,3.341702,-0.003780631555451287,-0.024225890150371555,0.09675432418099966,44.11764879391193,-100.26678939585686,76.200527287817
2024-09-23 07:38:16.005779,41.11,3.341702,-0.003780631555451287,-0.024225890150371555,0.09675432418099966,44.11764879391193,-100.26678939585686,76.200527287817
2024-09-23 07:38:16.089347,41.11,3.341754,-0.003979606107712764,-0.023927417309398437,0.0966050877605131,44.11764879391193,-100.26678939585686,76.200527287817
2024-09-23 07:38:16.101068,41.11,3.341754,-0.003979606107712764,-0.023927417309398437,0.0966050877605131,40.106058693909645,-104.27510100388527,76.200527287817
2024-09-23 07:38:16.133352,41.11,3.341754,-0.003979606107712764,-0.023927417309398437,0.0966050877605131,40.106058693909645,-104.27510100388527,80.21211738781929
2024-09-23 07:38:16.145253,41.11,3.341804,-0.0031836870127375577,-0.023778180888911878,0.09710254654607277,40.106058693909645,-104.27510100388527,80.21211738781929
2024-09-23 07:38:16.187474,41.11,3.341855,-0.0033329230534799477,-0.023778180888911878,0.09710254654607277,40.106058693909645,-100.26678939585686,76.200527287817
2024-09-23 07:38:16.199315,41.11,3.341855,-0.0033329230534799477,-0.024225890150371555,0.09725178296655933,40.106058693909645,-100.26678939585686,76.200527287817
2024-09-23 07:38:16.232666,41.11,3.341855,-0.0033329230534799477,-0.024225890150371555,0.09725178296655933,40.106058693909645,-92.24360919585227,76.200527287817
2024-09-23 07:38:16.243923,41.11,3.341906,-0.0031339382481259063,-0.023429960042815445,0.09725178296655933,40.106058693909645,-92.24360919585227,76.200527287817
2024-09-23 07:38:16.287402,41.11,3.341957,-0.0029847020175114316,-0.023429960042815445,0.09725178296655933,32.08287849390507,-100.26678939585686,80.21211738781929
2024-09-23 07:38:16.330502,41.11,3.341957,-0.0029847020175114316,-0.024076653729884996,0.09695331012558621,32.08287849390507,-100.26678939585686,80.21211738781929
2024-09-23 07:38:16.342451,41.11,3.342092,-0.0029847020175114316,-0.024076653729884996,0.09695331012558621,40.106058693909645,-96.25519929585457,72.1922225099802
2024-09-23 07:38:16.386364,41.11,3.342092,-0.0027359787006383035,-0.02457410036363125,0.09670458680871308,40.106058693909645,-92.24360919585227,72.1922225099802
2024-09-23 07:38:16.430035,41.11,3.342144,-0.0033329230534799477,-0.02397715620066169,0.09670458680871308,40.106058693909645,-92.24360919585227,72.1922225099802
2024-09-23 07:38:16.441916,41.11,3.342144,-0.0033329230534799477,-0.02397715620066169,0.0970030596496862,40.106058693909645,-92.24360919585227,72.1922225099802
2024-09-23 07:38:16.484884,41.11,3.342194,-0.003780631555451287,-0.024773084789241125,0.09705279702197278,48.12595698684454,-92.24360919585227,72.1922225099802
2024-09-23 07:38:16.529067,41.11,3.342245,-0.0033329230534799477,-0.024773084789241125,0.09705279702197278,48.12595698684454,-92.24360919585227,76.200527287817
2024-09-23 07:38:16.540678,41.11,3.342245,-0.0033329230534799477,-0.024375126570858115,0.09710254654607277,48.12595698684454,-92.24360919585227,76.200527287817
2024-09-23 07:38:16.573440,41.55,3.342245,-0.0033329230534799477,-0.024375126570858115,0.09710254654607277,36.09446859390736,-92.24360919585227,76.200527287817
2024-09-23 07:38:16.585374,41.55,3.342296,-0.0023380189632786156,-0.02397715620066169,0.09710254654607277,36.09446859390736,-100.26678939585686,76.200527287817
2024-09-23 07:38:16.629056,41.55,3.342346,-0.0035816467500972456,-0.02397715620066169,0.09695331012558621,44.11764879391193,-96.25519929585457,80.21211738781929
2024-09-23 07:38:16.672170,41.55,3.342346,-0.0035816467500972456,-0.02367869399252531,0.09680407370509965,44.11764879391193,-96.25519929585457,80.21211738781929
2024-09-23 07:38:16.683182,41.55,3.342434,-0.0035816467500972456,-0.02367869399252531,0.09680407370509965,40.106058693909645,-92.24360919585227,76.200527287817
2024-09-23 07:38:16.725446,41.55,3.342434,-0.0030841997366068195,-0.02362894446842532,0.0970030596496862,40.106058693909645,-92.24360919585227,76.200527287817
2024-09-23 07:38:16.737714,41.55,3.342434,-0.0030841997366068195,-0.02362894446842532,0.0970030596496862,40.106058693909645,-92.24360919585227,84.22370748782159
2024-09-23 07:38:16.770745,41.55,3.342485,-0.0036811340262279837,-0.024474613467244683,0.0970030596496862,40.106058693909645,-92.24360919585227,84.22370748782159
2024-09-23 07:38:16.782446,41.55,3.342485,-0.0036811340262279837,-0.024474613467244683,0.09705279702197278,48.12595698684454,-88.23529758782387,84.22370748782159
2024-09-23 07:38:16.824421,41.55,3.342536,-0.003382661564999035,-0.024026904205785005,0.09720203344245934,44.11764879391193,-88.23529758782387,80.21211738781929
2024-09-23 07:38:16.867597,41.55,3.342587,-0.003382661564999035,-0.024026904205785005,0.09720203344245934,44.11764879391193,-100.26678939585686,80.21211738781929
2024-09-23 07:38:16.879280,41.55,3.342587,-0.0032831742888682963,-0.02367869399252531,0.09740101331113918,44.11764879391193,-100.26678939585686,80.21211738781929
2024-09-23 07:38:16.922522,41.55,3.342637,-0.0030344509719951677,-0.024275627522658133,0.09740101331113918,40.106058693909645,-92.24360919585227,80.21211738781929
2024-09-23 07:38:16.964173,41.55,3.342637,-0.0030344509719951677,-0.024275627522658133,0.09670458680871308,40.106058693909645,-92.24360919585227,80.21211738781929
2024-09-23 07:38:16.975573,41.55,3.342688,-0.0036811340262279837,-0.024275627522658133,0.09670458680871308,40.106058693909645,-100.26678939585686,80.21211738781929
2024-09-23 07:38:17.018939,41.55,3.342775,-0.0036811340262279837,-0.024176140626271565,0.09675432418099966,44.11764879391193,-96.25519929585457,80.21211738781929
2024-09-23 07:38:17.061271,41.55,3.342775,-0.002785727465249955,-0.024325377046758124,0.09675432418099966,44.11764879391193,-96.25519929585457,80.21211738781929
2024-09-23 07:38:17.072457,41.55,3.342775,-0.002785727465249955,-0.024325377046758124,0.09670458680871308,40.106058693909645,-96.25519929585457,80.21211738781929
2024-09-23 07:38:17.114945,41.55,3.342826,-0.0032831742888682963,-0.024176140626271565,0.09670458680871308,40.106058693909645,-92.24360919585227,76.200527287817
2024-09-23 07:38:17.126833,41.55,3.342826,-0.0032831742888682963,-0.024176140626271565,0.09675432418099966,40.106058693909645,-92.24360919585227,76.200527287817
2024-09-23 07:38:17.159873,41.55,3.342826,-0.0032831742888682963,-0.024176140626271565,0.09675432418099966,40.106058693909645,-96.25519929585457,76.200527287817
2024-09-23 07:38:17.171013,41.55,3.342877,-0.003382661564999035,-0.023827930413011865,0.09675432418099966,40.106058693909645,-96.25519929585457,76.200527287817
2024-09-23 07:38:17.213017,41.55,3.342927,-0.003382661564999035,-0.023827930413011865,0.09645586349183995,28.07457030097246,-88.23529758782387,88.23529758782387
2024-09-23 07:38:17.225216,41.55,3.342927,-0.0031836870127375577,-0.023827930413011865,0.09645586349183995,28.07457030097246,-88.23529758782387,88.23529758782387
2024-09-23 07:38:17.259027,41.55,3.342927,-0.0031836870127375577,-0.024026904205785005,0.09745075675933246,40.106058693909645,-88.23529758782387,88.23529758782387
2024-09-23 07:38:17.270187,41.55,3.342978,-0.0031836870127375577,-0.024026904205785005,0.09745075675933246,40.106058693909645,-96.25519929585457,80.21211738781929
2024-09-23 07:38:17.312662,41.55,3.342978,-0.0035318979854855937,-0.024225890150371555,0.09665483728461309,28.07457030097246,-92.24360919585227,84.22370748782159
2024-09-23 07:38:17.355593,41.55,3.343068,-0.003233425524256645,-0.024225890150371555,0.09665483728461309,28.07457030097246,-92.24360919585227,84.22370748782159
2024-09-23 07:38:17.367504,41.55,3.343068,-0.003233425524256645,-0.02397715620066169,0.09635636444363997,44.11764879391193,-92.24360919585227,84.22370748782159
2024-09-23 07:38:17.409928,41.55,3.343119,-0.002586742470023829,-0.023877669304275123,0.09710254654607277,44.11764879391193,-92.24360919585227,80.21211738781929
2024-09-23 07:38:17.451894,41.55,3.343119,-0.002586742470023829,-0.023877669304275123,0.09710254654607277,44.11764879391193,-92.24360919585227,80.21211738781929
2024-09-23 07:38:17.463033,41.55,3.34317,-0.003233425524256645,-0.024424863943144692,0.09665483728461309,44.11764879391193,-92.24360919585227,80.21211738781929
2024-09-23 07:38:17.505647,41.55,3.34322,-0.0029349636958644295,-0.024424863943144692,0.09665483728461309,36.09446859390736,-96.25519929585457,80.21211738781929
2024-09-23 07:38:17.517724,41.55,3.34322,-0.0029349636958644295,-0.023877669304275123,0.09665483728461309,36.09446859390736,-96.25519929585457,80.21211738781929
2024-09-23 07:38:17.549632,41.55,3.34322,-0.0029349636958644295,-0.023877669304275123,0.09675432418099966,36.09446859390736,-100.26678939585686,80.21211738781929
2024-09-23 07:38:17.560889,41.55,3.343271,-0.0029847020175114316,-0.023877669304275123,0.09675432418099966,36.09446859390736,-100.26678939585686,72.1922225099802
2024-09-23 07:38:17.603680,41.78,3.343271,-0.0029847020175114316,-0.024026904205785005,0.09690356060148622,36.09446859390736,-92.24360919585227,76.200527287817
2024-09-23 07:38:17.615607,41.78,3.34336,-0.0029847020175114316,-0.024026904205785005,0.09690356060148622,36.09446859390736,-92.24360919585227,76.200527287817
2024-09-23 07:38:17.648657,41.78,3.34336,-0.0030841997366068195,-0.023877669304275123,0.09720203344245934,36.09446859390736,-92.24360919585227,76.200527287817
2024-09-23 07:38:17.659849,41.78,3.34336,-0.0030841997366068195,-0.023877669304275123,0.09720203344245934,36.09446859390736,-88.23529758782387,76.200527287817
2024-09-23 07:38:17.702330,41.78,3.343411,-0.0030344509719951677,-0.024076653729884996,0.09705279702197278,36.09446859390736,-92.24360919585227,76.200527287817
2024-09-23 07:38:17.744377,41.78,3.343462,-0.0030344509719951677,-0.024076653729884996,0.09705279702197278,36.09446859390736,-92.24360919585227,76.200527287817
2024-09-23 07:38:17.756591,41.78,3.343462,-0.0031836870127375577,-0.024424863943144692,0.09720203344245934,40.106058693909645,-92.24360919585227,76.200527287817
2024-09-23 07:38:17.799973,41.78,3.343513,-0.0029349636958644295,-0.024176140626271565,0.09725178296655933,40.106058693909645,-92.24360919585227,76.200527287817
2024-09-23 07:38:17.842317,41.78,3.343513,-0.0029349636958644295,-0.024176140626271565,0.09725178296655933,36.09446859390736,-96.25519929585457,76.200527287817
2024-09-23 07:38:17.853406,41.78,3.343564,-0.0031339382481259063,-0.024076653729884996,0.09725178296655933,36.09446859390736,-96.25519929585457,76.200527287817
2024-09-23 07:38:17.896396,41.78,3.343614,-0.0035318979854855937,-0.024076653729884996,0.0966050877605131,40.106058693909645,-92.24360919585227,76.200527287817
2024-09-23 07:38:17.939265,41.78,3.343614,-0.0035318979854855937,-0.023877669304275123,0.09670458680871308,40.106058693909645,-92.24360919585227,76.200527287817
2024-09-23 07:38:17.950450,41.78,3.343701,-0.0035318979854855937,-0.023877669304275123,0.09670458680871308,36.09446859390736,-96.25519929585457,80.21211738781929
2024-09-23 07:38:17.992670,41.78,3.343701,-0.0031339382481259063,-0.024176140626271565,0.09685382322919964,40.106058693909645,-100.26678939585686,80.21211738781929
2024-09-23 07:38:18.009244,41.78,3.343701,-0.0031339382481259063,-0.024176140626271565,0.09685382322919964,40.106058693909645,-100.26678939585686,80.21211738781929
2024-09-23 07:38:18.042289,41.78,3.343752,-0.003233425524256645,-0.02367869399252531,0.09720203344245934,40.106058693909645,-100.26678939585686,80.21211738781929
2024-09-23 07:38:18.053899,41.78,3.343752,-0.003233425524256645,-0.02367869399252531,0.09720203344245934,40.106058693909645,-96.25519929585457,80.21211738781929
2024-09-23 07:38:18.086267,41.78,3.343803,-0.0029349636958644295,-0.02367869399252531,0.09720203344245934,40.106058693909645,-96.25519929585457,76.200527287817
2024-09-23 07:38:18.097373,41.78,3.343803,-0.0029349636958644295,-0.023877669304275123,0.09755024973162574,40.106058693909645,-96.25519929585457,76.200527287817
2024-09-23 07:38:18.140150,41.78,3.343854,-0.0033329230534799477,-0.02412639262114825,0.09710254654607277,40.106058693909645,-100.26678939585686,72.1922225099802
2024-09-23 07:38:18.182389,41.78,3.343854,-0.0033329230534799477,-0.02412639262114825,0.09710254654607277,40.106058693909645,-104.27510100388527,72.1922225099802
2024-09-23 07:38:18.193876,41.78,3.343904,-0.0029847020175114316,-0.023827930413011865,0.09710254654607277,40.106058693909645,-104.27510100388527,76.200527287817
2024-09-23 07:38:18.235919,41.78,3.343955,-0.0029847020175114316,-0.023827930413011865,0.09645586349183995,40.106058693909645,-100.26678939585686,80.21211738781929
2024-09-23 07:38:18.247970,41.78,3.343955,-0.0027359787006383035,-0.023827930413011865,0.09645586349183995,40.106058693909645,-100.26678939585686,80.21211738781929
2024-09-23 07:38:18.280481,41.78,3.343955,-0.0027359787006383035,-0.024026904205785005,0.09755024973162574,40.106058693909645,-100.26678939585686,80.21211738781929
2024-09-23 07:38:18.291687,41.78,3.344042,-0.0027359787006383035,-0.024026904205785005,0.09755024973162574,28.07457030097246,-96.25519929585457,88.23529758782387
2024-09-23 07:38:18.334114,41.78,3.344042,-0.003382661564999035,-0.02457410036363125,0.09665483728461309,40.106058693909645,-96.25519929585457,88.23529758782387
2024-09-23 07:38:18.346190,41.78,3.344042,-0.003382661564999035,-0.02457410036363125,0.09665483728461309,40.106058693909645,-96.25519929585457,80.21211738781929
2024-09-23 07:38:18.379197,41.78,3.344094,-0.0032831742888682963,-0.024176140626271565,0.09665483728461309,40.106058693909645,-96.25519929585457,80.21211738781929
2024-09-23 07:38:18.391032,41.78,3.344094,-0.0032831742888682963,-0.024176140626271565,0.09715228999426605,44.11764879391193,-96.25519929585457,80.21211738781929
2024-09-23 07:38:18.433179,41.78,3.344144,-0.0031836870127375577,-0.024076653729884996,0.09725178296655933,44.11764879391193,-96.25519929585457,76.200527287817
2024-09-23 07:38:18.475463,41.78,3.344144,-0.0031836870127375577,-0.024076653729884996,0.09725178296655933,52.137550501942634,-88.23529758782387,76.200527287817
2024-09-23 07:38:18.486801,41.78,3.344195,-0.0033329230534799477,-0.024176140626271565,0.09725178296655933,52.137550501942634,-88.23529758782387,80.21211738781929
2024-09-23 07:38:18.529458,41.78,3.344246,-0.0033329230534799477,-0.024176140626271565,0.09695331012558621,32.08287849390507,-88.23529758782387,80.21211738781929
2024-09-23 07:38:18.541388,41.78,3.344246,-0.0032831742888682963,-0.024176140626271565,0.09695331012558621,32.08287849390507,-88.23529758782387,80.21211738781929
2024-09-23 07:38:18.573830,41.78,3.344246,-0.0032831742888682963,-0.02367869399252531,0.09759999317981902,32.08287849390507,-88.23529758782387,80.21211738781929
2024-09-23 07:38:18.584922,41.78,3.344296,-0.0032831742888682963,-0.02367869399252531,0.09759999317981902,32.08287849390507,-100.26678939585686,72.1922225099802
2024-09-23 07:38:18.627768,42.28,3.344296,-0.0030841997366068195,-0.02397715620066169,0.09720203344245934,40.106058693909645,-96.25519929585457,80.21211738781929
2024-09-23 07:38:18.670325,42.28,3.344383,-0.003382661564999035,-0.02397715620066169,0.09720203344245934,40.106058693909645,-96.25519929585457,80.21211738781929
2024-09-23 07:38:18.681774,42.28,3.344383,-0.003382661564999035,-0.023827930413011865,0.09690356060148622,40.106058693909645,-96.25519929585457,80.21211738781929
2024-09-23 07:38:18.724258,42.28,3.344435,-0.003482159473966507,-0.024375126570858115,0.09695331012558621,40.106058693909645,-96.25519929585457,80.21211738781929
2024-09-23 07:38:18.737252,42.28,3.344435,-0.003482159473966507,-0.024375126570858115,0.09695331012558621,40.106058693909645,-96.25519929585457,80.21211738781929
2024-09-23 07:38:18.769596,42.28,3.344435,-0.003482159473966507,-0.024375126570858115,0.09695331012558621,40.106058693909645,-100.26678939585686,80.21211738781929
2024-09-23 07:38:18.780827,42.28,3.344486,-0.0033329230534799477,-0.024375126570858115,0.09670458680871308,40.106058693909645,-100.26678939585686,80.21211738781929
2024-09-23 07:38:18.823704,42.28,3.344536,-0.0032831742888682963,-0.02362894446842532,0.09670458680871308,36.09446859390736,-100.26678939585686,80.21211738781929
2024-09-23 07:38:18.865206,42.28,3.344536,-0.0032831742888682963,-0.02362894446842532,0.09695331012558621,36.09446859390736,-100.26678939585686,80.21211738781929
2024-09-23 07:38:18.876977,42.28,3.344587,-0.0034324103296106863,-0.02362894446842532,0.09695331012558621,36.09446859390736,-88.23529758782387,84.22370748782159
2024-09-23 07:38:18.919351,42.28,3.344587,-0.0034324103296106863,-0.02412639262114825,0.09725178296655933,44.11764879391193,-100.26678939585686,76.200527287817
2024-09-23 07:38:18.930971,42.28,3.344676,-0.0034324103296106863,-0.02412639262114825,0.09725178296655933,44.11764879391193,-100.26678939585686,76.200527287817
2024-09-23 07:38:18.962510,42.28,3.344676,-0.0031339382481259063,-0.024026904205785005,0.09725178296655933,44.11764879391193,-100.26678939585686,76.200527287817
2024-09-23 07:38:18.973973,42.28,3.344676,-0.0031339382481259063,-0.024026904205785005,0.09695331012558621,40.106058693909645,-100.26678939585686,80.21211738781929
2024-09-23 07:38:19.017327,42.28,3.344727,-0.0031836870127375577,-0.023479709566915436,0.09705279702197278,40.106058693909645,-100.26678939585686,80.21211738781929
2024-09-23 07:38:19.029134,42.28,3.344727,-0.0031836870127375577,-0.023479709566915436,0.09705279702197278,40.106058693909645,-100.26678939585686,80.21211738781929
2024-09-23 07:38:19.061173,42.28,3.344778,-0.0031339382481259063,-0.023479709566915436,0.09705279702197278,40.106058693909645,-100.26678939585686,84.22370748782159
2024-09-23 07:38:19.072391,42.28,3.344778,-0.0031339382481259063,-0.024325377046758124,0.09695331012558621,36.09446859390736,-100.26678939585686,84.22370748782159
2024-09-23 07:38:19.114689,42.28,3.344829,-0.003233425524256645,-0.023827930413011865,0.09695331012558621,36.09446859390736,-100.26678939585686,84.22370748782159
2024-09-23 07:38:19.126644,42.28,3.344829,-0.003233425524256645,-0.023827930413011865,0.09685382322919964,36.09446859390736,-100.26678939585686,84.22370748782159
2024-09-23 07:38:19.159687,42.28,3.344829,-0.003233425524256645,-0.023827930413011865,0.09685382322919964,28.07457030097246,-100.26678939585686,84.22370748782159
2024-09-23 07:38:19.171191,42.28,3.344879,-0.0030344509719951677,-0.024176140626271565,0.09685382322919964,28.07457030097246,-100.26678939585686,84.22370748782159
2024-09-23 07:38:19.213941,42.28,3.34493,-0.0031836870127375577,-0.024176140626271565,0.09675432418099966,44.11764879391193,-104.27510100388527,80.21211738781929
2024-09-23 07:38:19.256201,42.28,3.34493,-0.0031836870127375577,-0.023827930413011865,0.09710254654607277,40.106058693909645,-104.27510100388527,80.21211738781929
2024-09-23 07:38:19.267425,42.28,3.345017,-0.0031836870127375577,-0.023827930413011865,0.09710254654607277,40.106058693909645,-100.26678939585686,80.21211738781929
2024-09-23 07:38:19.310977,42.28,3.345017,-0.0030841997366068195,-0.024375126570858115,0.0970030596496862,40.106058693909645,-92.24360919585227,76.200527287817
2024-09-23 07:38:19.353162,42.28,3.345069,-0.003233425524256645,-0.024375126570858115,0.0970030596496862,40.106058693909645,-92.24360919585227,76.200527287817
2024-09-23 07:38:19.365096,42.28,3.345069,-0.003233425524256645,-0.02397715620066169,0.09695331012558621,28.07457030097246,-96.25519929585457,76.200527287817
2024-09-23 07:38:19.407849,42.28,3.345119,-0.003482159473966507,-0.024424863943144692,0.0970030596496862,40.106058693909645,-96.25519929585457,80.21211738781929
2024-09-23 07:38:19.450389,42.28,3.345119,-0.003482159473966507,-0.024424863943144692,0.0970030596496862,40.106058693909645,-92.24360919585227,76.200527287817
2024-09-23 07:38:19.461322,42.28,3.34517,-0.0032831742888682963,-0.024474613467244683,0.09675432418099966,40.106058693909645,-92.24360919585227,76.200527287817
2024-09-23 07:38:19.503559,42.28,3.345221,-0.002586742470023829,-0.024474613467244683,0.09675432418099966,44.11764879391193,-100.26678939585686,72.1922225099802
2024-09-23 07:38:19.515685,42.28,3.345221,-0.002586742470023829,-0.024026904205785005,0.09675432418099966,44.11764879391193,-100.26678939585686,72.1922225099802
2024-09-23 07:38:19.548119,42.28,3.345221,-0.002586742470023829,-0.024026904205785005,0.09725178296655933,36.09446859390736,-100.26678939585686,72.1922225099802
2024-09-23 07:38:19.559783,42.28,3.345272,-0.003233425524256645,-0.024026904205785005,0.09725178296655933,36.09446859390736,-96.25519929585457,76.200527287817
2024-09-23 07:38:19.601955,42.28,3.345272,-0.003233425524256645,-0.02362894446842532,0.0966050877605131,40.106058693909645,-92.24360919585227,84.22370748782159
2024-09-23 07:38:19.613914,42.28,3.345358,-0.003233425524256645,-0.02362894446842532,0.0966050877605131,40.106058693909645,-92.24360919585227,84.22370748782159
2024-09-23 07:38:19.647348,42.89,3.345358,-0.003382661564999035,-0.024325377046758124,0.09680407370509965,40.106058693909645,-92.24360919585227,84.22370748782159
2024-09-23 07:38:19.658703,42.89,3.345358,-0.003382661564999035,-0.024325377046758124,0.09680407370509965,36.09446859390736,-96.25519929585457,76.200527287817
2024-09-23 07:38:19.700728,42.89,3.34541,-0.0031339382481259063,-0.023827930413011865,0.09705279702197278,32.08287849390507,-96.25519929585457,76.200527287817
2024-09-23 07:38:19.742854,42.89,3.345461,-0.0031339382481259063,-0.023827930413011865,0.09705279702197278,32.08287849390507,-96.25519929585457,76.200527287817
2024-09-23 07:38:19.754486,42.89,3.345461,-0.0030344509719951677,-0.024176140626271565,0.09715228999426605,36.09446859390736,-96.25519929585457,76.200527287817
2024-09-23 07:38:19.796556,42.89,3.345511,-0.002437506429281439,-0.02397715620066169,0.09715228999426605,36.09446859390736,-88.23529758782387,76.200527287817
2024-09-23 07:38:19.808431,42.89,3.345511,-0.002437506429281439,-0.02397715620066169,0.09725178296655933,36.09446859390736,-88.23529758782387,76.200527287817
2024-09-23 07:38:19.840531,42.89,3.345511,-0.002437506429281439,-0.02397715620066169,0.09725178296655933,44.11764879391193,-92.24360919585227,76.200527287817
2024-09-23 07:38:19.851917,42.89,3.345562,-0.0028852147413806935,-0.024026904205785005,0.09725178296655933,44.11764879391193,-92.24360919585227,76.200527287817
2024-09-23 07:38:19.894472,42.89,3.345613,-0.0028852147413806935,-0.024026904205785005,0.09705279702197278,36.09446859390736,-100.26678939585686,72.1922225099802
2024-09-23 07:38:19.906170,42.89,3.345613,-0.0030344509719951677,-0.024026904205785005,0.09705279702197278,36.09446859390736,-100.26678939585686,72.1922225099802
2024-09-23 07:38:19.938283,42.89,3.345613,-0.0030344509719951677,-0.024325377046758124,0.09680407370509965,36.09446859390736,-100.26678939585686,72.1922225099802
2024-09-23 07:38:19.949376,42.89,3.3457,-0.0030344509719951677,-0.024325377046758124,0.09680407370509965,40.106058693909645,-92.24360919585227,76.200527287817
2024-09-23 07:38:19.992360,42.89,3.3457,-0.0031339382481259063,-0.024325377046758124,0.09680407370509965,40.106058693909645,-92.24360919585227,80.21211738781929
2024-09-23 07:38:20.034885,42.89,3.345751,-0.003382661564999035,-0.024325377046758124,0.09680407370509965,40.106058693909645,-92.24360919585227,80.21211738781929
2024-09-23 07:38:20.046590,42.89,3.345751,-0.003382661564999035,-0.02362894446842532,0.09695331012558621,32.08287849390507,-100.26678939585686,80.21211738781929
2024-09-23 07:38:20.088413,42.89,3.345802,-0.0030841997366068195,-0.02362894446842532,0.09670458680871308,32.08287849390507,-100.26678939585686,80.21211738781929
2024-09-23 07:38:20.100219,42.89,3.345802,-0.0030841997366068195,-0.02362894446842532,0.09670458680871308,44.11764879391193,-100.26678939585686,80.21211738781929
2024-09-23 07:38:20.184745,42.89,3.345853,-0.003631395514708897,-0.02362894446842532,0.09670458680871308,44.11764879391193,-92.24360919585227,80.21211738781929
2024-09-23 07:38:20.196665,42.89,3.345853,-0.003631395514708897,-0.02367869399252531,0.09670458680871308,44.11764879391193,-92.24360919585227,80.21211738781929
2024-09-23 07:38:20.228160,42.89,3.345853,-0.003631395514708897,-0.02367869399252531,0.0973015264147526,44.11764879391193,-92.24360919585227,80.21211738781929
2024-09-23 07:38:20.240454,42.89,3.345903,-0.0026862297461545674,-0.02367869399252531,0.0973015264147526,44.11764879391193,-92.24360919585227,80.21211738781929
2024-09-23 07:38:20.282727,42.89,3.345903,-0.0026862297461545674,-0.02412639262114825,0.09655535038822652,40.106058693909645,-96.25519929585457,80.21211738781929
2024-09-23 07:38:20.294277,42.89,3.345954,-0.0026862297461545674,-0.02412639262114825,0.09655535038822652,40.106058693909645,-96.25519929585457,84.22370748782159
2024-09-23 07:38:20.328644,42.89,3.345954,-0.0031836870127375577,-0.023778180888911878,0.09670458680871308,40.106058693909645,-96.25519929585457,84.22370748782159
2024-09-23 07:38:20.340975,42.89,3.345954,-0.0031836870127375577,-0.023778180888911878,0.09670458680871308,36.09446859390736,-96.25519929585457,80.21211738781929
2024-09-23 07:38:20.383850,42.89,3.346041,-0.0031836870127375577,-0.02412639262114825,0.09720203344245934,40.106058693909645,-92.24360919585227,80.21211738781929
2024-09-23 07:38:20.426047,42.89,3.346139,-0.0031836870127375577,-0.02412639262114825,0.09720203344245934,40.106058693909645,-92.24360919585227,80.21211738781929
2024-09-23 07:38:20.437441,42.89,3.346139,-0.002785727465249955,-0.023877669304275123,0.09710254654607277,44.11764879391193,-92.24360919585227,80.21211738781929
2024-09-23 07:38:20.481402,42.89,3.34619,-0.0030344509719951677,-0.024076653729884996,0.09645586349183995,44.11764879391193,-96.25519929585457,76.200527287817
2024-09-23 07:38:20.525027,42.89,3.34619,-0.0030344509719951677,-0.024076653729884996,0.09645586349183995,40.106058693909645,-100.26678939585686,76.200527287817
2024-09-23 07:38:20.536370,42.89,3.346241,-0.0032831742888682963,-0.024026904205785005,0.09645586349183995,40.106058693909645,-100.26678939585686,76.200527287817
2024-09-23 07:38:20.578700,42.89,3.346292,-0.0030344509719951677,-0.024026904205785005,0.09705279702197278,40.106058693909645,-100.26678939585686,76.200527287817
2024-09-23 07:38:20.622352,42.89,3.346292,-0.0030344509719951677,-0.024076653729884996,0.09675432418099966,32.08287849390507,-100.26678939585686,76.200527287817
2024-09-23 07:38:20.633849,42.89,3.346382,-0.0030344509719951677,-0.024076653729884996,0.09675432418099966,32.08287849390507,-100.26678939585686,80.21211738781929
2024-09-23 07:38:20.676057,42.59,3.346382,-0.0038801188315820256,-0.024225890150371555,0.09630662707135339,40.106058693909645,-92.24360919585227,76.200527287817
2024-09-23 07:38:20.718140,42.59,3.346434,-0.0030344509719951677,-0.024225890150371555,0.09630662707135339,40.106058693909645,-92.24360919585227,76.200527287817
2024-09-23 07:38:20.729766,42.59,3.346434,-0.0030344509719951677,-0.024176140626271565,0.0970030596496862,40.106058693909645,-100.26678939585686,76.200527287817
2024-09-23 07:38:20.772354,42.59,3.346484,-0.0032831742888682963,-0.023778180888911878,0.09690356060148622,40.106058693909645,-100.26678939585686,76.200527287817
2024-09-23 07:38:20.784142,42.59,3.346484,-0.0032831742888682963,-0.023778180888911878,0.09690356060148622,32.08287849390507,-100.26678939585686,76.200527287817
2024-09-23 07:38:20.868110,42.59,3.346535,-0.0032831742888682963,-0.023778180888911878,0.09690356060148622,32.08287849390507,-96.25519929585457,80.21211738781929
2024-09-23 07:38:20.882298,42.59,3.346535,-0.0031836870127375577,-0.024275627522658133,0.09725178296655933,32.08287849390507,-96.25519929585457,80.21211738781929
2024-09-23 07:38:20.914756,42.59,3.346535,-0.0031836870127375577,-0.024275627522658133,0.09725178296655933,36.09446859390736,-96.25519929585457,80.21211738781929
2024-09-23 07:38:20.926229,42.59,3.346586,-0.0029349636958644295,-0.02412639262114825,0.09725178296655933,36.09446859390736,-96.25519929585457,80.21211738781929
2024-09-23 07:38:20.968666,42.59,3.346636,-0.0032831742888682963,-0.02412639262114825,0.09675432418099966,40.106058693909645,-96.25519929585457,80.21211738781929
2024-09-23 07:38:21.011695,42.59,3.346636,-0.0032831742888682963,-0.023927417309398437,0.09650560086412653,32.08287849390507,-96.25519929585457,80.21211738781929
2024-09-23 07:38:21.023689,42.59,3.346723,-0.0032831742888682963,-0.023927417309398437,0.09650560086412653,32.08287849390507,-100.26678939585686,76.200527287817
2024-09-23 07:38:21.066940,42.59,3.346723,-0.0029847020175114316,-0.02457410036363125,0.09635636444363997,44.11764879391193,-96.25519929585457,72.1922225099802
2024-09-23 07:38:21.109270,42.59,3.346821,-0.0033329230534799477,-0.02457410036363125,0.09635636444363997,44.11764879391193,-96.25519929585457,72.1922225099802
2024-09-23 07:38:21.121064,42.59,3.346821,-0.0033329230534799477,-0.02397715620066169,0.0970030596496862,44.11764879391193,-92.24360919585227,72.1922225099802
2024-09-23 07:38:21.164500,42.59,3.346821,-0.0033329230534799477,-0.02397715620066169,0.0970030596496862,44.11764879391193,-92.24360919585227,76.200527287817
2024-09-23 07:38:21.207109,42.59,3.346873,-0.0034324103296106863,-0.023877669304275123,0.0970030596496862,44.11764879391193,-92.24360919585227,76.200527287817
2024-09-23 07:38:21.218693,42.59,3.346873,-0.0034324103296106863,-0.023877669304275123,0.09710254654607277,44.11764879391193,-92.24360919585227,76.200527287817
2024-09-23 07:38:21.260978,42.59,3.346923,-0.0029349636958644295,-0.02397715620066169,0.0970030596496862,44.11764879391193,-100.26678939585686,80.21211738781929
2024-09-23 07:38:21.304464,42.59,3.346923,-0.0029349636958644295,-0.02397715620066169,0.0970030596496862,36.09446859390736,-84.22370748782159,84.22370748782159
2024-09-23 07:38:21.316122,42.59,3.346974,-0.0030841997366068195,-0.02487257320460437,0.0970030596496862,36.09446859390736,-84.22370748782159,84.22370748782159
2024-09-23 07:38:21.358765,42.59,3.347025,-0.0030841997366068195,-0.02487257320460437,0.0973512698629459,40.106058693909645,-96.25519929585457,84.22370748782159
2024-09-23 07:38:21.401636,42.59,3.347025,-0.0030841997366068195,-0.023927417309398437,0.09670458680871308,32.08287849390507,-96.25519929585457,84.22370748782159
2024-09-23 07:38:21.413672,42.59,3.347113,-0.0030841997366068195,-0.023927417309398437,0.09670458680871308,32.08287849390507,-96.25519929585457,76.200527287817
2024-09-23 07:38:21.456187,42.59,3.347113,-0.0032831742888682963,-0.024325377046758124,0.09740101331113918,32.08287849390507,-96.25519929585457,84.22370748782159
2024-09-23 07:38:21.499257,42.59,3.347212,-0.0032831742888682963,-0.02397715620066169,0.09740101331113918,32.08287849390507,-96.25519929585457,84.22370748782159
2024-09-23 07:38:21.510995,42.59,3.347212,-0.0032831742888682963,-0.02397715620066169,0.09650560086412653,32.08287849390507,-96.25519929585457,84.22370748782159
2024-09-23 07:38:21.553812,42.59,3.347263,-0.0031339382481259063,-0.024375126570858115,0.09690356060148622,40.106058693909645,-96.25519929585457,76.200527287817
2024-09-23 07:38:21.595535,42.59,3.347263,-0.0031339382481259063,-0.024375126570858115,0.09690356060148622,40.106058693909645,-88.23529758782387,80.21211738781929
2024-09-23 07:38:21.606972,42.59,3.347313,-0.0035318979854855937,-0.024275627522658133,0.09705279702197278,40.106058693909645,-88.23529758782387,80.21211738781929
2024-09-23 07:38:21.648738,42.59,3.347364,-0.003233425524256645,-0.024275627522658133,0.09705279702197278,36.09446859390736,-100.26678939585686,76.200527287817
2024-09-23 07:38:21.660927,42.59,3.347364,-0.003233425524256645,-0.024375126570858115,0.09705279702197278,36.09446859390736,-100.26678939585686,76.200527287817
2024-09-23 07:38:21.693265,42.12,3.347364,-0.003233425524256645,-0.024375126570858115,0.09685382322919964,40.106058693909645,-100.26678939585686,76.200527287817
2024-09-23 07:38:21.705351,42.12,3.347415,-0.0031836870127375577,-0.024375126570858115,0.09685382322919964,40.106058693909645,-92.24360919585227,76.200527287817
2024-09-23 07:38:21.748814,42.12,3.347503,-0.0031836870127375577,-0.023778180888911878,0.09680407370509965,32.08287849390507,-96.25519929585457,80.21211738781929
2024-09-23 07:38:21.791962,42.12,3.347503,-0.003233425524256645,-0.023479709566915436,0.09675432418099966,32.08287849390507,-96.25519929585457,80.21211738781929
2024-09-23 07:38:21.803916,42.12,3.347503,-0.003233425524256645,-0.023479709566915436,0.09675432418099966,32.08287849390507,-96.25519929585457,84.22370748782159
2024-09-23 07:38:21.846616,42.12,3.347555,-0.0035816467500972456,-0.023429960042815445,0.09640611396773996,40.106058693909645,-92.24360919585227,84.22370748782159
2024-09-23 07:38:21.889906,42.12,3.347606,-0.0035816467500972456,-0.023429960042815445,0.09640611396773996,40.106058693909645,-92.24360919585227,80.21211738781929
2024-09-23 07:38:21.901740,42.12,3.347606,-0.0035816467500972456,-0.024375126570858115,0.09705279702197278,40.106058693909645,-92.24360919585227,80.21211738781929
2024-09-23 07:38:21.934412,42.12,3.347606,-0.0035816467500972456,-0.024375126570858115,0.09705279702197278,40.106058693909645,-92.24360919585227,80.21211738781929
2024-09-23 07:38:21.946457,42.12,3.347656,-0.003233425524256645,-0.024026904205785005,0.0973512698629459,40.106058693909645,-92.24360919585227,80.21211738781929
2024-09-23 07:38:21.988687,42.12,3.347707,-0.003233425524256645,-0.024026904205785005,0.0973512698629459,40.106058693909645,-104.27510100388527,68.18063240997792
2024-09-23 07:38:22.000517,42.12,3.347707,-0.003233425524256645,-0.024325377046758124,0.0973512698629459,40.106058693909645,-104.27510100388527,68.18063240997792
2024-09-23 07:38:22.033402,42.12,3.347707,-0.003233425524256645,-0.024325377046758124,0.09685382322919964,40.106058693909645,-104.27510100388527,68.18063240997792
2024-09-23 07:38:22.045566,42.12,3.347758,-0.0024872551938930902,-0.024325377046758124,0.09685382322919964,40.106058693909645,-96.25519929585457,72.1922225099802
2024-09-23 07:38:22.088595,42.12,3.347845,-0.0024872551938930902,-0.023827930413011865,0.09650560086412653,40.106058693909645,-96.25519929585457,80.21211738781929
2024-09-23 07:38:22.132762,42.12,3.347845,-0.0030841997366068195,-0.02397715620066169,0.09695331012558621,40.106058693909645,-96.25519929585457,80.21211738781929
2024-09-23 07:38:22.144438,42.12,3.347845,-0.0030841997366068195,-0.02397715620066169,0.09695331012558621,44.11764879391193,-100.26678939585686,76.200527287817
2024-09-23 07:38:22.187620,42.12,3.347896,-0.0030841997366068195,-0.024474613467244683,0.09655535038822652,52.137550501942634,-96.25519929585457,76.200527287817
2024-09-23 07:38:22.229783,42.12,3.347947,-0.0032831742888682963,-0.024474613467244683,0.09655535038822652,52.137550501942634,-96.25519929585457,76.200527287817
2024-09-23 07:38:22.282841,42.12,3.347947,-0.0032831742888682963,-0.02457410036363125,0.09784872257259886,32.08287849390507,-92.24360919585227,76.200527287817
2024-09-23 07:38:22.295040,42.12,3.347997,-0.0032831742888682963,-0.02457410036363125,0.09784872257259886,32.08287849390507,-92.24360919585227,76.200527287817
2024-09-23 07:38:22.327020,42.12,3.347997,-0.0037308827908396356,-0.024524361472367997,0.09784872257259886,32.08287849390507,-92.24360919585227,76.200527287817
2024-09-23 07:38:22.339011,42.12,3.347997,-0.0037308827908396356,-0.024524361472367997,0.09720203344245934,36.09446859390736,-92.24360919585227,80.21211738781929
2024-09-23 07:38:22.382251,42.12,3.348048,-0.004029355252068585,-0.024375126570858115,0.09690356060148622,36.09446859390736,-96.25519929585457,80.21211738781929
2024-09-23 07:38:22.424273,42.12,3.348099,-0.004029355252068585,-0.024375126570858115,0.09690356060148622,36.09446859390736,-96.25519929585457,80.21211738781929
2024-09-23 07:38:22.436537,42.12,3.348099,-0.0030841997366068195,-0.023778180888911878,0.09750050628343246,36.09446859390736,-96.25519929585457,80.21211738781929
2024-09-23 07:38:22.479278,42.12,3.348186,-0.0034324103296106863,-0.024375126570858115,0.09690356060148622,36.09446859390736,-96.25519929585457,84.22370748782159
2024-09-23 07:38:22.521370,42.12,3.348186,-0.0034324103296106863,-0.024375126570858115,0.09690356060148622,36.09446859390736,-96.25519929585457,84.22370748782159
2024-09-23 07:38:22.532990,42.12,3.348237,-0.0030841997366068195,-0.024325377046758124,0.09690356060148622,36.09446859390736,-96.25519929585457,80.21211738781929
2024-09-23 07:38:22.576427,42.12,3.348288,-0.0031836870127375577,-0.024325377046758124,0.09675432418099966,28.07457030097246,-96.25519929585457,76.200527287817
2024-09-23 07:38:22.618964,42.12,3.348288,-0.0031836870127375577,-0.02412639262114825,0.09705279702197278,28.07457030097246,-96.25519929585457,76.200527287817
2024-09-23 07:38:22.630383,42.12,3.348381,-0.0031836870127375577,-0.02412639262114825,0.09705279702197278,48.12595698684454,-104.27510100388527,80.21211738781929
2024-09-23 07:38:22.673199,42.12,3.348381,-0.0030344509719951677,-0.02397715620066169,0.09725178296655933,44.11764879391193,-104.27510100388527,80.21211738781929
2024-09-23 07:38:22.685902,42.12,3.348381,-0.0030344509719951677,-0.02397715620066169,0.09725178296655933,44.11764879391193,-92.24360919585227,80.21211738781929
2024-09-23 07:38:22.718657,41.92,3.348432,-0.002586742470023829,-0.023927417309398437,0.09725178296655933,44.11764879391193,-92.24360919585227,80.21211738781929
2024-09-23 07:38:22.729893,41.92,3.348432,-0.002586742470023829,-0.023927417309398437,0.09710254654607277,44.11764879391193,-96.25519929585457,80.21211738781929
2024-09-23 07:38:22.772499,41.92,3.348483,-0.0032831742888682963,-0.024673597892854556,0.09675432418099966,44.11764879391193,-96.25519929585457,84.22370748782159
2024-09-23 07:38:22.815195,41.92,3.348534,-0.0032831742888682963,-0.024673597892854556,0.09675432418099966,44.11764879391193,-96.25519929585457,76.200527287817
2024-09-23 07:38:22.827305,41.92,3.348534,-0.003780631555451287,-0.02412639262114825,0.09725178296655933,44.11764879391193,-96.25519929585457,76.200527287817
2024-09-23 07:38:22.869971,41.92,3.348584,-0.003233425524256645,-0.024225890150371555,0.09725178296655933,52.137550501942634,-100.26678939585686,80.21211738781929
2024-09-23 07:38:22.912432,41.92,3.348584,-0.003233425524256645,-0.024225890150371555,0.09710254654607277,44.11764879391193,-100.26678939585686,80.21211738781929
2024-09-23 07:38:22.923638,41.92,3.348635,-0.0036811340262279837,-0.024225890150371555,0.09710254654607277,44.11764879391193,-92.24360919585227,76.200527287817
2024-09-23 07:38:22.967384,41.92,3.348722,-0.0036811340262279837,-0.02397715620066169,0.09715228999426605,36.09446859390736,-96.25519929585457,76.200527287817
2024-09-23 07:38:23.011054,41.92,3.348722,-0.0030841997366068195,-0.023827930413011865,0.09715228999426605,36.09446859390736,-96.25519929585457,76.200527287817
2024-09-23 07:38:23.022859,41.92,3.348722,-0.0030841997366068195,-0.023827930413011865,0.09715228999426605,32.08287849390507,-100.26678939585686,76.200527287817
2024-09-23 07:38:23.065837,41.92,3.348774,-0.0032831742888682963,-0.023927417309398437,0.09759999317981902,36.09446859390736,-100.26678939585686,76.200527287817
2024-09-23 07:38:23.109747,41.92,3.348824,-0.0031836870127375577,-0.023877669304275123,0.09759999317981902,36.09446859390736,-100.26678939585686,80.21211738781929
2024-09-23 07:38:23.122474,41.92,3.348824,-0.0031836870127375577,-0.023877669304275123,0.09725178296655933,40.106058693909645,-100.26678939585686,80.21211738781929
2024-09-23 07:38:23.154822,41.92,3.348824,-0.0031836870127375577,-0.023877669304275123,0.09725178296655933,40.106058693909645,-104.27510100388527,76.200527287817
2024-09-23 07:38:23.166547,41.92,3.348875,-0.003979606107712764,-0.024275627522658133,0.0973015264147526,40.106058693909645,-104.27510100388527,76.200527287817
2024-09-23 07:38:23.209259,41.92,3.348875,-0.003979606107712764,-0.024275627522658133,0.0973015264147526,24.06297849342227,-104.27510100388527,76.200527287817
2024-09-23 07:38:23.252119,41.92,3.348926,-0.003979606107712764,-0.024275627522658133,0.0973015264147526,24.06297849342227,-104.27510100388527,76.200527287817
2024-09-23 07:38:23.263594,41.92,3.348926,-0.0029847020175114316,-0.024076653729884996,0.0973015264147526,24.06297849342227,-104.27510100388527,76.200527287817
2024-09-23 07:38:23.306446,41.92,3.348976,-0.0029847020175114316,-0.024076653729884996,0.09675432418099966,40.106058693909645,-88.23529758782387,80.21211738781929
2024-09-23 07:38:23.319045,41.92,3.348976,-0.003382661564999035,-0.024076653729884996,0.09675432418099966,40.106058693909645,-88.23529758782387,80.21211738781929
2024-09-23 07:38:23.351827,41.92,3.348976,-0.003382661564999035,-0.02352945757203875,0.0973512698629459,36.09446859390736,-88.23529758782387,80.21211738781929
2024-09-23 07:38:23.363340,41.92,3.349063,-0.003382661564999035,-0.02352945757203875,0.0973512698629459,36.09446859390736,-92.24360919585227,76.200527287817
2024-09-23 07:38:23.405968,41.92,3.349063,-0.0030841997366068195,-0.024076653729884996,0.09670458680871308,40.106058693909645,-96.25519929585457,80.21211738781929
2024-09-23 07:38:23.448895,41.92,3.349115,-0.0029847020175114316,-0.024076653729884996,0.09670458680871308,40.106058693909645,-96.25519929585457,80.21211738781929
2024-09-23 07:38:23.460795,41.92,3.349115,-0.0029847020175114316,-0.024524361472367997,0.0973512698629459,32.08287849390507,-92.24360919585227,80.21211738781929
2024-09-23 07:38:23.503610,41.92,3.349166,-0.0030841997366068195,-0.023827930413011865,0.09640611396773996,40.106058693909645,-92.24360919585227,84.22370748782159
2024-09-23 07:38:23.546419,41.92,3.34926,-0.0030841997366068195,-0.023827930413011865,0.09640611396773996,40.106058693909645,-100.26678939585686,84.22370748782159
2024-09-23 07:38:23.557382,41.92,3.34926,-0.003631395514708897,-0.023827930413011865,0.09685382322919964,40.106058693909645,-100.26678939585686,84.22370748782159
2024-09-23 07:38:23.600501,41.92,3.349311,-0.0029847020175114316,-0.023728432883788564,0.09685382322919964,40.106058693909645,-96.25519929585457,80.21211738781929
2024-09-23 07:38:23.642560,41.92,3.349311,-0.0029847020175114316,-0.023728432883788564,0.09685382322919964,40.106058693909645,-96.25519929585457,80.21211738781929
2024-09-23 07:38:23.653920,41.92,3.349361,-0.0035318979854855937,-0.023728432883788564,0.09685382322919964,40.106058693909645,-96.25519929585457,76.200527287817
2024-09-23 07:38:23.696255,41.92,3.349361,-0.0035318979854855937,-0.02362894446842532,0.09685382322919964,40.106058693909645,-96.25519929585457,76.200527287817
2024-09-23 07:38:23.739121,41.91,3.349361,-0.0035318979854855937,-0.02362894446842532,0.09695331012558621,40.106058693909645,-96.25519929585457,76.200527287817
2024-09-23 07:38:23.792333,41.91,3.349453,-0.0035318979854855937,-0.02362894446842532,0.09695331012558621,48.12595698684454,-88.23529758782387,84.22370748782159
2024-09-23 07:38:23.803591,41.91,3.349453,-0.0030841997366068195,-0.024026904205785005,0.09695331012558621,48.12595698684454,-88.23529758782387,84.22370748782159
2024-09-23 07:38:23.836096,41.91,3.349453,-0.0030841997366068195,-0.024026904205785005,0.09695331012558621,48.12595698684454,-88.23529758782387,84.22370748782159
2024-09-23 07:38:23.847756,41.91,3.349505,-0.0032831742888682963,-0.024026904205785005,0.09695331012558621,52.137550501942634,-92.24360919585227,80.21211738781929
2024-09-23 07:38:23.890454,41.91,3.349505,-0.0032831742888682963,-0.024325377046758124,0.09759999317981902,32.08287849390507,-100.26678939585686,80.21211738781929
2024-09-23 07:38:23.902256,41.91,3.349556,-0.0032831742888682963,-0.024325377046758124,0.09759999317981902,32.08287849390507,-100.26678939585686,80.21211738781929
2024-09-23 07:38:23.934097,41.91,3.349556,-0.0026862297461545674,-0.024325377046758124,0.09759999317981902,32.08287849390507,-100.26678939585686,80.21211738781929
2024-09-23 07:38:23.945359,41.91,3.349556,-0.0026862297461545674,-0.024325377046758124,0.09680407370509965,32.08287849390507,-100.26678939585686,76.200527287817
2024-09-23 07:38:23.988358,41.91,3.349606,-0.003382661564999035,-0.024176140626271565,0.09665483728461309,44.11764879391193,-100.26678939585686,76.200527287817
2024-09-23 07:38:24.000170,41.91,3.349606,-0.003382661564999035,-0.024176140626271565,0.09665483728461309,44.11764879391193,-92.24360919585227,76.200527287817
2024-09-23 07:38:24.031906,41.91,3.349606,-0.003382661564999035,-0.024176140626271565,0.09665483728461309,44.11764879391193,-92.24360919585227,80.21211738781929
2024-09-23 07:38:24.044258,41.91,3.349747,-0.0032831742888682963,-0.024375126570858115,0.0970030596496862,32.08287849390507,-92.24360919585227,80.21211738781929
2024-09-23 07:38:24.088492,41.91,3.349798,-0.0030841997366068195,-0.024076653729884996,0.09690356060148622,32.08287849390507,-96.25519929585457,80.21211738781929
2024-09-23 07:38:24.131727,41.91,3.349798,-0.0030841997366068195,-0.024076653729884996,0.09690356060148622,36.09446859390736,-100.26678939585686,80.21211738781929
2024-09-23 07:38:24.143456,41.91,3.349849,-0.0025369937054121774,-0.02412639262114825,0.09690356060148622,36.09446859390736,-100.26678939585686,80.21211738781929
2024-09-23 07:38:24.186030,41.91,3.349899,-0.002785727465249955,-0.02412639262114825,0.0973512698629459,40.106058693909645,-92.24360919585227,76.200527287817
2024-09-23 07:38:24.228537,41.91,3.349899,-0.002785727465249955,-0.02367869399252531,0.09725178296655933,40.106058693909645,-92.24360919585227,76.200527287817
2024-09-23 07:38:24.280979,41.91,3.34999,-0.002785727465249955,-0.02367869399252531,0.09725178296655933,36.09446859390736,-100.26678939585686,76.200527287817
2024-09-23 07:38:24.323259,41.91,3.34999,-0.0038801188315820256,-0.02367869399252531,0.09725178296655933,36.09446859390736,-100.26678939585686,76.200527287817
2024-09-23 07:38:24.334523,41.91,3.34999,-0.0038801188315820256,-0.024424863943144692,0.09655535038822652,36.09446859390736,-100.26678939585686,84.22370748782159
2024-09-23 07:38:24.377457,41.91,3.350041,-0.0028354659767690416,-0.023927417309398437,0.09655535038822652,36.09446859390736,-100.26678939585686,84.22370748782159
2024-09-23 07:38:24.389453,41.91,3.350041,-0.0028354659767690416,-0.023927417309398437,0.09655535038822652,44.11764879391193,-96.25519929585457,84.22370748782159
2024-09-23 07:38:24.422111,41.91,3.350041,-0.0028354659767690416,-0.023927417309398437,0.09655535038822652,44.11764879391193,-96.25519929585457,84.22370748782159
2024-09-23 07:38:24.433175,41.91,3.350092,-0.003382661564999035,-0.023927417309398437,0.0973015264147526,36.09446859390736,-96.25519929585457,84.22370748782159
2024-09-23 07:38:24.476574,41.91,3.350143,-0.0031836870127375577,-0.023728432883788564,0.0973015264147526,36.09446859390736,-96.25519929585457,76.200527287817
2024-09-23 07:38:24.488509,41.91,3.350143,-0.0031836870127375577,-0.023728432883788564,0.09745075675933246,36.09446859390736,-96.25519929585457,76.200527287817
2024-09-23 07:38:24.520336,41.91,3.350143,-0.0031836870127375577,-0.023728432883788564,0.09745075675933246,48.12595698684454,-92.24360919585227,76.200527287817
2024-09-23 07:38:24.531567,41.91,3.350235,-0.0035816467500972456,-0.024524361472367997,0.09745075675933246,48.12595698684454,-92.24360919585227,80.21211738781929
2024-09-23 07:38:24.574339,41.91,3.350235,-0.0035816467500972456,-0.024524361472367997,0.09720203344245934,44.11764879391193,-92.24360919585227,76.200527287817
2024-09-23 07:38:24.585710,41.91,3.350286,-0.003233425524256645,-0.024524361472367997,0.09720203344245934,44.11764879391193,-92.24360919585227,76.200527287817
2024-09-23 07:38:24.617938,41.91,3.350286,-0.003233425524256645,-0.024026904205785005,0.09725178296655933,44.11764879391193,-92.24360919585227,76.200527287817
2024-09-23 07:38:24.629350,41.91,3.35038,-0.003233425524256645,-0.024026904205785005,0.09725178296655933,36.09446859390736,-96.25519929585457,76.200527287817
2024-09-23 07:38:24.672522,41.91,3.35038,-0.0029847020175114316,-0.02457410036363125,0.09675432418099966,36.09446859390736,-96.25519929585457,72.1922225099802
2024-09-23 07:38:24.714925,41.91,3.350431,-0.0029847020175114316,-0.02457410036363125,0.09675432418099966,36.09446859390736,-96.25519929585457,72.1922225099802
2024-09-23 07:38:24.727046,41.91,3.350431,-0.0029847020175114316,-0.024225890150371555,0.09695331012558621,28.07457030097246,-100.26678939585686,72.1922225099802
2024-09-23 07:38:24.769183,42.0,3.350482,-0.0031836870127375577,-0.024176140626271565,0.09685382322919964,28.07457030097246,-100.26678939585686,80.21211738781929
2024-09-23 07:38:24.781248,42.0,3.350482,-0.0031836870127375577,-0.024176140626271565,0.09685382322919964,28.07457030097246,-100.26678939585686,80.21211738781929
2024-09-23 07:38:24.812949,42.0,3.350482,-0.0031836870127375577,-0.024176140626271565,0.09685382322919964,28.07457030097246,-100.26678939585686,76.200527287817
2024-09-23 07:38:24.823981,42.0,3.350533,-0.003382661564999035,-0.023827930413011865,0.09715228999426605,28.07457030097246,-100.26678939585686,76.200527287817
2024-09-23 07:38:24.867518,42.0,3.350583,-0.0026862297461545674,-0.023429960042815445,0.09715228999426605,36.09446859390736,-100.26678939585686,84.22370748782159
2024-09-23 07:38:24.909906,42.0,3.350583,-0.0026862297461545674,-0.023429960042815445,0.09695331012558621,40.106058693909645,-100.26678939585686,84.22370748782159
2024-09-23 07:38:24.921459,42.0,3.350634,-0.003482159473966507,-0.023429960042815445,0.09695331012558621,40.106058693909645,-92.24360919585227,80.21211738781929
2024-09-23 07:38:24.963734,42.0,3.350634,-0.003482159473966507,-0.02397715620066169,0.09745075675933246,44.11764879391193,-100.26678939585686,76.200527287817
2024-09-23 07:38:24.975613,42.0,3.350721,-0.003482159473966507,-0.02397715620066169,0.09745075675933246,44.11764879391193,-100.26678939585686,76.200527287817
2024-09-23 07:38:25.007654,42.0,3.350721,-0.003233425524256645,-0.024623849887731242,0.09745075675933246,44.11764879391193,-100.26678939585686,76.200527287817
2024-09-23 07:38:25.019314,42.0,3.350721,-0.003233425524256645,-0.024623849887731242,0.0973015264147526,44.11764879391193,-92.24360919585227,84.22370748782159
2024-09-23 07:38:25.061070,42.0,3.350772,-0.0034324103296106863,-0.023927417309398437,0.0970030596496862,40.106058693909645,-92.24360919585227,84.22370748782159
2024-09-23 07:38:25.072844,42.0,3.350772,-0.0034324103296106863,-0.023927417309398437,0.0970030596496862,40.106058693909645,-100.26678939585686,84.22370748782159
2024-09-23 07:38:25.105245,42.0,3.350823,-0.0034324103296106863,-0.023927417309398437,0.0970030596496862,40.106058693909645,-100.26678939585686,84.22370748782159
2024-09-23 07:38:25.116968,42.0,3.350823,-0.0029847020175114316,-0.023877669304275123,0.09720203344245934,36.09446859390736,-100.26678939585686,84.22370748782159
2024-09-23 07:38:25.159610,42.0,3.350874,-0.003780631555451287,-0.02362894446842532,0.09720203344245934,36.09446859390736,-100.26678939585686,80.21211738781929
2024-09-23 07:38:25.171397,42.0,3.350874,-0.003780631555451287,-0.02362894446842532,0.0970030596496862,36.09446859390736,-100.26678939585686,80.21211738781929
