Ayaan's Suite
Timestamp,Sample Rate (Hz),Time,Ax,Ay,Az,Gx,Gy,Gz
2024-09-23 06:26:56.037419,0,24.639427,-0.008963914274804818,0.018842507696783625,1.0134127283436565,0.3411964856958948,-1.1549687530383468,-1.3387163820605725
2024-09-23 06:26:56.049331,0,24.639427,-0.008963914274804818,0.02122069352992813,1.0118883076550156,0.3411964856958948,-1.1549687530383468,-1.3387163820605725
2024-09-23 06:26:56.082364,0,24.639427,-0.008963914274804818,0.02122069352992813,1.0118883076550156,0.3149550229238346,-1.1549687530383468,-1.3387163820605725
2024-09-23 06:26:56.094108,0,24.639477,-0.014025177977500705,0.018293680157987106,1.0118883076550156,0.3149550229238346,-1.1812102424908428,-1.4437395427253097
2024-09-23 06:26:56.136502,0,24.639528,-0.014025177977500705,0.018293680157987106,1.0130469101527657,0.3674952580444515,-1.203097164625302,-1.43932777255252
2024-09-23 06:26:56.148406,0,24.639528,-0.013903160100075569,0.018293680157987106,1.0130469101527657,0.3674952580444515,-1.203097164625302,-1.43932777255252
2024-09-23 06:26:56.181064,0,24.639528,-0.013903160100075569,0.022196330730096036,1.012925003160638,0.3368419984191656,-1.203097164625302,-1.43932777255252
2024-09-23 06:26:56.192727,0,24.639618,-0.013903160100075569,0.022196330730096036,1.012925003160638,0.3368419984191656,-1.0543573625463993,-1.4524485706396402
2024-09-23 06:26:56.234807,0,24.639618,-0.015793578218854774,0.019513251341567978,1.0107906586533293,0.27559278874509036,-1.1812102424908428,-1.426207081187144
2024-09-23 06:26:56.277682,0,24.639715,-0.01445198763887209,0.019513251341567978,1.0107906586533293,0.27559278874509036,-1.1812102424908428,-1.426207081187144
2024-09-23 06:26:56.289449,0,24.639715,-0.01445198763887209,0.01695219134944173,1.0153031616522024,0.3018342781975865,-1.0849533125951887,-1.426207081187144
2024-09-23 06:26:56.331911,0,24.639766,-0.010366361136344109,0.016830173472016593,1.0132298678554648,0.3018342781975865,-1.0849533125951887,-1.404320052330941
2024-09-23 06:26:56.344350,0,24.639766,-0.010366361136344109,0.016830173472016593,1.0132298678554648,0.37620423259790986,-1.0849533125951887,-1.404320052330941
2024-09-23 06:26:56.377257,0,24.639817,-0.010366361136344109,0.016830173472016593,1.0132298678554648,0.37620423259790986,-1.1024857741333545,-1.3824903330512346
2024-09-23 06:26:56.388264,0,24.639817,-0.010976248499571852,0.018964423802771455,1.0139616014517532,0.37620423259790986,-1.1024857741333545,-1.3824903330512346
2024-09-23 06:26:56.431255,0,24.639868,-0.013598266544692013,0.019208359305161096,1.0139616014517532,0.3062460483703762,-1.0587118231426924,-1.3693696416858583
2024-09-23 06:26:56.474044,0,24.639868,-0.013598266544692013,0.019208359305161096,1.0121322188537785,0.3411964856958948,-1.1243154934130608,-1.3693696416858583
2024-09-23 06:26:56.485339,0,24.639918,-0.015122834574070423,0.019208359305161096,1.0121322188537785,0.3411964856958948,-1.1243154934130608,-1.3956111311383546
2024-09-23 06:26:56.527549,0,24.640007,-0.015122834574070423,0.020245056329760223,1.0146322843374704,0.3018342781975865,-1.0455910250555724,-1.413086283100024
2024-09-23 06:26:56.570864,0,24.640007,-0.014695923141261731,0.01975718684395762,1.014022554947817,0.3018342781975865,-1.0455910250555724,-1.413086283100024
2024-09-23 06:26:56.582555,0,24.640007,-0.014695923141261731,0.01975718684395762,1.014022554947817,0.3062460483703762,-1.0630662837389857,-1.413086283100024
2024-09-23 06:26:56.625357,0,24.640058,-0.016708257366028764,0.017013149402435646,1.01231507934197,0.3062460483703762,-1.0630662837389857,-1.3124748926080763
2024-09-23 06:26:56.636852,0,24.640058,-0.016708257366028764,0.017013149402435646,1.01231507934197,0.31060053564710544,-1.0630662837389857,-1.3124748926080763
2024-09-23 06:26:56.671175,0,24.640109,-0.016708257366028764,0.017013149402435646,1.01231507934197,0.31060053564710544,-1.028115873093903,-1.3474826128296553
2024-09-23 06:26:56.682395,0,24.640109,-0.012500713238536278,0.019025483627202678,1.0153641151482662,0.31060053564710544,-1.028115873093903,-1.3474826128296553
2024-09-23 06:26:56.714406,0,24.640109,-0.012500713238536278,0.019025483627202678,1.0153641151482662,0.3849704900474288,-1.028115873093903,-1.3474826128296553
2024-09-23 06:26:56.725722,0,24.64016,-0.016586237969626952,0.019940162774376668,1.0153641151482662,0.3849704900474288,-1.0762442846808582,-1.3737241022821516
2024-09-23 06:26:56.768026,0,24.64016,-0.016586237969626952,0.019940162774376668,1.0118273541589518,0.2318188110739924,-1.1199610328167677,-1.3737241022821516
2024-09-23 06:26:56.780088,0,24.64021,-0.01146401621393715,0.019940162774376668,1.0118273541589518,0.2318188110739924,-1.1199610328167677,-1.4306188513599336
2024-09-23 06:26:56.813993,0,24.64021,-0.01146401621393715,0.018964423802771455,1.0117053499523165,0.2318188110739924,-1.1199610328167677,-1.4306188513599336
2024-09-23 06:26:56.825164,0,24.640261,-0.01146401621393715,0.018964423802771455,1.0117053499523165,0.27559278874509036,-1.1637349838074296,-1.2993542012427002
2024-09-23 06:26:56.867081,0,24.640261,-0.015000815177668611,0.02213537267710212,1.0119492611510794,0.2581175834225491,-1.1637349838074296,-1.2993542012427002
2024-09-23 06:26:56.878893,0,24.640261,-0.015000815177668611,0.02213537267710212,1.0119492611510794,0.2581175834225491,-1.1068402347296475,-1.3824903330512346
2024-09-23 06:26:56.911517,0,24.640349,-0.016037512202267738,0.02213537267710212,1.0119492611510794,0.2581175834225491,-1.1068402347296475,-1.3824903330512346
2024-09-23 06:26:56.964675,0,24.640349,-0.016037512202267738,0.016586237969626952,1.0101198785531047,0.27123832814879717,-1.1199610328167677,-1.4306188513599336
2024-09-23 06:26:56.976402,0,24.6404,-0.016037512202267738,0.016586237969626952,1.0101198785531047,0.27123832814879717,-1.1199610328167677,-1.4306188513599336
2024-09-23 06:26:57.008779,44.38,24.6404,-0.015427726610477303,0.019574312684975875,1.0101198785531047,0.27123832814879717,-1.1199610328167677,-1.4306188513599336
2024-09-23 06:26:57.021009,44.38,24.6404,-0.015427726610477303,0.019574312684975875,1.0145713308414066,0.2668265312955715,-1.0587118231426924,-1.3343619214642792
2024-09-23 06:26:57.064928,44.38,24.640451,-0.01341539238571027,0.020549948366167105,1.0132298678554648,0.24935132597303017,-1.1418479549512268,-1.3343619214642792
2024-09-23 06:26:57.108167,44.38,24.640501,-0.013476350438704184,0.020549948366167105,1.0132298678554648,0.24935132597303017,-1.1418479549512268,-1.3430708426568656
2024-09-23 06:26:57.119797,44.38,24.640501,-0.013476350438704184,0.020366972435748053,1.0133517748475924,0.2843590461946093,-1.1418479549512268,-1.3430708426568656
2024-09-23 06:26:57.162438,44.38,24.640552,-0.017805912443621806,0.02012303845233509,1.0132298678554648,0.2843590461946093,-1.1418479549512268,-1.3956111311383546
2024-09-23 06:26:57.205437,44.38,24.640552,-0.017805912443621806,0.02012303845233509,1.0132298678554648,0.27123832814879717,-1.0718325145080685,-1.4218526205908506
2024-09-23 06:26:57.217152,44.38,24.640643,-0.013598266544692013,0.017927828549609635,1.0132298678554648,0.27123832814879717,-1.0718325145080685,-1.4218526205908506
2024-09-23 06:26:57.259941,44.38,24.640693,-0.014269113479890346,0.017927828549609635,1.0124370835486052,0.39373674749694765,-1.1287272635858505,-1.434973311956227
2024-09-23 06:26:57.302965,44.38,24.640693,-0.014269113479890346,0.02164760496273682,1.0160348952484908,0.39373674749694765,-1.1287272635858505,-1.434973311956227
2024-09-23 06:26:57.315733,44.38,24.640693,-0.014269113479890346,0.02164760496273682,1.0160348952484908,0.3280757409696467,-1.0455910250555724,-1.434973311956227
2024-09-23 06:26:57.349179,44.38,24.640693,-0.014269113479890346,0.02164760496273682,1.0160348952484908,0.3280757409696467,-1.0455910250555724,-1.4437395427253097
2024-09-23 06:26:57.360477,44.38,24.640787,-0.01396421992450679,0.020610907938137694,1.0138396944596255,0.29306802074806765,-1.0455910250555724,-1.4437395427253097
2024-09-23 06:26:57.404230,44.38,24.640838,-0.01396421992450679,0.021098777423940302,1.0138396944596255,0.29306802074806765,-1.1068402347296475,-1.43932777255252
2024-09-23 06:26:57.416487,44.38,24.640838,-0.01396421992450679,0.021098777423940302,1.0105467474545664,0.29306802074806765,-1.1068402347296475,-1.43932777255252
2024-09-23 06:26:57.448924,44.38,24.640838,-0.01396421992450679,0.021098777423940302,1.0105467474545664,0.3062460483703762,-1.0674780539117754,-1.4087318225037306
2024-09-23 06:26:57.460141,44.38,24.640889,-0.015244750680058252,0.02176952106872465,1.0105467474545664,0.3062460483703762,-1.0674780539117754,-1.4087318225037306
2024-09-23 06:26:57.502479,44.38,24.64094,-0.014756881194255646,0.02176952106872465,1.0145103773453428,0.27123832814879717,-1.0587118231426924,-1.3693696416858583
2024-09-23 06:26:57.597599,44.38,24.64094,-0.014756881194255646,0.017013149402435646,1.0143883731387076,0.2537058132497594,-1.2818216329827905,-1.3693696416858583
2024-09-23 06:26:57.608954,44.38,24.640991,-0.014756881194255646,0.017013149402435646,1.0143883731387076,0.2537058132497594,-1.2818216329827905,-1.2993542012427002
2024-09-23 06:26:57.641708,44.38,24.640991,-0.013171458402297304,0.017013149402435646,1.0143883731387076,0.2537058132497594,-1.2818216329827905,-1.2993542012427002
2024-09-23 06:26:57.653538,44.38,24.640991,-0.013171458402297304,0.02317206970170125,1.012802998954003,0.2537058132497594,-1.0893650827679784,-1.3780785628784449
2024-09-23 06:26:57.696860,44.38,24.64108,-0.016891131525010507,0.020915799974544576,1.0123761300525411,0.27994727602181957,-1.0893650827679784,-1.3780785628784449
2024-09-23 06:26:57.708758,44.38,24.64108,-0.016891131525010507,0.020915799974544576,1.0123761300525411,0.27994727602181957,-1.1243154934130608,-1.3780785628784449
2024-09-23 06:26:57.742091,44.38,24.641131,-0.015427726610477303,0.020915799974544576,1.0123761300525411,0.27994727602181957,-1.1243154934130608,-1.3518370734259486
2024-09-23 06:26:57.753855,44.38,24.641131,-0.015427726610477303,0.01798878660260355,1.01426646614658,0.2668265312955715,-1.1243154934130608,-1.3518370734259486
2024-09-23 06:26:57.797396,44.38,24.641182,-0.014574005516297226,0.021037716080532405,1.0157299333391567,0.2668265312955715,-1.1899764732599258,-1.3693696416858583
2024-09-23 06:26:57.839641,44.38,24.641182,-0.014574005516297226,0.021037716080532405,1.0157299333391567,0.2668265312955715,-1.207451731943339,-1.4174980532728136
2024-09-23 06:26:57.851085,44.38,24.641276,-0.015061773230662524,0.02085484192155066,1.0157299333391567,0.2668265312955715,-1.207451731943339,-1.4174980532728136
2024-09-23 06:26:57.894366,44.38,24.641276,-0.015061773230662524,0.02085484192155066,1.0126809947473678,0.2668265312955715,-1.207451731943339,-1.4174980532728136
2024-09-23 06:26:57.938379,44.38,24.641276,-0.015061773230662524,0.02085484192155066,1.0126809947473678,0.41121195281948897,-1.0105833048339934,-1.3693696416858583
2024-09-23 06:26:57.950313,44.38,24.641327,-0.016525279916633037,0.022684200215898644,1.0126809947473678,0.41121195281948897,-1.0105833048339934,-1.3693696416858583
2024-09-23 06:26:57.982113,44.38,24.641327,-0.016525279916633037,0.022684200215898644,1.011034569852092,0.41121195281948897,-1.0105833048339934,-1.3693696416858583
2024-09-23 06:26:57.994398,44.38,24.641421,-0.01396421992450679,0.022684200215898644,1.011034569852092,0.3149550229238346,-1.0893650827679784,-1.3956111311383546
2024-09-23 06:26:58.038061,43.08,24.641421,-0.01396421992450679,0.01939133523558015,1.0121322188537785,0.2581175834225491,-1.0893650827679784,-1.3911993609655648
2024-09-23 06:26:58.049857,43.08,24.641472,-0.01396421992450679,0.01939133523558015,1.0121322188537785,0.2581175834225491,-1.0893650827679784,-1.3911993609655648
2024-09-23 06:26:58.081335,43.08,24.641472,-0.01408613603049462,0.019696228790963704,1.0121322188537785,0.2581175834225491,-1.0893650827679784,-1.3911993609655648
2024-09-23 06:26:58.092790,43.08,24.641472,-0.01408613603049462,0.019696228790963704,1.014205512650516,0.3630834878716618,-1.1549687530383468,-1.404320052330941
2024-09-23 06:26:58.136412,43.08,24.641523,-0.016891131525010507,0.02012303845233509,1.0107297051572652,0.2843590461946093,-1.0893650827679784,-1.404320052330941
2024-09-23 06:26:58.178605,43.08,24.641617,-0.016891131525010507,0.02012303845233509,1.0107297051572652,0.2843590461946093,-1.0893650827679784,-1.531230241851881
2024-09-23 06:26:58.190264,43.08,24.641617,-0.011524974266931064,0.02097675802753849,1.0128639524500669,0.27123832814879717,-1.0893650827679784,-1.531230241851881
2024-09-23 06:26:58.232202,43.08,24.641668,-0.01536666678604608,0.017805912443621806,1.0128639524500669,0.27123832814879717,-1.2468139127612115,-1.4437395427253097
2024-09-23 06:26:58.244412,43.08,24.641668,-0.01536666678604608,0.017805912443621806,1.0167666288447792,0.27123832814879717,-1.2468139127612115,-1.4437395427253097
2024-09-23 06:26:58.276787,43.08,24.641668,-0.01536666678604608,0.017805912443621806,1.0167666288447792,0.3237212803733535,-1.1637349838074296,-1.4437395427253097
2024-09-23 06:26:58.287981,43.08,24.641718,-0.01042742096077533,0.019574312684975875,1.0167666288447792,0.3237212803733535,-1.1637349838074296,-1.426207081187144
2024-09-23 06:26:58.330593,43.08,24.641769,-0.01042742096077533,0.019574312684975875,1.0145713308414066,0.29747979092085736,-1.0980740039605648,-1.4874562908612192
2024-09-23 06:26:58.342684,43.08,24.641769,-0.012927522899907663,0.019574312684975875,1.0145713308414066,0.29747979092085736,-1.0980740039605648,-1.4874562908612192
2024-09-23 06:26:58.376420,43.08,24.641769,-0.012927522899907663,0.02311100987727003,1.0120102146471432,0.29747979092085736,-1.0980740039605648,-1.4874562908612192
2024-09-23 06:26:58.387942,43.08,24.641859,-0.012927522899907663,0.02311100987727003,1.0120102146471432,0.29747979092085736,-1.203097164625302,-1.4568603408124299
2024-09-23 06:26:58.422519,43.08,24.641859,-0.012073802565215924,0.02311100987727003,1.0120102146471432,0.29747979092085736,-1.203097164625302,-1.4568603408124299
2024-09-23 06:26:58.434203,43.08,24.641859,-0.012073802565215924,0.020732824044125523,1.0147542885441054,0.38061600277069957,-1.2336931146740913,-1.43932777255252
2024-09-23 06:26:58.476690,43.08,24.641911,-0.01536666678604608,0.019940162774376668,1.0145713308414066,0.3411964856958948,-1.2336931146740913,-1.43932777255252
2024-09-23 06:26:58.489031,43.08,24.641911,-0.01536666678604608,0.019940162774376668,1.0145713308414066,0.3411964856958948,-1.1549687530383468,-1.43932777255252
2024-09-23 06:26:58.522001,43.08,24.641962,-0.014025177977500705,0.019940162774376668,1.0145713308414066,0.3411964856958948,-1.1549687530383468,-1.3430708426568656
2024-09-23 06:26:58.533801,43.08,24.641962,-0.014025177977500705,0.018659531766364576,1.0145713308414066,0.3411964856958948,-1.1549687530383468,-1.3430708426568656
2024-09-23 06:26:58.576080,43.08,24.642012,-0.015244750680058252,0.018659531766364576,1.0130469101527657,0.3193667930966243,-1.1243154934130608,-1.3474826128296553
2024-09-23 06:26:58.618323,43.08,24.642012,-0.015244750680058252,0.02176952106872465,1.0160958487445546,0.3193667930966243,-1.1243154934130608,-1.3474826128296553
2024-09-23 06:26:58.630281,43.08,24.642063,-0.015244750680058252,0.02176952106872465,1.0160958487445546,0.3674952580444515,-1.1637349838074296,-1.3999655917346479
2024-09-23 06:26:58.672990,43.08,24.642063,-0.01573262016586086,0.020001120827370582,1.0163397599433175,0.3543172304221429,-1.1549687530383468,-1.3299501512914895
2024-09-23 06:26:58.715698,43.08,24.642114,-0.012256778495634975,0.020001120827370582,1.0163397599433175,0.3543172304221429,-1.1549687530383468,-1.3299501512914895
2024-09-23 06:26:58.727117,43.08,24.642114,-0.012256778495634975,0.02018409827676631,1.01426646614658,0.24499683869630098,-1.1506142924420535,-1.3299501512914895
2024-09-23 06:26:58.769567,43.08,24.642201,-0.016769215419022678,0.019330377182586234,1.0131688171448936,0.24499683869630098,-1.1506142924420535,-1.404320052330941
2024-09-23 06:26:58.781074,43.08,24.642201,-0.016769215419022678,0.019330377182586234,1.0131688171448936,0.3237212803733535,-1.1506142924420535,-1.404320052330941
2024-09-23 06:26:58.812486,43.08,24.642201,-0.016769215419022678,0.019330377182586234,1.0131688171448936,0.3237212803733535,-1.1549687530383468,-1.2862334031555802
2024-09-23 06:26:58.824162,43.08,24.642252,-0.010305402323861856,0.02262324216290473,1.0123761300525411,0.3237212803733535,-1.1549687530383468,-1.2862334031555802
2024-09-23 06:26:58.866453,43.08,24.642303,-0.01256167205101853,0.02262324216290473,1.0123761300525411,0.3456082558686845,-1.1111946953259408,-1.3387163820605725
2024-09-23 06:26:58.878823,43.08,24.642303,-0.01256167205101853,0.020001120827370582,1.0123761300525411,0.3456082558686845,-1.1111946953259408,-1.3387163820605725
2024-09-23 06:26:58.911219,43.08,24.642303,-0.01256167205101853,0.020001120827370582,1.0147542885441054,0.38932495064372197,-1.1111946953259408,-1.3387163820605725
2024-09-23 06:26:58.922407,43.08,24.642354,-0.016891131525010507,0.020001120827370582,1.0147542885441054,0.38932495064372197,-1.0805987452771515,-1.448094003321603
2024-09-23 06:26:58.964686,43.08,24.642354,-0.016891131525010507,0.02018409827676631,1.0145103773453428,0.29747979092085736,-1.1287272635858505,-1.3649578715130686
2024-09-23 06:26:58.976416,43.08,24.642444,-0.016891131525010507,0.02018409827676631,1.0145103773453428,0.29747979092085736,-1.1287272635858505,-1.3649578715130686
2024-09-23 06:26:59.009004,43.08,24.642444,-0.01396421992450679,0.021586543619328925,1.011217527554791,0.29747979092085736,-1.1287272635858505,-1.3649578715130686
2024-09-23 06:26:59.020809,43.08,24.642444,-0.01396421992450679,0.021586543619328925,1.011217527554791,0.3193667930966243,-1.1812102424908428,-1.3649578715130686
2024-09-23 06:26:59.064943,43.98,24.642496,-0.011707950956838454,0.01926931735815501,1.0139616014517532,0.3062460483703762,-1.1812102424908428,-1.3693696416858583
2024-09-23 06:26:59.107677,43.98,24.642547,-0.009390723936176203,0.01926931735815501,1.0139616014517532,0.3062460483703762,-1.1506142924420535,-1.2862334031555802
2024-09-23 06:26:59.121592,43.98,24.642547,-0.009390723936176203,0.019818144896951533,1.0148762927507406,0.3062460483703762,-1.1506142924420535,-1.2862334031555802
2024-09-23 06:26:59.153759,43.98,24.642547,-0.009390723936176203,0.019818144896951533,1.0148762927507406,0.3237212803733535,-1.1637349838074296,-1.2862334031555802
2024-09-23 06:26:59.164641,43.98,24.642597,-0.012500713238536278,0.02067186599113161,1.0148762927507406,0.3237212803733535,-1.1637349838074296,-1.4174980532728136
2024-09-23 06:26:59.206956,43.98,24.642597,-0.012500713238536278,0.02067186599113161,1.0132298678554648,0.3630834878716618,-1.1812102424908428,-1.4087318225037306
2024-09-23 06:26:59.218871,43.98,24.642648,-0.016708257366028764,0.02067186599113161,1.0132298678554648,0.3630834878716618,-1.1812102424908428,-1.4087318225037306
2024-09-23 06:26:59.251280,43.98,24.642648,-0.016708257366028764,0.020915799974544576,1.0122541258459061,0.3630834878716618,-1.1812102424908428,-1.4087318225037306
2024-09-23 06:26:59.303789,43.98,24.642699,-0.016708257366028764,0.020915799974544576,1.0122541258459061,0.27123832814879717,-1.1418479549512268,-1.413086283100024
2024-09-23 06:26:59.315400,43.98,24.642699,-0.013232416455291218,0.019940162774376668,1.0122541258459061,0.27123832814879717,-1.1418479549512268,-1.413086283100024
2024-09-23 06:26:59.347077,43.98,24.642699,-0.013232416455291218,0.019940162774376668,1.0111565740587272,0.27123832814879717,-1.1418479549512268,-1.413086283100024
2024-09-23 06:26:59.359266,43.98,24.642786,-0.016098470255261652,0.019940162774376668,1.0111565740587272,0.3280757409696467,-1.0849533125951887,-1.413086283100024
2024-09-23 06:26:59.402248,43.98,24.642786,-0.016098470255261652,0.020366972435748053,1.0130469101527657,0.3543172304221429,-1.1724439050000162,-1.413086283100024
2024-09-23 06:26:59.413466,43.98,24.642838,-0.016098470255261652,0.020366972435748053,1.0130469101527657,0.3543172304221429,-1.1724439050000162,-1.413086283100024
2024-09-23 06:26:59.446209,43.98,24.642838,-0.013232416455291218,0.020366972435748053,1.0130469101527657,0.3543172304221429,-1.1724439050000162,-1.413086283100024
2024-09-23 06:26:59.457108,43.98,24.642838,-0.013232416455291218,0.021830479121718566,1.01231507934197,0.20122284768498502,-1.0412365644592791,-1.3037086618389935
2024-09-23 06:26:59.500244,43.98,24.642888,-0.012622630104012445,0.018049744655597465,1.0133517748475924,0.20122284768498502,-1.0412365644592791,-1.3037086618389935
2024-09-23 06:26:59.512055,43.98,24.642888,-0.012622630104012445,0.018049744655597465,1.0133517748475924,0.31060053564710544,-1.1024857741333545,-1.3037086618389935
2024-09-23 06:26:59.544080,43.98,24.642982,-0.012622630104012445,0.018049744655597465,1.0133517748475924,0.31060053564710544,-1.1024857741333545,-1.469981032177806
2024-09-23 06:26:59.555423,43.98,24.642982,-0.011951885699739756,0.022318348607521174,1.0113394345469187,0.3543172304221429,-1.1024857741333545,-1.469981032177806
2024-09-23 06:26:59.598202,43.98,24.643033,-0.013110498830326714,0.021708563015730736,1.0113394345469187,0.3543172304221429,-1.0980740039605648,-1.404320052330941
2024-09-23 06:26:59.610344,43.98,24.643033,-0.013110498830326714,0.021708563015730736,1.01231507934197,0.3543172304221429,-1.0980740039605648,-1.404320052330941
2024-09-23 06:26:59.642181,43.98,24.643033,-0.013110498830326714,0.021708563015730736,1.01231507934197,0.37620423259790986,-1.1243154934130608,-1.404320052330941
2024-09-23 06:26:59.653341,43.98,24.643084,-0.012805606793919833,0.020366972435748053,1.01231507934197,0.37620423259790986,-1.1243154934130608,-1.3824903330512346
2024-09-23 06:26:59.696094,43.98,24.643134,-0.012805606793919833,0.020366972435748053,1.0120102146471432,0.39373674749694765,-1.2205724233087152,-1.3780785628784449
2024-09-23 06:26:59.739991,43.98,24.643134,-0.012805606793919833,0.020549948366167105,1.0132908213515286,0.39373674749694765,-1.2205724233087152,-1.3780785628784449
2024-09-23 06:26:59.751778,43.98,24.643225,-0.012805606793919833,0.020549948366167105,1.0132908213515286,0.27559278874509036,-1.2336931146740913,-1.2512256829340012
2024-09-23 06:26:59.794864,43.98,24.643225,-0.015305708733052167,0.021037716080532405,1.012925003160638,0.29747979092085736,-1.1768557818945498,-1.426207081187144
2024-09-23 06:26:59.838212,43.98,24.643276,-0.013720285941093825,0.019574312684975875,1.012925003160638,0.29747979092085736,-1.1768557818945498,-1.426207081187144
2024-09-23 06:26:59.849949,43.98,24.643276,-0.013720285941093825,0.019574312684975875,1.0145103773453428,0.31060053564710544,-1.2468139127612115,-1.426207081187144
2024-09-23 06:26:59.893436,43.98,24.643327,-0.011951885699739756,0.019940162774376668,1.011095523348156,0.3324875378228724,-1.2468139127612115,-1.4524485706396402
2024-09-23 06:26:59.936153,43.98,24.643377,-0.011951885699739756,0.019940162774376668,1.011095523348156,0.3324875378228724,-1.0849533125951887,-1.3693696416858583
2024-09-23 06:26:59.947593,43.98,24.643377,-0.014574005516297226,0.022440264713509,1.0118883076550156,0.3324875378228724,-1.0849533125951887,-1.3693696416858583
2024-09-23 06:26:59.990261,43.98,24.643428,-0.011768909009832369,0.021464627513341095,1.0118883076550156,0.3193667930966243,-1.0455910250555724,-1.413086283100024
2024-09-23 06:27:00.033577,43.98,24.643428,-0.011768909009832369,0.021464627513341095,1.01426646614658,0.3543172304221429,-1.15932321363464,-1.413086283100024
2024-09-23 06:27:00.045098,43.98,24.643479,-0.015427726610477303,0.021464627513341095,1.01426646614658,0.3543172304221429,-1.15932321363464,-1.3737241022821516
2024-09-23 06:27:00.087276,43.74,24.643566,-0.015427726610477303,0.023720795469060463,1.0087784155671629,0.35872900059493257,-1.1374934943549335,-1.4524485706396402
2024-09-23 06:27:00.130754,43.74,24.643566,-0.01585453627184869,0.020062078880364497,1.0135347325502915,0.35872900059493257,-1.1374934943549335,-1.4524485706396402
2024-09-23 06:27:00.142603,43.74,24.643566,-0.01585453627184869,0.020062078880364497,1.0135347325502915,0.3149550229238346,-1.1287272635858505,-1.4087318225037306
2024-09-23 06:27:00.184930,43.74,24.643617,-0.013537308491698099,0.01853761414140007,1.0135347325502915,0.3149550229238346,-1.1287272635858505,-1.4087318225037306
2024-09-23 06:27:00.227420,43.74,24.643617,-0.013537308491698099,0.01853761414140007,1.0116442992417454,0.35872900059493257,-1.1287272635858505,-1.4087318225037306
2024-09-23 06:27:00.280074,43.74,24.643617,-0.013537308491698099,0.01853761414140007,1.0116442992417454,0.35872900059493257,-1.1899764732599258,-1.4087318225037306
2024-09-23 06:27:00.323234,43.74,24.643617,-0.013537308491698099,0.01853761414140007,1.0116442992417454,0.35872900059493257,-1.1899764732599258,-1.3824903330512346
2024-09-23 06:27:00.334487,43.74,24.643668,-0.014878899071680782,0.01975718684395762,1.014144559154452,0.39809120809324083,-1.1899764732599258,-1.3824903330512346
2024-09-23 06:27:00.377881,43.74,24.643719,-0.011281142054955407,0.020427930488741967,1.014144559154452,0.39809120809324083,-1.1243154934130608,-1.448094003321603
2024-09-23 06:27:00.390026,43.74,24.643719,-0.011281142054955407,0.020427930488741967,1.0115223922496177,0.39809120809324083,-1.1243154934130608,-1.448094003321603
2024-09-23 06:27:00.422818,43.74,24.643719,-0.011281142054955407,0.020427930488741967,1.0115223922496177,0.2581175834225491,-1.2555801435302942,-1.413086283100024
2024-09-23 06:27:00.433815,43.74,24.643769,-0.01182986782231462,0.01890346574977754,1.0115223922496177,0.2581175834225491,-1.2555801435302942,-1.413086283100024
2024-09-23 06:27:00.476202,43.74,24.64382,-0.013049540777332799,0.01890346574977754,1.0146322843374704,0.3411964856958948,-1.1987427040290088,-1.4087318225037306
2024-09-23 06:27:00.519439,43.74,24.64382,-0.013049540777332799,0.02122069352992813,1.0131078636488298,0.3411964856958948,-1.1987427040290088,-1.4087318225037306
2024-09-23 06:27:00.530788,43.74,24.644004,-0.013049540777332799,0.02122069352992813,1.0131078636488298,0.29747979092085736,-1.203097164625302,-1.3868447936475277
2024-09-23 06:27:00.574092,43.74,24.644004,-0.012866564846913748,0.020793883868556746,1.012925003160638,0.3062460483703762,-1.1287272635858505,-1.3868447936475277
2024-09-23 06:27:00.585653,43.74,24.644004,-0.012866564846913748,0.020793883868556746,1.012925003160638,0.3062460483703762,-1.1287272635858505,-1.3737241022821516
2024-09-23 06:27:00.619197,43.74,24.644056,-0.015183792627064338,0.018842507696783625,1.012925003160638,0.3062460483703762,-1.1287272635858505,-1.3737241022821516
2024-09-23 06:27:00.630662,43.74,24.644056,-0.015183792627064338,0.018842507696783625,1.0124370835486052,0.3062460483703762,-1.1374934943549335,-1.3737241022821516
2024-09-23 06:27:00.664994,43.74,24.644056,-0.015183792627064338,0.018842507696783625,1.0124370835486052,0.3062460483703762,-1.1374934943549335,-1.3168293532043696
2024-09-23 06:27:00.676662,43.74,24.644107,-0.014208053655459124,0.02122069352992813,1.0115223922496177,0.3193667930966243,-1.1374934943549335,-1.3168293532043696
2024-09-23 06:27:00.718557,43.74,24.644157,-0.013110498830326714,0.01926931735815501,1.0115223922496177,0.3193667930966243,-1.0762442846808582,-1.413086283100024
2024-09-23 06:27:00.730868,43.74,24.644157,-0.013110498830326714,0.01926931735815501,1.0153641151482662,0.3193667930966243,-1.0762442846808582,-1.413086283100024
2024-09-23 06:27:00.762749,43.74,24.644157,-0.013110498830326714,0.01926931735815501,1.0153641151482662,0.39373674749694765,-1.1506142924420535,-1.413086283100024
2024-09-23 06:27:00.774368,43.74,24.644208,-0.010610295879245411,0.019086441680196593,1.0153641151482662,0.39373674749694765,-1.1506142924420535,-1.461214801408723
2024-09-23 06:27:00.816957,43.74,24.644259,-0.010610295879245411,0.019086441680196593,1.0115223922496177,0.3193667930966243,-1.1637349838074296,-1.3606034109167755
2024-09-23 06:27:00.828800,43.74,24.644259,-0.012988480952901577,0.019086441680196593,1.0115223922496177,0.3193667930966243,-1.1637349838074296,-1.3606034109167755
2024-09-23 06:27:00.860326,43.74,24.644259,-0.012988480952901577,0.019513251341567978,1.0087173648565917,0.3193667930966243,-1.1637349838074296,-1.3606034109167755
2024-09-23 06:27:00.871704,43.74,24.644346,-0.012988480952901577,0.019513251341567978,1.0087173648565917,0.37184974532118065,-1.2293386540777982,-1.3956111311383546
2024-09-23 06:27:00.915089,43.74,24.644346,-0.013537308491698099,0.016159429827232244,1.012925003160638,0.37184974532118065,-1.203097164625302,-1.448094003321603
2024-09-23 06:27:00.957763,43.74,24.644397,-0.014939857124674697,0.016159429827232244,1.012925003160638,0.37184974532118065,-1.203097164625302,-1.448094003321603
2024-09-23 06:27:00.969282,43.74,24.644397,-0.014939857124674697,0.018171764051999276,1.0144494238492787,0.3280757409696467,-1.1637349838074296,-1.448094003321603
2024-09-23 06:27:01.011490,43.74,24.644448,-0.014939857124674697,0.018171764051999276,1.0144494238492787,0.3280757409696467,-1.1637349838074296,-1.4174980532728136
2024-09-23 06:27:01.054957,43.74,24.644448,-0.013293374508285133,0.018171764051999276,1.0144494238492787,0.3280757409696467,-1.1637349838074296,-1.4174980532728136
2024-09-23 06:27:01.065988,43.74,24.644448,-0.013293374508285133,0.01713506550842347,1.0166446246381442,0.37184974532118065,-1.1068402347296475,-1.461214801408723
2024-09-23 06:27:01.108202,43.42,24.644499,-0.014208053655459124,0.02274515826889256,1.0164007134393813,0.37184974532118065,-1.1068402347296475,-1.461214801408723
2024-09-23 06:27:01.119204,43.42,24.644499,-0.014208053655459124,0.02274515826889256,1.0164007134393813,0.3543172304221429,-1.0980740039605648,-1.461214801408723
2024-09-23 06:27:01.151895,43.42,24.644499,-0.014208053655459124,0.02274515826889256,1.0164007134393813,0.3543172304221429,-1.0980740039605648,-1.413086283100024
2024-09-23 06:27:01.163181,43.42,24.644549,-0.01378124399408774,0.02012303845233509,1.011217527554791,0.38932495064372197,-1.0980740039605648,-1.413086283100024
2024-09-23 06:27:01.206089,43.42,24.6446,-0.01164699290384454,0.02164760496273682,1.011217527554791,0.38932495064372197,-1.1637349838074296,-1.4174980532728136
2024-09-23 06:27:01.217970,43.42,24.6446,-0.01164699290384454,0.02164760496273682,1.0103028362558035,0.38932495064372197,-1.1637349838074296,-1.4174980532728136
2024-09-23 06:27:01.250025,43.42,24.6446,-0.01164699290384454,0.02164760496273682,1.0103028362558035,0.2668265312955715,-1.1330817241821438,-1.4174980532728136
2024-09-23 06:27:01.261403,43.42,24.644687,-0.012744546969488612,0.022318348607521174,1.0103028362558035,0.2668265312955715,-1.1330817241821438,-1.43932777255252
2024-09-23 06:27:01.303500,43.42,24.644739,-0.012744546969488612,0.022318348607521174,1.014205512650516,0.27123832814879717,-1.1506142924420535,-1.3911993609655648
2024-09-23 06:27:01.315093,43.42,24.644739,-0.014512945691866003,0.022318348607521174,1.014205512650516,0.27123832814879717,-1.1506142924420535,-1.3911993609655648
2024-09-23 06:27:01.347346,43.42,24.644739,-0.014512945691866003,0.01963527073796979,1.0131688171448936,0.27123832814879717,-1.1506142924420535,-1.3911993609655648
2024-09-23 06:27:01.358995,43.42,24.644833,-0.014512945691866003,0.01963527073796979,1.0131688171448936,0.4593404177673161,-1.1855647030871361,-1.3430708426568656
2024-09-23 06:27:01.401330,43.42,24.644833,-0.013232416455291218,0.018659531766364576,1.0120712653577144,0.37184974532118065,-1.1506142924420535,-1.3430708426568656
2024-09-23 06:27:01.413416,43.42,24.644833,-0.013232416455291218,0.018659531766364576,1.0120712653577144,0.37184974532118065,-1.1506142924420535,-1.4568603408124299
2024-09-23 06:27:01.445473,43.42,24.644885,-0.011586034850850625,0.018659531766364576,1.0120712653577144,0.37184974532118065,-1.1506142924420535,-1.4568603408124299
2024-09-23 06:27:01.456575,43.42,24.644885,-0.011586034850850625,0.02085484192155066,1.0149982969573756,0.37184974532118065,-1.1724439050000162,-1.4568603408124299
2024-09-23 06:27:01.499502,43.42,24.644935,-0.015183792627064338,0.02018409827676631,1.0152421109416312,0.37184974532118065,-1.1724439050000162,-1.404320052330941
2024-09-23 06:27:01.511655,43.42,24.644935,-0.015183792627064338,0.02018409827676631,1.0152421109416312,0.3018342781975865,-1.1724439050000162,-1.404320052330941
2024-09-23 06:27:01.544332,43.42,24.644986,-0.015183792627064338,0.02018409827676631,1.0152421109416312,0.3018342781975865,-1.2336931146740913,-1.426207081187144
2024-09-23 06:27:01.556069,43.42,24.644986,-0.016403363810645208,0.022440264713509,1.0151811574455674,0.3018342781975865,-1.2336931146740913,-1.426207081187144
2024-09-23 06:27:01.598061,43.42,24.645037,-0.012012843752733671,0.018415698035412244,1.0151811574455674,0.29747979092085736,-1.1287272635858505,-1.4174980532728136
2024-09-23 06:27:01.640661,43.42,24.645037,-0.012012843752733671,0.018415698035412244,1.011095523348156,0.24935132597303017,-1.1287272635858505,-1.4174980532728136
2024-09-23 06:27:01.652036,43.42,24.645088,-0.01445198763887209,0.018415698035412244,1.011095523348156,0.24935132597303017,-1.1855647030871361,-1.3780785628784449
2024-09-23 06:27:01.694839,43.42,24.645088,-0.01445198763887209,0.020062078880364497,1.0118883076550156,0.3411964856958948,-1.1987427040290088,-1.3562488435987383
2024-09-23 06:27:01.706602,43.42,24.645174,-0.01445198763887209,0.020062078880364497,1.0118883076550156,0.3411964856958948,-1.1987427040290088,-1.3562488435987383
2024-09-23 06:27:01.740093,43.42,24.645174,-0.015305708733052167,0.01622038788022616,1.0123761300525411,0.3411964856958948,-1.1987427040290088,-1.3562488435987383
2024-09-23 06:27:01.752054,43.42,24.645174,-0.015305708733052167,0.01622038788022616,1.0123761300525411,0.3499627431454137,-1.1987427040290088,-1.3212411233771593
2024-09-23 06:27:01.784633,43.42,24.645226,-0.015305708733052167,0.01622038788022616,1.0123761300525411,0.3499627431454137,-1.1987427040290088,-1.3212411233771593
2024-09-23 06:27:01.795821,43.42,24.645226,-0.015061773230662524,0.019452293288574063,1.0109736163560281,0.3062460483703762,-1.1855647030871361,-1.3212411233771593
2024-09-23 06:27:01.838523,43.42,24.645277,-0.012073802565215924,0.019574312684975875,1.0109736163560281,0.3062460483703762,-1.1855647030871361,-1.3999655917346479
2024-09-23 06:27:01.849555,43.42,24.645277,-0.012073802565215924,0.019574312684975875,1.0121322188537785,0.20998910513450392,-1.1855647030871361,-1.3999655917346479
2024-09-23 06:27:01.983820,43.42,24.645327,-0.012073802565215924,0.019574312684975875,1.0121322188537785,0.20998910513450392,-1.259991913703084,-1.3956111311383546
2024-09-23 06:27:01.995275,43.42,24.645327,-0.01445198763887209,0.019574312684975875,1.016705578134208,0.20998910513450392,-1.259991913703084,-1.3956111311383546
2024-09-23 06:27:02.038200,43.42,24.645378,-0.013049540777332799,0.020549948366167105,1.016705578134208,0.3499627431454137,-1.1156065722204744,-1.3737241022821516
2024-09-23 06:27:02.080538,43.42,24.645378,-0.013049540777332799,0.020549948366167105,1.01231507934197,0.37184974532118065,-1.1899764732599258,-1.3737241022821516
2024-09-23 06:27:02.092334,43.42,24.645429,-0.01433007153288426,0.020549948366167105,1.01231507934197,0.37184974532118065,-1.1899764732599258,-1.4174980532728136
2024-09-23 06:27:02.135094,43.32,24.645516,-0.01433007153288426,0.019879204721382753,1.0129859566567019,0.3499627431454137,-1.1374934943549335,-1.3474826128296553
2024-09-23 06:27:02.177957,43.32,24.645516,-0.013537308491698099,0.02140366946034718,1.0160958487445546,0.3499627431454137,-1.1374934943549335,-1.3474826128296553
2024-09-23 06:27:02.189093,43.32,24.645516,-0.013537308491698099,0.02140366946034718,1.0160958487445546,0.3674952580444515,-1.207451731943339,-1.3824903330512346
2024-09-23 06:27:02.231322,43.32,24.645663,-0.013232416455291218,0.021098777423940302,1.014022554947817,0.27123832814879717,-1.0543573625463993,-1.3824903330512346
2024-09-23 06:27:02.274160,43.32,24.645714,-0.013232416455291218,0.021098777423940302,1.014022554947817,0.27123832814879717,-1.0543573625463993,-1.4437395427253097
2024-09-23 06:27:02.285377,43.32,24.645714,-0.013232416455291218,0.020245056329760223,1.0107906586533293,0.3368419984191656,-1.0543573625463993,-1.4437395427253097
2024-09-23 06:27:02.327902,43.32,24.645765,-0.014512945691866003,0.01823272210499319,1.0107906586533293,0.3368419984191656,-1.0980740039605648,-1.4218526205908506
2024-09-23 06:27:02.340004,43.32,24.645765,-0.014512945691866003,0.01823272210499319,1.0157908868352208,0.3368419984191656,-1.0980740039605648,-1.4218526205908506
2024-09-23 06:27:02.373202,43.32,24.645765,-0.014512945691866003,0.01823272210499319,1.0157908868352208,0.3411964856958948,-1.1855647030871361,-1.3693696416858583
2024-09-23 06:27:02.384972,43.32,24.645815,-0.012378695361111141,0.020366972435748053,1.0157908868352208,0.3411964856958948,-1.1855647030871361,-1.3693696416858583
2024-09-23 06:27:02.428418,43.32,24.645866,-0.013720285941093825,0.020366972435748053,1.0135347325502915,0.37184974532118065,-1.0630662837389857,-1.3343619214642792
2024-09-23 06:27:02.470562,43.32,24.645866,-0.013720285941093825,0.021098777423940302,1.0122541258459061,0.39373674749694765,-1.0630662837389857,-1.3343619214642792
2024-09-23 06:27:02.482186,43.32,24.645954,-0.013720285941093825,0.021098777423940302,1.0122541258459061,0.39373674749694765,-1.1943309338562191,-1.3255955839734523
2024-09-23 06:27:02.524939,43.32,24.645954,-0.01341539238571027,0.02225739055452726,1.0187788719309456,0.3193667930966243,-1.1637349838074296,-1.426207081187144
2024-09-23 06:27:02.618724,43.32,24.646006,-0.01219582044264106,0.01835463821098102,1.0151811574455674,0.3193667930966243,-1.1637349838074296,-1.426207081187144
2024-09-23 06:27:02.630750,43.32,24.646006,-0.01219582044264106,0.01835463821098102,1.0151811574455674,0.3630834878716618,-1.1637349838074296,-1.426207081187144
2024-09-23 06:27:02.663608,43.32,24.646006,-0.01219582044264106,0.01835463821098102,1.0151811574455674,0.3630834878716618,-1.1768557818945498,-1.426207081187144
2024-09-23 06:27:02.675525,43.32,24.646057,-0.01182986782231462,0.019513251341567978,1.0122541258459061,0.3630834878716618,-1.1768557818945498,-1.2993542012427002
2024-09-23 06:27:02.717968,43.32,24.646107,-0.013171458402297304,0.019513251341567978,1.0122541258459061,0.3674952580444515,-1.1068402347296475,-1.3343619214642792
2024-09-23 06:27:02.730073,43.32,24.646107,-0.013171458402297304,0.018293680157987106,1.0122541258459061,0.3674952580444515,-1.1068402347296475,-1.3343619214642792
2024-09-23 06:27:02.762130,43.32,24.646107,-0.013171458402297304,0.018293680157987106,1.0083514494511938,0.39809120809324083,-1.1068402347296475,-1.3343619214642792
2024-09-23 06:27:02.773615,43.32,24.646158,-0.014391029585878175,0.018293680157987106,1.0083514494511938,0.39809120809324083,-1.1724439050000162,-1.4174980532728136
2024-09-23 06:27:02.816642,43.32,24.646209,-0.014391029585878175,0.01926931735815501,1.0101808320491685,0.3499627431454137,-1.1374934943549335,-1.434973311956227
2024-09-23 06:27:02.858478,43.32,24.646209,-0.01433007153288426,0.02311100987727003,1.0101808320491685,0.3499627431454137,-1.1374934943549335,-1.434973311956227
2024-09-23 06:27:02.870185,43.32,24.646209,-0.01433007153288426,0.02311100987727003,1.0162178529511898,0.3411964856958948,-1.0893650827679784,-1.434973311956227
2024-09-23 06:27:02.913685,43.32,24.646345,-0.014025177977500705,0.020245056329760223,1.0132298678554648,0.3018342781975865,-1.0893650827679784,-1.434973311956227
2024-09-23 06:27:02.924937,43.32,24.646345,-0.014025177977500705,0.020245056329760223,1.0132298678554648,0.3018342781975865,-1.1943309338562191,-1.434973311956227
2024-09-23 06:27:02.957356,43.32,24.646396,-0.01823272210499319,0.020245056329760223,1.0132298678554648,0.3018342781975865,-1.1943309338562191,-1.3474826128296553
2024-09-23 06:27:02.968869,43.32,24.646396,-0.01823272210499319,0.023415901913676908,1.0146322843374704,0.27123832814879717,-1.1943309338562191,-1.3474826128296553
2024-09-23 06:27:03.012355,43.32,24.646447,-0.014025177977500705,0.022440264713509,1.0120712653577144,0.27123832814879717,-1.224984193481505,-1.3693696416858583
2024-09-23 06:27:03.054650,43.32,24.646447,-0.014025177977500705,0.022440264713509,1.0120712653577144,0.223109849860752,-1.224984193481505,-1.3693696416858583
2024-09-23 06:27:03.108024,43.32,24.646498,-0.011707950956838454,0.01939133523558015,1.0120712653577144,0.223109849860752,-1.0849533125951887,-1.4874562908612192
2024-09-23 06:27:03.120233,43.32,24.646498,-0.011707950956838454,0.01939133523558015,1.0139006479556893,0.223109849860752,-1.0849533125951887,-1.4874562908612192
2024-09-23 06:27:03.153780,42.88,24.646498,-0.011707950956838454,0.01939133523558015,1.0139006479556893,0.2581175834225491,-1.1987427040290088,-1.4568603408124299
2024-09-23 06:27:03.165201,42.88,24.646549,-0.013354434332716355,0.019208359305161096,1.0139006479556893,0.2581175834225491,-1.1987427040290088,-1.4568603408124299
2024-09-23 06:27:03.208546,42.88,24.646637,-0.015244750680058252,0.019208359305161096,1.012742045457939,0.3456082558686845,-1.0543573625463993,-1.4087318225037306
2024-09-23 06:27:03.251836,42.88,24.646637,-0.015244750680058252,0.021159735476934217,1.0135347325502915,0.3280757409696467,-1.1943309338562191,-1.4087318225037306
2024-09-23 06:27:03.263280,42.88,24.646689,-0.015244750680058252,0.021159735476934217,1.0135347325502915,0.3280757409696467,-1.1943309338562191,-1.413086283100024
2024-09-23 06:27:03.306137,42.88,24.646689,-0.01341539238571027,0.021708563015730736,1.0143274196426437,0.29306802074806765,-1.1724439050000162,-1.3737241022821516
2024-09-23 06:27:03.347709,42.88,24.646784,-0.016159429827232244,0.020427930488741967,1.0143274196426437,0.29306802074806765,-1.1724439050000162,-1.3737241022821516
2024-09-23 06:27:03.359950,42.88,24.646784,-0.016159429827232244,0.020427930488741967,1.0108517093639005,0.29306802074806765,-1.207451731943339,-1.3737241022821516
2024-09-23 06:27:03.403286,42.88,24.646835,-0.011524974266931064,0.021281651582922046,1.0134736818397203,0.3193667930966243,-1.207451731943339,-1.3124748926080763
2024-09-23 06:27:03.445161,42.88,24.646886,-0.011524974266931064,0.021281651582922046,1.0134736818397203,0.3193667930966243,-1.0455910250555724,-1.3693696416858583
2024-09-23 06:27:03.456671,42.88,24.646886,-0.010976248499571852,0.023842813346485598,1.0138396944596255,0.3193667930966243,-1.0455910250555724,-1.3693696416858583
2024-09-23 06:27:03.500143,42.88,24.646937,-0.017013149402435646,0.02134260963591596,1.0138396944596255,0.38061600277069957,-1.1111946953259408,-1.434973311956227
2024-09-23 06:27:03.542688,42.88,24.646937,-0.017013149402435646,0.02134260963591596,1.0162178529511898,0.3193667930966243,-1.1156065722204744,-1.434973311956227
2024-09-23 06:27:03.553788,42.88,24.646987,-0.012866564846913748,0.02134260963591596,1.0162178529511898,0.3193667930966243,-1.1156065722204744,-1.4306188513599336
2024-09-23 06:27:03.596102,42.88,24.646987,-0.012866564846913748,0.02134260963591596,1.0114614387535539,0.3193667930966243,-1.1156065722204744,-1.4306188513599336
2024-09-23 06:27:03.639371,42.88,24.646987,-0.012866564846913748,0.02134260963591596,1.0114614387535539,0.27559278874509036,-1.1812102424908428,-1.4306188513599336
2024-09-23 06:27:03.650912,42.88,24.647076,-0.012256778495634975,0.019452293288574063,1.0114614387535539,0.27559278874509036,-1.1812102424908428,-1.3824903330512346
2024-09-23 06:27:03.693967,42.88,24.647127,-0.012256778495634975,0.019452293288574063,1.0159129882563631,0.28871353347133843,-1.1768557818945498,-1.3212411233771593
2024-09-23 06:27:03.705777,42.88,24.647127,-0.014634963569291141,0.019452293288574063,1.0159129882563631,0.28871353347133843,-1.1768557818945498,-1.3212411233771593
2024-09-23 06:27:03.738930,42.88,24.647127,-0.014634963569291141,0.01914740125216718,1.0144494238492787,0.3630834878716618,-1.1768557818945498,-1.3212411233771593
2024-09-23 06:27:03.750171,42.88,24.647178,-0.014634963569291141,0.01914740125216718,1.0144494238492787,0.3630834878716618,-1.1549687530383468,-1.4087318225037306
2024-09-23 06:27:03.792453,42.88,24.647178,-0.013598266544692013,0.020732824044125523,1.0090222295514184,0.3237212803733535,-1.1199610328167677,-1.4524485706396402
2024-09-23 06:27:03.835865,42.88,24.647229,-0.01750101888823825,0.019208359305161096,1.0090222295514184,0.3237212803733535,-1.1199610328167677,-1.4524485706396402
2024-09-23 06:27:03.848123,42.88,24.647229,-0.01750101888823825,0.019208359305161096,1.012620041251304,0.3237212803733535,-1.1418479549512268,-1.4524485706396402
2024-09-23 06:27:03.880392,42.88,24.647229,-0.01750101888823825,0.019208359305161096,1.012620041251304,0.3237212803733535,-1.1418479549512268,-1.3911993609655648
2024-09-23 06:27:03.891499,42.88,24.647321,-0.014391029585878175,0.02048899031317319,1.0109126628599643,0.3499627431454137,-1.1418479549512268,-1.3911993609655648
2024-09-23 06:27:03.934046,42.88,24.647372,-0.01219582044264106,0.02048899031317319,1.0109126628599643,0.3499627431454137,-1.15932321363464,-1.4087318225037306
2024-09-23 06:27:03.945563,42.88,24.647372,-0.01219582044264106,0.017257084904825287,1.0117664006628877,0.3499627431454137,-1.15932321363464,-1.4087318225037306
2024-09-23 06:27:03.979586,42.88,24.647372,-0.01219582044264106,0.017257084904825287,1.0117664006628877,0.3456082558686845,-1.15932321363464,-1.4087318225037306
2024-09-23 06:27:03.990875,42.88,24.647422,-0.015549642716465131,0.019330377182586234,1.0117664006628877,0.3456082558686845,-1.0105833048339934,-1.3430708426568656
2024-09-23 06:27:04.033759,42.88,24.647473,-0.015549642716465131,0.019330377182586234,1.0145713308414066,0.3630834878716618,-1.1068402347296475,-1.3343619214642792
2024-09-23 06:27:04.045419,42.88,24.647473,-0.016098470255261652,0.019330377182586234,1.0145713308414066,0.3630834878716618,-1.1068402347296475,-1.3343619214642792
2024-09-23 06:27:04.130703,42.88,24.647473,-0.016098470255261652,0.0187205915907958,1.0118883076550156,0.27123832814879717,-1.1068402347296475,-1.3343619214642792
2024-09-23 06:27:04.142180,42.88,24.647563,-0.016098470255261652,0.0187205915907958,1.0118883076550156,0.27123832814879717,-1.1462025222692638,-1.3737241022821516
2024-09-23 06:27:04.174453,42.67,24.647563,-0.012866564846913748,0.0187205915907958,1.0118883076550156,0.27123832814879717,-1.1462025222692638,-1.3737241022821516
2024-09-23 06:27:04.186219,42.67,24.647563,-0.012866564846913748,0.02012303845233509,1.0105467474545664,0.2843590461946093,-1.1068402347296475,-1.3868447936475277
2024-09-23 06:27:04.228547,42.67,24.647615,-0.013171458402297304,0.018598572194393984,1.0146933350480416,0.2537058132497594,-1.1068402347296475,-1.3868447936475277
2024-09-23 06:27:04.240290,42.67,24.647615,-0.013171458402297304,0.018598572194393984,1.0146933350480416,0.2537058132497594,-1.1330817241821438,-1.3868447936475277
2024-09-23 06:27:04.272747,42.67,24.647666,-0.013171458402297304,0.018598572194393984,1.0146933350480416,0.2537058132497594,-1.1330817241821438,-1.3911993609655648
2024-09-23 06:27:04.284291,42.67,24.647666,-0.013537308491698099,0.021037716080532405,1.012620041251304,0.39809120809324083,-1.1330817241821438,-1.3911993609655648
2024-09-23 06:27:04.327350,42.67,24.647716,-0.015000815177668611,0.019940162774376668,1.012620041251304,0.39809120809324083,-1.0849533125951887,-1.426207081187144
2024-09-23 06:27:04.338992,42.67,24.647716,-0.015000815177668611,0.019940162774376668,1.014205512650516,0.39809120809324083,-1.0849533125951887,-1.426207081187144
2024-09-23 06:27:04.370315,42.67,24.647716,-0.015000815177668611,0.019940162774376668,1.014205512650516,0.3368419984191656,-1.0455910250555724,-1.426207081187144
2024-09-23 06:27:04.382093,42.67,24.647809,-0.01536666678604608,0.021037716080532405,1.014205512650516,0.3368419984191656,-1.0455910250555724,-1.4437395427253097
2024-09-23 06:27:04.425391,42.67,24.64786,-0.013598266544692013,0.021037716080532405,1.0135347325502915,0.3193667930966243,-1.1243154934130608,-1.4787472629468887
2024-09-23 06:27:04.467969,42.67,24.64786,-0.013598266544692013,0.019940162774376668,1.01231507934197,0.3193667930966243,-1.1243154934130608,-1.4787472629468887
2024-09-23 06:27:04.479880,42.67,24.647953,-0.013598266544692013,0.019940162774376668,1.01231507934197,0.3324875378228724,-1.1812102424908428,-1.413086283100024
2024-09-23 06:27:04.523674,42.67,24.647953,-0.01750101888823825,0.021281651582922046,1.0134127283436565,0.3018342781975865,-1.1812102424908428,-1.3562488435987383
2024-09-23 06:27:04.567444,42.67,24.648005,-0.015061773230662524,0.021037716080532405,1.0134127283436565,0.3018342781975865,-1.1812102424908428,-1.3562488435987383
2024-09-23 06:27:04.578594,42.67,24.648005,-0.015061773230662524,0.021037716080532405,1.0113394345469187,0.27559278874509036,-1.1506142924420535,-1.3562488435987383
2024-09-23 06:27:04.621240,42.67,24.648056,-0.015427726610477303,0.017561976941232165,1.0159129882563631,0.39809120809324083,-1.1506142924420535,-1.3518370734259486
2024-09-23 06:27:04.664966,42.67,24.648106,-0.015427726610477303,0.017561976941232165,1.0159129882563631,0.39809120809324083,-1.0630662837389857,-1.43932777255252
2024-09-23 06:27:04.676157,42.67,24.648106,-0.010366361136344109,0.01963527073796979,1.011217527554791,0.39809120809324083,-1.0630662837389857,-1.43932777255252
2024-09-23 06:27:04.719052,42.67,24.648157,-0.01573262016586086,0.01963527073796979,1.011217527554791,0.3456082558686845,-1.1637349838074296,-1.461214801408723
2024-09-23 06:27:04.761553,42.67,24.648157,-0.01573262016586086,0.019086441680196593,1.0168886330514144,0.3411964856958948,-1.1637349838074296,-1.461214801408723
2024-09-23 06:27:04.773064,42.67,24.648208,-0.01573262016586086,0.019086441680196593,1.0168886330514144,0.3411964856958948,-1.0805987452771515,-1.3780785628784449
2024-09-23 06:27:04.816270,42.67,24.648208,-0.015305708733052167,0.019330377182586234,1.0164616669354454,0.3237212803733535,-1.1111946953259408,-1.469981032177806
2024-09-23 06:27:04.858752,42.67,24.648294,-0.011586034850850625,0.020306014382754138,1.0164616669354454,0.3237212803733535,-1.1111946953259408,-1.469981032177806
2024-09-23 06:27:04.869846,42.67,24.648294,-0.011586034850850625,0.020306014382754138,1.015486022140394,0.3674952580444515,-1.1855647030871361,-1.469981032177806
2024-09-23 06:27:04.912759,42.67,24.648346,-0.016281345933220073,0.019818144896951533,1.0143883731387076,0.39809120809324083,-1.1855647030871361,-1.3780785628784449
2024-09-23 06:27:04.955130,42.67,24.648346,-0.016281345933220073,0.019818144896951533,1.0143883731387076,0.39809120809324083,-1.1506142924420535,-1.3168293532043696
2024-09-23 06:27:04.966901,42.67,24.648397,-0.014512945691866003,0.01963527073796979,1.0143274196426437,0.39809120809324083,-1.1506142924420535,-1.3168293532043696
2024-09-23 06:27:05.009788,42.67,24.648448,-0.012256778495634975,0.01622038788022616,1.0143274196426437,0.3149550229238346,-1.1330817241821438,-1.3999655917346479
2024-09-23 06:27:05.052444,42.67,24.648448,-0.012256778495634975,0.01622038788022616,1.0126809947473678,0.3456082558686845,-1.1330817241821438,-1.3999655917346479
2024-09-23 06:27:05.063381,42.67,24.648498,-0.013842202047081654,0.01622038788022616,1.0126809947473678,0.3456082558686845,-1.1068402347296475,-1.4218526205908506
2024-09-23 06:27:05.105683,42.67,24.648498,-0.013842202047081654,0.0187205915907958,1.0116442992417454,0.3543172304221429,-1.1855647030871361,-1.413086283100024
2024-09-23 06:27:05.117704,42.67,24.648587,-0.013842202047081654,0.0187205915907958,1.0116442992417454,0.3543172304221429,-1.1855647030871361,-1.413086283100024
2024-09-23 06:27:05.150720,42.67,24.648587,-0.013232416455291218,0.020001120827370582,1.0116442992417454,0.3543172304221429,-1.1855647030871361,-1.413086283100024
2024-09-23 06:27:05.162608,42.67,24.648587,-0.013232416455291218,0.020001120827370582,1.016705578134208,0.27994727602181957,-1.15932321363464,-1.3999655917346479
2024-09-23 06:27:05.204650,42.56,24.648639,-0.014391029585878175,0.020915799974544576,1.0095710054450078,0.3237212803733535,-1.1943309338562191,-1.3999655917346479
2024-09-23 06:27:05.247299,42.56,24.648639,-0.014391029585878175,0.020915799974544576,1.0095710054450078,0.3237212803733535,-1.1943309338562191,-1.4787472629468887
2024-09-23 06:27:05.258534,42.56,24.648689,-0.012866564846913748,0.018415698035412244,1.0139006479556893,0.29747979092085736,-1.1943309338562191,-1.4787472629468887
2024-09-23 06:27:05.301793,42.56,24.64874,-0.014939857124674697,0.018781549643789714,1.0139006479556893,0.29747979092085736,-1.1724439050000162,-1.3606034109167755
2024-09-23 06:27:05.313827,42.56,24.64874,-0.014939857124674697,0.018781549643789714,1.0131078636488298,0.29747979092085736,-1.1724439050000162,-1.3606034109167755
2024-09-23 06:27:05.345814,42.56,24.64874,-0.014939857124674697,0.018781549643789714,1.0131078636488298,0.29306802074806765,-1.15932321363464,-1.3606034109167755
2024-09-23 06:27:05.356988,42.56,24.648791,-0.014878899071680782,0.01890346574977754,1.0131078636488298,0.29306802074806765,-1.15932321363464,-1.4874562908612192
2024-09-23 06:27:05.400199,42.56,24.648841,-0.012988480952901577,0.01890346574977754,1.0145713308414066,0.2668265312955715,-1.0718325145080685,-1.4437395427253097
2024-09-23 06:27:05.442258,42.56,24.648841,-0.012988480952901577,0.018781549643789714,1.0165227176460165,0.2668265312955715,-1.0718325145080685,-1.4437395427253097
2024-09-23 06:27:05.453870,42.56,24.648928,-0.012988480952901577,0.018781549643789714,1.0165227176460165,0.3543172304221429,-1.1156065722204744,-1.3080631224352866
2024-09-23 06:27:05.547413,42.56,24.648928,-0.014756881194255646,0.021098777423940302,1.0165836711420804,0.27123832814879717,-1.2643463742993772,-1.404320052330941
2024-09-23 06:27:05.590693,42.56,24.64898,-0.00987859342197881,0.017013149402435646,1.0165836711420804,0.27123832814879717,-1.2643463742993772,-1.404320052330941
2024-09-23 06:27:05.602188,42.56,24.64898,-0.00987859342197881,0.017013149402435646,1.0128639524500669,0.3674952580444515,-1.203097164625302,-1.404320052330941
2024-09-23 06:27:05.644243,42.56,24.649031,-0.012439653414105056,0.016281345933220073,1.0132908213515286,0.3543172304221429,-1.203097164625302,-1.426207081187144
2024-09-23 06:27:05.687345,42.56,24.649081,-0.012439653414105056,0.016281345933220073,1.0132908213515286,0.3543172304221429,-1.0980740039605648,-1.491868061034009
2024-09-23 06:27:05.699096,42.56,24.649081,-0.01573262016586086,0.018964423802771455,1.0148152420401695,0.3543172304221429,-1.0980740039605648,-1.491868061034009
2024-09-23 06:27:05.741715,42.56,24.649132,-0.01164699290384454,0.020915799974544576,1.0148152420401695,0.29747979092085736,-1.1199610328167677,-1.448094003321603
2024-09-23 06:27:05.784012,42.56,24.649132,-0.01164699290384454,0.020915799974544576,1.0107906586533293,0.2362305812467821,-1.1199610328167677,-1.448094003321603
2024-09-23 06:27:05.795462,42.56,24.649223,-0.01396421992450679,0.020915799974544576,1.0107906586533293,0.2362305812467821,-1.1418479549512268,-1.3824903330512346
2024-09-23 06:27:05.839440,42.56,24.649318,-0.01396421992450679,0.022318348607521174,1.0113394345469187,0.29306802074806765,-1.1287272635858505,-1.404320052330941
2024-09-23 06:27:05.881735,42.56,24.649318,-0.012988480952901577,0.018659531766364576,1.0113394345469187,0.29306802074806765,-1.1287272635858505,-1.404320052330941
2024-09-23 06:27:05.893302,42.56,24.649318,-0.012988480952901577,0.018659531766364576,1.0120712653577144,0.3543172304221429,-1.0805987452771515,-1.4087318225037306
2024-09-23 06:27:05.936824,42.56,24.64937,-0.012744546969488612,0.020793883868556746,1.0146322843374704,0.28871353347133843,-1.0805987452771515,-1.4087318225037306
2024-09-23 06:27:05.949017,42.56,24.64937,-0.012744546969488612,0.020793883868556746,1.0146322843374704,0.28871353347133843,-1.203097164625302,-1.4087318225037306
2024-09-23 06:27:05.981731,42.56,24.649421,-0.013293374508285133,0.020793883868556746,1.0146322843374704,0.28871353347133843,-1.203097164625302,-1.3474826128296553
2024-09-23 06:27:05.992864,42.56,24.649421,-0.013293374508285133,0.020001120827370582,1.0139006479556893,0.3193667930966243,-1.203097164625302,-1.3474826128296553
2024-09-23 06:27:06.036548,42.56,24.649471,-0.015610600769459046,0.020001120827370582,1.0166446246381442,0.3193667930966243,-1.0499454856518655,-1.4087318225037306
2024-09-23 06:27:06.080185,42.56,24.649471,-0.015610600769459046,0.020001120827370582,1.0166446246381442,0.2362305812467821,-1.2336931146740913,-1.3212411233771593
2024-09-23 06:27:06.094288,42.56,24.649522,-0.011951885699739756,0.019818144896951533,1.0166446246381442,0.2362305812467821,-1.2336931146740913,-1.3212411233771593
2024-09-23 06:27:06.177748,42.56,24.649522,-0.011951885699739756,0.019818144896951533,1.0100589250570406,0.2668265312955715,-1.224984193481505,-1.3212411233771593
2024-09-23 06:27:06.230989,41.91,24.649573,-0.01445198763887209,0.022684200215898644,1.0128639524500669,0.29306802074806765,-1.224984193481505,-1.4437395427253097
2024-09-23 06:27:06.274568,41.91,24.64966,-0.01445198763887209,0.022684200215898644,1.0128639524500669,0.29306802074806765,-1.1199610328167677,-1.3824903330512346
2024-09-23 06:27:06.285949,41.91,24.64966,-0.012744546969488612,0.019818144896951533,1.0168275823408433,0.29306802074806765,-1.1199610328167677,-1.3824903330512346
2024-09-23 06:27:06.318334,41.91,24.64966,-0.012744546969488612,0.019818144896951533,1.0168275823408433,0.27559278874509036,-1.1199610328167677,-1.3824903330512346
2024-09-23 06:27:06.330764,41.91,24.649711,-0.015610600769459046,0.02152558556633501,1.0168275823408433,0.27559278874509036,-1.1549687530383468,-1.4437395427253097
2024-09-23 06:27:06.372637,41.91,24.649711,-0.015610600769459046,0.02152558556633501,1.011034569852092,0.38932495064372197,-1.1899764732599258,-1.404320052330941
2024-09-23 06:27:06.384548,41.91,24.649762,-0.013598266544692013,0.02152558556633501,1.011034569852092,0.38932495064372197,-1.1899764732599258,-1.404320052330941
2024-09-23 06:27:06.418875,41.91,24.649762,-0.013598266544692013,0.019696228790963704,1.012498037044669,0.38932495064372197,-1.1899764732599258,-1.404320052330941
2024-09-23 06:27:06.430012,41.91,24.649903,-0.013598266544692013,0.019696228790963704,1.012498037044669,0.40244569536997005,-1.1330817241821438,-1.491868061034009
2024-09-23 06:27:06.472386,41.91,24.649903,-0.015671560341429636,0.018842507696783625,1.01231507934197,0.27994727602181957,-1.1680894444037229,-1.4437395427253097
2024-09-23 06:27:06.514917,41.91,24.649955,-0.01378124399408774,0.018842507696783625,1.01231507934197,0.27994727602181957,-1.1680894444037229,-1.4437395427253097
2024-09-23 06:27:06.526523,41.91,24.649955,-0.01378124399408774,0.019513251341567978,1.0148152420401695,0.31060053564710544,-1.0937195433642715,-1.4437395427253097
2024-09-23 06:27:06.569803,41.91,24.650006,-0.015183792627064338,0.01939133523558015,1.012498037044669,0.31060053564710544,-1.0937195433642715,-1.3956111311383546
2024-09-23 06:27:06.581774,41.91,24.650006,-0.015183792627064338,0.01939133523558015,1.012498037044669,0.3368419984191656,-1.0937195433642715,-1.3956111311383546
2024-09-23 06:27:06.614619,41.91,24.650056,-0.015183792627064338,0.01939133523558015,1.012498037044669,0.3368419984191656,-1.1199610328167677,-1.3474826128296553
2024-09-23 06:27:06.626182,41.91,24.650056,-0.014574005516297226,0.020549948366167105,1.010668654446694,0.3368419984191656,-1.1199610328167677,-1.3474826128296553
2024-09-23 06:27:06.669292,41.91,24.650107,-0.016159429827232244,0.018842507696783625,1.010668654446694,0.38932495064372197,-1.1855647030871361,-1.5005769822265953
2024-09-23 06:27:06.712314,41.91,24.650107,-0.016159429827232244,0.018842507696783625,1.0150592504534395,0.3411964856958948,-1.1855647030871361,-1.5005769822265953
2024-09-23 06:27:06.724136,41.91,24.650158,-0.01365932788809991,0.018842507696783625,1.0150592504534395,0.3411964856958948,-1.1855647030871361,-1.518109550486505
2024-09-23 06:27:06.756415,41.91,24.650158,-0.01365932788809991,0.01786687049661572,1.0150592504534395,0.3411964856958948,-1.1855647030871361,-1.518109550486505
2024-09-23 06:27:06.767556,41.91,24.650245,-0.01365932788809991,0.01786687049661572,1.0146933350480416,0.3499627431454137,-1.1374934943549335,-1.3649578715130686
2024-09-23 06:27:06.810959,41.91,24.650245,-0.01378124399408774,0.02018409827676631,1.0118273541589518,0.3499627431454137,-1.1374934943549335,-1.3649578715130686
2024-09-23 06:27:06.822581,41.91,24.650245,-0.01378124399408774,0.02018409827676631,1.0118273541589518,0.3674952580444515,-1.1637349838074296,-1.474335492774099
2024-09-23 06:27:06.855706,41.91,24.650296,-0.01378124399408774,0.02018409827676631,1.0118273541589518,0.3674952580444515,-1.1637349838074296,-1.474335492774099
2024-09-23 06:27:06.866947,41.91,24.650296,-0.014878899071680782,0.017196025080394063,1.0136566395424191,0.3411964856958948,-1.0893650827679784,-1.474335492774099
2024-09-23 06:27:06.909806,41.91,24.650347,-0.009634658679077505,0.019025483627202678,1.0173154047383688,0.3411964856958948,-1.0893650827679784,-1.3999655917346479
2024-09-23 06:27:06.921596,41.91,24.650347,-0.009634658679077505,0.019025483627202678,1.0173154047383688,0.27123832814879717,-1.0893650827679784,-1.3999655917346479
2024-09-23 06:27:06.954074,41.91,24.650347,-0.009634658679077505,0.019025483627202678,1.0173154047383688,0.27123832814879717,-1.1243154934130608,-1.413086283100024
2024-09-23 06:27:06.965767,41.91,24.650398,-0.012988480952901577,0.019452293288574063,1.0134736818397203,0.27123832814879717,-1.1243154934130608,-1.413086283100024
2024-09-23 06:27:07.007492,41.91,24.650398,-0.012988480952901577,0.019452293288574063,1.0134736818397203,0.3237212803733535,-1.1243154934130608,-1.413086283100024
2024-09-23 06:27:07.051224,41.91,24.650398,-0.012988480952901577,0.019452293288574063,1.0134736818397203,0.3237212803733535,-1.0980740039605648,-1.413086283100024
2024-09-23 06:27:07.063083,41.91,24.650448,-0.009512741813601339,0.01963527073796979,1.0120102146471432,0.3237212803733535,-1.0980740039605648,-1.4437395427253097
2024-09-23 06:27:07.105449,41.91,24.650499,-0.01664729931303485,0.01963527073796979,1.0120102146471432,0.27123832814879717,-1.1418479549512268,-1.4655692620050162
2024-09-23 06:27:07.117378,41.91,24.650499,-0.01664729931303485,0.021037716080532405,1.0120102146471432,0.27123832814879717,-1.1418479549512268,-1.4655692620050162
2024-09-23 06:27:07.150162,41.91,24.650499,-0.01664729931303485,0.021037716080532405,1.014144559154452,0.3543172304221429,-1.1418479549512268,-1.4655692620050162
2024-09-23 06:27:07.162114,41.91,24.650586,-0.012988480952901577,0.021037716080532405,1.014144559154452,0.3543172304221429,-1.1637349838074296,-1.3299501512914895
2024-09-23 06:27:07.204604,41.91,24.650586,-0.012988480952901577,0.02018409827676631,1.0101198785531047,0.3543172304221429,-1.1637349838074296,-1.3299501512914895
2024-09-23 06:27:07.298615,41.69,24.650586,-0.012988480952901577,0.02018409827676631,1.0101198785531047,0.3456082558686845,-1.1199610328167677,-1.3474826128296553
2024-09-23 06:27:07.310398,41.69,24.650637,-0.01433007153288426,0.01963527073796979,1.0101198785531047,0.3456082558686845,-1.1199610328167677,-1.3474826128296553
2024-09-23 06:27:07.342846,41.69,24.650637,-0.01433007153288426,0.01963527073796979,1.0093270942462451,0.3456082558686845,-1.1199610328167677,-1.3474826128296553
2024-09-23 06:27:07.354279,41.69,24.650733,-0.014634963569291141,0.01963527073796979,1.0093270942462451,0.3280757409696467,-1.2731127117902041,-1.3999655917346479
2024-09-23 06:27:07.397083,41.69,24.650733,-0.014634963569291141,0.02201345505213762,1.0139616014517532,0.3237212803733535,-1.1637349838074296,-1.3999655917346479
2024-09-23 06:27:07.408872,41.69,24.650784,-0.014634963569291141,0.02201345505213762,1.0139616014517532,0.3237212803733535,-1.1637349838074296,-1.3911993609655648
2024-09-23 06:27:07.441858,41.69,24.650784,-0.013598266544692013,0.020549948366167105,1.0139616014517532,0.3237212803733535,-1.1637349838074296,-1.3911993609655648
2024-09-23 06:27:07.453353,41.69,24.650784,-0.013598266544692013,0.020549948366167105,1.0118883076550156,0.3324875378228724,-1.0805987452771515,-1.3474826128296553
2024-09-23 06:27:07.495793,41.69,24.650835,-0.015793578218854774,0.022867176146317694,1.014022554947817,0.3324875378228724,-1.0805987452771515,-1.3474826128296553
2024-09-23 06:27:07.507546,41.69,24.650835,-0.015793578218854774,0.022867176146317694,1.014022554947817,0.35872900059493257,-1.1418479549512268,-1.3474826128296553
2024-09-23 06:27:07.539516,41.69,24.650977,-0.015793578218854774,0.022867176146317694,1.014022554947817,0.35872900059493257,-1.1418479549512268,-1.3956111311383546
2024-09-23 06:27:07.551733,41.69,24.650977,-0.013293374508285133,0.02201345505213762,1.0145103773453428,0.27994727602181957,-1.1418479549512268,-1.3956111311383546
2024-09-23 06:27:07.594649,41.69,24.651028,-0.011342100107949322,0.018964423802771455,1.0097540603622142,0.27994727602181957,-1.1855647030871361,-1.4524485706396402
2024-09-23 06:27:07.638025,41.69,24.651028,-0.011342100107949322,0.018964423802771455,1.0097540603622142,0.28871353347133843,-1.1068402347296475,-1.3956111311383546
2024-09-23 06:27:07.649889,41.69,24.651079,-0.011342100107949322,0.018964423802771455,1.0097540603622142,0.28871353347133843,-1.1068402347296475,-1.3956111311383546
2024-09-23 06:27:07.692746,41.69,24.651079,-0.015000815177668611,0.018781549643789714,1.0135347325502915,0.38932495064372197,-1.0412365644592791,-1.3824903330512346
2024-09-23 06:27:07.734288,41.69,24.65113,-0.015976452377836518,0.018781549643789714,1.0135347325502915,0.38932495064372197,-1.0412365644592791,-1.3824903330512346
2024-09-23 06:27:07.745744,41.69,24.65113,-0.015976452377836518,0.02122069352992813,1.0180472355491645,0.27559278874509036,-1.1855647030871361,-1.3824903330512346
2024-09-23 06:27:07.787744,41.69,24.65122,-0.011281142054955407,0.01963527073796979,1.0147542885441054,0.27559278874509036,-1.1855647030871361,-1.3080631224352866
2024-09-23 06:27:07.800460,41.69,24.65122,-0.011281142054955407,0.01963527073796979,1.0147542885441054,0.3193667930966243,-1.1855647030871361,-1.3080631224352866
2024-09-23 06:27:07.832420,41.69,24.65122,-0.011281142054955407,0.01963527073796979,1.0147542885441054,0.3193667930966243,-1.1724439050000162,-1.4437395427253097
2024-09-23 06:27:07.844082,41.69,24.651271,-0.017013149402435646,0.023233027754695164,1.010668654446694,0.3193667930966243,-1.1724439050000162,-1.4437395427253097
2024-09-23 06:27:07.886204,41.69,24.651322,-0.014574005516297226,0.023233027754695164,1.010668654446694,0.35872900059493257,-1.1024857741333545,-1.4218526205908506
2024-09-23 06:27:07.897728,41.69,24.651322,-0.014574005516297226,0.021037716080532405,1.010668654446694,0.35872900059493257,-1.1024857741333545,-1.4218526205908506
2024-09-23 06:27:07.930646,41.69,24.651322,-0.014574005516297226,0.021037716080532405,1.0118273541589518,0.3456082558686845,-1.1899764732599258,-1.4218526205908506
2024-09-23 06:27:07.941877,41.69,24.651373,-0.017013149402435646,0.021037716080532405,1.0118273541589518,0.3456082558686845,-1.1899764732599258,-1.3911993609655648
2024-09-23 06:27:07.984158,41.69,24.651464,-0.017013149402435646,0.01823272210499319,1.014205512650516,0.3849704900474288,-0.9624548932470381,-1.3693696416858583
2024-09-23 06:27:08.026449,41.69,24.651464,-0.015305708733052167,0.020427930488741967,1.014205512650516,0.3849704900474288,-0.9624548932470381,-1.3693696416858583
2024-09-23 06:27:08.037906,41.69,24.651464,-0.015305708733052167,0.020427930488741967,1.0148762927507406,0.35872900059493257,-1.0324703336901964,-1.3387163820605725
2024-09-23 06:27:08.079895,41.69,24.651515,-0.011951885699739756,0.01890346574977754,1.012742045457939,0.3849704900474288,-1.0324703336901964,-1.3387163820605725
2024-09-23 06:27:08.091580,41.69,24.651515,-0.011951885699739756,0.01890346574977754,1.012742045457939,0.3849704900474288,-1.1987427040290088,-1.3387163820605725
2024-09-23 06:27:08.123563,41.69,24.651515,-0.011951885699739756,0.01890346574977754,1.012742045457939,0.3849704900474288,-1.1987427040290088,-1.4218526205908506
2024-09-23 06:27:08.134586,41.69,24.651566,-0.01378124399408774,0.01835463821098102,1.0136566395424191,0.26247207069927825,-1.1987427040290088,-1.4218526205908506
2024-09-23 06:27:08.177906,41.69,24.651616,-0.012439653414105056,0.021952496999143704,1.0136566395424191,0.26247207069927825,-1.1680894444037229,-1.434973311956227
2024-09-23 06:27:08.190015,41.69,24.651616,-0.012439653414105056,0.021952496999143704,1.0146322843374704,0.26247207069927825,-1.1680894444037229,-1.434973311956227
2024-09-23 06:27:08.221714,41.69,24.651616,-0.012439653414105056,0.021952496999143704,1.0146322843374704,0.3062460483703762,-1.1680894444037229,-1.434973311956227
2024-09-23 06:27:08.274239,41.69,24.651616,-0.012439653414105056,0.021952496999143704,1.0146322843374704,0.3062460483703762,-1.1506142924420535,-1.434973311956227
2024-09-23 06:27:08.318036,42.02,24.651616,-0.012439653414105056,0.021952496999143704,1.0146322843374704,0.3062460483703762,-1.1506142924420535,-1.3606034109167755
2024-09-23 06:27:08.329829,42.02,24.651667,-0.011220081471035847,0.02097675802753849,1.0119492611510794,0.3237212803733535,-1.1506142924420535,-1.3606034109167755
2024-09-23 06:27:08.373022,42.02,24.651718,-0.01268358815700636,0.01786687049661572,1.0119492611510794,0.3237212803733535,-1.1462025222692638,-1.3343619214642792
2024-09-23 06:27:08.384972,42.02,24.651718,-0.01268358815700636,0.01786687049661572,1.0145713308414066,0.3237212803733535,-1.1462025222692638,-1.3343619214642792
2024-09-23 06:27:08.419869,42.02,24.651718,-0.01268358815700636,0.01786687049661572,1.0145713308414066,0.3368419984191656,-1.1418479549512268,-1.426207081187144
2024-09-23 06:27:08.431752,42.02,24.651805,-0.014634963569291141,0.021464627513341095,1.0145713308414066,0.3368419984191656,-1.1418479549512268,-1.426207081187144
2024-09-23 06:27:08.463337,42.02,24.651805,-0.014634963569291141,0.021464627513341095,1.012742045457939,0.3368419984191656,-1.1418479549512268,-1.426207081187144
2024-09-23 06:27:08.474688,42.02,24.651856,-0.01536666678604608,0.021464627513341095,1.012742045457939,0.3149550229238346,-1.1549687530383468,-1.4568603408124299
2024-09-23 06:27:08.517007,42.02,24.651856,-0.01536666678604608,0.01975718684395762,1.0120102146471432,0.29747979092085736,-1.0412365644592791,-1.4568603408124299
2024-09-23 06:27:08.528480,42.02,24.652,-0.01536666678604608,0.01975718684395762,1.0120102146471432,0.29747979092085736,-1.0412365644592791,-1.3387163820605725
2024-09-23 06:27:08.560567,42.02,24.652,-0.014025177977500705,0.01975718684395762,1.0120102146471432,0.29747979092085736,-1.0412365644592791,-1.3387163820605725
2024-09-23 06:27:08.572092,42.02,24.652,-0.014025177977500705,0.0173180429578192,1.0099979715609768,0.3149550229238346,-1.014995075006783,-1.3474826128296553
2024-09-23 06:27:08.614315,42.02,24.652051,-0.014208053655459124,0.01622038788022616,1.0137175930384832,0.3149550229238346,-1.014995075006783,-1.3474826128296553
2024-09-23 06:27:08.626150,42.02,24.652051,-0.014208053655459124,0.01622038788022616,1.0137175930384832,0.3543172304221429,-1.1243154934130608,-1.3474826128296553
2024-09-23 06:27:08.658072,42.02,24.652051,-0.014208053655459124,0.01622038788022616,1.0137175930384832,0.3543172304221429,-1.1243154934130608,-1.434973311956227
2024-09-23 06:27:08.669292,42.02,24.652102,-0.012866564846913748,0.01939133523558015,1.0148152420401695,0.3018342781975865,-1.1243154934130608,-1.434973311956227
2024-09-23 06:27:08.711291,42.02,24.652153,-0.012744546969488612,0.01939133523558015,1.0148152420401695,0.3018342781975865,-1.1330817241821438,-1.43932777255252
2024-09-23 06:27:08.722952,42.02,24.652153,-0.012744546969488612,0.016830173472016593,1.0146933350480416,0.3018342781975865,-1.1330817241821438,-1.43932777255252
2024-09-23 06:27:08.806472,42.02,24.652153,-0.012744546969488612,0.016830173472016593,1.0146933350480416,0.29747979092085736,-1.0980740039605648,-1.43932777255252
2024-09-23 06:27:08.818681,42.02,24.652204,-0.013598266544692013,0.02134260963591596,1.0146933350480416,0.29747979092085736,-1.0980740039605648,-1.4437395427253097
2024-09-23 06:27:08.861593,42.02,24.652204,-0.013598266544692013,0.02134260963591596,1.011034569852092,0.3193667930966243,-1.1768557818945498,-1.469981032177806
2024-09-23 06:27:08.904718,42.02,24.652254,-0.01182986782231462,0.02134260963591596,1.011034569852092,0.3193667930966243,-1.1768557818945498,-1.469981032177806
2024-09-23 06:27:08.917049,42.02,24.652254,-0.01182986782231462,0.021281651582922046,1.0134736818397203,0.27123832814879717,-1.207451731943339,-1.469981032177806
2024-09-23 06:27:08.961280,42.02,24.652341,-0.015427726610477303,0.023964729452473427,1.0117053499523165,0.3280757409696467,-1.207451731943339,-1.3999655917346479
2024-09-23 06:27:09.003931,42.02,24.652392,-0.015427726610477303,0.023964729452473427,1.0117053499523165,0.3280757409696467,-1.1199610328167677,-1.3037086618389935
2024-09-23 06:27:09.015293,42.02,24.652392,-0.0173180429578192,0.020306014382754138,1.0139616014517532,0.3280757409696467,-1.1199610328167677,-1.3037086618389935
2024-09-23 06:27:09.057474,42.02,24.652488,-0.017074107455429557,0.018049744655597465,1.0139616014517532,0.38061600277069957,-1.1287272635858505,-1.3780785628784449
2024-09-23 06:27:09.100093,42.02,24.652488,-0.017074107455429557,0.018049744655597465,1.0160348952484908,0.3456082558686845,-1.216217962712422,-1.3780785628784449
2024-09-23 06:27:09.112163,42.02,24.652539,-0.01408613603049462,0.018049744655597465,1.0160348952484908,0.3456082558686845,-1.216217962712422,-1.4218526205908506
2024-09-23 06:27:09.155060,42.02,24.652633,-0.01408613603049462,0.021708563015730736,1.0152421109416312,0.3324875378228724,-1.216217962712422,-1.3956111311383546
2024-09-23 06:27:09.198523,42.02,24.652633,-0.015610600769459046,0.018293680157987106,1.0132298678554648,0.3324875378228724,-1.216217962712422,-1.3956111311383546
2024-09-23 06:27:09.210100,42.02,24.652633,-0.015610600769459046,0.018293680157987106,1.0132298678554648,0.3456082558686845,-1.1768557818945498,-1.3343619214642792
2024-09-23 06:27:09.253202,42.02,24.652685,-0.015610600769459046,0.018293680157987106,1.0132298678554648,0.3456082558686845,-1.1768557818945498,-1.3343619214642792
2024-09-23 06:27:09.296049,42.02,24.652685,-0.01445198763887209,0.018964423802771455,1.0139616014517532,0.3456082558686845,-1.1768557818945498,-1.3343619214642792
2024-09-23 06:27:09.307644,42.02,24.652685,-0.01445198763887209,0.018964423802771455,1.0139616014517532,0.31060053564710544,-1.1374934943549335,-1.3168293532043696
2024-09-23 06:27:09.351426,41.61,24.652736,-0.014695923141261731,0.01823272210499319,1.0123761300525411,0.2362305812467821,-1.0893650827679784,-1.3168293532043696
2024-09-23 06:27:09.394175,41.61,24.652787,-0.014269113479890346,0.01823272210499319,1.0123761300525411,0.2362305812467821,-1.0893650827679784,-1.3430708426568656
2024-09-23 06:27:09.405913,41.61,24.652787,-0.014269113479890346,0.018659531766364576,1.0120712653577144,0.3062460483703762,-1.0893650827679784,-1.3430708426568656
2024-09-23 06:27:09.437864,41.61,24.652787,-0.014269113479890346,0.018659531766364576,1.0120712653577144,0.3062460483703762,-1.028115873093903,-1.3430708426568656
2024-09-23 06:27:09.451510,41.61,24.652838,-0.013293374508285133,0.020062078880364497,1.0131078636488298,0.3062460483703762,-1.028115873093903,-1.3606034109167755
2024-09-23 06:27:09.494802,41.61,24.652889,-0.012744546969488612,0.020306014382754138,1.0131078636488298,0.3018342781975865,-1.1680894444037229,-1.43932777255252
2024-09-23 06:27:09.537934,41.61,24.652889,-0.012744546969488612,0.020306014382754138,1.0103637897518674,0.3324875378228724,-1.1680894444037229,-1.43932777255252
2024-09-23 06:27:09.549122,41.61,24.652977,-0.014634963569291141,0.020306014382754138,1.0103637897518674,0.3324875378228724,-1.1812102424908428,-1.3212411233771593
2024-09-23 06:27:09.593158,41.61,24.652977,-0.014634963569291141,0.01835463821098102,1.012925003160638,0.29747979092085736,-1.1812102424908428,-1.3212411233771593
2024-09-23 06:27:09.635522,41.61,24.652977,-0.014634963569291141,0.01835463821098102,1.012925003160638,0.29747979092085736,-1.1943309338562191,-1.4787472629468887
2024-09-23 06:27:09.646619,41.61,24.653072,-0.014756881194255646,0.02067186599113161,1.0131078636488298,0.29747979092085736,-1.1943309338562191,-1.4787472629468887
2024-09-23 06:27:09.689029,41.61,24.653124,-0.013842202047081654,0.02067186599113161,1.0131078636488298,0.3149550229238346,-1.1812102424908428,-1.3999655917346479
2024-09-23 06:27:09.701335,41.61,24.653124,-0.013842202047081654,0.020793883868556746,1.0131078636488298,0.3149550229238346,-1.1812102424908428,-1.3999655917346479
2024-09-23 06:27:09.733716,41.61,24.653124,-0.013842202047081654,0.020793883868556746,1.0133517748475924,0.3062460483703762,-1.1812102424908428,-1.3999655917346479
2024-09-23 06:27:09.744589,41.61,24.653174,-0.010122528164880112,0.020793883868556746,1.0133517748475924,0.3062460483703762,-1.1637349838074296,-1.3562488435987383
2024-09-23 06:27:09.786448,41.61,24.653174,-0.010122528164880112,0.019696228790963704,1.0122541258459061,0.31060053564710544,-1.1374934943549335,-1.2731127117902041
2024-09-23 06:27:09.797926,41.61,24.653225,-0.010122528164880112,0.019696228790963704,1.0122541258459061,0.31060053564710544,-1.1374934943549335,-1.2731127117902041
2024-09-23 06:27:09.830128,41.61,24.653225,-0.014695923141261731,0.018842507696783625,1.0122541258459061,0.31060053564710544,-1.1374934943549335,-1.2731127117902041
2024-09-23 06:27:09.841772,41.61,24.653225,-0.014695923141261731,0.018842507696783625,1.0133517748475924,0.3324875378228724,-1.1724439050000162,-1.3299501512914895
2024-09-23 06:27:09.883579,41.61,24.653316,-0.016159429827232244,0.01914740125216718,1.012802998954003,0.3324875378228724,-1.1724439050000162,-1.3299501512914895
2024-09-23 06:27:09.894848,41.61,24.653316,-0.016159429827232244,0.01914740125216718,1.012802998954003,0.3324875378228724,-1.0893650827679784,-1.3299501512914895
2024-09-23 06:27:09.926599,41.61,24.653316,-0.016159429827232244,0.01914740125216718,1.012802998954003,0.3324875378228724,-1.0893650827679784,-1.3518370734259486
2024-09-23 06:27:09.937993,41.61,24.653368,-0.013842202047081654,0.01823272210499319,1.0168275823408433,0.2668265312955715,-1.0893650827679784,-1.3518370734259486
2024-09-23 06:27:09.980554,41.61,24.653419,-0.011524974266931064,0.017744852619190586,1.0168275823408433,0.2668265312955715,-1.0805987452771515,-1.3518370734259486
2024-09-23 06:27:09.992529,41.61,24.653419,-0.011524974266931064,0.017744852619190586,1.015668979843093,0.2668265312955715,-1.0805987452771515,-1.3518370734259486
2024-09-23 06:27:10.024849,41.61,24.653419,-0.011524974266931064,0.017744852619190586,1.015668979843093,0.2843590461946093,-1.0762442846808582,-1.3518370734259486
2024-09-23 06:27:10.036785,41.61,24.653469,-0.015000815177668611,0.017744852619190586,1.015668979843093,0.2843590461946093,-1.0762442846808582,-1.3999655917346479
2024-09-23 06:27:10.079517,41.61,24.653469,-0.015000815177668611,0.019696228790963704,1.0130469101527657,0.27559278874509036,-1.0937195433642715,-1.3518370734259486
2024-09-23 06:27:10.091380,41.61,24.65352,-0.015000815177668611,0.019696228790963704,1.0130469101527657,0.27559278874509036,-1.0937195433642715,-1.3518370734259486
2024-09-23 06:27:10.124459,41.61,24.65352,-0.01536666678604608,0.020915799974544576,1.0149982969573756,0.27559278874509036,-1.0937195433642715,-1.3518370734259486
2024-09-23 06:27:10.136087,41.61,24.65352,-0.01536666678604608,0.020915799974544576,1.0149982969573756,0.3674952580444515,-1.1156065722204744,-1.4174980532728136
2024-09-23 06:27:10.178687,41.61,24.653609,-0.012012843752733671,0.02189143717471248,1.0131078636488298,0.40244569536997005,-1.1943309338562191,-1.4174980532728136
2024-09-23 06:27:10.221131,41.61,24.65366,-0.014695923141261731,0.02189143717471248,1.0131078636488298,0.40244569536997005,-1.1943309338562191,-1.469981032177806
2024-09-23 06:27:10.232590,41.61,24.65366,-0.014695923141261731,0.018415698035412244,1.0117664006628877,0.3193667930966243,-1.1943309338562191,-1.469981032177806
2024-09-23 06:27:10.315798,41.61,24.65366,-0.014695923141261731,0.018415698035412244,1.0117664006628877,0.3193667930966243,-1.0718325145080685,-1.469981032177806
2024-09-23 06:27:10.328119,41.61,24.653711,-0.010610295879245411,0.017257084904825287,1.012620041251304,0.3193667930966243,-1.0718325145080685,-1.4087318225037306
2024-09-23 06:27:10.371090,41.62,24.653761,-0.010610295879245411,0.017257084904825287,1.012620041251304,0.27559278874509036,-1.15932321363464,-1.4874562908612192
2024-09-23 06:27:10.382141,41.62,24.653761,-0.016708257366028764,0.022501222766502915,1.012620041251304,0.27559278874509036,-1.15932321363464,-1.4874562908612192
2024-09-23 06:27:10.416392,41.62,24.653761,-0.016708257366028764,0.022501222766502915,1.012742045457939,0.35872900059493257,-1.15932321363464,-1.4874562908612192
2024-09-23 06:27:10.428619,41.62,24.653812,-0.01219582044264106,0.022501222766502915,1.012742045457939,0.35872900059493257,-1.0893650827679784,-1.5268184716790913
2024-09-23 06:27:10.471326,41.62,24.653901,-0.01219582044264106,0.01926931735815501,1.0102418827597397,0.3674952580444515,-1.1111946953259408,-1.4087318225037306
2024-09-23 06:27:10.514722,41.62,24.653901,-0.012256778495634975,0.01975718684395762,1.0164007134393813,0.3674952580444515,-1.1111946953259408,-1.4087318225037306
2024-09-23 06:27:10.526267,41.62,24.653901,-0.012256778495634975,0.01975718684395762,1.0164007134393813,0.27123832814879717,-1.0543573625463993,-1.3255955839734523
2024-09-23 06:27:10.568912,41.62,24.653999,-0.017013149402435646,0.020001120827370582,1.0118273541589518,0.27559278874509036,-1.0805987452771515,-1.3255955839734523
2024-09-23 06:27:10.612633,41.62,24.65405,-0.014634963569291141,0.020001120827370582,1.0118273541589518,0.27559278874509036,-1.0805987452771515,-1.553117270708084
2024-09-23 06:27:10.624022,41.62,24.65405,-0.014634963569291141,0.0187205915907958,1.00969310686615,0.27123832814879717,-1.0805987452771515,-1.553117270708084
2024-09-23 06:27:10.666508,41.62,24.654101,-0.015610600769459046,0.020001120827370582,1.0132908213515286,0.27123832814879717,-1.0937195433642715,-1.3606034109167755
2024-09-23 06:27:10.710615,41.62,24.654152,-0.015610600769459046,0.020001120827370582,1.0132908213515286,0.3456082558686845,-1.0368247942864894,-1.3474826128296553
2024-09-23 06:27:10.722230,41.62,24.654152,-0.014756881194255646,0.019086441680196593,1.0132908213515286,0.3456082558686845,-1.0368247942864894,-1.3474826128296553
2024-09-23 06:27:10.754113,41.62,24.654152,-0.014756881194255646,0.019086441680196593,1.0153031616522024,0.3456082558686845,-1.0368247942864894,-1.3474826128296553
2024-09-23 06:27:10.765857,41.62,24.654203,-0.015183792627064338,0.019086441680196593,1.0153031616522024,0.49870265194606034,-1.0630662837389857,-1.4568603408124299
2024-09-23 06:27:10.807747,41.62,24.654203,-0.015183792627064338,0.019879204721382753,1.0128639524500669,0.3062460483703762,-1.1549687530383468,-1.4568603408124299
2024-09-23 06:27:10.819378,41.62,24.654291,-0.015183792627064338,0.019879204721382753,1.0128639524500669,0.3062460483703762,-1.1549687530383468,-1.413086283100024
2024-09-23 06:27:10.851631,41.62,24.654291,-0.01256167205101853,0.019879204721382753,1.0128639524500669,0.3062460483703762,-1.1549687530383468,-1.413086283100024
2024-09-23 06:27:10.863458,41.62,24.654291,-0.01256167205101853,0.019696228790963704,1.0136566395424191,0.29306802074806765,-1.0062288442377,-1.4087318225037306
2024-09-23 06:27:10.906299,41.62,24.654342,-0.015488684663471218,0.022196330730096036,1.0126809947473678,0.29306802074806765,-1.0062288442377,-1.4087318225037306
2024-09-23 06:27:10.918696,41.62,24.654342,-0.015488684663471218,0.022196330730096036,1.0126809947473678,0.3456082558686845,-1.203097164625302,-1.4087318225037306
2024-09-23 06:27:10.951366,41.62,24.654393,-0.015488684663471218,0.022196330730096036,1.0126809947473678,0.3456082558686845,-1.203097164625302,-1.3387163820605725
2024-09-23 06:27:10.962992,41.62,24.654393,-0.012622630104012445,0.02262324216290473,1.013778546534547,0.29747979092085736,-1.203097164625302,-1.3387163820605725
2024-09-23 06:27:11.005160,41.62,24.654444,-0.012622630104012445,0.02262324216290473,1.013778546534547,0.29747979092085736,-1.15932321363464,-1.3387163820605725
2024-09-23 06:27:11.048732,41.62,24.654444,-0.015610600769459046,0.020001120827370582,1.013778546534547,0.29747979092085736,-1.15932321363464,-1.3387163820605725
2024-09-23 06:27:11.060480,41.62,24.654444,-0.015610600769459046,0.020001120827370582,1.0145103773453428,0.3149550229238346,-1.1637349838074296,-1.3518370734259486
2024-09-23 06:27:11.103157,41.62,24.654495,-0.015183792627064338,0.018049744655597465,1.0109126628599643,0.4155664400962181,-1.1637349838074296,-1.3518370734259486
2024-09-23 06:27:11.114797,41.62,24.654495,-0.015183792627064338,0.018049744655597465,1.0109126628599643,0.4155664400962181,-1.0849533125951887,-1.3518370734259486
2024-09-23 06:27:11.146773,41.62,24.654545,-0.015183792627064338,0.018049744655597465,1.0109126628599643,0.4155664400962181,-1.0849533125951887,-1.5005769822265953
2024-09-23 06:27:11.158152,41.62,24.654545,-0.014695923141261731,0.01963527073796979,1.0085954578644638,0.446219699721504,-1.0849533125951887,-1.5005769822265953
2024-09-23 06:27:11.200460,41.62,24.654632,-0.011220081471035847,0.020306014382754138,1.0085954578644638,0.446219699721504,-1.0980740039605648,-1.474335492774099
2024-09-23 06:27:11.212182,41.62,24.654632,-0.011220081471035847,0.020306014382754138,1.014022554947817,0.446219699721504,-1.0980740039605648,-1.474335492774099
2024-09-23 06:27:11.243873,41.62,24.654632,-0.011220081471035847,0.020306014382754138,1.014022554947817,0.3499627431454137,-1.1024857741333545,-1.474335492774099
2024-09-23 06:27:11.255548,41.62,24.654683,-0.014147094083488534,0.018476656088406155,1.014022554947817,0.3499627431454137,-1.1024857741333545,-1.4568603408124299
2024-09-23 06:27:11.349857,41.62,24.654734,-0.014147094083488534,0.018476656088406155,1.0159129882563631,0.3499627431454137,-1.0455910250555724,-1.4174980532728136
2024-09-23 06:27:11.392750,41.62,24.654734,-0.01664729931303485,0.02122069352992813,1.0152421109416312,0.3499627431454137,-1.0455910250555724,-1.4174980532728136
2024-09-23 06:27:11.404625,41.62,24.654734,-0.01664729931303485,0.02122069352992813,1.0152421109416312,0.3237212803733535,-1.1374934943549335,-1.3824903330512346
2024-09-23 06:27:11.436844,41.62,24.654827,-0.01664729931303485,0.02122069352992813,1.0152421109416312,0.3237212803733535,-1.1374934943549335,-1.3824903330512346
2024-09-23 06:27:11.448376,41.62,24.654827,-0.01341539238571027,0.02018409827676631,1.012620041251304,0.35872900059493257,-1.1024857741333545,-1.3824903330512346
2024-09-23 06:27:11.490990,41.62,24.654879,-0.012744546969488612,0.019696228790963704,1.012620041251304,0.35872900059493257,-1.1024857741333545,-1.3737241022821516
2024-09-23 06:27:11.503166,41.62,24.654879,-0.012744546969488612,0.019696228790963704,1.0111565740587272,0.2843590461946093,-1.1024857741333545,-1.3737241022821516
2024-09-23 06:27:11.534887,41.62,24.654879,-0.012744546969488612,0.019696228790963704,1.0111565740587272,0.2843590461946093,-1.2118635021161288,-1.3737241022821516
2024-09-23 06:27:11.545959,41.62,24.654929,-0.016037512202267738,0.018964423802771455,1.015546975636458,0.2843590461946093,-1.2118635021161288,-1.3255955839734523
2024-09-23 06:27:11.588112,41.62,24.655024,-0.016037512202267738,0.018964423802771455,1.015546975636458,0.3193667930966243,-1.2293386540777982,-1.3824903330512346
2024-09-23 06:27:11.599892,41.62,24.655024,-0.01341539238571027,0.02048899031317319,1.015546975636458,0.3193667930966243,-1.2293386540777982,-1.3824903330512346
2024-09-23 06:27:11.631880,41.62,24.655024,-0.01341539238571027,0.02048899031317319,1.0143274196426437,0.3193667930966243,-1.2293386540777982,-1.3824903330512346
2024-09-23 06:27:11.643790,41.62,24.655075,-0.012134760618209839,0.02048899031317319,1.0143274196426437,0.39373674749694765,-1.0849533125951887,-1.3606034109167755
2024-09-23 06:27:11.685752,41.62,24.655075,-0.012134760618209839,0.021708563015730736,1.0117664006628877,0.3499627431454137,-1.1549687530383468,-1.3606034109167755
2024-09-23 06:27:11.696932,41.62,24.655168,-0.012134760618209839,0.021708563015730736,1.0117664006628877,0.3499627431454137,-1.1549687530383468,-1.3387163820605725
2024-09-23 06:27:11.729054,41.62,24.655168,-0.014025177977500705,0.021708563015730736,1.0117664006628877,0.3499627431454137,-1.1549687530383468,-1.3387163820605725
2024-09-23 06:27:11.740312,41.62,24.655168,-0.014025177977500705,0.02012303845233509,1.0180472355491645,0.3411964856958948,-1.1812102424908428,-1.2774671723864972
2024-09-23 06:27:11.782971,41.62,24.65522,-0.013842202047081654,0.020793883868556746,1.0164007134393813,0.3411964856958948,-1.1812102424908428,-1.2774671723864972
2024-09-23 06:27:11.794498,41.62,24.65522,-0.013842202047081654,0.020793883868556746,1.0164007134393813,0.37620423259790986,-1.1243154934130608,-1.2774671723864972
2024-09-23 06:27:11.877715,41.62,24.655271,-0.013842202047081654,0.020793883868556746,1.0164007134393813,0.37620423259790986,-1.1243154934130608,-1.3562488435987383
2024-09-23 06:27:11.889472,41.62,24.655271,-0.014025177977500705,0.018659531766364576,1.0124370835486052,0.39809120809324083,-1.1243154934130608,-1.3562488435987383
2024-09-23 06:27:11.932376,41.62,24.655321,-0.015000815177668611,0.01786687049661572,1.0124370835486052,0.39809120809324083,-1.0937195433642715,-1.3299501512914895
2024-09-23 06:27:11.944218,41.62,24.655321,-0.015000815177668611,0.01786687049661572,1.015486022140394,0.39809120809324083,-1.0937195433642715,-1.3299501512914895
2024-09-23 06:27:11.976660,41.62,24.655321,-0.015000815177668611,0.01786687049661572,1.015486022140394,0.4155664400962181,-1.1111946953259408,-1.3649578715130686
2024-09-23 06:27:11.988436,41.62,24.655372,-0.014695923141261731,0.02176952106872465,1.015486022140394,0.4155664400962181,-1.1111946953259408,-1.3649578715130686
2024-09-23 06:27:12.031538,41.62,24.655423,-0.013049540777332799,0.02176952106872465,1.0120712653577144,0.3368419984191656,-1.3343619214642792,-1.483101830264926
2024-09-23 06:27:12.073732,41.62,24.655423,-0.013049540777332799,0.02012303845233509,1.0144494238492787,0.3674952580444515,-1.3343619214642792,-1.483101830264926
2024-09-23 06:27:12.085080,41.62,24.65551,-0.013049540777332799,0.02012303845233509,1.0144494238492787,0.3674952580444515,-1.1243154934130608,-1.4174980532728136
2024-09-23 06:27:12.128036,41.62,24.65551,-0.013720285941093825,0.017805912443621806,1.012802998954003,0.3368419984191656,-1.1111946953259408,-1.3649578715130686
2024-09-23 06:27:12.171008,41.62,24.655608,-0.014512945691866003,0.017805912443621806,1.012802998954003,0.3368419984191656,-1.1111946953259408,-1.3649578715130686
2024-09-23 06:27:12.182539,41.62,24.655608,-0.014512945691866003,0.02134260963591596,1.0135347325502915,0.24499683869630098,-1.0543573625463993,-1.3649578715130686
2024-09-23 06:27:12.225962,41.62,24.655659,-0.012744546969488612,0.021037716080532405,1.0118273541589518,0.3062460483703762,-1.0543573625463993,-1.3168293532043696
2024-09-23 06:27:12.267977,41.62,24.655659,-0.012744546969488612,0.021037716080532405,1.0118273541589518,0.3062460483703762,-1.1418479549512268,-1.413086283100024
2024-09-23 06:27:12.280144,41.62,24.65571,-0.011951885699739756,0.02012303845233509,1.0114003880429827,0.3062460483703762,-1.1418479549512268,-1.413086283100024
2024-09-23 06:27:12.323924,41.62,24.655761,-0.015549642716465131,0.02164760496273682,1.0114003880429827,0.18374762902222574,-1.1506142924420535,-1.3606034109167755
2024-09-23 06:27:12.367316,41.62,24.655761,-0.015549642716465131,0.02164760496273682,1.014144559154452,0.29306802074806765,-1.1068402347296475,-1.3606034109167755
2024-09-23 06:27:12.378396,41.62,24.655811,-0.012622630104012445,0.02164760496273682,1.014144559154452,0.29306802074806765,-1.1068402347296475,-1.3518370734259486
2024-09-23 06:27:12.421096,41.61,24.6559,-0.012622630104012445,0.019513251341567978,1.01426646614658,0.3543172304221429,-1.0762442846808582,-1.461214801408723
2024-09-23 06:27:12.463430,41.61,24.6559,-0.012866564846913748,0.022867176146317694,1.01426646614658,0.3543172304221429,-1.0762442846808582,-1.461214801408723
2024-09-23 06:27:12.474586,41.61,24.6559,-0.012866564846913748,0.022867176146317694,1.0114614387535539,0.2668265312955715,-1.1330817241821438,-1.3693696416858583
2024-09-23 06:27:12.518441,41.61,24.655951,-0.01256167205101853,0.01823272210499319,1.012498037044669,0.3849704900474288,-1.1330817241821438,-1.3693696416858583
2024-09-23 06:27:12.531014,41.61,24.655951,-0.01256167205101853,0.01823272210499319,1.012498037044669,0.3849704900474288,-1.1111946953259408,-1.3693696416858583
2024-09-23 06:27:12.563744,41.61,24.656002,-0.01585453627184869,0.02048899031317319,1.012498037044669,0.3849704900474288,-1.1111946953259408,-1.413086283100024
2024-09-23 06:27:12.575691,41.61,24.656002,-0.01585453627184869,0.02048899031317319,1.012925003160638,0.4155664400962181,-1.1111946953259408,-1.413086283100024
2024-09-23 06:27:12.608682,41.61,24.656002,-0.01585453627184869,0.02048899031317319,1.012925003160638,0.4155664400962181,-1.028115873093903,-1.4524485706396402
2024-09-23 06:27:12.620282,41.61,24.656053,-0.013049540777332799,0.019513251341567978,1.0102418827597397,0.4155664400962181,-1.028115873093903,-1.4524485706396402
2024-09-23 06:27:12.663761,41.61,24.656103,-0.015610600769459046,0.019330377182586234,1.0102418827597397,0.28871353347133843,-1.1287272635858505,-1.3606034109167755
2024-09-23 06:27:12.706114,41.61,24.656103,-0.015610600769459046,0.019330377182586234,1.01542506864433,0.2581175834225491,-1.1287272635858505,-1.3606034109167755
2024-09-23 06:27:12.758659,41.61,24.656154,-0.011524974266931064,0.019330377182586234,1.01542506864433,0.2581175834225491,-1.1637349838074296,-1.3343619214642792
2024-09-23 06:27:12.769930,41.61,24.656154,-0.011524974266931064,0.02097675802753849,1.012925003160638,0.2581175834225491,-1.1637349838074296,-1.3343619214642792
2024-09-23 06:27:12.802107,41.61,24.656154,-0.011524974266931064,0.02097675802753849,1.012925003160638,0.4330989549952559,-1.1637349838074296,-1.3343619214642792
2024-09-23 06:27:12.813326,41.61,24.656241,-0.014878899071680782,0.0187205915907958,1.012925003160638,0.4330989549952559,-1.203097164625302,-1.491868061034009
2024-09-23 06:27:12.856107,41.61,24.656241,-0.014878899071680782,0.0187205915907958,1.0107297051572652,0.27994727602181957,-1.207451731943339,-1.4306188513599336
2024-09-23 06:27:12.867983,41.61,24.656292,-0.012012843752733671,0.0187205915907958,1.0107297051572652,0.27994727602181957,-1.207451731943339,-1.4306188513599336
2024-09-23 06:27:12.900905,41.61,24.656292,-0.012012843752733671,0.016769215419022678,1.0107297051572652,0.27994727602181957,-1.207451731943339,-1.4306188513599336
2024-09-23 06:27:12.912409,41.61,24.656343,-0.012012843752733671,0.016769215419022678,1.0132908213515286,0.27994727602181957,-1.1111946953259408,-1.5005769822265953
2024-09-23 06:27:12.954366,41.61,24.656343,-0.012866564846913748,0.02122069352992813,1.0103028362558035,0.28871353347133843,-1.1724439050000162,-1.5005769822265953
2024-09-23 06:27:12.966182,41.61,24.656343,-0.012866564846913748,0.02122069352992813,1.0103028362558035,0.28871353347133843,-1.1724439050000162,-1.474335492774099
2024-09-23 06:27:12.998566,41.61,24.656437,-0.015671560341429636,0.02122069352992813,1.0103028362558035,0.28871353347133843,-1.1724439050000162,-1.474335492774099
2024-09-23 06:27:13.010725,41.61,24.656437,-0.015671560341429636,0.018476656088406155,1.0132298678554648,0.27994727602181957,-1.1462025222692638,-1.474335492774099
2024-09-23 06:27:13.052837,41.61,24.656488,-0.015610600769459046,0.020366972435748053,1.0122541258459061,0.27994727602181957,-1.1462025222692638,-1.3868447936475277
2024-09-23 06:27:13.064768,41.61,24.656488,-0.015610600769459046,0.020366972435748053,1.0122541258459061,0.27559278874509036,-1.1462025222692638,-1.3868447936475277
2024-09-23 06:27:13.097082,41.61,24.656488,-0.015610600769459046,0.020366972435748053,1.0122541258459061,0.27559278874509036,-1.1068402347296475,-1.3780785628784449
2024-09-23 06:27:13.108777,41.61,24.656539,-0.014878899071680782,0.01798878660260355,1.0132298678554648,0.27559278874509036,-1.1068402347296475,-1.3780785628784449
2024-09-23 06:27:13.151618,41.61,24.656589,-0.012256778495634975,0.018842507696783625,1.0132298678554648,0.2668265312955715,-1.1724439050000162,-1.3868447936475277
2024-09-23 06:27:13.193899,41.61,24.656589,-0.012256778495634975,0.018842507696783625,1.0114614387535539,0.2668265312955715,-1.1724439050000162,-1.3868447936475277
2024-09-23 06:27:13.205048,41.61,24.65664,-0.01536666678604608,0.018842507696783625,1.0114614387535539,0.2843590461946093,-1.2818216329827905,-1.3999655917346479
2024-09-23 06:27:13.247851,41.61,24.65664,-0.01536666678604608,0.02164760496273682,1.012802998954003,0.31060053564710544,-1.0937195433642715,-1.3780785628784449
2024-09-23 06:27:13.259896,41.61,24.656728,-0.01536666678604608,0.02164760496273682,1.012802998954003,0.31060053564710544,-1.0937195433642715,-1.3780785628784449
2024-09-23 06:27:13.292546,41.61,24.656728,-0.014756881194255646,0.020732824044125523,1.0090222295514184,0.31060053564710544,-1.0937195433642715,-1.3780785628784449
2024-09-23 06:27:13.303662,41.61,24.656728,-0.014756881194255646,0.020732824044125523,1.0090222295514184,0.3280757409696467,-1.207451731943339,-1.404320052330941
2024-09-23 06:27:13.346044,41.61,24.65678,-0.01365932788809991,0.01926931735815501,1.0090222295514184,0.3280757409696467,-1.207451731943339,-1.404320052330941
2024-09-23 06:27:13.388140,41.61,24.65678,-0.01365932788809991,0.01926931735815501,1.0118273541589518,0.3280757409696467,-1.207451731943339,-1.404320052330941
2024-09-23 06:27:13.400274,41.61,24.65678,-0.01365932788809991,0.01926931735815501,1.0118273541589518,0.3280757409696467,-1.1943309338562191,-1.404320052330941
2024-09-23 06:27:13.443240,41.99,24.656831,-0.015183792627064338,0.019879204721382753,1.012925003160638,0.3280757409696467,-1.1943309338562191,-1.3299501512914895
2024-09-23 06:27:13.455052,41.99,24.656831,-0.015183792627064338,0.019879204721382753,1.012925003160638,0.37184974532118065,-1.1943309338562191,-1.3299501512914895
2024-09-23 06:27:13.486740,41.99,24.656831,-0.015183792627064338,0.019879204721382753,1.012925003160638,0.37184974532118065,-1.2118635021161288,-1.4437395427253097
2024-09-23 06:27:13.498006,41.99,24.656881,-0.015000815177668611,0.02134260963591596,1.0112784810508548,0.37184974532118065,-1.2118635021161288,-1.4437395427253097
2024-09-23 06:27:13.542352,41.99,24.656932,-0.01408613603049462,0.02097675802753849,1.0112784810508548,0.37620423259790986,-1.0630662837389857,-1.43932777255252
2024-09-23 06:27:13.584307,41.99,24.656932,-0.01408613603049462,0.02097675802753849,1.0112784810508548,0.4287444677185267,-1.0630662837389857,-1.43932777255252
2024-09-23 06:27:13.596120,41.99,24.656983,-0.017074107455429557,0.02097675802753849,1.0112784810508548,0.4287444677185267,-1.0674780539117754,-1.469981032177806
2024-09-23 06:27:13.638900,41.99,24.657071,-0.017074107455429557,0.018293680157987106,1.012620041251304,0.41121195281948897,-1.0980740039605648,-1.3999655917346479
2024-09-23 06:27:13.681301,41.99,24.657071,-0.015244750680058252,0.018781549643789714,1.012620041251304,0.41121195281948897,-1.0980740039605648,-1.3999655917346479
2024-09-23 06:27:13.692831,41.99,24.657071,-0.015244750680058252,0.018781549643789714,1.0107906586533293,0.3280757409696467,-1.1287272635858505,-1.3737241022821516
2024-09-23 06:27:13.735446,41.99,24.657168,-0.01396421992450679,0.021037716080532405,1.0124370835486052,0.2362305812467821,-1.1287272635858505,-1.3737241022821516
2024-09-23 06:27:13.747421,41.99,24.657168,-0.01396421992450679,0.021037716080532405,1.0124370835486052,0.2362305812467821,-1.1768557818945498,-1.3737241022821516
2024-09-23 06:27:13.779709,41.99,24.657219,-0.01396421992450679,0.021037716080532405,1.0124370835486052,0.2362305812467821,-1.1768557818945498,-1.3737241022821516
2024-09-23 06:27:13.791664,41.99,24.657219,-0.01268358815700636,0.02225739055452726,1.014022554947817,0.2362305812467821,-1.1768557818945498,-1.3737241022821516
2024-09-23 06:27:13.834162,41.99,24.65727,-0.014025177977500705,0.019818144896951533,1.0143274196426437,0.2362305812467821,-1.0893650827679784,-1.3124748926080763
2024-09-23 06:27:13.876785,41.99,24.65727,-0.014025177977500705,0.019818144896951533,1.0143274196426437,0.4330989549952559,-1.1199610328167677,-1.3124748926080763
2024-09-23 06:27:13.888748,41.99,24.657321,-0.013842202047081654,0.019818144896951533,1.0143274196426437,0.4330989549952559,-1.1199610328167677,-1.3911993609655648
2024-09-23 06:27:13.931403,41.99,24.657371,-0.011951885699739756,0.019818144896951533,1.0126809947473678,0.3280757409696467,-1.203097164625302,-1.4306188513599336
2024-09-23 06:27:13.973786,41.99,24.657371,-0.011951885699739756,0.02122069352992813,1.0101198785531047,0.3280757409696467,-1.203097164625302,-1.4306188513599336
2024-09-23 06:27:13.985369,41.99,24.65746,-0.011951885699739756,0.02122069352992813,1.0101198785531047,0.3237212803733535,-1.1156065722204744,-1.3999655917346479
2024-09-23 06:27:14.028669,41.99,24.65746,-0.012622630104012445,0.02097675802753849,1.0133517748475924,0.24935132597303017,-1.1199610328167677,-1.3518370734259486
2024-09-23 06:27:14.070775,41.99,24.657511,-0.014695923141261731,0.02097675802753849,1.0133517748475924,0.24935132597303017,-1.1199610328167677,-1.3518370734259486
2024-09-23 06:27:14.082468,41.99,24.657511,-0.014695923141261731,0.017622936513202757,1.0120712653577144,0.3018342781975865,-1.1855647030871361,-1.3518370734259486
2024-09-23 06:27:14.125769,41.99,24.657562,-0.013293374508285133,0.023050050305299438,1.0138396944596255,0.3018342781975865,-1.1855647030871361,-1.434973311956227
2024-09-23 06:27:14.137756,41.99,24.657562,-0.013293374508285133,0.023050050305299438,1.0138396944596255,0.27559278874509036,-1.1855647030871361,-1.434973311956227
2024-09-23 06:27:14.170460,41.99,24.657613,-0.013293374508285133,0.023050050305299438,1.0138396944596255,0.27559278874509036,-1.0630662837389857,-1.3737241022821516
2024-09-23 06:27:14.182067,41.99,24.657613,-0.01268358815700636,0.019452293288574063,1.0134127283436565,0.27559278874509036,-1.0630662837389857,-1.3737241022821516
2024-09-23 06:27:14.224820,41.99,24.657663,-0.017013149402435646,0.019025483627202678,1.0134127283436565,0.3499627431454137,-1.1418479549512268,-1.4568603408124299
2024-09-23 06:27:14.267258,41.99,24.657663,-0.017013149402435646,0.019025483627202678,1.0123761300525411,0.39373674749694765,-1.1987427040290088,-1.4568603408124299
2024-09-23 06:27:14.278577,41.99,24.657714,-0.014634963569291141,0.019025483627202678,1.0123761300525411,0.39373674749694765,-1.1987427040290088,-1.3911993609655648
2024-09-23 06:27:14.321349,41.99,24.657714,-0.014634963569291141,0.020915799974544576,1.0126809947473678,0.28871353347133843,-1.1549687530383468,-1.448094003321603
2024-09-23 06:27:14.333066,41.99,24.657801,-0.014634963569291141,0.020915799974544576,1.0126809947473678,0.28871353347133843,-1.1549687530383468,-1.448094003321603
2024-09-23 06:27:14.366325,41.99,24.657801,-0.015122834574070423,0.0187205915907958,1.01231507934197,0.28871353347133843,-1.1549687530383468,-1.448094003321603
2024-09-23 06:27:14.377860,41.99,24.657801,-0.015122834574070423,0.0187205915907958,1.01231507934197,0.3018342781975865,-1.2468139127612115,-1.4524485706396402
2024-09-23 06:27:14.410319,41.99,24.657852,-0.015122834574070423,0.0187205915907958,1.01231507934197,0.3018342781975865,-1.2468139127612115,-1.4524485706396402
2024-09-23 06:27:14.421468,41.99,24.657852,-0.014634963569291141,0.02085484192155066,1.01231507934197,0.3018342781975865,-1.2468139127612115,-1.4524485706396402
2024-09-23 06:27:14.463606,42.18,24.657852,-0.014634963569291141,0.02085484192155066,1.0107297051572652,0.2318188110739924,-1.207451731943339,-1.4524485706396402
2024-09-23 06:27:14.475195,42.18,24.657903,-0.018293680157987106,0.02085484192155066,1.0107297051572652,0.2318188110739924,-1.207451731943339,-1.3737241022821516
2024-09-23 06:27:14.517289,42.18,24.657954,-0.018293680157987106,0.016342405757651293,1.0146322843374704,0.3324875378228724,-1.1024857741333545,-1.3518370734259486
2024-09-23 06:27:14.560188,42.18,24.657954,-0.013049540777332799,0.015061773230662524,1.0123761300525411,0.3324875378228724,-1.1024857741333545,-1.3518370734259486
2024-09-23 06:27:14.571116,42.18,24.657954,-0.013049540777332799,0.015061773230662524,1.0123761300525411,0.29747979092085736,-0.9624548932470381,-1.3824903330512346
2024-09-23 06:27:14.613693,42.18,24.658005,-0.011707950956838454,0.019940162774376668,1.012498037044669,0.2274643237972632,-1.1287272635858505,-1.3824903330512346
2024-09-23 06:27:14.658477,42.18,24.658056,-0.013354434332716355,0.019940162774376668,1.012498037044669,0.2274643237972632,-1.1287272635858505,-1.2818216329827905
2024-09-23 06:27:14.669966,42.18,24.658056,-0.013354434332716355,0.021098777423940302,1.0171934977462411,0.3456082558686845,-1.1287272635858505,-1.2818216329827905
2024-09-23 06:27:14.712354,42.18,24.658144,-0.013720285941093825,0.02207441310513153,1.0097540603622142,0.3456082558686845,-1.0893650827679784,-1.4437395427253097
2024-09-23 06:27:14.755864,42.18,24.658144,-0.013720285941093825,0.02207441310513153,1.0097540603622142,0.3499627431454137,-1.0893650827679784,-1.3956111311383546
2024-09-23 06:27:14.767255,42.18,24.658195,-0.014269113479890346,0.02176952106872465,1.0097540603622142,0.3499627431454137,-1.0893650827679784,-1.3956111311383546
2024-09-23 06:27:14.811175,42.18,24.658246,-0.012744546969488612,0.02176952106872465,1.0117053499523165,0.3368419984191656,-1.1111946953259408,-1.3824903330512346
2024-09-23 06:27:14.854189,42.18,24.658246,-0.012744546969488612,0.016769215419022678,1.012620041251304,0.3456082558686845,-1.0718325145080685,-1.3824903330512346
2024-09-23 06:27:14.865709,42.18,24.658337,-0.012744546969488612,0.016769215419022678,1.012620041251304,0.3456082558686845,-1.0718325145080685,-1.3824903330512346
2024-09-23 06:27:14.898746,42.18,24.658337,-0.015061773230662524,0.016769215419022678,1.012620041251304,0.3456082558686845,-1.0718325145080685,-1.3824903330512346
2024-09-23 06:27:14.909898,42.18,24.658337,-0.015061773230662524,0.021037716080532405,1.0171934977462411,0.3543172304221429,-1.1330817241821438,-1.496222521630302
2024-09-23 06:27:14.952108,42.18,24.658389,-0.013720285941093825,0.018781549643789714,1.009815013858278,0.3543172304221429,-1.1330817241821438,-1.496222521630302
2024-09-23 06:27:14.964856,42.18,24.658389,-0.013720285941093825,0.018781549643789714,1.009815013858278,0.3674952580444515,-1.1724439050000162,-1.496222521630302
2024-09-23 06:27:14.997724,42.18,24.658439,-0.013720285941093825,0.018781549643789714,1.009815013858278,0.3674952580444515,-1.1724439050000162,-1.4787472629468887
2024-09-23 06:27:15.008791,42.18,24.658439,-0.014147094083488534,0.01768389456619667,1.0129859566567019,0.3499627431454137,-1.1724439050000162,-1.4787472629468887
2024-09-23 06:27:15.052379,42.18,24.65849,-0.014695923141261731,0.01811080599900536,1.0139616014517532,0.3499627431454137,-1.216217962712422,-1.4174980532728136
2024-09-23 06:27:15.095547,42.18,24.65849,-0.014695923141261731,0.01811080599900536,1.0139616014517532,0.3456082558686845,-1.0762442846808582,-1.4174980532728136
2024-09-23 06:27:15.106963,42.18,24.658541,-0.014695923141261731,0.020610907938137694,1.0139616014517532,0.3456082558686845,-1.0762442846808582,-1.483101830264926
2024-09-23 06:27:15.148770,42.18,24.658592,-0.014695923141261731,0.020610907938137694,1.0093270942462451,0.3324875378228724,-1.0849533125951887,-1.5005769822265953
2024-09-23 06:27:15.160720,42.18,24.658592,-0.017013149402435646,0.020610907938137694,1.0093270942462451,0.3324875378228724,-1.0849533125951887,-1.5005769822265953
2024-09-23 06:27:15.192407,42.18,24.658592,-0.017013149402435646,0.02329398580768908,1.0109736163560281,0.3324875378228724,-1.0849533125951887,-1.5005769822265953
2024-09-23 06:27:15.204155,42.18,24.658678,-0.017013149402435646,0.02329398580768908,1.0109736163560281,0.3324875378228724,-1.0849533125951887,-1.413086283100024
2024-09-23 06:27:15.246461,42.18,24.658678,-0.011951885699739756,0.02152558556633501,1.0139616014517532,0.2843590461946093,-1.259991913703084,-1.413086283100024
2024-09-23 06:27:15.258069,42.18,24.658678,-0.011951885699739756,0.02152558556633501,1.0139616014517532,0.2843590461946093,-1.259991913703084,-1.3999655917346479
2024-09-23 06:27:15.291372,42.18,24.65873,-0.01664729931303485,0.019940162774376668,1.0139616014517532,0.2843590461946093,-1.259991913703084,-1.3999655917346479
2024-09-23 06:27:15.302564,42.18,24.65873,-0.01664729931303485,0.019940162774376668,1.012498037044669,0.3456082558686845,-1.1899764732599258,-1.3999655917346479
2024-09-23 06:27:15.344786,42.18,24.658781,-0.012866564846913748,0.02201345505213762,1.0109736163560281,0.3630834878716618,-1.1899764732599258,-1.4306188513599336
2024-09-23 06:27:15.387630,42.18,24.658781,-0.012866564846913748,0.02201345505213762,1.0109736163560281,0.3630834878716618,-1.15932321363464,-1.4087318225037306
2024-09-23 06:27:15.398989,42.18,24.658831,-0.011768909009832369,0.02097675802753849,1.0111565740587272,0.3630834878716618,-1.15932321363464,-1.4087318225037306
2024-09-23 06:27:15.441322,42.18,24.658831,-0.011768909009832369,0.02097675802753849,1.0111565740587272,0.3018342781975865,-1.1243154934130608,-1.4087318225037306
2024-09-23 06:27:15.485173,42.22,24.658882,-0.011768909009832369,0.02097675802753849,1.0111565740587272,0.3018342781975865,-1.1243154934130608,-1.3911993609655648
2024-09-23 06:27:15.496398,42.22,24.658882,-0.015488684663471218,0.019513251341567978,1.0157299333391567,0.3368419984191656,-1.1243154934130608,-1.3911993609655648
2024-09-23 06:27:15.539095,42.22,24.658933,-0.01713506550842347,0.020366972435748053,1.0157299333391567,0.3368419984191656,-1.1156065722204744,-1.4437395427253097
2024-09-23 06:27:15.551245,42.22,24.658933,-0.01713506550842347,0.020366972435748053,1.0157908868352208,0.3368419984191656,-1.1156065722204744,-1.4437395427253097
2024-09-23 06:27:15.583117,42.22,24.658933,-0.01713506550842347,0.020366972435748053,1.0157908868352208,0.3149550229238346,-1.1068402347296475,-1.4437395427253097
2024-09-23 06:27:15.594254,42.22,24.65902,-0.015183792627064338,0.018964423802771455,1.0157908868352208,0.3149550229238346,-1.1068402347296475,-1.3037086618389935
2024-09-23 06:27:15.636118,42.22,24.659071,-0.015183792627064338,0.018964423802771455,1.015608026347029,0.3237212803733535,-1.1330817241821438,-1.413086283100024
2024-09-23 06:27:15.648021,42.22,24.659071,-0.012012843752733671,0.018964423802771455,1.015608026347029,0.3237212803733535,-1.1330817241821438,-1.413086283100024
2024-09-23 06:27:15.679842,42.22,24.659071,-0.012012843752733671,0.01939133523558015,1.014022554947817,0.3237212803733535,-1.1330817241821438,-1.413086283100024
2024-09-23 06:27:15.691355,42.22,24.659166,-0.012012843752733671,0.01939133523558015,1.014022554947817,0.3456082558686845,-1.1330817241821438,-1.3868447936475277
2024-09-23 06:27:15.733459,42.22,24.659166,-0.012744546969488612,0.021281651582922046,1.0139616014517532,0.39373674749694765,-1.0805987452771515,-1.3868447936475277
2024-09-23 06:27:15.745168,42.22,24.659166,-0.012744546969488612,0.021281651582922046,1.0139616014517532,0.39373674749694765,-1.0805987452771515,-1.3824903330512346
2024-09-23 06:27:15.777956,42.22,24.659217,-0.018598572194393984,0.021281651582922046,1.0139616014517532,0.39373674749694765,-1.0805987452771515,-1.3824903330512346
2024-09-23 06:27:15.789034,42.22,24.659217,-0.018598572194393984,0.021586543619328925,1.0144494238492787,0.3456082558686845,-1.1024857741333545,-1.3824903330512346
2024-09-23 06:27:15.883032,42.22,24.659268,-0.015122834574070423,0.020610907938137694,1.0112784810508548,0.3411964856958948,-1.1024857741333545,-1.4087318225037306
2024-09-23 06:27:15.926129,42.22,24.659319,-0.015122834574070423,0.020610907938137694,1.0112784810508548,0.3411964856958948,-1.1111946953259408,-1.3956111311383546
2024-09-23 06:27:15.937187,42.22,24.659319,-0.01433007153288426,0.01926931735815501,1.0116442992417454,0.3411964856958948,-1.1111946953259408,-1.3956111311383546
2024-09-23 06:27:15.980372,42.22,24.659319,-0.01433007153288426,0.01926931735815501,1.0116442992417454,0.38061600277069957,-1.1111946953259408,-1.3956111311383546
2024-09-23 06:27:16.023679,42.22,24.65937,-0.01433007153288426,0.01926931735815501,1.0116442992417454,0.38061600277069957,-1.1549687530383468,-1.4174980532728136
2024-09-23 06:27:16.035986,42.22,24.65937,-0.013842202047081654,0.02189143717471248,1.0117053499523165,0.38061600277069957,-1.1549687530383468,-1.4174980532728136
2024-09-23 06:27:16.068294,42.22,24.65937,-0.013842202047081654,0.02189143717471248,1.0117053499523165,0.3368419984191656,-1.1549687530383468,-1.4174980532728136
2024-09-23 06:27:16.080291,42.22,24.65942,-0.014269113479890346,0.01664729931303485,1.0117053499523165,0.3368419984191656,-1.1111946953259408,-1.404320052330941
2024-09-23 06:27:16.125335,42.22,24.659556,-0.014269113479890346,0.01664729931303485,1.0137175930384832,0.3849704900474288,-1.1418479549512268,-1.404320052330941
2024-09-23 06:27:16.137348,42.22,24.659556,-0.013171458402297304,0.01664729931303485,1.0137175930384832,0.3849704900474288,-1.1418479549512268,-1.404320052330941
2024-09-23 06:27:16.169137,42.22,24.659556,-0.013171458402297304,0.018659531766364576,1.0113394345469187,0.3368419984191656,-1.1418479549512268,-1.404320052330941
2024-09-23 06:27:16.180928,42.22,24.659608,-0.013171458402297304,0.018659531766364576,1.0113394345469187,0.3368419984191656,-1.1418479549512268,-1.3868447936475277
2024-09-23 06:27:16.223706,42.22,24.659608,-0.014574005516297226,0.02048899031317319,1.0102418827597397,0.3018342781975865,-1.1111946953259408,-1.3911993609655648
2024-09-23 06:27:16.266106,42.22,24.659703,-0.014878899071680782,0.018293680157987106,1.0102418827597397,0.3018342781975865,-1.1111946953259408,-1.3911993609655648
2024-09-23 06:27:16.277368,42.22,24.659703,-0.014878899071680782,0.018293680157987106,1.0132908213515286,0.3149550229238346,-1.1156065722204744,-1.3911993609655648
2024-09-23 06:27:16.321629,42.22,24.659754,-0.017196025080394063,0.022196330730096036,1.01542506864433,0.27994727602181957,-1.1156065722204744,-1.426207081187144
2024-09-23 06:27:16.364311,42.22,24.659805,-0.017196025080394063,0.022196330730096036,1.01542506864433,0.27994727602181957,-1.0762442846808582,-1.2468139127612115
2024-09-23 06:27:16.376028,42.22,24.659805,-0.015122834574070423,0.023598879363072634,1.0115223922496177,0.27994727602181957,-1.0762442846808582,-1.2468139127612115
2024-09-23 06:27:16.419707,42.22,24.659856,-0.012866564846913748,0.01811080599900536,1.0115223922496177,0.3062460483703762,-1.0893650827679784,-1.404320052330941
2024-09-23 06:27:16.462275,42.22,24.659856,-0.012866564846913748,0.01811080599900536,1.0143883731387076,0.3149550229238346,-1.0368247942864894,-1.404320052330941
2024-09-23 06:27:16.473660,42.22,24.659906,-0.015427726610477303,0.01811080599900536,1.0143883731387076,0.3149550229238346,-1.0368247942864894,-1.404320052330941
2024-09-23 06:27:16.516115,42.79,24.659995,-0.015427726610477303,0.019940162774376668,1.0134736818397203,0.3543172304221429,-1.0630662837389857,-1.3911993609655648
2024-09-23 06:27:16.559836,42.79,24.659995,-0.01341539238571027,0.020306014382754138,1.0139006479556893,0.3543172304221429,-1.0630662837389857,-1.3911993609655648
2024-09-23 06:27:16.570990,42.79,24.659995,-0.01341539238571027,0.020306014382754138,1.0139006479556893,0.2581175834225491,-1.238104991568625,-1.448094003321603
2024-09-23 06:27:16.613863,42.79,24.660046,-0.015061773230662524,0.020427930488741967,1.0103028362558035,0.2668265312955715,-1.224984193481505,-1.448094003321603
2024-09-23 06:27:16.656870,42.79,24.660097,-0.013110498830326714,0.020427930488741967,1.0103028362558035,0.2668265312955715,-1.224984193481505,-1.3956111311383546
2024-09-23 06:27:16.668748,42.79,24.660097,-0.013110498830326714,0.019086441680196593,1.01542506864433,0.3456082558686845,-1.224984193481505,-1.3956111311383546
2024-09-23 06:27:16.711577,42.79,24.660148,-0.016403363810645208,0.019208359305161096,1.0129859566567019,0.3456082558686845,-1.1637349838074296,-1.4174980532728136
2024-09-23 06:27:16.753745,42.79,24.660148,-0.016403363810645208,0.019208359305161096,1.0129859566567019,0.3193667930966243,-1.1024857741333545,-1.426207081187144
2024-09-23 06:27:16.764896,42.79,24.660198,-0.015976452377836518,0.022501222766502915,1.0129859566567019,0.3193667930966243,-1.1024857741333545,-1.426207081187144
2024-09-23 06:27:16.809159,42.79,24.660198,-0.015976452377836518,0.022501222766502915,1.0145103773453428,0.3193667930966243,-1.1024857741333545,-1.426207081187144
2024-09-23 06:27:16.852279,42.79,24.660198,-0.015976452377836518,0.022501222766502915,1.0145103773453428,0.35872900059493257,-1.1768557818945498,-1.4787472629468887
2024-09-23 06:27:16.863333,42.79,24.660249,-0.013110498830326714,0.019818144896951533,1.0145103773453428,0.35872900059493257,-1.1768557818945498,-1.4787472629468887
2024-09-23 06:27:16.905969,42.79,24.660336,-0.012256778495634975,0.019818144896951533,1.0103637897518674,0.3456082558686845,-1.1287272635858505,-1.4218526205908506
2024-09-23 06:27:16.949341,42.79,24.660336,-0.012256778495634975,0.01768389456619667,1.0116442992417454,0.27559278874509036,-1.1287272635858505,-1.4218526205908506
2024-09-23 06:27:16.960968,42.79,24.660388,-0.012256778495634975,0.01768389456619667,1.0116442992417454,0.27559278874509036,-1.0805987452771515,-1.4655692620050162
2024-09-23 06:27:17.003507,42.79,24.660388,-0.01408613603049462,0.02048899031317319,1.0168886330514144,0.38061600277069957,-1.15932321363464,-1.474335492774099
2024-09-23 06:27:17.046912,42.79,24.660438,-0.014025177977500705,0.017561976941232165,1.0168886330514144,0.38061600277069957,-1.15932321363464,-1.474335492774099
2024-09-23 06:27:17.058544,42.79,24.660438,-0.014025177977500705,0.017561976941232165,1.012802998954003,0.38932495064372197,-1.0630662837389857,-1.474335492774099
2024-09-23 06:27:17.100978,42.79,24.660532,-0.011281142054955407,0.020001120827370582,1.0123761300525411,0.2581175834225491,-1.0630662837389857,-1.3780785628784449
2024-09-23 06:27:17.144763,42.79,24.660583,-0.011281142054955407,0.020001120827370582,1.0123761300525411,0.2581175834225491,-1.1680894444037229,-1.4306188513599336
2024-09-23 06:27:17.156246,42.79,24.660583,-0.015427726610477303,0.02122069352992813,1.0114614387535539,0.2581175834225491,-1.1680894444037229,-1.4306188513599336
2024-09-23 06:27:17.190395,42.79,24.660583,-0.015427726610477303,0.02122069352992813,1.0114614387535539,0.40685746554275976,-1.1680894444037229,-1.4306188513599336
2024-09-23 06:27:17.201846,42.79,24.660634,-0.014756881194255646,0.02237930666051509,1.0114614387535539,0.40685746554275976,-1.1199610328167677,-1.5355847024481744
2024-09-23 06:27:17.245223,42.79,24.660685,-0.014756881194255646,0.02237930666051509,1.0132908213515286,0.2843590461946093,-1.1243154934130608,-1.5574717313043773
2024-09-23 06:27:17.256646,42.79,24.660685,-0.015427726610477303,0.02237930666051509,1.0132908213515286,0.2843590461946093,-1.1243154934130608,-1.5574717313043773
