Ayaan's Suite
Timestamp,Sample Rate (Hz),Time,Ax,Ay,Az,Gx,Gy,Gz
2024-09-23 04:06:54.302045,0,16.237391,-0.012317737308117227,0.019879204721382753,1.0105467474545664,0.39373674749694765,-1.1418479549512268,-1.483101830264926
2024-09-23 04:06:54.313241,0,16.237442,-0.013537308491698099,0.020062078880364497,1.014205512650516,0.27559278874509036,-1.1418479549512268,-1.483101830264926
2024-09-23 04:06:54.355625,0,16.237529,-0.012805606793919833,0.020366972435748053,1.014205512650516,0.27559278874509036,-1.1899764732599258,-1.2555801435302942
2024-09-23 04:06:54.367670,0,16.237529,-0.012805606793919833,0.020366972435748053,1.014205512650516,0.27559278874509036,-1.1899764732599258,-1.2555801435302942
2024-09-23 04:06:54.401576,0,16.237529,-0.012805606793919833,0.020366972435748053,1.014205512650516,0.27559278874509036,-1.0455910250555724,-1.3649578715130686
2024-09-23 04:06:54.412602,0,16.237627,-0.013171458402297304,0.022501222766502915,1.014205512650516,0.27559278874509036,-1.0455910250555724,-1.3649578715130686
2024-09-23 04:06:54.455386,0,16.237678,-0.013171458402297304,0.022501222766502915,1.0101198785531047,0.37620423259790986,-1.1418479549512268,-1.4524485706396402
2024-09-23 04:06:54.467580,0,16.237678,-0.012378695361111141,0.022501222766502915,1.0101198785531047,0.37620423259790986,-1.1418479549512268,-1.4524485706396402
2024-09-23 04:06:54.499461,0,16.237678,-0.012378695361111141,0.02097675802753849,1.011034569852092,0.4374534422719851,-1.1418479549512268,-1.4524485706396402
2024-09-23 04:06:54.510890,0,16.237774,-0.012378695361111141,0.02097675802753849,1.011034569852092,0.4374534422719851,-1.1724439050000162,-1.448094003321603
2024-09-23 04:06:54.543294,0,16.237774,-0.013354434332716355,0.02097675802753849,1.011034569852092,0.4374534422719851,-1.1724439050000162,-1.448094003321603
2024-09-23 04:06:54.554828,0,16.237774,-0.013354434332716355,0.0187205915907958,1.0115833457456815,0.29747979092085736,-1.1199610328167677,-1.3518370734259486
2024-09-23 04:06:54.596885,0,16.237871,-0.011707950956838454,0.01939133523558015,1.015608026347029,0.29747979092085736,-1.1199610328167677,-1.3518370734259486
2024-09-23 04:06:54.608247,0,16.237871,-0.011707950956838454,0.01939133523558015,1.015608026347029,0.35872900059493257,-1.1374934943549335,-1.3518370734259486
2024-09-23 04:06:54.640899,0,16.237871,-0.011707950956838454,0.01939133523558015,1.015608026347029,0.35872900059493257,-1.1374934943549335,-1.3430708426568656
2024-09-23 04:06:54.652740,0,16.237922,-0.014391029585878175,0.01963527073796979,1.0100589250570406,0.3499627431454137,-1.1374934943549335,-1.3430708426568656
2024-09-23 04:06:54.694953,0,16.237973,-0.014391029585878175,0.01963527073796979,1.0100589250570406,0.3499627431454137,-1.0937195433642715,-1.3693696416858583
2024-09-23 04:06:54.706511,0,16.237973,-0.015183792627064338,0.01835463821098102,1.0130469101527657,0.3499627431454137,-1.0937195433642715,-1.3693696416858583
2024-09-23 04:06:54.738664,0,16.237973,-0.015183792627064338,0.01835463821098102,1.0130469101527657,0.37620423259790986,-1.0937195433642715,-1.3693696416858583
2024-09-23 04:06:54.753988,0,16.238024,-0.011890927646745842,0.018049744655597465,1.0130469101527657,0.37620423259790986,-1.1243154934130608,-1.3343619214642792
2024-09-23 04:06:54.796440,0,16.238075,-0.012866564846913748,0.018049744655597465,1.012802998954003,0.35872900059493257,-1.1243154934130608,-1.4524485706396402
2024-09-23 04:06:54.838272,0,16.238075,-0.012866564846913748,0.020732824044125523,1.0114003880429827,0.35872900059493257,-1.1243154934130608,-1.4524485706396402
2024-09-23 04:06:54.849974,0,16.238163,-0.012866564846913748,0.020732824044125523,1.0114003880429827,0.3368419984191656,-1.1418479549512268,-1.3430708426568656
2024-09-23 04:06:54.892443,0,16.238163,-0.013049540777332799,0.016891131525010507,1.012802998954003,0.3193667930966243,-1.1068402347296475,-1.2336931146740913
2024-09-23 04:06:54.986332,0,16.238214,-0.017074107455429557,0.02018409827676631,1.012802998954003,0.3193667930966243,-1.1068402347296475,-1.2336931146740913
2024-09-23 04:06:54.997599,0,16.238214,-0.017074107455429557,0.02018409827676631,1.0134127283436565,0.37184974532118065,-1.1637349838074296,-1.2336931146740913
2024-09-23 04:06:55.081389,0,16.238265,-0.017074107455429557,0.02018409827676631,1.0134127283436565,0.37184974532118065,-1.1637349838074296,-1.3212411233771593
2024-09-23 04:06:55.134115,0,16.238265,-0.011707950956838454,0.023233027754695164,1.0153031616522024,0.42433269754573705,-1.1637349838074296,-1.3212411233771593
2024-09-23 04:06:55.145923,0,16.238265,-0.011707950956838454,0.023233027754695164,1.0153031616522024,0.42433269754573705,-1.1549687530383468,-1.3737241022821516
2024-09-23 04:06:55.178315,0,16.238316,-0.011707950956838454,0.023233027754695164,1.0153031616522024,0.42433269754573705,-1.1549687530383468,-1.3737241022821516
2024-09-23 04:06:55.189574,0,16.238316,-0.014634963569291141,0.019940162774376668,1.0134127283436565,0.3280757409696467,-1.2862334031555802,-1.3737241022821516
2024-09-23 04:06:55.231531,0,16.238367,-0.011281142054955407,0.018171764051999276,1.0134127283436565,0.3280757409696467,-1.2862334031555802,-1.3474826128296553
2024-09-23 04:06:55.242528,0,16.238367,-0.011281142054955407,0.018171764051999276,1.0104247432479314,0.17933585884943604,-1.2862334031555802,-1.3474826128296553
2024-09-23 04:06:55.276762,42.26,16.238367,-0.011281142054955407,0.018171764051999276,1.0104247432479314,0.17933585884943604,-1.1374934943549335,-1.3693696416858583
2024-09-23 04:06:55.287923,42.26,16.238418,-0.014878899071680782,0.02176952106872465,1.0145713308414066,0.17933585884943604,-1.1374934943549335,-1.3693696416858583
2024-09-23 04:06:55.330457,42.26,16.238553,-0.01408613603049462,0.02176952106872465,1.0145713308414066,0.31060053564710544,-1.1987427040290088,-1.3037086618389935
2024-09-23 04:06:55.342594,42.26,16.238553,-0.01408613603049462,0.02018409827676631,1.0145713308414066,0.31060053564710544,-1.1987427040290088,-1.3037086618389935
2024-09-23 04:06:55.374347,42.26,16.238553,-0.01408613603049462,0.02018409827676631,1.0116442992417454,0.3324875378228724,-1.1987427040290088,-1.3037086618389935
2024-09-23 04:06:55.386580,42.26,16.238653,-0.010976248499571852,0.02018409827676631,1.0116442992417454,0.3324875378228724,-1.1812102424908428,-1.3649578715130686
2024-09-23 04:06:55.429892,42.26,16.238748,-0.010976248499571852,0.018476656088406155,1.015546975636458,0.29747979092085736,-1.1287272635858505,-1.413086283100024
2024-09-23 04:06:55.472313,42.26,16.238748,-0.013476350438704184,0.01853761414140007,1.015546975636458,0.29747979092085736,-1.1287272635858505,-1.413086283100024
2024-09-23 04:06:55.484139,42.26,16.238748,-0.013476350438704184,0.01853761414140007,1.0138396944596255,0.2843590461946093,-1.1199610328167677,-1.3999655917346479
2024-09-23 04:06:55.527569,42.26,16.2388,-0.013720285941093825,0.021952496999143704,1.0100589250570406,0.3674952580444515,-1.1680894444037229,-1.3999655917346479
2024-09-23 04:06:55.570462,42.26,16.23885,-0.01378124399408774,0.021952496999143704,1.0100589250570406,0.3674952580444515,-1.1680894444037229,-1.4437395427253097
2024-09-23 04:06:55.581443,42.26,16.23885,-0.01378124399408774,0.01786687049661572,1.0132908213515286,0.29747979092085736,-1.1680894444037229,-1.4437395427253097
2024-09-23 04:06:55.623853,42.26,16.238901,-0.015427726610477303,0.018171764051999276,1.012620041251304,0.29747979092085736,-1.1287272635858505,-1.434973311956227
2024-09-23 04:06:55.666891,42.26,16.238901,-0.015427726610477303,0.018171764051999276,1.012620041251304,0.3018342781975865,-1.1812102424908428,-1.434973311956227
2024-09-23 04:06:55.677967,42.26,16.238952,-0.010854230622146716,0.01939133523558015,1.012620041251304,0.3018342781975865,-1.1812102424908428,-1.448094003321603
2024-09-23 04:06:55.720472,42.26,16.238952,-0.010854230622146716,0.01939133523558015,1.013778546534547,0.26247207069927825,-1.1680894444037229,-1.448094003321603
2024-09-23 04:06:55.763884,42.26,16.239003,-0.010854230622146716,0.01939133523558015,1.013778546534547,0.26247207069927825,-1.1680894444037229,-1.3649578715130686
2024-09-23 04:06:55.775660,42.26,16.239003,-0.016098470255261652,0.019086441680196593,1.0131688171448936,0.41121195281948897,-1.1680894444037229,-1.3649578715130686
2024-09-23 04:06:55.820697,42.26,16.239089,-0.011098165365048018,0.022684200215898644,1.0144494238492787,0.41121195281948897,-1.0499454856518655,-1.426207081187144
2024-09-23 04:06:55.863758,42.26,16.239089,-0.011098165365048018,0.022684200215898644,1.0144494238492787,0.3411964856958948,-1.2205724233087152,-1.3606034109167755
2024-09-23 04:06:55.874978,42.26,16.239141,-0.010305402323861856,0.01823272210499319,1.0144494238492787,0.3411964856958948,-1.2205724233087152,-1.3606034109167755
2024-09-23 04:06:55.918608,42.26,16.239191,-0.012988480952901577,0.01823272210499319,1.0107297051572652,0.35872900059493257,-1.0980740039605648,-1.3299501512914895
2024-09-23 04:06:55.961818,42.26,16.239191,-0.012988480952901577,0.020793883868556746,1.0115223922496177,0.2843590461946093,-1.1680894444037229,-1.3299501512914895
2024-09-23 04:06:55.973442,42.26,16.239242,-0.012988480952901577,0.020793883868556746,1.0115223922496177,0.2843590461946093,-1.1680894444037229,-1.3474826128296553
2024-09-23 04:06:56.005624,42.26,16.239242,-0.01573262016586086,0.020793883868556746,1.0115223922496177,0.2843590461946093,-1.1680894444037229,-1.3474826128296553
2024-09-23 04:06:56.017656,42.26,16.239242,-0.01573262016586086,0.020427930488741967,1.0170715907541132,0.3849704900474288,-1.216217962712422,-1.461214801408723
2024-09-23 04:06:56.112427,42.26,16.239333,-0.012012843752733671,0.019330377182586234,1.0170715907541132,0.3849704900474288,-1.216217962712422,-1.461214801408723
2024-09-23 04:06:56.155771,42.26,16.239333,-0.012012843752733671,0.019330377182586234,1.012742045457939,0.37184974532118065,-1.216217962712422,-1.461214801408723
2024-09-23 04:06:56.208701,42.26,16.239333,-0.012012843752733671,0.019330377182586234,1.012742045457939,0.37184974532118065,-1.1549687530383468,-1.461214801408723
2024-09-23 04:06:56.250735,42.26,16.239333,-0.012012843752733671,0.019330377182586234,1.012742045457939,0.37184974532118065,-1.1549687530383468,-1.404320052330941
2024-09-23 04:06:56.263452,42.26,16.239385,-0.011342100107949322,0.02201345505213762,1.0103637897518674,0.3630834878716618,-1.1549687530383468,-1.404320052330941
2024-09-23 04:06:56.307118,40.06,16.239435,-0.01341539238571027,0.01914740125216718,1.0103637897518674,0.3630834878716618,-1.1462025222692638,-1.434973311956227
2024-09-23 04:06:56.318832,40.06,16.239435,-0.01341539238571027,0.01914740125216718,1.012802998954003,0.3630834878716618,-1.1462025222692638,-1.434973311956227
2024-09-23 04:06:56.350839,40.06,16.239435,-0.01341539238571027,0.01914740125216718,1.012802998954003,0.3499627431454137,-1.1330817241821438,-1.5355847024481744
2024-09-23 04:06:56.362549,40.06,16.239486,-0.012622630104012445,0.019330377182586234,1.012802998954003,0.3499627431454137,-1.1330817241821438,-1.5355847024481744
2024-09-23 04:06:56.445990,40.06,16.239486,-0.012622630104012445,0.019330377182586234,1.014022554947817,0.3456082558686845,-1.1330817241821438,-1.5355847024481744
2024-09-23 04:06:56.457701,40.06,16.239486,-0.012622630104012445,0.019330377182586234,1.014022554947817,0.3456082558686845,-1.1156065722204744,-1.5355847024481744
2024-09-23 04:06:56.552029,40.06,16.239537,-0.011159123418041933,0.017561976941232165,1.0182911467479274,0.3456082558686845,-1.1156065722204744,-1.413086283100024
2024-09-23 04:06:56.564284,40.06,16.239537,-0.011159123418041933,0.017561976941232165,1.0182911467479274,0.3456082558686845,-1.1156065722204744,-1.413086283100024
2024-09-23 04:06:56.597422,40.06,16.239772,-0.012927522899907663,0.017561976941232165,1.0182911467479274,0.3456082558686845,-1.1899764732599258,-1.43932777255252
2024-09-23 04:06:56.608720,40.06,16.239772,-0.012927522899907663,0.021159735476934217,1.0101198785531047,0.3456082558686845,-1.1899764732599258,-1.43932777255252
2024-09-23 04:06:56.641104,40.06,16.239772,-0.012927522899907663,0.021159735476934217,1.0101198785531047,0.2668265312955715,-1.0893650827679784,-1.43932777255252
2024-09-23 04:06:56.652640,40.06,16.239823,-0.01219582044264106,0.018964423802771455,1.0101198785531047,0.2668265312955715,-1.0893650827679784,-1.3780785628784449
2024-09-23 04:06:56.696131,40.06,16.239874,-0.01341539238571027,0.018964423802771455,1.014205512650516,0.3499627431454137,-1.0455910250555724,-1.3562488435987383
2024-09-23 04:06:56.739051,40.06,16.239874,-0.01341539238571027,0.017196025080394063,1.011217527554791,0.3499627431454137,-1.0455910250555724,-1.3562488435987383
2024-09-23 04:06:56.750290,40.06,16.239968,-0.01341539238571027,0.017196025080394063,1.011217527554791,0.28871353347133843,-1.1024857741333545,-1.4306188513599336
2024-09-23 04:06:56.792903,40.06,16.239968,-0.014269113479890346,0.023964729452473427,1.0101808320491685,0.3062460483703762,-1.1243154934130608,-1.4306188513599336
2024-09-23 04:06:56.805134,40.06,16.239968,-0.014269113479890346,0.023964729452473427,1.0101808320491685,0.3062460483703762,-1.1243154934130608,-1.4787472629468887
2024-09-23 04:06:56.838731,40.06,16.240113,-0.014147094083488534,0.01823272210499319,1.0101808320491685,0.3062460483703762,-1.1243154934130608,-1.4787472629468887
2024-09-23 04:06:56.850141,40.06,16.240113,-0.014147094083488534,0.01823272210499319,1.0122541258459061,0.3499627431454137,-1.1374934943549335,-1.4787472629468887
2024-09-23 04:06:56.892966,40.06,16.240165,-0.01365932788809991,0.022440264713509,1.011095523348156,0.3193667930966243,-1.1374934943549335,-1.43932777255252
2024-09-23 04:06:56.935936,40.06,16.240215,-0.01365932788809991,0.022440264713509,1.011095523348156,0.3193667930966243,-1.1637349838074296,-1.3255955839734523
2024-09-23 04:06:56.947469,40.06,16.240215,-0.014512945691866003,0.020245056329760223,1.0097540603622142,0.3193667930966243,-1.1637349838074296,-1.3255955839734523
2024-09-23 04:06:56.990194,40.06,16.240266,-0.013476350438704184,0.02164760496273682,1.0097540603622142,0.38932495064372197,-1.1462025222692638,-1.426207081187144
2024-09-23 04:06:57.032466,40.06,16.240266,-0.013476350438704184,0.02164760496273682,1.0115223922496177,0.3630834878716618,-1.0062288442377,-1.426207081187144
2024-09-23 04:06:57.043512,40.06,16.240317,-0.012378695361111141,0.02164760496273682,1.0115223922496177,0.3630834878716618,-1.0062288442377,-1.3518370734259486
2024-09-23 04:06:57.086452,40.06,16.240405,-0.012378695361111141,0.01975718684395762,1.0166446246381442,0.2843590461946093,-1.1418479549512268,-1.448094003321603
2024-09-23 04:06:57.130060,40.06,16.240405,-0.013598266544692013,0.020732824044125523,1.0166446246381442,0.2843590461946093,-1.1418479549512268,-1.448094003321603
2024-09-23 04:06:57.141867,40.06,16.240405,-0.013598266544692013,0.020732824044125523,1.0093881449568163,0.2843590461946093,-1.1680894444037229,-1.426207081187144
2024-09-23 04:06:57.184570,40.06,16.240457,-0.014147094083488534,0.018049744655597465,1.0093881449568163,0.2843590461946093,-1.1680894444037229,-1.426207081187144
2024-09-23 04:06:57.228358,40.06,16.240457,-0.014147094083488534,0.018049744655597465,1.0126809947473678,0.28871353347133843,-1.1243154934130608,-1.426207081187144
2024-09-23 04:06:57.239360,40.06,16.240507,-0.012439653414105056,0.018049744655597465,1.0126809947473678,0.28871353347133843,-1.1243154934130608,-1.404320052330941
2024-09-23 04:06:57.282683,40.06,16.240558,-0.012439653414105056,0.02048899031317319,1.0146933350480416,0.37620423259790986,-1.1462025222692638,-1.413086283100024
2024-09-23 04:06:57.325774,39.47,16.240558,-0.014574005516297226,0.020549948366167105,1.0138396944596255,0.37620423259790986,-1.1462025222692638,-1.413086283100024
2024-09-23 04:06:57.337427,39.47,16.240558,-0.014574005516297226,0.020549948366167105,1.0138396944596255,0.3543172304221429,-1.1637349838074296,-1.3911993609655648
2024-09-23 04:06:57.381067,39.47,16.240609,-0.01256167205101853,0.019330377182586234,1.0124370835486052,0.3849704900474288,-1.1287272635858505,-1.3911993609655648
2024-09-23 04:06:57.423499,39.47,16.24066,-0.012927522899907663,0.019330377182586234,1.0124370835486052,0.3849704900474288,-1.1287272635858505,-1.4437395427253097
2024-09-23 04:06:57.434629,39.47,16.24066,-0.012927522899907663,0.021708563015730736,1.009510051948944,0.3411964856958948,-1.1287272635858505,-1.4437395427253097
2024-09-23 04:06:57.478000,39.47,16.240748,-0.012805606793919833,0.02225739055452726,1.009266140750181,0.3411964856958948,-1.0630662837389857,-1.496222521630302
2024-09-23 04:06:57.520919,39.47,16.240748,-0.012805606793919833,0.02225739055452726,1.009266140750181,0.39373674749694765,-1.1024857741333545,-1.461214801408723
2024-09-23 04:06:57.532103,39.47,16.240799,-0.013293374508285133,0.016403363810645208,1.009266140750181,0.39373674749694765,-1.1024857741333545,-1.461214801408723
2024-09-23 04:06:57.575155,39.47,16.24085,-0.013903160100075569,0.016403363810645208,1.0169495865474782,0.35872900059493257,-1.1724439050000162,-1.3562488435987383
2024-09-23 04:06:57.618237,39.47,16.24085,-0.013903160100075569,0.019086441680196593,1.0148152420401695,0.35872900059493257,-1.1724439050000162,-1.3562488435987383
2024-09-23 04:06:57.629922,39.47,16.240942,-0.013903160100075569,0.019086441680196593,1.0148152420401695,0.39809120809324083,-1.1068402347296475,-1.504988752399385
2024-09-23 04:06:57.714619,39.47,16.240942,-0.011586034850850625,0.018659531766364576,1.011095523348156,0.39809120809324083,-1.1068402347296475,-1.504988752399385
2024-09-23 04:06:57.726078,39.47,16.240942,-0.011586034850850625,0.018659531766364576,1.011095523348156,0.37620423259790986,-1.1768557818945498,-1.4306188513599336
2024-09-23 04:06:57.768922,39.47,16.240993,-0.011586034850850625,0.018659531766364576,1.011095523348156,0.37620423259790986,-1.1768557818945498,-1.4306188513599336
2024-09-23 04:06:57.812166,39.47,16.240993,-0.01341539238571027,0.0187205915907958,1.011095523348156,0.37620423259790986,-1.1768557818945498,-1.4306188513599336
2024-09-23 04:06:57.823152,39.47,16.240993,-0.01341539238571027,0.0187205915907958,1.0137175930384832,0.3193667930966243,-1.0193495356030762,-1.3780785628784449
2024-09-23 04:06:57.865827,39.47,16.241044,-0.013842202047081654,0.019696228790963704,1.0145713308414066,0.3456082558686845,-1.0193495356030762,-1.3780785628784449
2024-09-23 04:06:57.877844,39.47,16.241044,-0.013842202047081654,0.019696228790963704,1.0145713308414066,0.3456082558686845,-1.0980740039605648,-1.3780785628784449
2024-09-23 04:06:57.909970,39.47,16.241094,-0.013842202047081654,0.019696228790963704,1.0145713308414066,0.3456082558686845,-1.0980740039605648,-1.404320052330941
2024-09-23 04:06:57.921159,39.47,16.241094,-0.011403058160943235,0.017622936513202757,1.0115223922496177,0.3630834878716618,-1.0980740039605648,-1.404320052330941
2024-09-23 04:06:57.963000,39.47,16.241145,-0.011524974266931064,0.016891131525010507,1.0115223922496177,0.3630834878716618,-1.0805987452771515,-1.3999655917346479
2024-09-23 04:06:57.975201,39.47,16.241145,-0.011524974266931064,0.016891131525010507,1.0128639524500669,0.3630834878716618,-1.0805987452771515,-1.3999655917346479
2024-09-23 04:06:58.008945,39.47,16.241145,-0.011524974266931064,0.016891131525010507,1.0128639524500669,0.27559278874509036,-1.1243154934130608,-1.3562488435987383
2024-09-23 04:06:58.020126,39.47,16.241237,-0.011707950956838454,0.019879204721382753,1.0128639524500669,0.27559278874509036,-1.1243154934130608,-1.3562488435987383
2024-09-23 04:06:58.062713,39.47,16.241334,-0.011768909009832369,0.019879204721382753,1.0095710054450078,0.3411964856958948,-1.1374934943549335,-1.3649578715130686
2024-09-23 04:06:58.104582,39.47,16.241334,-0.011768909009832369,0.017379001010813116,1.0137175930384832,0.3411964856958948,-1.1374934943549335,-1.3649578715130686
2024-09-23 04:06:58.116718,39.47,16.241429,-0.011768909009832369,0.017379001010813116,1.0137175930384832,0.27559278874509036,-1.0674780539117754,-1.413086283100024
2024-09-23 04:06:58.158782,39.47,16.241429,-0.01433007153288426,0.022318348607521174,1.015486022140394,0.3149550229238346,-1.0455910250555724,-1.3430708426568656
2024-09-23 04:06:58.201623,39.47,16.241481,-0.015183792627064338,0.022318348607521174,1.015486022140394,0.3149550229238346,-1.0455910250555724,-1.3430708426568656
2024-09-23 04:06:58.213078,39.47,16.241481,-0.015183792627064338,0.019940162774376668,1.0143883731387076,0.3324875378228724,-1.0412365644592791,-1.3430708426568656
2024-09-23 04:06:58.256196,39.47,16.241531,-0.01256167205101853,0.019818144896951533,1.01231507934197,0.3062460483703762,-1.0412365644592791,-1.3168293532043696
2024-09-23 04:06:58.299303,39.47,16.241531,-0.01256167205101853,0.019818144896951533,1.01231507934197,0.3062460483703762,-1.1549687530383468,-1.4306188513599336
2024-09-23 04:06:58.310289,39.47,16.241582,-0.015671560341429636,0.020306014382754138,1.0145713308414066,0.3062460483703762,-1.1549687530383468,-1.4306188513599336
2024-09-23 04:06:58.352422,39.58,16.241633,-0.014512945691866003,0.020306014382754138,1.0145713308414066,0.41997821026900783,-1.1199610328167677,-1.469981032177806
2024-09-23 04:06:58.396215,39.58,16.241633,-0.014512945691866003,0.019208359305161096,1.0145713308414066,0.41997821026900783,-1.1199610328167677,-1.469981032177806
2024-09-23 04:06:58.407375,39.58,16.241683,-0.014512945691866003,0.019208359305161096,1.0112784810508548,0.3324875378228724,-1.207451731943339,-1.4218526205908506
2024-09-23 04:06:58.450650,39.58,16.241683,-0.01341539238571027,0.018598572194393984,1.0118883076550156,0.3018342781975865,-1.1899764732599258,-1.4218526205908506
2024-09-23 04:06:58.462854,39.58,16.241683,-0.01341539238571027,0.018598572194393984,1.0118883076550156,0.3018342781975865,-1.1899764732599258,-1.3562488435987383
2024-09-23 04:06:58.495864,39.58,16.24177,-0.010122528164880112,0.02097675802753849,1.0118883076550156,0.3018342781975865,-1.1899764732599258,-1.3562488435987383
2024-09-23 04:06:58.507597,39.58,16.24177,-0.010122528164880112,0.02097675802753849,1.0120712653577144,0.3368419984191656,-1.1287272635858505,-1.3562488435987383
2024-09-23 04:06:58.549944,39.58,16.241822,-0.014391029585878175,0.01853761414140007,1.0143274196426437,0.38061600277069957,-1.1287272635858505,-1.426207081187144
2024-09-23 04:06:58.592852,39.58,16.241872,-0.014391029585878175,0.01853761414140007,1.0143274196426437,0.38061600277069957,-1.0368247942864894,-1.3824903330512346
2024-09-23 04:06:58.604074,39.58,16.241872,-0.010122528164880112,0.018842507696783625,1.0125589905407328,0.38061600277069957,-1.0368247942864894,-1.3824903330512346
2024-09-23 04:06:58.646126,39.58,16.241923,-0.012439653414105056,0.01750101888823825,1.0125589905407328,0.3499627431454137,-1.0893650827679784,-1.3255955839734523
2024-09-23 04:06:58.689312,39.58,16.241923,-0.012439653414105056,0.01750101888823825,1.0131078636488298,0.38061600277069957,-1.0893650827679784,-1.3255955839734523
2024-09-23 04:06:58.701285,39.58,16.241974,-0.01256167205101853,0.01750101888823825,1.0131078636488298,0.38061600277069957,-1.1068402347296475,-1.3911993609655648
2024-09-23 04:06:58.744475,39.58,16.242063,-0.01256167205101853,0.019208359305161096,1.0123761300525411,0.37184974532118065,-1.1287272635858505,-1.3299501512914895
2024-09-23 04:06:58.786555,39.58,16.242063,-0.01256167205101853,0.020732824044125523,1.0123761300525411,0.37184974532118065,-1.1287272635858505,-1.3299501512914895
2024-09-23 04:06:58.797814,39.58,16.242063,-0.01256167205101853,0.020732824044125523,1.0113394345469187,0.3280757409696467,-1.1374934943549335,-1.4568603408124299
2024-09-23 04:06:58.840155,39.58,16.242114,-0.012866564846913748,0.015610600769459046,1.0160348952484908,0.28871353347133843,-1.1374934943549335,-1.4568603408124299
2024-09-23 04:06:58.852372,39.58,16.242114,-0.012866564846913748,0.015610600769459046,1.0160348952484908,0.28871353347133843,-1.1724439050000162,-1.4568603408124299
2024-09-23 04:06:58.884623,39.58,16.242165,-0.012866564846913748,0.015610600769459046,1.0160348952484908,0.28871353347133843,-1.1724439050000162,-1.3999655917346479
2024-09-23 04:06:58.895704,39.58,16.242165,-0.010793271809664462,0.018781549643789714,1.0164616669354454,0.29747979092085736,-1.1724439050000162,-1.3999655917346479
2024-09-23 04:06:58.938045,39.58,16.242216,-0.012927522899907663,0.02012303845233509,1.0164616669354454,0.29747979092085736,-1.0980740039605648,-1.3824903330512346
2024-09-23 04:06:58.950159,39.58,16.242216,-0.012927522899907663,0.02012303845233509,1.015608026347029,0.29747979092085736,-1.0980740039605648,-1.3824903330512346
2024-09-23 04:06:58.983200,39.58,16.242216,-0.012927522899907663,0.02012303845233509,1.015608026347029,0.28871353347133843,-1.1812102424908428,-1.504988752399385
2024-09-23 04:06:58.995011,39.58,16.242266,-0.015183792627064338,0.01926931735815501,1.015608026347029,0.28871353347133843,-1.1812102424908428,-1.504988752399385
2024-09-23 04:06:59.037253,39.58,16.242317,-0.01268358815700636,0.01926931735815501,1.0143274196426437,0.27559278874509036,-1.216217962712422,-1.4874562908612192
2024-09-23 04:06:59.080101,39.58,16.242317,-0.01268358815700636,0.01939133523558015,1.009510051948944,0.27559278874509036,-1.216217962712422,-1.4874562908612192
2024-09-23 04:06:59.091612,39.58,16.242404,-0.01268358815700636,0.01939133523558015,1.009510051948944,0.37620423259790986,-1.1111946953259408,-1.413086283100024
2024-09-23 04:06:59.135007,39.58,16.242404,-0.01433007153288426,0.022196330730096036,1.0108517093639005,0.29747979092085736,-1.1068402347296475,-1.5224640110827983
2024-09-23 04:06:59.178194,39.58,16.242456,-0.010854230622146716,0.020610907938137694,1.0108517093639005,0.29747979092085736,-1.1068402347296475,-1.5224640110827983
2024-09-23 04:06:59.189196,39.58,16.242456,-0.010854230622146716,0.020610907938137694,1.0124370835486052,0.3193667930966243,-1.15932321363464,-1.5224640110827983
2024-09-23 04:06:59.231649,39.58,16.242507,-0.017013149402435646,0.020366972435748053,1.0140835084438808,0.2843590461946093,-1.15932321363464,-1.3474826128296553
2024-09-23 04:06:59.273842,39.58,16.242507,-0.017013149402435646,0.020366972435748053,1.0140835084438808,0.2843590461946093,-1.1768557818945498,-1.3780785628784449
2024-09-23 04:06:59.285284,39.58,16.242557,-0.01536666678604608,0.018842507696783625,1.0153641151482662,0.2843590461946093,-1.1768557818945498,-1.3780785628784449
2024-09-23 04:06:59.327328,39.58,16.242608,-0.01536666678604608,0.018842507696783625,1.0153641151482662,0.29306802074806765,-1.1243154934130608,-1.4174980532728136
2024-09-23 04:06:59.341918,39.58,16.242608,-0.014878899071680782,0.02262324216290473,1.0153641151482662,0.29306802074806765,-1.1243154934130608,-1.4174980532728136
2024-09-23 04:06:59.374362,40.28,16.242608,-0.014878899071680782,0.02262324216290473,1.0107297051572652,0.3280757409696467,-1.1024857741333545,-1.4174980532728136
2024-09-23 04:06:59.385448,40.28,16.242659,-0.011403058160943235,0.02262324216290473,1.0107297051572652,0.3280757409696467,-1.1024857741333545,-1.3343619214642792
2024-09-23 04:06:59.427680,40.28,16.242745,-0.011403058160943235,0.023964729452473427,1.0137175930384832,0.3237212803733535,-1.0980740039605648,-1.3999655917346479
2024-09-23 04:06:59.470060,40.28,16.242745,-0.013720285941093825,0.019208359305161096,1.0116442992417454,0.3237212803733535,-1.0980740039605648,-1.3999655917346479
2024-09-23 04:06:59.481326,40.28,16.242745,-0.013720285941093825,0.019208359305161096,1.0116442992417454,0.40244569536997005,-1.1156065722204744,-1.448094003321603
2024-09-23 04:06:59.524963,40.28,16.242797,-0.014391029585878175,0.020427930488741967,1.0122541258459061,0.3280757409696467,-1.1374934943549335,-1.448094003321603
2024-09-23 04:06:59.569145,40.28,16.242848,-0.01042742096077533,0.020427930488741967,1.0122541258459061,0.3280757409696467,-1.1374934943549335,-1.3606034109167755
2024-09-23 04:06:59.581937,40.28,16.242848,-0.01042742096077533,0.02067186599113161,1.0138396944596255,0.35872900059493257,-1.1374934943549335,-1.3606034109167755
2024-09-23 04:06:59.614341,40.28,16.242848,-0.01042742096077533,0.02067186599113161,1.0138396944596255,0.35872900059493257,-1.1462025222692638,-1.3606034109167755
2024-09-23 04:06:59.625683,40.28,16.242899,-0.013720285941093825,0.019940162774376668,1.015608026347029,0.35872900059493257,-1.1462025222692638,-1.3387163820605725
2024-09-23 04:06:59.668550,40.28,16.24295,-0.011890927646745842,0.019940162774376668,1.015608026347029,0.3237212803733535,-1.1680894444037229,-1.4655692620050162
2024-09-23 04:06:59.680313,40.28,16.24295,-0.011890927646745842,0.016708257366028764,1.015608026347029,0.3237212803733535,-1.1680894444037229,-1.4655692620050162
2024-09-23 04:06:59.712985,40.28,16.24295,-0.011890927646745842,0.016708257366028764,1.0129859566567019,0.24499683869630098,-1.1680894444037229,-1.4655692620050162
2024-09-23 04:06:59.725464,40.28,16.243,-0.01445198763887209,0.016708257366028764,1.0129859566567019,0.24499683869630098,-1.1943309338562191,-1.3911993609655648
2024-09-23 04:06:59.769841,40.28,16.243086,-0.01445198763887209,0.020062078880364497,1.014144559154452,0.31060053564710544,-1.1506142924420535,-1.43932777255252
2024-09-23 04:06:59.811692,40.28,16.243086,-0.015122834574070423,0.02176952106872465,1.014144559154452,0.31060053564710544,-1.1506142924420535,-1.43932777255252
2024-09-23 04:06:59.823425,40.28,16.243086,-0.015122834574070423,0.02176952106872465,1.014144559154452,0.3543172304221429,-1.0980740039605648,-1.4437395427253097
2024-09-23 04:06:59.866024,40.28,16.243138,-0.014878899071680782,0.01975718684395762,1.011217527554791,0.3368419984191656,-1.15932321363464,-1.4437395427253097
2024-09-23 04:06:59.960116,40.28,16.243189,-0.014391029585878175,0.01975718684395762,1.011217527554791,0.3368419984191656,-1.15932321363464,-1.3999655917346479
2024-09-23 04:06:59.973836,40.28,16.243189,-0.014391029585878175,0.01975718684395762,1.0130469101527657,0.29747979092085736,-1.15932321363464,-1.3999655917346479
2024-09-23 04:07:00.007052,40.28,16.243189,-0.014391029585878175,0.01975718684395762,1.0130469101527657,0.29747979092085736,-1.1330817241821438,-1.404320052330941
2024-09-23 04:07:00.018214,40.28,16.243239,-0.019940162774376668,0.02122069352992813,1.0122541258459061,0.29747979092085736,-1.1330817241821438,-1.404320052330941
2024-09-23 04:07:00.061964,40.28,16.24329,-0.010305402323861856,0.018415698035412244,1.0122541258459061,0.3411964856958948,-1.1199610328167677,-1.3911993609655648
2024-09-23 04:07:00.105786,40.28,16.24329,-0.010305402323861856,0.018415698035412244,1.0107906586533293,0.40244569536997005,-1.0718325145080685,-1.3911993609655648
2024-09-23 04:07:00.117687,40.28,16.243341,-0.01341539238571027,0.018415698035412244,1.0107906586533293,0.40244569536997005,-1.0718325145080685,-1.461214801408723
2024-09-23 04:07:00.149110,40.28,16.243341,-0.01341539238571027,0.020549948366167105,1.0107906586533293,0.40244569536997005,-1.0718325145080685,-1.461214801408723
2024-09-23 04:07:00.160433,40.28,16.243428,-0.01341539238571027,0.020549948366167105,1.0145713308414066,0.3324875378228724,-1.1462025222692638,-1.4437395427253097
2024-09-23 04:07:00.203861,40.28,16.243428,-0.015671560341429636,0.02237930666051509,1.0129859566567019,0.28871353347133843,-1.1462025222692638,-1.4437395427253097
2024-09-23 04:07:00.216216,40.28,16.243428,-0.015671560341429636,0.02237930666051509,1.0129859566567019,0.28871353347133843,-1.0893650827679784,-1.3868447936475277
2024-09-23 04:07:00.249120,40.28,16.243526,-0.014025177977500705,0.02237930666051509,1.0129859566567019,0.28871353347133843,-1.0893650827679784,-1.3868447936475277
2024-09-23 04:07:00.261189,40.28,16.243526,-0.014025177977500705,0.017257084904825287,1.0135347325502915,0.3062460483703762,-1.0980740039605648,-1.3868447936475277
2024-09-23 04:07:00.303337,40.28,16.243577,-0.009756574785065334,0.021464627513341095,1.015608026347029,0.3062460483703762,-1.0980740039605648,-1.3956111311383546
2024-09-23 04:07:00.315433,40.28,16.243577,-0.009756574785065334,0.021464627513341095,1.015608026347029,0.29747979092085736,-1.0980740039605648,-1.3956111311383546
2024-09-23 04:07:00.348802,40.28,16.243628,-0.009756574785065334,0.021464627513341095,1.015608026347029,0.29747979092085736,-1.1768557818945498,-1.3737241022821516
2024-09-23 04:07:00.360083,40.28,16.243628,-0.015488684663471218,0.02067186599113161,1.0162178529511898,0.29747979092085736,-1.1768557818945498,-1.3737241022821516
2024-09-23 04:07:00.402836,40.53,16.243679,-0.012317737308117227,0.021952496999143704,1.0162178529511898,0.39373674749694765,-1.207451731943339,-1.4524485706396402
2024-09-23 04:07:00.445881,40.53,16.243679,-0.012317737308117227,0.021952496999143704,1.0090832802619896,0.3237212803733535,-1.1637349838074296,-1.4524485706396402
2024-09-23 04:07:00.457772,40.53,16.243729,-0.01365932788809991,0.021952496999143704,1.0090832802619896,0.3237212803733535,-1.1637349838074296,-1.3956111311383546
2024-09-23 04:07:00.500203,40.53,16.243818,-0.01365932788809991,0.02213537267710212,1.0159129882563631,0.3543172304221429,-1.2336931146740913,-1.4218526205908506
2024-09-23 04:07:00.543869,40.53,16.243818,-0.01146401621393715,0.01835463821098102,1.0134127283436565,0.3543172304221429,-1.2336931146740913,-1.4218526205908506
2024-09-23 04:07:00.556548,40.53,16.243818,-0.01146401621393715,0.01835463821098102,1.0134127283436565,0.39809120809324083,-1.1418479549512268,-1.4218526205908506
2024-09-23 04:07:00.589752,40.53,16.243869,-0.01146401621393715,0.01835463821098102,1.0134127283436565,0.39809120809324083,-1.1418479549512268,-1.4218526205908506
2024-09-23 04:07:00.601680,40.53,16.243869,-0.013720285941093825,0.01713506550842347,1.0152421109416312,0.37620423259790986,-1.1068402347296475,-1.4218526205908506
2024-09-23 04:07:00.644781,40.53,16.24392,-0.011220081471035847,0.018781549643789714,1.0145713308414066,0.2055773349617142,-1.1068402347296475,-1.434973311956227
2024-09-23 04:07:00.687570,40.53,16.24392,-0.011220081471035847,0.018781549643789714,1.0145713308414066,0.2055773349617142,-1.2336931146740913,-1.3956111311383546
2024-09-23 04:07:00.699007,40.53,16.243971,-0.01268358815700636,0.023476961738108128,1.015608026347029,0.2055773349617142,-1.2336931146740913,-1.3956111311383546
2024-09-23 04:07:00.741939,40.53,16.244021,-0.01182986782231462,0.023476961738108128,1.015608026347029,0.2668265312955715,-1.1506142924420535,-1.3606034109167755
2024-09-23 04:07:00.754071,40.53,16.244021,-0.01182986782231462,0.01853761414140007,1.015608026347029,0.2668265312955715,-1.1506142924420535,-1.3606034109167755
2024-09-23 04:07:00.786113,40.53,16.244021,-0.01182986782231462,0.01853761414140007,1.0096319589410718,0.3324875378228724,-1.1506142924420535,-1.3606034109167755
2024-09-23 04:07:00.797133,40.53,16.244072,-0.011890927646745842,0.01853761414140007,1.0096319589410718,0.3324875378228724,-1.1024857741333545,-1.3168293532043696
2024-09-23 04:07:00.840732,40.53,16.244159,-0.011890927646745842,0.01926931735815501,1.00969310686615,0.3280757409696467,-1.1768557818945498,-1.4087318225037306
2024-09-23 04:07:00.883967,40.53,16.244159,-0.014512945691866003,0.01939133523558015,1.0088393690632267,0.3280757409696467,-1.1768557818945498,-1.4087318225037306
2024-09-23 04:07:00.895877,40.53,16.244159,-0.014512945691866003,0.01939133523558015,1.0088393690632267,0.3368419984191656,-1.1156065722204744,-1.404320052330941
2024-09-23 04:07:00.938875,40.53,16.244211,-0.013232416455291218,0.019452293288574063,1.0121322188537785,0.3543172304221429,-1.1243154934130608,-1.404320052330941
2024-09-23 04:07:00.982536,40.53,16.244261,-0.011524974266931064,0.019452293288574063,1.0121322188537785,0.3543172304221429,-1.1243154934130608,-1.3430708426568656
2024-09-23 04:07:00.993766,40.53,16.244261,-0.011524974266931064,0.020610907938137694,1.0106077981651376,0.2405850685235113,-1.1243154934130608,-1.3430708426568656
2024-09-23 04:07:01.027002,40.53,16.244261,-0.011524974266931064,0.020610907938137694,1.0106077981651376,0.2405850685235113,-1.2862334031555802,-1.3430708426568656
2024-09-23 04:07:01.038468,40.53,16.244312,-0.013171458402297304,0.01939133523558015,1.013778546534547,0.2405850685235113,-1.2862334031555802,-1.4218526205908506
2024-09-23 04:07:01.080161,40.53,16.244312,-0.013171458402297304,0.01939133523558015,1.013778546534547,0.2362305812467821,-1.1330817241821438,-1.5005769822265953
2024-09-23 04:07:01.091817,40.53,16.244363,-0.015427726610477303,0.01768389456619667,1.013778546534547,0.2362305812467821,-1.1330817241821438,-1.5005769822265953
2024-09-23 04:07:01.175690,40.53,16.244363,-0.015427726610477303,0.01768389456619667,1.0111565740587272,0.3324875378228724,-1.1330817241821438,-1.5005769822265953
2024-09-23 04:07:01.186696,40.53,16.244413,-0.011951885699739756,0.01768389456619667,1.0111565740587272,0.3324875378228724,-1.1156065722204744,-1.3824903330512346
2024-09-23 04:07:01.229348,40.53,16.244413,-0.011951885699739756,0.02176952106872465,1.0109126628599643,0.29306802074806765,-1.1549687530383468,-1.404320052330941
2024-09-23 04:07:01.241333,40.53,16.2445,-0.011951885699739756,0.02176952106872465,1.0109126628599643,0.29306802074806765,-1.1549687530383468,-1.404320052330941
2024-09-23 04:07:01.273342,40.53,16.2445,-0.014391029585878175,0.021159735476934217,1.0109126628599643,0.29306802074806765,-1.1549687530383468,-1.404320052330941
2024-09-23 04:07:01.284779,40.53,16.2445,-0.014391029585878175,0.021159735476934217,1.01426646614658,0.3018342781975865,-1.1549687530383468,-1.3868447936475277
2024-09-23 04:07:01.327831,40.53,16.244552,-0.013293374508285133,0.02067186599113161,1.0099369208504057,0.3368419984191656,-1.1549687530383468,-1.3868447936475277
2024-09-23 04:07:01.340165,40.53,16.244552,-0.013293374508285133,0.02067186599113161,1.0099369208504057,0.3368419984191656,-1.207451731943339,-1.3868447936475277
2024-09-23 04:07:01.372827,40.53,16.244602,-0.012744546969488612,0.01975718684395762,1.0099369208504057,0.3368419984191656,-1.207451731943339,-1.3824903330512346
2024-09-23 04:07:01.384610,40.53,16.244602,-0.012744546969488612,0.01975718684395762,1.0146322843374704,0.35872900059493257,-1.207451731943339,-1.3824903330512346
2024-09-23 04:07:01.416738,40.8,16.244602,-0.012744546969488612,0.01975718684395762,1.0146322843374704,0.35872900059493257,-1.1374934943549335,-1.3824903330512346
2024-09-23 04:07:01.428352,40.8,16.244697,-0.01341539238571027,0.017805912443621806,1.0131688171448936,0.35872900059493257,-1.1374934943549335,-1.3911993609655648
2024-09-23 04:07:01.470640,40.8,16.244748,-0.01341539238571027,0.017805912443621806,1.0131688171448936,0.3456082558686845,-1.1199610328167677,-1.4218526205908506
2024-09-23 04:07:01.481958,40.8,16.244748,-0.013232416455291218,0.01853761414140007,1.0131688171448936,0.3456082558686845,-1.1199610328167677,-1.4218526205908506
2024-09-23 04:07:01.514601,40.8,16.244748,-0.013232416455291218,0.01853761414140007,1.0126809947473678,0.3456082558686845,-1.1199610328167677,-1.4218526205908506
2024-09-23 04:07:01.526443,40.8,16.244798,-0.014269113479890346,0.01853761414140007,1.0126809947473678,0.3411964856958948,-1.1768557818945498,-1.509343212995678
2024-09-23 04:07:01.620513,40.8,16.244798,-0.014269113479890346,0.01975718684395762,1.011034569852092,0.3062460483703762,-1.1812102424908428,-1.4218526205908506
2024-09-23 04:07:01.632322,40.8,16.24489,-0.014269113479890346,0.01975718684395762,1.011034569852092,0.3062460483703762,-1.1812102424908428,-1.4218526205908506
2024-09-23 04:07:01.664535,40.8,16.24489,-0.013354434332716355,0.02134260963591596,1.0087784155671629,0.3062460483703762,-1.1812102424908428,-1.4218526205908506
2024-09-23 04:07:01.676060,40.8,16.24489,-0.013354434332716355,0.02134260963591596,1.0087784155671629,0.3193667930966243,-1.1987427040290088,-1.3824903330512346
2024-09-23 04:07:01.718854,40.8,16.244942,-0.012012843752733671,0.021586543619328925,1.0118273541589518,0.3456082558686845,-1.1987427040290088,-1.3824903330512346
2024-09-23 04:07:01.730573,40.8,16.244942,-0.012012843752733671,0.021586543619328925,1.0118273541589518,0.3456082558686845,-1.2731127117902041,-1.3824903330512346
2024-09-23 04:07:01.763255,40.8,16.244992,-0.011281142054955407,0.02134260963591596,1.0118273541589518,0.3456082558686845,-1.2731127117902041,-1.4437395427253097
2024-09-23 04:07:01.774931,40.8,16.244992,-0.011281142054955407,0.02134260963591596,1.0146933350480416,0.29306802074806765,-1.2731127117902041,-1.4437395427253097
2024-09-23 04:07:01.806515,40.8,16.244992,-0.011281142054955407,0.02134260963591596,1.0146933350480416,0.29306802074806765,-1.207451731943339,-1.4437395427253097
2024-09-23 04:07:01.818677,40.8,16.245043,-0.01433007153288426,0.022562284109910815,1.0102418827597397,0.29306802074806765,-1.207451731943339,-1.43932777255252
2024-09-23 04:07:01.861226,40.8,16.245136,-0.01433007153288426,0.022562284109910815,1.0102418827597397,0.2843590461946093,-1.1156065722204744,-1.5005769822265953
2024-09-23 04:07:01.873148,40.8,16.245136,-0.011586034850850625,0.02122069352992813,1.0102418827597397,0.2843590461946093,-1.1156065722204744,-1.5005769822265953
2024-09-23 04:07:01.906546,40.8,16.245136,-0.011586034850850625,0.02122069352992813,1.0103028362558035,0.31060053564710544,-1.1156065722204744,-1.5005769822265953
2024-09-23 04:07:01.917685,40.8,16.245187,-0.012988480952901577,0.02122069352992813,1.0103028362558035,0.31060053564710544,-1.1287272635858505,-1.5224640110827983
2024-09-23 04:07:01.959913,40.8,16.245187,-0.012988480952901577,0.02122069352992813,1.0158518403312846,0.29747979092085736,-1.0674780539117754,-1.3956111311383546
2024-09-23 04:07:01.971810,40.8,16.24528,-0.012988480952901577,0.02122069352992813,1.0158518403312846,0.29747979092085736,-1.0674780539117754,-1.3956111311383546
2024-09-23 04:07:02.004032,40.8,16.24528,-0.01365932788809991,0.02012303845233509,1.0158518403312846,0.29747979092085736,-1.0674780539117754,-1.3956111311383546
2024-09-23 04:07:02.015159,40.8,16.24528,-0.01365932788809991,0.02012303845233509,1.0129859566567019,0.27559278874509036,-1.1418479549512268,-1.434973311956227
2024-09-23 04:07:02.057216,40.8,16.245332,-0.010305402323861856,0.020610907938137694,1.0146322843374704,0.3543172304221429,-1.1418479549512268,-1.434973311956227
2024-09-23 04:07:02.068991,40.8,16.245332,-0.010305402323861856,0.020610907938137694,1.0146322843374704,0.3543172304221429,-1.0718325145080685,-1.434973311956227
2024-09-23 04:07:02.101622,40.8,16.245382,-0.010305402323861856,0.020610907938137694,1.0146322843374704,0.3543172304221429,-1.0718325145080685,-1.3562488435987383
2024-09-23 04:07:02.113873,40.8,16.245382,-0.012256778495634975,0.021159735476934217,1.0125589905407328,0.3499627431454137,-1.0718325145080685,-1.3562488435987383
2024-09-23 04:07:02.156527,40.8,16.245433,-0.014025177977500705,0.01926931735815501,1.0077417200615404,0.3499627431454137,-1.1680894444037229,-1.3824903330512346
2024-09-23 04:07:02.199182,40.8,16.245433,-0.014025177977500705,0.01926931735815501,1.0077417200615404,0.3237212803733535,-1.1374934943549335,-1.3824903330512346
2024-09-23 04:07:02.210400,40.8,16.245484,-0.01378124399408774,0.02311100987727003,1.0077417200615404,0.3237212803733535,-1.1374934943549335,-1.4524485706396402
2024-09-23 04:07:02.254655,40.8,16.245535,-0.01378124399408774,0.02311100987727003,1.0151202039495033,0.2537058132497594,-1.1330817241821438,-1.426207081187144
2024-09-23 04:07:02.266253,40.8,16.245535,-0.013476350438704184,0.02311100987727003,1.0151202039495033,0.2537058132497594,-1.1330817241821438,-1.426207081187144
2024-09-23 04:07:02.297749,40.8,16.245535,-0.013476350438704184,0.02152558556633501,1.014205512650516,0.3018342781975865,-1.1330817241821438,-1.426207081187144
2024-09-23 04:07:02.308887,40.8,16.245622,-0.013476350438704184,0.02152558556633501,1.014205512650516,0.3018342781975865,-1.0412365644592791,-1.3737241022821516
2024-09-23 04:07:02.351065,40.8,16.245622,-0.01268358815700636,0.020245056329760223,1.0151811574455674,0.3411964856958948,-1.1418479549512268,-1.3737241022821516
2024-09-23 04:07:02.363067,40.8,16.245622,-0.01268358815700636,0.020245056329760223,1.0151811574455674,0.3411964856958948,-1.1418479549512268,-1.434973311956227
2024-09-23 04:07:02.396411,40.8,16.245673,-0.010549337066763158,0.01768389456619667,1.0151811574455674,0.3411964856958948,-1.1418479549512268,-1.434973311956227
2024-09-23 04:07:02.408039,40.8,16.245673,-0.010549337066763158,0.01768389456619667,1.0162178529511898,0.28871353347133843,-1.0543573625463993,-1.434973311956227
2024-09-23 04:07:02.451298,41.38,16.245724,-0.010793271809664462,0.017927828549609635,1.0105467474545664,0.27994727602181957,-1.0543573625463993,-1.3999655917346479
2024-09-23 04:07:02.494382,41.38,16.245774,-0.014147094083488534,0.017927828549609635,1.0105467474545664,0.27994727602181957,-1.1156065722204744,-1.448094003321603
2024-09-23 04:07:02.506009,41.38,16.245774,-0.014147094083488534,0.02012303845233509,1.0123761300525411,0.27994727602181957,-1.1156065722204744,-1.448094003321603
2024-09-23 04:07:02.537773,41.38,16.245774,-0.014147094083488534,0.02012303845233509,1.0123761300525411,0.27994727602181957,-1.1156065722204744,-1.448094003321603
2024-09-23 04:07:02.549211,41.38,16.245825,-0.010000509527966639,0.018964423802771455,1.0123761300525411,0.27994727602181957,-1.1111946953259408,-1.474335492774099
2024-09-23 04:07:02.591451,41.38,16.245825,-0.010000509527966639,0.018964423802771455,1.0126809947473678,0.3193667930966243,-1.216217962712422,-1.434973311956227
2024-09-23 04:07:02.603011,41.38,16.245876,-0.013293374508285133,0.018964423802771455,1.0126809947473678,0.3193667930966243,-1.216217962712422,-1.434973311956227
2024-09-23 04:07:02.636606,41.38,16.245876,-0.013293374508285133,0.020001120827370582,1.0126809947473678,0.3193667930966243,-1.216217962712422,-1.434973311956227
2024-09-23 04:07:02.647505,41.38,16.245963,-0.013293374508285133,0.020001120827370582,1.0163397599433175,0.3062460483703762,-1.1374934943549335,-1.3518370734259486
2024-09-23 04:07:02.689762,41.38,16.245963,-0.011707950956838454,0.02176952106872465,1.0143274196426437,0.27559278874509036,-1.1374934943549335,-1.3518370734259486
2024-09-23 04:07:02.701738,41.38,16.245963,-0.011707950956838454,0.02176952106872465,1.0143274196426437,0.27559278874509036,-1.0718325145080685,-1.3693696416858583
2024-09-23 04:07:02.734849,41.38,16.246014,-0.011707950956838454,0.02176952106872465,1.0143274196426437,0.27559278874509036,-1.0718325145080685,-1.3693696416858583
2024-09-23 04:07:02.746837,41.38,16.246014,-0.01256167205101853,0.01963527073796979,1.0103637897518674,0.35872900059493257,-1.0849533125951887,-1.3693696416858583
2024-09-23 04:07:02.830436,41.38,16.246014,-0.01256167205101853,0.01963527073796979,1.0103637897518674,0.35872900059493257,-1.0849533125951887,-1.3606034109167755
2024-09-23 04:07:02.842077,41.38,16.246065,-0.014147094083488534,0.02262324216290473,1.014205512650516,0.39373674749694765,-1.0849533125951887,-1.3606034109167755
2024-09-23 04:07:02.884789,41.38,16.246116,-0.014574005516297226,0.02262324216290473,1.014205512650516,0.39373674749694765,-1.1855647030871361,-1.3780785628784449
2024-09-23 04:07:02.896684,41.38,16.246116,-0.014574005516297226,0.02189143717471248,1.0139006479556893,0.39373674749694765,-1.1855647030871361,-1.3780785628784449
2024-09-23 04:07:02.929618,41.38,16.246116,-0.014574005516297226,0.02189143717471248,1.0139006479556893,0.38932495064372197,-1.1855647030871361,-1.3780785628784449
2024-09-23 04:07:02.941611,41.38,16.246166,-0.01378124399408774,0.015976452377836518,1.0139006479556893,0.38932495064372197,-1.216217962712422,-1.3255955839734523
2024-09-23 04:07:02.983858,41.38,16.246217,-0.01378124399408774,0.015976452377836518,1.0180472355491645,0.28871353347133843,-1.0805987452771515,-1.4087318225037306
2024-09-23 04:07:02.996082,41.38,16.246217,-0.012073802565215924,0.015976452377836518,1.0180472355491645,0.28871353347133843,-1.0805987452771515,-1.4087318225037306
2024-09-23 04:07:03.027725,41.38,16.246217,-0.012073802565215924,0.019818144896951533,1.0136566395424191,0.28871353347133843,-1.0805987452771515,-1.4087318225037306
2024-09-23 04:07:03.039094,41.38,16.246353,-0.012073802565215924,0.019818144896951533,1.0136566395424191,0.35872900059493257,-1.0937195433642715,-1.426207081187144
2024-09-23 04:07:03.081646,41.38,16.246353,-0.01365932788809991,0.017257084904825287,1.0139006479556893,0.38932495064372197,-1.0718325145080685,-1.426207081187144
2024-09-23 04:07:03.093374,41.38,16.246353,-0.01365932788809991,0.017257084904825287,1.0139006479556893,0.38932495064372197,-1.0718325145080685,-1.43932777255252
2024-09-23 04:07:03.127948,41.38,16.246404,-0.010915188675140628,0.021098777423940302,1.0139006479556893,0.38932495064372197,-1.0718325145080685,-1.43932777255252
2024-09-23 04:07:03.139427,41.38,16.246404,-0.010915188675140628,0.021098777423940302,1.011217527554791,0.3280757409696467,-1.1418479549512268,-1.43932777255252
2024-09-23 04:07:03.171400,41.38,16.246404,-0.010915188675140628,0.021098777423940302,1.011217527554791,0.3280757409696467,-1.1418479549512268,-1.434973311956227
2024-09-23 04:07:03.182988,41.38,16.246455,-0.014574005516297226,0.019208359305161096,1.0149982969573756,0.42433269754573705,-1.1418479549512268,-1.434973311956227
2024-09-23 04:07:03.225292,41.38,16.246506,-0.015793578218854774,0.019208359305161096,1.0149982969573756,0.42433269754573705,-1.1418479549512268,-1.3999655917346479
2024-09-23 04:07:03.237889,41.38,16.246506,-0.015793578218854774,0.019818144896951533,1.0143883731387076,0.42433269754573705,-1.1418479549512268,-1.3999655917346479
2024-09-23 04:07:03.270364,41.38,16.246506,-0.015793578218854774,0.019818144896951533,1.0143883731387076,0.3237212803733535,-1.1418479549512268,-1.3999655917346479
2024-09-23 04:07:03.282289,41.38,16.246556,-0.013110498830326714,0.023964729452473427,1.0143883731387076,0.3237212803733535,-1.1068402347296475,-1.4087318225037306
2024-09-23 04:07:03.324426,41.38,16.246556,-0.013110498830326714,0.023964729452473427,1.0135956860463553,0.24935132597303017,-1.1637349838074296,-1.3911993609655648
2024-09-23 04:07:03.335526,41.38,16.246607,-0.014756881194255646,0.023964729452473427,1.0135956860463553,0.24935132597303017,-1.1637349838074296,-1.3911993609655648
2024-09-23 04:07:03.368550,41.38,16.246607,-0.014756881194255646,0.021708563015730736,1.0135956860463553,0.24935132597303017,-1.1637349838074296,-1.3911993609655648
2024-09-23 04:07:03.380306,41.38,16.246694,-0.014756881194255646,0.021708563015730736,1.0114003880429827,0.3018342781975865,-1.1243154934130608,-1.4174980532728136
2024-09-23 04:07:03.422646,41.38,16.246694,-0.01256167205101853,0.02018409827676631,1.0123761300525411,0.27123832814879717,-1.1024857741333545,-1.4174980532728136
2024-09-23 04:07:03.435482,41.38,16.246694,-0.01256167205101853,0.02018409827676631,1.0123761300525411,0.27123832814879717,-1.1024857741333545,-1.3299501512914895
2024-09-23 04:07:03.468449,41.92,16.246746,-0.016037512202267738,0.019025483627202678,1.0123761300525411,0.27123832814879717,-1.1024857741333545,-1.3299501512914895
2024-09-23 04:07:03.480200,41.92,16.246746,-0.016037512202267738,0.019025483627202678,1.0104247432479314,0.42433269754573705,-1.0630662837389857,-1.3299501512914895
2024-09-23 04:07:03.523206,41.92,16.246796,-0.017013149402435646,0.01975718684395762,1.0114003880429827,0.3280757409696467,-1.0630662837389857,-1.3780785628784449
2024-09-23 04:07:03.565281,41.92,16.246847,-0.017013149402435646,0.01975718684395762,1.0114003880429827,0.3280757409696467,-1.1156065722204744,-1.4306188513599336
2024-09-23 04:07:03.577276,41.92,16.246847,-0.013110498830326714,0.020062078880364497,1.0103637897518674,0.3280757409696467,-1.1156065722204744,-1.4306188513599336
2024-09-23 04:07:03.610507,41.92,16.246847,-0.013110498830326714,0.020062078880364497,1.0103637897518674,0.3149550229238346,-1.1156065722204744,-1.4306188513599336
2024-09-23 04:07:03.622022,41.92,16.246898,-0.012500713238536278,0.02134260963591596,1.0103637897518674,0.3149550229238346,-1.1243154934130608,-1.448094003321603
2024-09-23 04:07:03.664001,41.92,16.246898,-0.012500713238536278,0.02134260963591596,1.0136566395424191,0.3630834878716618,-1.0937195433642715,-1.448094003321603
2024-09-23 04:07:03.675296,41.92,16.246949,-0.013842202047081654,0.02134260963591596,1.0136566395424191,0.3630834878716618,-1.0937195433642715,-1.448094003321603
2024-09-23 04:07:03.719056,41.92,16.247035,-0.013842202047081654,0.018842507696783625,1.0118273541589518,0.31060053564710544,-1.0849533125951887,-1.3824903330512346
2024-09-23 04:07:03.761736,41.92,16.247035,-0.01219582044264106,0.020245056329760223,1.0108517093639005,0.31060053564710544,-1.0849533125951887,-1.3824903330512346
2024-09-23 04:07:03.773120,41.92,16.247035,-0.01219582044264106,0.020245056329760223,1.0108517093639005,0.3368419984191656,-1.0368247942864894,-1.4524485706396402
2024-09-23 04:07:03.805419,41.92,16.247087,-0.01219582044264106,0.020245056329760223,1.0108517093639005,0.3368419984191656,-1.0368247942864894,-1.4524485706396402
2024-09-23 04:07:03.817248,41.92,16.247087,-0.012805606793919833,0.021830479121718566,1.0131688171448936,0.3368419984191656,-1.0368247942864894,-1.4524485706396402
2024-09-23 04:07:03.860633,41.92,16.247138,-0.012805606793919833,0.021830479121718566,1.0131688171448936,0.3237212803733535,-1.0674780539117754,-1.3868447936475277
2024-09-23 04:07:03.873462,41.92,16.247138,-0.012927522899907663,0.017622936513202757,1.0131688171448936,0.3237212803733535,-1.0674780539117754,-1.3868447936475277
2024-09-23 04:07:03.905365,41.92,16.247138,-0.012927522899907663,0.017622936513202757,1.0149982969573756,0.3499627431454137,-1.0674780539117754,-1.3868447936475277
2024-09-23 04:07:03.917052,41.92,16.247188,-0.014756881194255646,0.017622936513202757,1.0149982969573756,0.3499627431454137,-1.1024857741333545,-1.509343212995678
2024-09-23 04:07:03.959135,41.92,16.247188,-0.014756881194255646,0.02225739055452726,1.012802998954003,0.3456082558686845,-1.0368247942864894,-1.4218526205908506
2024-09-23 04:07:03.971009,41.92,16.247239,-0.014756881194255646,0.02225739055452726,1.012802998954003,0.3456082558686845,-1.0368247942864894,-1.4218526205908506
2024-09-23 04:07:04.003216,41.92,16.247239,-0.01408613603049462,0.016281345933220073,1.012802998954003,0.3456082558686845,-1.0368247942864894,-1.4218526205908506
2024-09-23 04:07:04.014335,41.92,16.247239,-0.01408613603049462,0.016281345933220073,1.0124370835486052,0.3324875378228724,-1.0980740039605648,-1.3824903330512346
2024-09-23 04:07:04.056239,41.92,16.24729,-0.012988480952901577,0.01890346574977754,1.0116442992417454,0.29306802074806765,-1.0980740039605648,-1.3824903330512346
2024-09-23 04:07:04.068387,41.92,16.24729,-0.012988480952901577,0.01890346574977754,1.0116442992417454,0.29306802074806765,-1.2336931146740913,-1.3824903330512346
2024-09-23 04:07:04.101136,41.92,16.247378,-0.012988480952901577,0.01890346574977754,1.0116442992417454,0.29306802074806765,-1.2336931146740913,-1.43932777255252
2024-09-23 04:07:04.112706,41.92,16.247378,-0.012500713238536278,0.021708563015730736,1.0102418827597397,0.3368419984191656,-1.2336931146740913,-1.43932777255252
2024-09-23 04:07:04.155967,41.92,16.247429,-0.014695923141261731,0.01890346574977754,1.0096319589410718,0.3368419984191656,-1.0893650827679784,-1.3080631224352866
2024-09-23 04:07:04.198850,41.92,16.247429,-0.014695923141261731,0.01890346574977754,1.0096319589410718,0.24499683869630098,-1.1462025222692638,-1.3693696416858583
2024-09-23 04:07:04.209923,41.92,16.247479,-0.012256778495634975,0.018415698035412244,1.0096319589410718,0.24499683869630098,-1.1462025222692638,-1.3693696416858583
2024-09-23 04:07:04.252397,41.92,16.24753,-0.012073802565215924,0.018415698035412244,1.0129859566567019,0.27994727602181957,-1.1680894444037229,-1.3474826128296553
2024-09-23 04:07:04.294784,41.92,16.24753,-0.012073802565215924,0.022989092252305523,1.0111565740587272,0.27994727602181957,-1.1680894444037229,-1.3474826128296553
2024-09-23 04:07:04.306372,41.92,16.24762,-0.012073802565215924,0.022989092252305523,1.0111565740587272,0.29306802074806765,-1.0849533125951887,-1.434973311956227
2024-09-23 04:07:04.349376,41.92,16.24762,-0.015915494324842603,0.02164760496273682,1.0109126628599643,0.3280757409696467,-1.0849533125951887,-1.434973311956227
2024-09-23 04:07:04.360807,41.92,16.24762,-0.015915494324842603,0.02164760496273682,1.0109126628599643,0.3280757409696467,-1.3212411233771593,-1.461214801408723
2024-09-23 04:07:04.392790,41.92,16.247672,-0.013232416455291218,0.02164760496273682,1.0109126628599643,0.3280757409696467,-1.3212411233771593,-1.461214801408723
2024-09-23 04:07:04.404095,41.92,16.247672,-0.013232416455291218,0.020001120827370582,1.0147542885441054,0.37184974532118065,-1.2555801435302942,-1.461214801408723
2024-09-23 04:07:04.447452,41.92,16.247723,-0.013232416455291218,0.02018409827676631,1.015973941752427,0.3849704900474288,-1.2555801435302942,-1.404320052330941
2024-09-23 04:07:04.489899,42.13,16.247723,-0.013232416455291218,0.02018409827676631,1.015973941752427,0.3849704900474288,-1.1549687530383468,-1.3999655917346479
2024-09-23 04:07:04.501664,42.13,16.247774,-0.013293374508285133,0.016830173472016593,1.0147542885441054,0.3849704900474288,-1.1549687530383468,-1.3999655917346479
2024-09-23 04:07:04.543735,42.13,16.247825,-0.011220081471035847,0.016830173472016593,1.0147542885441054,0.3280757409696467,-1.0980740039605648,-1.426207081187144
2024-09-23 04:07:04.554634,42.13,16.247825,-0.011220081471035847,0.021037716080532405,1.0147542885441054,0.3280757409696467,-1.0980740039605648,-1.426207081187144
2024-09-23 04:07:04.587691,42.13,16.247825,-0.011220081471035847,0.021037716080532405,1.0090832802619896,0.3411964856958948,-1.0980740039605648,-1.426207081187144
2024-09-23 04:07:04.599042,42.13,16.247875,-0.012500713238536278,0.021037716080532405,1.0090832802619896,0.3411964856958948,-1.1287272635858505,-1.3956111311383546
2024-09-23 04:07:04.642536,42.13,16.247875,-0.012500713238536278,0.017196025080394063,1.009510051948944,0.3411964856958948,-0.9886962759777903,-1.3387163820605725
2024-09-23 04:07:04.654089,42.13,16.247962,-0.012500713238536278,0.017196025080394063,1.009510051948944,0.3411964856958948,-0.9886962759777903,-1.3387163820605725
2024-09-23 04:07:04.686034,42.13,16.247962,-0.01573262016586086,0.020366972435748053,1.009510051948944,0.3411964856958948,-0.9886962759777903,-1.3387163820605725
2024-09-23 04:07:04.697795,42.13,16.247962,-0.01573262016586086,0.020366972435748053,1.011034569852092,0.26247207069927825,-1.0499454856518655,-1.3999655917346479
2024-09-23 04:07:04.740552,42.13,16.248013,-0.012744546969488612,0.020427930488741967,1.0125589905407328,0.2318188110739924,-1.1156065722204744,-1.3999655917346479
2024-09-23 04:07:04.784497,42.13,16.248064,-0.01365932788809991,0.020427930488741967,1.0125589905407328,0.2318188110739924,-1.1156065722204744,-1.3999655917346479
2024-09-23 04:07:04.796240,42.13,16.248064,-0.01365932788809991,0.019513251341567978,1.0129859566567019,0.2274643237972632,-1.1156065722204744,-1.3999655917346479
2024-09-23 04:07:04.838518,42.13,16.248115,-0.013842202047081654,0.01750101888823825,1.0176202694331955,0.2274643237972632,-1.0762442846808582,-1.4087318225037306
2024-09-23 04:07:04.881722,42.13,16.248115,-0.013842202047081654,0.01750101888823825,1.0176202694331955,0.3193667930966243,-1.216217962712422,-1.3824903330512346
2024-09-23 04:07:04.893736,42.13,16.248165,-0.012134760618209839,0.02134260963591596,1.0176202694331955,0.3193667930966243,-1.216217962712422,-1.3824903330512346
2024-09-23 04:07:04.936453,42.13,16.248216,-0.011281142054955407,0.02134260963591596,1.0103637897518674,0.39373674749694765,-1.1812102424908428,-1.426207081187144
2024-09-23 04:07:04.979378,42.13,16.248216,-0.011281142054955407,0.02152558556633501,1.0130469101527657,0.39373674749694765,-1.1812102424908428,-1.426207081187144
2024-09-23 04:07:04.990485,42.13,16.248303,-0.011281142054955407,0.02152558556633501,1.0130469101527657,0.37620423259790986,-1.1506142924420535,-1.3474826128296553
2024-09-23 04:07:05.033829,42.13,16.248303,-0.015183792627064338,0.022684200215898644,1.0131078636488298,0.3849704900474288,-1.1812102424908428,-1.426207081187144
2024-09-23 04:07:05.077313,42.13,16.248354,-0.011586034850850625,0.02225739055452726,1.0131078636488298,0.3849704900474288,-1.1812102424908428,-1.426207081187144
2024-09-23 04:07:05.088556,42.13,16.248354,-0.011586034850850625,0.02225739055452726,1.0149372462468045,0.40244569536997005,-1.207451731943339,-1.426207081187144
2024-09-23 04:07:05.130787,42.13,16.248405,-0.014634963569291141,0.022501222766502915,1.0176202694331955,0.2668265312955715,-1.207451731943339,-1.3824903330512346
2024-09-23 04:07:05.174004,42.13,16.248456,-0.014634963569291141,0.022501222766502915,1.0176202694331955,0.2668265312955715,-1.1462025222692638,-1.3956111311383546
2024-09-23 04:07:05.185319,42.13,16.248456,-0.01396421992450679,0.02189143717471248,1.0101198785531047,0.2668265312955715,-1.1462025222692638,-1.3956111311383546
2024-09-23 04:07:05.228256,42.13,16.248506,-0.01573262016586086,0.019086441680196593,1.0101198785531047,0.3630834878716618,-1.1768557818945498,-1.3518370734259486
2024-09-23 04:07:05.270713,42.13,16.248506,-0.01573262016586086,0.019086441680196593,1.0132908213515286,0.38932495064372197,-1.1768557818945498,-1.3518370734259486
2024-09-23 04:07:05.282658,42.13,16.248557,-0.016342405757651293,0.019086441680196593,1.0132908213515286,0.38932495064372197,-1.1680894444037229,-1.448094003321603
2024-09-23 04:07:05.325966,42.13,16.248644,-0.016342405757651293,0.01963527073796979,1.0146933350480416,0.3062460483703762,-1.1549687530383468,-1.448094003321603
2024-09-23 04:07:05.368868,42.13,16.248644,-0.010915188675140628,0.021037716080532405,1.0114003880429827,0.3062460483703762,-1.1549687530383468,-1.448094003321603
2024-09-23 04:07:05.379831,42.13,16.248644,-0.010915188675140628,0.021037716080532405,1.0114003880429827,0.3237212803733535,-1.0893650827679784,-1.469981032177806
2024-09-23 04:07:05.422328,42.13,16.248696,-0.01219582044264106,0.019940162774376668,1.0093270942462451,0.3849704900474288,-1.1243154934130608,-1.469981032177806
2024-09-23 04:07:05.465274,42.13,16.248746,-0.01219582044264106,0.019940162774376668,1.0093270942462451,0.3849704900474288,-1.1243154934130608,-1.3999655917346479
2024-09-23 04:07:05.476481,42.13,16.248746,-0.014939857124674697,0.01811080599900536,1.013778546534547,0.41997821026900783,-1.1243154934130608,-1.3999655917346479
2024-09-23 04:07:05.518745,41.99,16.248746,-0.014939857124674697,0.01811080599900536,1.013778546534547,0.41997821026900783,-1.1987427040290088,-1.3956111311383546
2024-09-23 04:07:05.562679,41.99,16.248797,-0.010732313756670548,0.01811080599900536,1.013778546534547,0.41997821026900783,-1.1987427040290088,-1.3956111311383546
2024-09-23 04:07:05.574256,41.99,16.248797,-0.010732313756670548,0.02317206970170125,1.0123761300525411,0.24935132597303017,-1.15932321363464,-1.3956111311383546
2024-09-23 04:07:05.616824,41.99,16.248848,-0.01396421992450679,0.02012303845233509,1.0164007134393813,0.24935132597303017,-1.15932321363464,-1.434973311956227
2024-09-23 04:07:05.628989,41.99,16.248848,-0.01396421992450679,0.02012303845233509,1.0164007134393813,0.3280757409696467,-1.15932321363464,-1.434973311956227
2024-09-23 04:07:05.662336,41.99,16.248898,-0.01396421992450679,0.02012303845233509,1.0164007134393813,0.3280757409696467,-1.0937195433642715,-1.3255955839734523
2024-09-23 04:07:05.673869,41.99,16.248898,-0.013537308491698099,0.01939133523558015,1.0145103773453428,0.3280757409696467,-1.0937195433642715,-1.3255955839734523
2024-09-23 04:07:05.716280,41.99,16.248985,-0.011951885699739756,0.02048899031317319,1.0145103773453428,0.39809120809324083,-1.1374934943549335,-1.4087318225037306
2024-09-23 04:07:05.760047,41.99,16.248985,-0.011951885699739756,0.02048899031317319,1.015486022140394,0.37184974532118065,-1.1330817241821438,-1.4087318225037306
2024-09-23 04:07:05.773983,41.99,16.249036,-0.013049540777332799,0.02048899031317319,1.015486022140394,0.37184974532118065,-1.1330817241821438,-1.4174980532728136
2024-09-23 04:07:05.806415,41.99,16.249036,-0.013049540777332799,0.02048899031317319,1.015486022140394,0.37184974532118065,-1.1330817241821438,-1.4174980532728136
2024-09-23 04:07:05.818265,41.99,16.249132,-0.013049540777332799,0.02048899031317319,1.0131078636488298,0.3237212803733535,-1.1462025222692638,-1.404320052330941
2024-09-23 04:07:05.861185,41.99,16.249132,-0.013293374508285133,0.019330377182586234,1.0099979715609768,0.3062460483703762,-1.216217962712422,-1.404320052330941
2024-09-23 04:07:05.873354,41.99,16.249132,-0.013293374508285133,0.019330377182586234,1.0099979715609768,0.3062460483703762,-1.216217962712422,-1.448094003321603
2024-09-23 04:07:05.905979,41.99,16.249183,-0.015244750680058252,0.019574312684975875,1.0099979715609768,0.3062460483703762,-1.216217962712422,-1.448094003321603
2024-09-23 04:07:05.917916,41.99,16.249183,-0.015244750680058252,0.019574312684975875,1.0179251341280222,0.3849704900474288,-1.0849533125951887,-1.448094003321603
2024-09-23 04:07:05.960915,41.99,16.249234,-0.012073802565215924,0.024696534440665677,1.0131688171448936,0.3193667930966243,-1.0849533125951887,-1.43932777255252
2024-09-23 04:07:06.002663,41.99,16.249285,-0.012073802565215924,0.024696534440665677,1.0131688171448936,0.3193667930966243,-1.0105833048339934,-1.496222521630302
2024-09-23 04:07:06.014804,41.99,16.249285,-0.013903160100075569,0.02097675802753849,1.0120102146471432,0.3193667930966243,-1.0105833048339934,-1.496222521630302
2024-09-23 04:07:06.058075,41.99,16.249335,-0.010549337066763158,0.01853761414140007,1.0120102146471432,0.40244569536997005,-1.0499454856518655,-1.4787472629468887
2024-09-23 04:07:06.099963,41.99,16.249335,-0.010549337066763158,0.01853761414140007,1.0114003880429827,0.37620423259790986,-1.1637349838074296,-1.4787472629468887
2024-09-23 04:07:06.110881,41.99,16.249386,-0.016098470255261652,0.01853761414140007,1.0114003880429827,0.37620423259790986,-1.1637349838074296,-1.434973311956227
2024-09-23 04:07:06.153651,41.99,16.249473,-0.016098470255261652,0.02097675802753849,1.009510051948944,0.3674952580444515,-1.1330817241821438,-1.3474826128296553
2024-09-23 04:07:06.196755,41.99,16.249473,-0.015183792627064338,0.020793883868556746,1.009510051948944,0.3674952580444515,-1.1330817241821438,-1.3474826128296553
2024-09-23 04:07:06.207857,41.99,16.249473,-0.015183792627064338,0.020793883868556746,1.018656964938818,0.29306802074806765,-1.1680894444037229,-1.4087318225037306
2024-09-23 04:07:06.250249,41.99,16.249524,-0.012439653414105056,0.019086441680196593,1.0134127283436565,0.27123832814879717,-1.1680894444037229,-1.4087318225037306
2024-09-23 04:07:06.262503,41.99,16.249524,-0.012439653414105056,0.019086441680196593,1.0134127283436565,0.27123832814879717,-1.1287272635858505,-1.4087318225037306
2024-09-23 04:07:06.295778,41.99,16.249575,-0.01341539238571027,0.019086441680196593,1.0134127283436565,0.27123832814879717,-1.1287272635858505,-1.4087318225037306
2024-09-23 04:07:06.307278,41.99,16.249575,-0.01341539238571027,0.02176952106872465,1.0109736163560281,0.3543172304221429,-1.1287272635858505,-1.4087318225037306
2024-09-23 04:07:06.350140,41.99,16.249626,-0.01341539238571027,0.021159735476934217,1.0131078636488298,0.3543172304221429,-1.1418479549512268,-1.496222521630302
2024-09-23 04:07:06.392441,41.99,16.249626,-0.01341539238571027,0.021159735476934217,1.0131078636488298,0.3499627431454137,-1.1243154934130608,-1.4787472629468887
2024-09-23 04:07:06.404143,41.99,16.249677,-0.014512945691866003,0.01939133523558015,1.0131078636488298,0.3499627431454137,-1.1243154934130608,-1.4787472629468887
2024-09-23 04:07:06.446250,41.99,16.249727,-0.01433007153288426,0.01939133523558015,1.0092051872541172,0.3411964856958948,-1.2643463742993772,-1.3518370734259486
2024-09-23 04:07:06.488517,41.99,16.249727,-0.01433007153288426,0.016464321863639123,1.01231507934197,0.3411964856958948,-1.2643463742993772,-1.3518370734259486
2024-09-23 04:07:06.500293,41.99,16.249814,-0.01433007153288426,0.016464321863639123,1.01231507934197,0.3062460483703762,-1.1330817241821438,-1.3956111311383546
2024-09-23 04:07:06.543599,42.49,16.249814,-0.015244750680058252,0.02122069352992813,1.0148152420401695,0.3149550229238346,-1.1287272635858505,-1.4787472629468887
2024-09-23 04:07:06.586706,42.49,16.249866,-0.015244750680058252,0.02122069352992813,1.0148152420401695,0.3149550229238346,-1.1287272635858505,-1.4787472629468887
2024-09-23 04:07:06.598191,42.49,16.249866,-0.01219582044264106,0.020732824044125523,1.0117053499523165,0.37620423259790986,-1.1943309338562191,-1.4787472629468887
2024-09-23 04:07:06.642821,42.49,16.249916,-0.013171458402297304,0.01926931735815501,1.015973941752427,0.37620423259790986,-1.1943309338562191,-1.4655692620050162
2024-09-23 04:07:06.654473,42.49,16.249916,-0.013171458402297304,0.01926931735815501,1.015973941752427,0.3411964856958948,-1.1943309338562191,-1.4655692620050162
2024-09-23 04:07:06.686853,42.49,16.249967,-0.013171458402297304,0.01926931735815501,1.015973941752427,0.3411964856958948,-1.0193495356030762,-1.3562488435987383
2024-09-23 04:07:06.697994,42.49,16.249967,-0.014269113479890346,0.020306014382754138,1.0140835084438808,0.3411964856958948,-1.0193495356030762,-1.3562488435987383
2024-09-23 04:07:06.740703,42.49,16.250018,-0.012134760618209839,0.01835463821098102,1.0140835084438808,0.38932495064372197,-1.1724439050000162,-1.3649578715130686
2024-09-23 04:07:06.783481,42.49,16.250018,-0.012134760618209839,0.01835463821098102,1.0107906586533293,0.3193667930966243,-1.1724439050000162,-1.3649578715130686
2024-09-23 04:07:06.794763,42.49,16.250069,-0.009512741813601339,0.01835463821098102,1.0107906586533293,0.3193667930966243,-1.2205724233087152,-1.448094003321603
2024-09-23 04:07:06.829981,42.49,16.250069,-0.009512741813601339,0.020306014382754138,1.0107906586533293,0.3193667930966243,-1.2205724233087152,-1.448094003321603
2024-09-23 04:07:06.841542,42.49,16.250155,-0.009512741813601339,0.020306014382754138,1.0115833457456815,0.3456082558686845,-1.0762442846808582,-1.434973311956227
2024-09-23 04:07:06.884231,42.49,16.250155,-0.01695219134944173,0.01939133523558015,1.0111565740587272,0.37620423259790986,-1.1812102424908428,-1.434973311956227
2024-09-23 04:07:06.896287,42.49,16.250155,-0.01695219134944173,0.01939133523558015,1.0111565740587272,0.37620423259790986,-1.1812102424908428,-1.4568603408124299
2024-09-23 04:07:06.929112,42.49,16.250207,-0.014269113479890346,0.018842507696783625,1.0111565740587272,0.37620423259790986,-1.1812102424908428,-1.4568603408124299
2024-09-23 04:07:06.940303,42.49,16.250207,-0.014269113479890346,0.018842507696783625,1.012802998954003,0.3456082558686845,-1.2118635021161288,-1.4568603408124299
2024-09-23 04:07:06.982166,42.49,16.250258,-0.011098165365048018,0.019208359305161096,1.0126809947473678,0.3456082558686845,-1.2118635021161288,-1.434973311956227
2024-09-23 04:07:06.993838,42.49,16.250258,-0.011098165365048018,0.019208359305161096,1.0126809947473678,0.3280757409696467,-1.2118635021161288,-1.434973311956227
2024-09-23 04:07:07.026836,42.49,16.250258,-0.011098165365048018,0.019208359305161096,1.0126809947473678,0.3280757409696467,-1.0805987452771515,-1.434973311956227
2024-09-23 04:07:07.080074,42.49,16.250308,-0.012622630104012445,0.017744852619190586,1.012925003160638,0.3674952580444515,-1.0805987452771515,-1.5224640110827983
2024-09-23 04:07:07.122078,42.49,16.250308,-0.012622630104012445,0.017744852619190586,1.012925003160638,0.3674952580444515,-1.1199610328167677,-1.5487055005352943
2024-09-23 04:07:07.177056,42.49,16.250359,-0.015488684663471218,0.019025483627202678,1.0105467474545664,0.29306802074806765,-1.1199610328167677,-1.5487055005352943
2024-09-23 04:07:07.188842,42.49,16.250359,-0.015488684663471218,0.019025483627202678,1.0105467474545664,0.29306802074806765,-1.2205724233087152,-1.5487055005352943
2024-09-23 04:07:07.220507,42.49,16.25041,-0.015488684663471218,0.019025483627202678,1.0105467474545664,0.29306802074806765,-1.2205724233087152,-1.4568603408124299
2024-09-23 04:07:07.231793,42.49,16.25041,-0.012439653414105056,0.02176952106872465,1.0135347325502915,0.3193667930966243,-1.2205724233087152,-1.4568603408124299
2024-09-23 04:07:07.275951,42.49,16.250497,-0.014025177977500705,0.01963527073796979,1.0131078636488298,0.3193667930966243,-1.1812102424908428,-1.4087318225037306
2024-09-23 04:07:07.318179,42.49,16.250497,-0.014025177977500705,0.01963527073796979,1.0131078636488298,0.2843590461946093,-1.203097164625302,-1.4087318225037306
2024-09-23 04:07:07.330088,42.49,16.250547,-0.012622630104012445,0.021281651582922046,1.0131078636488298,0.2843590461946093,-1.203097164625302,-1.3824903330512346
2024-09-23 04:07:07.373262,42.49,16.250643,-0.015671560341429636,0.021281651582922046,1.0143883731387076,0.3368419984191656,-1.0630662837389857,-1.4437395427253097
2024-09-23 04:07:07.417627,42.49,16.250643,-0.015671560341429636,0.02012303845233509,1.0132298678554648,0.3280757409696467,-1.0630662837389857,-1.4437395427253097
2024-09-23 04:07:07.429254,42.49,16.25074,-0.015671560341429636,0.02012303845233509,1.0132298678554648,0.3280757409696467,-1.1111946953259408,-1.448094003321603
2024-09-23 04:07:07.472247,42.49,16.25074,-0.013476350438704184,0.020610907938137694,1.0136566395424191,0.40685746554275976,-1.0718325145080685,-1.4568603408124299
2024-09-23 04:07:07.514651,42.49,16.250792,-0.013293374508285133,0.01939133523558015,1.0136566395424191,0.40685746554275976,-1.0718325145080685,-1.4568603408124299
2024-09-23 04:07:07.526307,42.49,16.250792,-0.013293374508285133,0.01939133523558015,1.0163397599433175,0.35872900059493257,-1.0762442846808582,-1.4568603408124299
2024-09-23 04:07:07.568657,42.76,16.250843,-0.01408613603049462,0.02018409827676631,1.0109736163560281,0.3237212803733535,-1.0762442846808582,-1.448094003321603
2024-09-23 04:07:07.610532,42.76,16.250843,-0.01408613603049462,0.02018409827676631,1.0109736163560281,0.3237212803733535,-1.1899764732599258,-1.448094003321603
2024-09-23 04:07:07.622462,42.76,16.250893,-0.013842202047081654,0.02012303845233509,1.0113394345469187,0.3237212803733535,-1.1899764732599258,-1.448094003321603
2024-09-23 04:07:07.665425,42.76,16.250944,-0.016464321863639123,0.021159735476934217,1.0113394345469187,0.39373674749694765,-1.1374934943549335,-1.4655692620050162
2024-09-23 04:07:07.708927,42.76,16.250944,-0.016464321863639123,0.021159735476934217,1.0143883731387076,0.3630834878716618,-1.1855647030871361,-1.4655692620050162
2024-09-23 04:07:07.720701,42.76,16.250995,-0.014878899071680782,0.021159735476934217,1.0143883731387076,0.3630834878716618,-1.1855647030871361,-1.426207081187144
2024-09-23 04:07:07.763033,42.76,16.251082,-0.014878899071680782,0.020306014382754138,1.0126809947473678,0.3193667930966243,-1.1462025222692638,-1.2424594521649182
2024-09-23 04:07:07.806365,42.76,16.251082,-0.007866259197211775,0.021708563015730736,1.0115833457456815,0.3193667930966243,-1.1462025222692638,-1.2424594521649182
2024-09-23 04:07:07.817720,42.76,16.251082,-0.007866259197211775,0.021708563015730736,1.0115833457456815,0.29306802074806765,-1.2512256829340012,-1.4787472629468887
2024-09-23 04:07:07.860058,42.76,16.251133,-0.01396421992450679,0.018842507696783625,1.016705578134208,0.28871353347133843,-1.0762442846808582,-1.4787472629468887
2024-09-23 04:07:07.902466,42.76,16.251184,-0.01396421992450679,0.018842507696783625,1.016705578134208,0.28871353347133843,-1.0762442846808582,-1.3780785628784449
2024-09-23 04:07:07.914163,42.76,16.251184,-0.016098470255261652,0.022196330730096036,1.009266140750181,0.3280757409696467,-1.0762442846808582,-1.3780785628784449
2024-09-23 04:07:07.957010,42.76,16.251235,-0.014512945691866003,0.019452293288574063,1.009266140750181,0.3280757409696467,-1.1243154934130608,-1.3868447936475277
2024-09-23 04:07:07.968925,42.76,16.251235,-0.014512945691866003,0.019452293288574063,1.012742045457939,0.3280757409696467,-1.1243154934130608,-1.3868447936475277
2024-09-23 04:07:08.000589,42.76,16.251235,-0.014512945691866003,0.019452293288574063,1.012742045457939,0.38061600277069957,-0.936213403794542,-1.3868447936475277
2024-09-23 04:07:08.011590,42.76,16.251285,-0.012866564846913748,0.019452293288574063,1.012742045457939,0.38061600277069957,-0.936213403794542,-1.469981032177806
2024-09-23 04:07:08.055063,42.76,16.251336,-0.016342405757651293,0.019452293288574063,1.0131688171448936,0.3630834878716618,-1.1243154934130608,-1.5487055005352943
2024-09-23 04:07:08.097676,42.76,16.251336,-0.016342405757651293,0.02085484192155066,1.0120712653577144,0.3630834878716618,-1.1243154934130608,-1.5487055005352943
2024-09-23 04:07:08.109025,42.76,16.251423,-0.016342405757651293,0.02085484192155066,1.0120712653577144,0.4287444677185267,-1.2643463742993772,-1.4174980532728136
2024-09-23 04:07:08.151886,42.76,16.251423,-0.014878899071680782,0.022989092252305523,1.0108517093639005,0.4155664400962181,-1.2468139127612115,-1.4174980532728136
2024-09-23 04:07:08.164068,42.76,16.251423,-0.014878899071680782,0.022989092252305523,1.0108517093639005,0.4155664400962181,-1.2468139127612115,-1.469981032177806
2024-09-23 04:07:08.196906,42.76,16.251474,-0.014208053655459124,0.02085484192155066,1.0108517093639005,0.4155664400962181,-1.2468139127612115,-1.469981032177806
2024-09-23 04:07:08.208470,42.76,16.251474,-0.014208053655459124,0.02085484192155066,1.01542506864433,0.35872900059493257,-1.1637349838074296,-1.469981032177806
2024-09-23 04:07:08.251532,42.76,16.251525,-0.01396421992450679,0.019696228790963704,1.0121322188537785,0.35872900059493257,-1.1637349838074296,-1.474335492774099
2024-09-23 04:07:08.294036,42.76,16.251576,-0.01396421992450679,0.019696228790963704,1.0121322188537785,0.35872900059493257,-1.1855647030871361,-1.426207081187144
2024-09-23 04:07:08.306165,42.76,16.251576,-0.01481783924724956,0.020732824044125523,1.0126809947473678,0.35872900059493257,-1.1855647030871361,-1.426207081187144
2024-09-23 04:07:08.349431,42.76,16.251627,-0.014756881194255646,0.022867176146317694,1.0126809947473678,0.3237212803733535,-1.0630662837389857,-1.3518370734259486
2024-09-23 04:07:08.392739,42.76,16.251627,-0.014756881194255646,0.022867176146317694,1.0153641151482662,0.2581175834225491,-1.1199610328167677,-1.3474826128296553
2024-09-23 04:07:08.404543,42.76,16.251677,-0.014695923141261731,0.022867176146317694,1.0153641151482662,0.2581175834225491,-1.1199610328167677,-1.3474826128296553
2024-09-23 04:07:08.437974,42.76,16.251677,-0.014695923141261731,0.019086441680196593,1.0153641151482662,0.2581175834225491,-1.1199610328167677,-1.3474826128296553
2024-09-23 04:07:08.449545,42.76,16.251764,-0.014695923141261731,0.019086441680196593,1.0136566395424191,0.3456082558686845,-1.1243154934130608,-1.3474826128296553
2024-09-23 04:07:08.492013,42.76,16.251764,-0.014695923141261731,0.022318348607521174,1.0111565740587272,0.40685746554275976,-1.1374934943549335,-1.3474826128296553
2024-09-23 04:07:08.503875,42.76,16.251764,-0.014695923141261731,0.022318348607521174,1.0111565740587272,0.40685746554275976,-1.1374934943549335,-1.3780785628784449
2024-09-23 04:07:08.536411,42.76,16.251816,-0.012866564846913748,0.022318348607521174,1.0111565740587272,0.40685746554275976,-1.1374934943549335,-1.3780785628784449
2024-09-23 04:07:08.548040,42.76,16.251816,-0.012866564846913748,0.016159429827232244,1.0162178529511898,0.38932495064372197,-1.1768557818945498,-1.3780785628784449
2024-09-23 04:07:08.591077,42.98,16.251866,-0.010671253932239326,0.016159429827232244,1.0162178529511898,0.38932495064372197,-1.1768557818945498,-1.469981032177806
2024-09-23 04:07:08.633962,42.98,16.251866,-0.010671253932239326,0.021281651582922046,1.0135956860463553,0.38932495064372197,-1.1768557818945498,-1.469981032177806
2024-09-23 04:07:08.645266,42.98,16.251917,-0.010671253932239326,0.021281651582922046,1.0135956860463553,0.3543172304221429,-1.1418479549512268,-1.434973311956227
2024-09-23 04:07:08.688015,42.98,16.251917,-0.01256167205101853,0.019696228790963704,1.0135347325502915,0.3018342781975865,-1.1287272635858505,-1.4218526205908506
2024-09-23 04:07:08.731056,42.98,16.251968,-0.01256167205101853,0.019696228790963704,1.0135347325502915,0.3018342781975865,-1.1287272635858505,-1.4218526205908506
2024-09-23 04:07:08.743084,42.98,16.251968,-0.008171151993106994,0.02018409827676631,1.0117053499523165,0.3280757409696467,-1.1549687530383468,-1.4218526205908506
2024-09-23 04:07:08.785799,42.98,16.252019,-0.01164699290384454,0.02140366946034718,1.0118273541589518,0.3280757409696467,-1.1549687530383468,-1.413086283100024
2024-09-23 04:07:08.798361,42.98,16.252019,-0.01164699290384454,0.02140366946034718,1.0118273541589518,0.27123832814879717,-1.1549687530383468,-1.413086283100024
2024-09-23 04:07:08.830598,42.98,16.252105,-0.01164699290384454,0.02140366946034718,1.0118273541589518,0.27123832814879717,-1.0499454856518655,-1.3868447936475277
2024-09-23 04:07:08.842356,42.98,16.252105,-0.011098165365048018,0.021708563015730736,1.0122541258459061,0.27123832814879717,-1.0499454856518655,-1.3868447936475277
2024-09-23 04:07:08.885039,42.98,16.252157,-0.010488379013769245,0.02048899031317319,1.0122541258459061,0.3456082558686845,-1.1024857741333545,-1.3518370734259486
2024-09-23 04:07:08.926757,42.98,16.252157,-0.010488379013769245,0.02048899031317319,1.0121931723498423,0.27123832814879717,-1.1024857741333545,-1.3518370734259486
2024-09-23 04:07:08.938783,42.98,16.252208,-0.01182986782231462,0.02048899031317319,1.0121931723498423,0.27123832814879717,-1.1462025222692638,-1.3956111311383546
2024-09-23 04:07:08.982290,42.98,16.2523,-0.01182986782231462,0.020245056329760223,1.0101808320491685,0.3368419984191656,-1.0980740039605648,-1.4568603408124299
2024-09-23 04:07:09.024555,42.98,16.2523,-0.014391029585878175,0.019513251341567978,1.0101808320491685,0.3368419984191656,-1.0980740039605648,-1.4568603408124299
2024-09-23 04:07:09.035682,42.98,16.2523,-0.014391029585878175,0.019513251341567978,1.0138396944596255,0.39809120809324083,-1.1243154934130608,-1.43932777255252
2024-09-23 04:07:09.078724,42.98,16.252352,-0.01164699290384454,0.02048899031317319,1.0121931723498423,0.37184974532118065,-1.1374934943549335,-1.43932777255252
2024-09-23 04:07:09.121128,42.98,16.252403,-0.01164699290384454,0.02048899031317319,1.0121931723498423,0.37184974532118065,-1.1374934943549335,-1.426207081187144
2024-09-23 04:07:09.132860,42.98,16.252403,-0.01573262016586086,0.02189143717471248,1.0103028362558035,0.2668265312955715,-1.1374934943549335,-1.426207081187144
2024-09-23 04:07:09.175164,42.98,16.252453,-0.013049540777332799,0.01914740125216718,1.0103028362558035,0.2668265312955715,-1.1243154934130608,-1.3868447936475277
2024-09-23 04:07:09.187296,42.98,16.252453,-0.013049540777332799,0.01914740125216718,1.015546975636458,0.2668265312955715,-1.1243154934130608,-1.3868447936475277
2024-09-23 04:07:09.219218,42.98,16.252453,-0.013049540777332799,0.01914740125216718,1.015546975636458,0.3368419984191656,-1.1768557818945498,-1.3868447936475277
2024-09-23 04:07:09.230201,42.98,16.252504,-0.013354434332716355,0.020306014382754138,1.015546975636458,0.3368419984191656,-1.1768557818945498,-1.5355847024481744
2024-09-23 04:07:09.273108,42.98,16.252555,-0.01365932788809991,0.020306014382754138,1.011217527554791,0.35872900059493257,-1.1287272635858505,-1.483101830264926
2024-09-23 04:07:09.315756,42.98,16.252555,-0.01365932788809991,0.019208359305161096,1.011217527554791,0.35872900059493257,-1.1287272635858505,-1.483101830264926
2024-09-23 04:07:09.327218,42.98,16.252642,-0.01365932788809991,0.019208359305161096,1.0117053499523165,0.37620423259790986,-1.0937195433642715,-1.4174980532728136
2024-09-23 04:07:09.370595,42.98,16.252642,-0.015488684663471218,0.020549948366167105,1.0092051872541172,0.3543172304221429,-1.1724439050000162,-1.4174980532728136
2024-09-23 04:07:09.382706,42.98,16.252642,-0.015488684663471218,0.020549948366167105,1.0092051872541172,0.3543172304221429,-1.1724439050000162,-1.3649578715130686
2024-09-23 04:07:09.416128,42.98,16.252693,-0.011768909009832369,0.02164760496273682,1.0092051872541172,0.3543172304221429,-1.1724439050000162,-1.3649578715130686
2024-09-23 04:07:09.428290,42.98,16.252693,-0.011768909009832369,0.02164760496273682,1.0099979715609768,0.3543172304221429,-1.1374934943549335,-1.3649578715130686
2024-09-23 04:07:09.460497,42.98,16.252693,-0.011768909009832369,0.02164760496273682,1.0099979715609768,0.3543172304221429,-1.1374934943549335,-1.3824903330512346
2024-09-23 04:07:09.472221,42.98,16.252744,-0.013110498830326714,0.020001120827370582,1.0165227176460165,0.3674952580444515,-1.1374934943549335,-1.3824903330512346
2024-09-23 04:07:09.515395,42.98,16.252795,-0.013232416455291218,0.020001120827370582,1.0165227176460165,0.3674952580444515,-1.1156065722204744,-1.3824903330512346
2024-09-23 04:07:09.526679,42.98,16.252795,-0.013232416455291218,0.017744852619190586,1.0153641151482662,0.3674952580444515,-1.1156065722204744,-1.3824903330512346
2024-09-23 04:07:09.559009,42.98,16.252795,-0.013232416455291218,0.017744852619190586,1.0153641151482662,0.28871353347133843,-1.1156065722204744,-1.3824903330512346
2024-09-23 04:07:09.570171,42.98,16.252845,-0.013476350438704184,0.021464627513341095,1.0153641151482662,0.28871353347133843,-1.3562488435987383,-1.491868061034009
2024-09-23 04:07:09.612672,42.98,16.252845,-0.013476350438704184,0.021464627513341095,1.0095710054450078,0.3149550229238346,-1.216217962712422,-1.483101830264926
2024-09-23 04:07:09.624188,42.98,16.252896,-0.015061773230662524,0.021464627513341095,1.0095710054450078,0.3149550229238346,-1.216217962712422,-1.483101830264926
2024-09-23 04:07:09.656562,42.98,16.252896,-0.015061773230662524,0.015915494324842603,1.0095710054450078,0.3149550229238346,-1.216217962712422,-1.483101830264926
2024-09-23 04:07:09.668682,42.98,16.252983,-0.015061773230662524,0.015915494324842603,1.012498037044669,0.3062460483703762,-1.2643463742993772,-1.448094003321603
2024-09-23 04:07:09.710829,42.98,16.252983,-0.013293374508285133,0.022989092252305523,1.0114003880429827,0.3411964856958948,-1.1287272635858505,-1.448094003321603
2024-09-23 04:07:09.722636,42.98,16.252983,-0.013293374508285133,0.022989092252305523,1.0114003880429827,0.3411964856958948,-1.1287272635858505,-1.3780785628784449
2024-09-23 04:07:09.755836,42.98,16.253034,-0.013903160100075569,0.020549948366167105,1.0114003880429827,0.3411964856958948,-1.1287272635858505,-1.3780785628784449
2024-09-23 04:07:09.767223,42.98,16.253034,-0.013903160100075569,0.020549948366167105,1.0104856967439952,0.3324875378228724,-1.0762442846808582,-1.3780785628784449
2024-09-23 04:07:09.809868,42.98,16.253085,-0.011890927646745842,0.019940162774376668,1.0131688171448936,0.29306802074806765,-1.0762442846808582,-1.3518370734259486
2024-09-23 04:07:09.852265,42.98,16.253085,-0.011890927646745842,0.019940162774376668,1.0131688171448936,0.29306802074806765,-0.9886962759777903,-1.3562488435987383
2024-09-23 04:07:09.863392,42.98,16.253136,-0.011768909009832369,0.019208359305161096,1.0134736818397203,0.29306802074806765,-0.9886962759777903,-1.3562488435987383
2024-09-23 04:07:09.905448,42.98,16.253187,-0.011768909009832369,0.019208359305161096,1.0134736818397203,0.29747979092085736,-1.207451731943339,-1.461214801408723
2024-09-23 04:07:09.919342,42.98,16.253187,-0.012073802565215924,0.01975718684395762,1.0134736818397203,0.29747979092085736,-1.207451731943339,-1.461214801408723
2024-09-23 04:07:09.951228,42.98,16.253187,-0.012073802565215924,0.01975718684395762,1.014205512650516,0.24935132597303017,-1.207451731943339,-1.461214801408723
2024-09-23 04:07:09.963064,42.98,16.253237,-0.01585453627184869,0.01975718684395762,1.014205512650516,0.24935132597303017,-1.1156065722204744,-1.448094003321603
2024-09-23 04:07:10.006128,42.98,16.253324,-0.01585453627184869,0.018293680157987106,1.0139006479556893,0.3062460483703762,-1.1462025222692638,-1.3693696416858583
2024-09-23 04:07:10.049925,42.98,16.253324,-0.016891131525010507,0.018476656088406155,1.0189008761375808,0.3062460483703762,-1.1462025222692638,-1.3693696416858583
2024-09-23 04:07:10.062077,42.98,16.253324,-0.016891131525010507,0.018476656088406155,1.0189008761375808,0.3411964856958948,-1.1111946953259408,-1.404320052330941
2024-09-23 04:07:10.094493,42.98,16.253376,-0.016891131525010507,0.018476656088406155,1.0189008761375808,0.3411964856958948,-1.1111946953259408,-1.404320052330941
2024-09-23 04:07:10.107093,42.98,16.253376,-0.013903160100075569,0.018781549643789714,1.0104856967439952,0.3543172304221429,-1.1068402347296475,-1.404320052330941
2024-09-23 04:07:10.149414,42.98,16.253426,-0.014756881194255646,0.020793883868556746,1.0104856967439952,0.3543172304221429,-1.1068402347296475,-1.4218526205908506
2024-09-23 04:07:10.161248,42.98,16.253426,-0.014756881194255646,0.020793883868556746,1.0138396944596255,0.3280757409696467,-1.1068402347296475,-1.4218526205908506
2024-09-23 04:07:10.193889,42.98,16.253426,-0.014756881194255646,0.020793883868556746,1.0138396944596255,0.3280757409696467,-1.1506142924420535,-1.3387163820605725
2024-09-23 04:07:10.205754,42.98,16.253477,-0.014574005516297226,0.02201345505213762,1.0099369208504057,0.3280757409696467,-1.1506142924420535,-1.3387163820605725
2024-09-23 04:07:10.248018,42.98,16.253528,-0.01445198763887209,0.02317206970170125,1.0099369208504057,0.38061600277069957,-1.0718325145080685,-1.553117270708084
2024-09-23 04:07:10.290573,42.98,16.253528,-0.01445198763887209,0.02317206970170125,1.0135956860463553,0.38061600277069957,-1.0718325145080685,-1.553117270708084
2024-09-23 04:07:10.302606,42.98,16.253579,-0.013049540777332799,0.02317206970170125,1.0135956860463553,0.3149550229238346,-1.1724439050000162,-1.553117270708084
2024-09-23 04:07:10.345858,42.98,16.253579,-0.013049540777332799,0.020610907938137694,1.0159129882563631,0.24935132597303017,-1.1287272635858505,-1.504988752399385
2024-09-23 04:07:10.357593,42.98,16.253665,-0.013049540777332799,0.020610907938137694,1.0159129882563631,0.24935132597303017,-1.1287272635858505,-1.504988752399385
2024-09-23 04:07:10.390481,42.98,16.253665,-0.01396421992450679,0.017439959063807027,1.0168275823408433,0.24935132597303017,-1.1287272635858505,-1.504988752399385
2024-09-23 04:07:10.402107,42.98,16.253665,-0.01396421992450679,0.017439959063807027,1.0168275823408433,0.31060053564710544,-1.1768557818945498,-1.3868447936475277
2024-09-23 04:07:10.446003,42.98,16.253717,-0.012317737308117227,0.01798878660260355,1.00969310686615,0.28871353347133843,-1.1374934943549335,-1.3868447936475277
2024-09-23 04:07:10.489328,42.98,16.253768,-0.013110498830326714,0.01798878660260355,1.00969310686615,0.28871353347133843,-1.1374934943549335,-1.43932777255252
2024-09-23 04:07:10.500492,42.98,16.253768,-0.013110498830326714,0.01926931735815501,1.0121322188537785,0.2843590461946093,-1.1374934943549335,-1.43932777255252
2024-09-23 04:07:10.542504,42.98,16.253818,-0.014695923141261731,0.021159735476934217,1.0104247432479314,0.2843590461946093,-1.1156065722204744,-1.4087318225037306
2024-09-23 04:07:10.584986,42.98,16.253818,-0.014695923141261731,0.021159735476934217,1.0104247432479314,0.27559278874509036,-1.2293386540777982,-1.3956111311383546
2024-09-23 04:07:10.596003,42.98,16.253869,-0.012988480952901577,0.018476656088406155,1.0104247432479314,0.27559278874509036,-1.2293386540777982,-1.3956111311383546
2024-09-23 04:07:10.638885,43.18,16.25392,-0.012988480952901577,0.018476656088406155,1.0150592504534395,0.31060053564710544,-1.0980740039605648,-1.2731127117902041
2024-09-23 04:07:10.651184,43.18,16.25392,-0.012805606793919833,0.018476656088406155,1.0150592504534395,0.31060053564710544,-1.0980740039605648,-1.2731127117902041
2024-09-23 04:07:10.684053,43.18,16.25392,-0.012805606793919833,0.018476656088406155,1.015486022140394,0.3324875378228724,-1.1156065722204744,-1.2731127117902041
2024-09-23 04:07:10.695631,43.18,16.254007,-0.012805606793919833,0.018476656088406155,1.015486022140394,0.3324875378228724,-1.1156065722204744,-1.4087318225037306
2024-09-23 04:07:10.727654,43.18,16.254007,-0.01445198763887209,0.018476656088406155,1.015486022140394,0.3324875378228724,-1.1156065722204744,-1.4087318225037306
2024-09-23 04:07:10.739182,43.18,16.254007,-0.01445198763887209,0.01786687049661572,1.0148152420401695,0.27123832814879717,-1.2512256829340012,-1.496222521630302
2024-09-23 04:07:10.781969,43.18,16.254058,-0.013293374508285133,0.017013149402435646,1.0164007134393813,0.27123832814879717,-1.2512256829340012,-1.496222521630302
2024-09-23 04:07:10.793226,43.18,16.254058,-0.013293374508285133,0.017013149402435646,1.0164007134393813,0.40244569536997005,-1.15932321363464,-1.496222521630302
2024-09-23 04:07:10.825770,43.18,16.254058,-0.013293374508285133,0.017013149402435646,1.0164007134393813,0.40244569536997005,-1.15932321363464,-1.448094003321603
2024-09-23 04:07:10.837042,43.18,16.254109,-0.01408613603049462,0.020366972435748053,1.015546975636458,0.3499627431454137,-1.15932321363464,-1.448094003321603
2024-09-23 04:07:10.879818,43.18,16.25416,-0.013110498830326714,0.020366972435748053,1.015546975636458,0.3499627431454137,-1.2118635021161288,-1.43932777255252
2024-09-23 04:07:10.891560,43.18,16.25416,-0.013110498830326714,0.02207441310513153,1.0103637897518674,0.3499627431454137,-1.2118635021161288,-1.43932777255252
2024-09-23 04:07:10.924547,43.18,16.25416,-0.013110498830326714,0.02207441310513153,1.0103637897518674,0.3499627431454137,-1.1243154934130608,-1.43932777255252
2024-09-23 04:07:10.935479,43.18,16.25421,-0.014269113479890346,0.01823272210499319,1.0103637897518674,0.3499627431454137,-1.1243154934130608,-1.4087318225037306
2024-09-23 04:07:10.977798,43.18,16.25421,-0.014269113479890346,0.01823272210499319,1.012925003160638,0.3411964856958948,-1.1243154934130608,-1.3911993609655648
2024-09-23 04:07:10.990225,43.18,16.254261,-0.015610600769459046,0.01823272210499319,1.012925003160638,0.3411964856958948,-1.1243154934130608,-1.3911993609655648
2024-09-23 04:07:11.022590,43.18,16.254261,-0.015610600769459046,0.018842507696783625,1.0131078636488298,0.3411964856958948,-1.1243154934130608,-1.3911993609655648
2024-09-23 04:07:11.034006,43.18,16.254348,-0.015610600769459046,0.018842507696783625,1.0131078636488298,0.42433269754573705,-1.203097164625302,-1.43932777255252
2024-09-23 04:07:11.076727,43.18,16.254348,-0.01365932788809991,0.0187205915907958,1.0145103773453428,0.38061600277069957,-1.1637349838074296,-1.43932777255252
2024-09-23 04:07:11.088639,43.18,16.254348,-0.01365932788809991,0.0187205915907958,1.0145103773453428,0.38061600277069957,-1.1637349838074296,-1.3518370734259486
2024-09-23 04:07:11.120242,43.18,16.254399,-0.012866564846913748,0.0187205915907958,1.0145103773453428,0.38061600277069957,-1.1637349838074296,-1.3518370734259486
2024-09-23 04:07:11.131544,43.18,16.254399,-0.012866564846913748,0.02237930666051509,1.01426646614658,0.3062460483703762,-1.1462025222692638,-1.3518370734259486
2024-09-23 04:07:11.174252,43.18,16.254451,-0.01164699290384454,0.019330377182586234,1.0109736163560281,0.3149550229238346,-1.1462025222692638,-1.3693696416858583
2024-09-23 04:07:11.216891,43.18,16.254451,-0.01164699290384454,0.019330377182586234,1.0109736163560281,0.3149550229238346,-1.1987427040290088,-1.3693696416858583
2024-09-23 04:07:11.228759,43.18,16.254501,-0.01536666678604608,0.01823272210499319,1.0123761300525411,0.3149550229238346,-1.1987427040290088,-1.504988752399385
2024-09-23 04:07:11.271396,43.18,16.254552,-0.012134760618209839,0.01823272210499319,1.0123761300525411,0.39373674749694765,-1.1855647030871361,-1.426207081187144
2024-09-23 04:07:11.283567,43.18,16.254552,-0.012134760618209839,0.02012303845233509,1.0123761300525411,0.39373674749694765,-1.1855647030871361,-1.426207081187144
2024-09-23 04:07:11.316791,43.18,16.254552,-0.012134760618209839,0.02012303845233509,1.0120712653577144,0.35872900059493257,-1.0849533125951887,-1.426207081187144
2024-09-23 04:07:11.328286,43.18,16.254603,-0.012073802565215924,0.02012303845233509,1.0120712653577144,0.35872900059493257,-1.0849533125951887,-1.5618261919006706
2024-09-23 04:07:11.371061,43.18,16.254689,-0.012073802565215924,0.021037716080532405,1.012925003160638,0.3630834878716618,-1.1287272635858505,-1.426207081187144
2024-09-23 04:07:11.412940,43.18,16.254689,-0.014878899071680782,0.020549948366167105,1.012925003160638,0.3630834878716618,-1.1287272635858505,-1.426207081187144
2024-09-23 04:07:11.425875,43.18,16.254689,-0.014878899071680782,0.020549948366167105,1.0148152420401695,0.42433269754573705,-1.0674780539117754,-1.3212411233771593
2024-09-23 04:07:11.468502,43.18,16.254741,-0.015671560341429636,0.021708563015730736,1.0164007134393813,0.27994727602181957,-1.1768557818945498,-1.3212411233771593
2024-09-23 04:07:11.510757,43.18,16.254791,-0.015671560341429636,0.021708563015730736,1.0164007134393813,0.27994727602181957,-1.1768557818945498,-1.474335492774099
2024-09-23 04:07:11.522645,43.18,16.254791,-0.013903160100075569,0.020062078880364497,1.009266140750181,0.29306802074806765,-1.1768557818945498,-1.474335492774099
2024-09-23 04:07:11.566767,43.18,16.254842,-0.017927828549609635,0.018842507696783625,1.0121931723498423,0.29306802074806765,-1.1768557818945498,-1.3343619214642792
2024-09-23 04:07:11.609083,43.18,16.254842,-0.017927828549609635,0.018842507696783625,1.0121931723498423,0.3018342781975865,-1.1724439050000162,-1.3343619214642792
2024-09-23 04:07:11.620263,43.18,16.254893,-0.010915188675140628,0.019879204721382753,1.0121931723498423,0.3018342781975865,-1.1724439050000162,-1.3430708426568656
2024-09-23 04:07:11.662504,43.43,16.254944,-0.010915188675140628,0.019879204721382753,1.0125589905407328,0.3324875378228724,-1.1549687530383468,-1.3824903330512346
2024-09-23 04:07:11.706976,43.43,16.254944,-0.01445198763887209,0.020915799974544576,1.0112784810508548,0.3324875378228724,-1.1549687530383468,-1.3824903330512346
2024-09-23 04:07:11.718491,43.43,16.254944,-0.01445198763887209,0.020915799974544576,1.0112784810508548,0.3237212803733535,-1.216217962712422,-1.426207081187144
2024-09-23 04:07:11.760988,43.43,16.25503,-0.015244750680058252,0.02067186599113161,1.0128639524500669,0.38061600277069957,-1.1330817241821438,-1.426207081187144
2024-09-23 04:07:11.804168,43.43,16.255082,-0.01396421992450679,0.02067186599113161,1.0128639524500669,0.38061600277069957,-1.1330817241821438,-1.448094003321603
2024-09-23 04:07:11.816096,43.43,16.255082,-0.01396421992450679,0.01768389456619667,1.012498037044669,0.3193667930966243,-1.1330817241821438,-1.448094003321603
2024-09-23 04:07:11.850173,43.43,16.255082,-0.01396421992450679,0.01768389456619667,1.012498037044669,0.3193667930966243,-1.2118635021161288,-1.448094003321603
2024-09-23 04:07:11.862174,43.43,16.255133,-0.014574005516297226,0.021586543619328925,1.011217527554791,0.3193667930966243,-1.2118635021161288,-1.434973311956227
2024-09-23 04:07:11.904474,43.43,16.255183,-0.014574005516297226,0.021586543619328925,1.011217527554791,0.2843590461946093,-1.1199610328167677,-1.3212411233771593
2024-09-23 04:07:11.916200,43.43,16.255183,-0.012622630104012445,0.01926931735815501,1.011217527554791,0.2843590461946093,-1.1199610328167677,-1.3212411233771593
2024-09-23 04:07:11.948681,43.43,16.255183,-0.012622630104012445,0.01926931735815501,1.0134127283436565,0.31060053564710544,-1.1199610328167677,-1.3212411233771593
2024-09-23 04:07:11.960094,43.43,16.255234,-0.013537308491698099,0.01926931735815501,1.0134127283436565,0.31060053564710544,-1.0455910250555724,-1.5005769822265953
2024-09-23 04:07:12.002269,43.43,16.255234,-0.013537308491698099,0.02097675802753849,1.0134127283436565,0.31060053564710544,-1.0455910250555724,-1.5005769822265953
2024-09-23 04:07:12.044412,43.43,16.255234,-0.013537308491698099,0.02097675802753849,1.0159129882563631,0.31060053564710544,-1.0455910250555724,-1.5005769822265953
2024-09-23 04:07:12.055973,43.43,16.255323,-0.011890927646745842,0.02097675802753849,1.0159129882563631,0.3674952580444515,-1.1418479549512268,-1.3693696416858583
2024-09-23 04:07:12.099400,43.43,16.255323,-0.011890927646745842,0.020062078880364497,1.0101808320491685,0.3062460483703762,-1.1812102424908428,-1.3693696416858583
2024-09-23 04:07:12.110612,43.43,16.255374,-0.011890927646745842,0.020062078880364497,1.0101808320491685,0.3062460483703762,-1.1812102424908428,-1.3737241022821516
2024-09-23 04:07:12.143347,43.43,16.255374,-0.014878899071680782,0.020062078880364497,1.0101808320491685,0.3062460483703762,-1.1812102424908428,-1.3737241022821516
2024-09-23 04:07:12.154981,43.43,16.255374,-0.014878899071680782,0.02207441310513153,1.0119492611510794,0.3324875378228724,-1.1418479549512268,-1.43932777255252
2024-09-23 04:07:12.198120,43.43,16.255425,-0.012073802565215924,0.02085484192155066,1.0124370835486052,0.3368419984191656,-1.1418479549512268,-1.43932777255252
2024-09-23 04:07:12.210119,43.43,16.255425,-0.012073802565215924,0.02085484192155066,1.0124370835486052,0.3368419984191656,-1.1943309338562191,-1.43932777255252
2024-09-23 04:07:12.243588,43.43,16.255476,-0.012439653414105056,0.02085484192155066,1.0124370835486052,0.3368419984191656,-1.1943309338562191,-1.3606034109167755
2024-09-23 04:07:12.254551,43.43,16.255476,-0.012439653414105056,0.0187205915907958,1.0094490984528801,0.3456082558686845,-1.1943309338562191,-1.3606034109167755
2024-09-23 04:07:12.296737,43.43,16.255568,-0.012439653414105056,0.0187205915907958,1.0094490984528801,0.3456082558686845,-1.1724439050000162,-1.461214801408723
2024-09-23 04:07:12.339423,43.43,16.255568,-0.012134760618209839,0.02018409827676631,1.0094490984528801,0.3456082558686845,-1.1724439050000162,-1.461214801408723
2024-09-23 04:07:12.350655,43.43,16.255568,-0.012134760618209839,0.02018409827676631,1.0114003880429827,0.27994727602181957,-1.2336931146740913,-1.4568603408124299
2024-09-23 04:07:12.393006,43.43,16.255619,-0.011951885699739756,0.018964423802771455,1.016705578134208,0.27994727602181957,-1.2336931146740913,-1.4568603408124299
2024-09-23 04:07:12.404195,43.43,16.255619,-0.011951885699739756,0.018964423802771455,1.016705578134208,0.28871353347133843,-1.1637349838074296,-1.4568603408124299
2024-09-23 04:07:12.436942,43.43,16.25567,-0.011951885699739756,0.018964423802771455,1.016705578134208,0.28871353347133843,-1.1637349838074296,-1.461214801408723
2024-09-23 04:07:12.448519,43.43,16.25567,-0.017439959063807027,0.020427930488741967,1.0109736163560281,0.2843590461946093,-1.1637349838074296,-1.461214801408723
2024-09-23 04:07:12.490844,43.43,16.255762,-0.012256778495634975,0.023354943860682993,1.0129859566567019,0.2843590461946093,-1.1506142924420535,-1.3911993609655648
2024-09-23 04:07:12.532838,43.43,16.255762,-0.012256778495634975,0.023354943860682993,1.0129859566567019,0.3149550229238346,-1.1506142924420535,-1.3911993609655648
2024-09-23 04:07:12.544175,43.43,16.255813,-0.011890927646745842,0.02012303845233509,1.0129859566567019,0.3149550229238346,-1.0893650827679784,-1.5136977803137153
2024-09-23 04:07:12.586249,43.43,16.255813,-0.011890927646745842,0.02012303845233509,1.0169495865474782,0.3456082558686845,-1.0980740039605648,-1.5268184716790913
2024-09-23 04:07:12.598061,43.43,16.255864,-0.015427726610477303,0.02012303845233509,1.0169495865474782,0.3456082558686845,-1.0980740039605648,-1.5268184716790913
2024-09-23 04:07:12.630469,43.43,16.255864,-0.015427726610477303,0.021708563015730736,1.0169495865474782,0.3456082558686845,-1.0980740039605648,-1.5268184716790913
2024-09-23 04:07:12.642123,43.43,16.255864,-0.015427726610477303,0.021708563015730736,1.014205512650516,0.3630834878716618,-1.0980740039605648,-1.5268184716790913
2024-09-23 04:07:12.684674,43.39,16.255957,-0.01445198763887209,0.021708563015730736,1.014205512650516,0.3630834878716618,-1.1024857741333545,-1.3343619214642792
2024-09-23 04:07:12.697551,43.39,16.255957,-0.01445198763887209,0.01963527073796979,1.0136566395424191,0.3630834878716618,-1.1024857741333545,-1.3343619214642792
2024-09-23 04:07:12.730260,43.39,16.255957,-0.01445198763887209,0.01963527073796979,1.0136566395424191,0.3149550229238346,-1.1987427040290088,-1.413086283100024
2024-09-23 04:07:12.741402,43.39,16.256008,-0.011951885699739756,0.01750101888823825,1.0136566395424191,0.3149550229238346,-1.1987427040290088,-1.413086283100024
2024-09-23 04:07:12.783735,43.39,16.256059,-0.010549337066763158,0.01750101888823825,1.0130469101527657,0.3368419984191656,-1.1680894444037229,-1.413086283100024
2024-09-23 04:07:12.826482,43.39,16.256059,-0.010549337066763158,0.021098777423940302,1.0123761300525411,0.3368419984191656,-1.1680894444037229,-1.413086283100024
2024-09-23 04:07:12.837788,43.39,16.25611,-0.010549337066763158,0.021098777423940302,1.0123761300525411,0.3018342781975865,-1.1812102424908428,-1.4437395427253097
2024-09-23 04:07:12.881100,43.39,16.25611,-0.014939857124674697,0.02012303845233509,1.0120102146471432,0.38932495064372197,-1.1680894444037229,-1.509343212995678
2024-09-23 04:07:12.923346,43.39,16.256201,-0.011586034850850625,0.02012303845233509,1.0120102146471432,0.38932495064372197,-1.1680894444037229,-1.509343212995678
2024-09-23 04:07:12.935381,43.39,16.256201,-0.011586034850850625,0.020366972435748053,1.0146933350480416,0.3499627431454137,-1.1374934943549335,-1.509343212995678
2024-09-23 04:07:12.977981,43.39,16.256252,-0.014025177977500705,0.019879204721382753,1.0116442992417454,0.3499627431454137,-1.1374934943549335,-1.5136977803137153
2024-09-23 04:07:12.989957,43.39,16.256252,-0.014025177977500705,0.019879204721382753,1.0116442992417454,0.2668265312955715,-1.1374934943549335,-1.5136977803137153
2024-09-23 04:07:13.021432,43.39,16.256252,-0.014025177977500705,0.019879204721382753,1.0116442992417454,0.2668265312955715,-1.1374934943549335,-1.4306188513599336
2024-09-23 04:07:13.032607,43.39,16.256303,-0.013232416455291218,0.019818144896951533,1.008168588963002,0.2668265312955715,-1.1374934943549335,-1.4306188513599336
2024-09-23 04:07:13.075570,43.39,16.256354,-0.014756881194255646,0.019818144896951533,1.008168588963002,0.42433269754573705,-1.1987427040290088,-1.3737241022821516
2024-09-23 04:07:13.087256,43.39,16.256354,-0.014756881194255646,0.019818144896951533,1.008168588963002,0.42433269754573705,-1.1987427040290088,-1.3737241022821516
2024-09-23 04:07:13.119059,43.39,16.256354,-0.014756881194255646,0.019818144896951533,1.013778546534547,0.35872900059493257,-1.1987427040290088,-1.3737241022821516
2024-09-23 04:07:13.130681,43.39,16.256405,-0.013842202047081654,0.019818144896951533,1.013778546534547,0.35872900059493257,-1.0455910250555724,-1.4306188513599336
2024-09-23 04:07:13.174393,43.39,16.256493,-0.013842202047081654,0.01811080599900536,1.0135956860463553,0.2843590461946093,-1.1855647030871361,-1.3649578715130686
2024-09-23 04:07:13.218249,43.39,16.256493,-0.01182986782231462,0.01713506550842347,1.0074977116482702,0.2843590461946093,-1.1855647030871361,-1.3649578715130686
2024-09-23 04:07:13.229818,43.39,16.256493,-0.01182986782231462,0.01713506550842347,1.0074977116482702,0.3149550229238346,-1.0499454856518655,-1.426207081187144
2024-09-23 04:07:13.272382,43.39,16.256545,-0.010488379013769245,0.02018409827676631,1.0146322843374704,0.3674952580444515,-1.1768557818945498,-1.426207081187144
2024-09-23 04:07:13.315905,43.39,16.256596,-0.01164699290384454,0.02018409827676631,1.0146322843374704,0.3674952580444515,-1.1768557818945498,-1.3693696416858583
2024-09-23 04:07:13.329902,43.39,16.256596,-0.01164699290384454,0.019330377182586234,1.0139616014517532,0.29306802074806765,-1.1768557818945498,-1.3693696416858583
2024-09-23 04:07:13.362360,43.39,16.256596,-0.01164699290384454,0.019330377182586234,1.0139616014517532,0.29306802074806765,-1.207451731943339,-1.4087318225037306
2024-09-23 04:07:13.373678,43.39,16.256646,-0.010305402323861856,0.02164760496273682,1.0103637897518674,0.29306802074806765,-1.207451731943339,-1.4087318225037306
2024-09-23 04:07:13.416396,43.39,16.256697,-0.010305402323861856,0.02164760496273682,1.0103637897518674,0.41121195281948897,-1.1199610328167677,-1.4437395427253097
2024-09-23 04:07:13.428941,43.39,16.256697,-0.015427726610477303,0.01750101888823825,1.0103637897518674,0.41121195281948897,-1.1199610328167677,-1.4437395427253097
2024-09-23 04:07:13.462292,43.39,16.256697,-0.015427726610477303,0.01750101888823825,1.0182300960373563,0.35872900059493257,-1.2555801435302942,-1.4437395427253097
2024-09-23 04:07:13.473932,43.39,16.256748,-0.015671560341429636,0.01750101888823825,1.0182300960373563,0.35872900059493257,-1.2555801435302942,-1.4524485706396402
2024-09-23 04:07:13.517100,43.39,16.256834,-0.015671560341429636,0.016525279916633037,1.012742045457939,0.3324875378228724,-1.1243154934130608,-1.3387163820605725
2024-09-23 04:07:13.559703,43.39,16.256834,-0.01622038788022616,0.017013149402435646,1.012742045457939,0.3324875378228724,-1.1243154934130608,-1.3387163820605725
2024-09-23 04:07:13.571054,43.39,16.256834,-0.01622038788022616,0.017013149402435646,1.0115223922496177,0.3499627431454137,-1.1943309338562191,-1.518109550486505
2024-09-23 04:07:13.613377,43.39,16.256886,-0.012256778495634975,0.01926931735815501,1.017010540043542,0.3368419984191656,-1.1330817241821438,-1.518109550486505
2024-09-23 04:07:13.657006,43.39,16.256937,-0.01256167205101853,0.01926931735815501,1.017010540043542,0.3368419984191656,-1.1330817241821438,-1.3780785628784449
2024-09-23 04:07:13.668045,43.39,16.256937,-0.01256167205101853,0.022989092252305523,1.0103028362558035,0.29747979092085736,-1.1330817241821438,-1.3780785628784449
2024-09-23 04:07:13.711098,43.06,16.256987,-0.01365932788809991,0.020732824044125523,1.0139006479556893,0.29747979092085736,-1.1024857741333545,-1.3737241022821516
2024-09-23 04:07:13.754255,43.06,16.256987,-0.01365932788809991,0.020732824044125523,1.0139006479556893,0.3543172304221429,-1.1374934943549335,-1.434973311956227
2024-09-23 04:07:13.765918,43.06,16.257038,-0.013842202047081654,0.018964423802771455,1.0139006479556893,0.3543172304221429,-1.1374934943549335,-1.434973311956227
2024-09-23 04:07:13.808663,43.06,16.257089,-0.013110498830326714,0.018964423802771455,1.0119492611510794,0.3543172304221429,-1.1111946953259408,-1.4874562908612192
2024-09-23 04:07:13.851411,43.06,16.257089,-0.013110498830326714,0.02134260963591596,1.0115833457456815,0.3237212803733535,-1.1111946953259408,-1.4874562908612192
2024-09-23 04:07:13.862394,43.06,16.257176,-0.013110498830326714,0.02134260963591596,1.0115833457456815,0.3237212803733535,-1.1068402347296475,-1.5268184716790913
2024-09-23 04:07:13.904223,43.06,16.257176,-0.014269113479890346,0.019879204721382753,1.0101198785531047,0.3368419984191656,-1.1549687530383468,-1.5268184716790913
2024-09-23 04:07:13.915743,43.06,16.257176,-0.014269113479890346,0.019879204721382753,1.0101198785531047,0.3368419984191656,-1.1549687530383468,-1.413086283100024
2024-09-23 04:07:13.947987,43.06,16.257227,-0.011951885699739756,0.019879204721382753,1.0101198785531047,0.3368419984191656,-1.1549687530383468,-1.413086283100024
2024-09-23 04:07:13.959583,43.06,16.257227,-0.011951885699739756,0.02164760496273682,1.0168886330514144,0.27123832814879717,-1.0630662837389857,-1.413086283100024
2024-09-23 04:07:14.001897,43.06,16.257278,-0.010122528164880112,0.018598572194393984,1.0131688171448936,0.27123832814879717,-1.0630662837389857,-1.4874562908612192
2024-09-23 04:07:14.014354,43.06,16.257278,-0.010122528164880112,0.018598572194393984,1.0131688171448936,0.3193667930966243,-1.0630662837389857,-1.4874562908612192
2024-09-23 04:07:14.046837,43.06,16.257329,-0.010122528164880112,0.018598572194393984,1.0131688171448936,0.3193667930966243,-1.1374934943549335,-1.4306188513599336
2024-09-23 04:07:14.058471,43.06,16.257329,-0.010793271809664462,0.01926931735815501,1.014022554947817,0.3193667930966243,-1.1374934943549335,-1.4306188513599336
2024-09-23 04:07:14.101911,43.06,16.257379,-0.012927522899907663,0.019513251341567978,1.014022554947817,0.3499627431454137,-1.1287272635858505,-1.3649578715130686
2024-09-23 04:07:14.144347,43.06,16.257379,-0.012927522899907663,0.019513251341567978,1.0136566395424191,0.3193667930966243,-1.0937195433642715,-1.3649578715130686
2024-09-23 04:07:14.155740,43.06,16.25743,-0.0173180429578192,0.019513251341567978,1.0136566395424191,0.3193667930966243,-1.0937195433642715,-1.2905878637518733
2024-09-23 04:07:14.198547,43.06,16.257517,-0.0173180429578192,0.019574312684975875,1.0094490984528801,0.26247207069927825,-1.1943309338562191,-1.3562488435987383
2024-09-23 04:07:14.242290,43.06,16.257517,-0.012500713238536278,0.019025483627202678,1.0133517748475924,0.26247207069927825,-1.1943309338562191,-1.3562488435987383
2024-09-23 04:07:14.253685,43.06,16.257517,-0.012500713238536278,0.019025483627202678,1.0133517748475924,0.3499627431454137,-1.1374934943549335,-1.3343619214642792
2024-09-23 04:07:14.296600,43.06,16.257568,-0.013293374508285133,0.01853761414140007,1.0133517748475924,0.3499627431454137,-1.1374934943549335,-1.3343619214642792
2024-09-23 04:07:14.339812,43.06,16.257568,-0.013293374508285133,0.01853761414140007,1.012620041251304,0.3849704900474288,-1.203097164625302,-1.3956111311383546
2024-09-23 04:07:14.351592,43.06,16.257619,-0.01341539238571027,0.01853761414140007,1.012620041251304,0.3849704900474288,-1.203097164625302,-1.3956111311383546
2024-09-23 04:07:14.384048,43.06,16.257619,-0.01341539238571027,0.02439164088528212,1.012620041251304,0.3849704900474288,-1.203097164625302,-1.3956111311383546
2024-09-23 04:07:14.395283,43.06,16.25767,-0.01341539238571027,0.02439164088528212,1.0118883076550156,0.3411964856958948,-1.1374934943549335,-1.3911993609655648
2024-09-23 04:07:14.438677,43.06,16.25767,-0.011951885699739756,0.018598572194393984,1.0165836711420804,0.38061600277069957,-1.1374934943549335,-1.3911993609655648
2024-09-23 04:07:14.450229,43.06,16.25767,-0.011951885699739756,0.018598572194393984,1.0165836711420804,0.38061600277069957,-1.0018170740649104,-1.3780785628784449
2024-09-23 04:07:14.483252,43.06,16.25772,-0.011951885699739756,0.018598572194393984,1.0165836711420804,0.38061600277069957,-1.0018170740649104,-1.3780785628784449
2024-09-23 04:07:14.495056,43.06,16.25772,-0.010183486217874026,0.01695219134944173,1.0117664006628877,0.3324875378228724,-1.0412365644592791,-1.3780785628784449
2024-09-23 04:07:14.537992,43.06,16.257771,-0.012317737308117227,0.017561976941232165,1.011034569852092,0.3324875378228724,-1.0412365644592791,-1.3956111311383546
2024-09-23 04:07:14.549326,43.06,16.257771,-0.012317737308117227,0.017561976941232165,1.011034569852092,0.3630834878716618,-1.0412365644592791,-1.3956111311383546
2024-09-23 04:07:14.581706,43.06,16.257771,-0.012317737308117227,0.017561976941232165,1.011034569852092,0.3630834878716618,-1.1024857741333545,-1.413086283100024
2024-09-23 04:07:14.593426,43.06,16.25786,-0.013720285941093825,0.019940162774376668,1.0137175930384832,0.3630834878716618,-1.1024857741333545,-1.413086283100024
2024-09-23 04:07:14.635546,43.06,16.25791,-0.01256167205101853,0.019940162774376668,1.0137175930384832,0.37184974532118065,-1.0455910250555724,-1.4568603408124299
2024-09-23 04:07:14.647425,43.06,16.25791,-0.01256167205101853,0.018781549643789714,1.0137175930384832,0.37184974532118065,-1.0455910250555724,-1.4568603408124299
2024-09-23 04:07:14.679455,43.06,16.25791,-0.01256167205101853,0.018781549643789714,1.0136566395424191,0.3411964856958948,-1.0455910250555724,-1.4568603408124299
2024-09-23 04:07:14.691289,43.06,16.257961,-0.010854230622146716,0.018781549643789714,1.0136566395424191,0.3411964856958948,-1.0105833048339934,-1.4218526205908506
2024-09-23 04:07:14.733718,43.05,16.258053,-0.010854230622146716,0.01975718684395762,1.0117053499523165,0.39373674749694765,-1.0587118231426924,-1.3824903330512346
2024-09-23 04:07:14.776221,43.05,16.258053,-0.01433007153288426,0.0173180429578192,1.0117053499523165,0.39373674749694765,-1.0587118231426924,-1.3824903330512346
2024-09-23 04:07:14.787741,43.05,16.258053,-0.01433007153288426,0.0173180429578192,1.0112784810508548,0.3849704900474288,-1.1506142924420535,-1.3387163820605725
2024-09-23 04:07:14.830594,43.05,16.258105,-0.017439959063807027,0.021098777423940302,1.0160958487445546,0.37620423259790986,-1.1506142924420535,-1.3387163820605725
2024-09-23 04:07:14.842347,43.05,16.258105,-0.017439959063807027,0.021098777423940302,1.0160958487445546,0.37620423259790986,-1.1987427040290088,-1.3387163820605725
2024-09-23 04:07:14.874517,43.05,16.258155,-0.017439959063807027,0.021098777423940302,1.0160958487445546,0.37620423259790986,-1.1987427040290088,-1.4655692620050162
2024-09-23 04:07:14.886336,43.05,16.258155,-0.011951885699739756,0.01890346574977754,1.013778546534547,0.3411964856958948,-1.1987427040290088,-1.4655692620050162
2024-09-23 04:07:14.928336,43.05,16.258206,-0.01256167205101853,0.021037716080532405,1.013778546534547,0.3411964856958948,-1.1549687530383468,-1.474335492774099
2024-09-23 04:07:14.940591,43.05,16.258206,-0.01256167205101853,0.021037716080532405,1.017254451242305,0.3411964856958948,-1.1549687530383468,-1.474335492774099
2024-09-23 04:07:14.973611,43.05,16.258206,-0.01256167205101853,0.021037716080532405,1.017254451242305,0.3193667930966243,-1.1068402347296475,-1.4568603408124299
2024-09-23 04:07:14.985121,43.05,16.258257,-0.01396421992450679,0.020549948366167105,1.017254451242305,0.3193667930966243,-1.1068402347296475,-1.4568603408124299
2024-09-23 04:07:15.028738,43.05,16.258307,-0.013476350438704184,0.020549948366167105,1.0120712653577144,0.35872900059493257,-1.1068402347296475,-1.509343212995678
2024-09-23 04:07:15.071076,43.05,16.258307,-0.013476350438704184,0.02201345505213762,1.0091442337580534,0.3062460483703762,-1.1068402347296475,-1.509343212995678
2024-09-23 04:07:15.083281,43.05,16.258395,-0.013476350438704184,0.02201345505213762,1.0091442337580534,0.3062460483703762,-1.0587118231426924,-1.4087318225037306
2024-09-23 04:07:15.115227,43.05,16.258395,-0.011524974266931064,0.02201345505213762,1.0091442337580534,0.3062460483703762,-1.0587118231426924,-1.4087318225037306
2024-09-23 04:07:15.126601,43.05,16.258395,-0.011524974266931064,0.019513251341567978,1.0129859566567019,0.3193667930966243,-1.1243154934130608,-1.3911993609655648
2024-09-23 04:07:15.169416,43.05,16.258446,-0.01622038788022616,0.020793883868556746,1.0147542885441054,0.3193667930966243,-1.1243154934130608,-1.3911993609655648
2024-09-23 04:07:15.180767,43.05,16.258446,-0.01622038788022616,0.020793883868556746,1.0147542885441054,0.3543172304221429,-1.15932321363464,-1.3911993609655648
2024-09-23 04:07:15.215488,43.05,16.258446,-0.01622038788022616,0.020793883868556746,1.0147542885441054,0.3543172304221429,-1.15932321363464,-1.3343619214642792
2024-09-23 04:07:15.227363,43.05,16.258497,-0.013598266544692013,0.02225739055452726,1.0137175930384832,0.4374534422719851,-1.15932321363464,-1.3343619214642792
2024-09-23 04:07:15.270305,43.05,16.258547,-0.013354434332716355,0.020915799974544576,1.0137175930384832,0.4374534422719851,-1.0980740039605648,-1.2993542012427002
2024-09-23 04:07:15.313282,43.05,16.258547,-0.013354434332716355,0.020915799974544576,1.0135956860463553,0.3324875378228724,-1.0980740039605648,-1.2993542012427002
2024-09-23 04:07:15.325266,43.05,16.258598,-0.009634658679077505,0.020915799974544576,1.0135956860463553,0.3324875378228724,-1.1637349838074296,-1.4306188513599336
2024-09-23 04:07:15.369072,43.05,16.258649,-0.009634658679077505,0.02164760496273682,1.0083514494511938,0.37184974532118065,-1.1024857741333545,-1.448094003321603
