Ayaan's Suite
Timestamp,Sample Rate (Hz),Time,Ax,Ay,Az,Gx,Gy,Gz
2024-09-23 14:56:17.041453,0,29.623245,-0.0031339382481259063,-0.023230986250042305,0.0966050877605131,24.06297849342227,-100.26678939585686,84.22370748782159
2024-09-23 14:56:17.094684,0,29.623245,-0.0028852147413806935,-0.022484804147609512,0.09710254654607277,32.08287849390507,-104.27510100388527,80.21211738781929
2024-09-23 14:56:17.136673,0,29.623337,-0.0030344509719951677,-0.02293251340906919,0.09710254654607277,32.08287849390507,-104.27510100388527,80.21211738781929
2024-09-23 14:56:17.148812,0,29.623337,-0.0030344509719951677,-0.02293251340906919,0.0973512698629459,32.08287849390507,-104.27510100388527,80.21211738781929
2024-09-23 14:56:17.191332,0,29.623389,-0.0036811340262279837,-0.02293251340906919,0.0973512698629459,36.09446859390736,-96.25519929585457,84.22370748782159
2024-09-23 14:56:17.234344,0,29.623389,-0.0036811340262279837,-0.02293251340906919,0.09745075675933246,48.12595698684454,-92.24360919585227,84.22370748782159
2024-09-23 14:56:17.245329,0,29.623439,-0.0031339382481259063,-0.02293251340906919,0.09745075675933246,48.12595698684454,-92.24360919585227,84.22370748782159
2024-09-23 14:56:17.288728,0,29.623533,-0.0031339382481259063,-0.02313149783467906,0.09720203344245934,36.09446859390736,-96.25519929585457,80.21211738781929
2024-09-23 14:56:17.330440,0,29.623533,-0.0031836870127375577,-0.022833026512682618,0.09720203344245934,36.09446859390736,-96.25519929585457,80.21211738781929
2024-09-23 14:56:17.342146,0,29.623533,-0.0031836870127375577,-0.022833026512682618,0.0973015264147526,28.07457030097246,-96.25519929585457,84.22370748782159
2024-09-23 14:56:17.384938,0,29.623632,-0.003482159473966507,-0.02367869399252531,0.09725178296655933,28.07457030097246,-96.25519929585457,84.22370748782159
2024-09-23 14:56:17.396748,0,29.623632,-0.003482159473966507,-0.02367869399252531,0.09725178296655933,28.07457030097246,-100.26678939585686,84.22370748782159
2024-09-23 14:56:17.428666,0,29.623728,-0.0032831742888682963,-0.02367869399252531,0.09725178296655933,28.07457030097246,-100.26678939585686,76.200527287817
2024-09-23 14:56:17.439608,0,29.623728,-0.0032831742888682963,-0.02263404056809607,0.09745075675933246,40.106058693909645,-100.26678939585686,76.200527287817
2024-09-23 14:56:17.482088,0,29.623779,-0.003482159473966507,-0.023330473146428877,0.09750050628343246,40.106058693909645,-100.26678939585686,76.200527287817
2024-09-23 14:56:17.525049,0,29.623779,-0.003482159473966507,-0.023330473146428877,0.09750050628343246,56.14914060194492,-96.25519929585457,76.200527287817
2024-09-23 14:56:17.536727,0,29.62383,-0.0030841997366068195,-0.023429960042815445,0.09750050628343246,56.14914060194492,-96.25519929585457,72.1922225099802
2024-09-23 14:56:17.579004,0,29.623881,-0.0030841997366068195,-0.023429960042815445,0.09680407370509965,36.09446859390736,-100.26678939585686,76.200527287817
2024-09-23 14:56:17.591098,0,29.623881,-0.0030841997366068195,-0.023429960042815445,0.09680407370509965,36.09446859390736,-100.26678939585686,76.200527287817
2024-09-23 14:56:17.622838,0,29.623881,-0.0030841997366068195,-0.023280723622328886,0.0970030596496862,36.09446859390736,-100.26678939585686,76.200527287817
2024-09-23 14:56:17.634090,0,29.623971,-0.0030841997366068195,-0.023280723622328886,0.0970030596496862,32.08287849390507,-96.25519929585457,80.21211738781929
2024-09-23 14:56:17.677260,0,29.623971,-0.003482159473966507,-0.02303200030545576,0.09670458680871308,20.05138839341998,-104.27510100388527,72.1922225099802
2024-09-23 14:56:17.719548,0,29.624022,-0.0030344509719951677,-0.02303200030545576,0.09670458680871308,20.05138839341998,-104.27510100388527,72.1922225099802
2024-09-23 14:56:17.731168,0,29.624022,-0.0030344509719951677,-0.023429960042815445,0.09750050628343246,28.07457030097246,-96.25519929585457,72.1922225099802
2024-09-23 14:56:17.774529,0,29.624073,-0.0035816467500972456,-0.023579196463302005,0.0970030596496862,28.07457030097246,-96.25519929585457,84.22370748782159
2024-09-23 14:56:17.787028,0,29.624073,-0.0035816467500972456,-0.023579196463302005,0.0970030596496862,40.106058693909645,-96.25519929585457,84.22370748782159
2024-09-23 14:56:17.819564,0,29.624124,-0.0035816467500972456,-0.023579196463302005,0.0970030596496862,40.106058693909645,-100.26678939585686,76.200527287817
2024-09-23 14:56:17.872360,0,29.624124,-0.0033329230534799477,-0.02263404056809607,0.09750050628343246,44.11764879391193,-100.26678939585686,76.200527287817
2024-09-23 14:56:17.914916,0,29.624174,-0.0035318979854855937,-0.02263404056809607,0.09750050628343246,44.11764879391193,-100.26678939585686,76.200527287817
2024-09-23 14:56:17.926617,0,29.624174,-0.0035318979854855937,-0.023181236725942318,0.09740101331113918,48.12595698684454,-96.25519929585457,76.200527287817
2024-09-23 14:56:17.969918,0,29.624225,-0.003482159473966507,-0.022833026512682618,0.09695331012558621,48.12595698684454,-96.25519929585457,76.200527287817
2024-09-23 14:56:17.981346,0,29.624225,-0.003482159473966507,-0.022833026512682618,0.09695331012558621,36.09446859390736,-96.25519929585457,76.200527287817
2024-09-23 14:56:18.013725,40.38,29.624225,-0.003482159473966507,-0.022833026512682618,0.09695331012558621,36.09446859390736,-104.27510100388527,80.21211738781929
2024-09-23 14:56:18.025463,40.38,29.624312,-0.0033329230534799477,-0.0228827638849692,0.09715228999426605,36.09446859390736,-104.27510100388527,80.21211738781929
2024-09-23 14:56:18.070985,40.38,29.624363,-0.0030841997366068195,-0.023579196463302005,0.09715228999426605,36.09446859390736,-100.26678939585686,76.200527287817
2024-09-23 14:56:18.113156,40.38,29.624363,-0.0030841997366068195,-0.023579196463302005,0.09755024973162574,20.05138839341998,-100.26678939585686,76.200527287817
2024-09-23 14:56:18.124362,40.38,29.624414,-0.003482159473966507,-0.023579196463302005,0.09755024973162574,20.05138839341998,-100.26678939585686,76.200527287817
2024-09-23 14:56:18.156682,40.38,29.624414,-0.003482159473966507,-0.023230986250042305,0.09755024973162574,20.05138839341998,-100.26678939585686,76.200527287817
2024-09-23 14:56:18.168957,40.38,29.624414,-0.003482159473966507,-0.023230986250042305,0.09740101331113918,20.05138839341998,-100.26678939585686,76.200527287817
2024-09-23 14:56:18.211080,40.38,29.624507,-0.003482159473966507,-0.023230986250042305,0.09740101331113918,44.11764879391193,-104.27510100388527,84.22370748782159
2024-09-23 14:56:18.222855,40.38,29.624507,-0.0035318979854855937,-0.02293251340906919,0.09740101331113918,44.11764879391193,-104.27510100388527,84.22370748782159
2024-09-23 14:56:18.256339,40.38,29.624507,-0.0035318979854855937,-0.02293251340906919,0.0973015264147526,44.11764879391193,-104.27510100388527,84.22370748782159
2024-09-23 14:56:18.267611,40.38,29.624559,-0.0032831742888682963,-0.02293251340906919,0.0973015264147526,44.11764879391193,-96.25519929585457,84.22370748782159
2024-09-23 14:56:18.310442,40.38,29.624559,-0.0032831742888682963,-0.02303200030545576,0.09695331012558621,44.11764879391193,-92.24360919585227,84.22370748782159
2024-09-23 14:56:18.322276,40.38,29.624609,-0.0032831742888682963,-0.02303200030545576,0.09695331012558621,44.11764879391193,-92.24360919585227,84.22370748782159
2024-09-23 14:56:18.354153,40.38,29.624609,-0.003482159473966507,-0.023280723622328886,0.09695331012558621,44.11764879391193,-92.24360919585227,84.22370748782159
2024-09-23 14:56:18.365120,40.38,29.624609,-0.003482159473966507,-0.023280723622328886,0.09725178296655933,48.12595698684454,-100.26678939585686,80.21211738781929
2024-09-23 14:56:18.407844,40.38,29.62466,-0.003233425524256645,-0.023330473146428877,0.0966050877605131,48.12595698684454,-100.26678939585686,80.21211738781929
2024-09-23 14:56:18.450667,40.38,29.62466,-0.003233425524256645,-0.023330473146428877,0.0966050877605131,24.06297849342227,-100.26678939585686,80.21211738781929
2024-09-23 14:56:18.461959,40.38,29.624752,-0.0028852147413806935,-0.023181236725942318,0.0966050877605131,24.06297849342227,-100.26678939585686,88.23529758782387
2024-09-23 14:56:18.505125,40.38,29.624803,-0.0028852147413806935,-0.023181236725942318,0.09759999317981902,28.07457030097246,-104.27510100388527,84.22370748782159
2024-09-23 14:56:18.517381,40.38,29.624803,-0.0035318979854855937,-0.023181236725942318,0.09759999317981902,28.07457030097246,-104.27510100388527,84.22370748782159
2024-09-23 14:56:18.551301,40.38,29.624803,-0.0035318979854855937,-0.02362894446842532,0.09774922960030558,36.09446859390736,-104.27510100388527,84.22370748782159
2024-09-23 14:56:18.562655,40.38,29.624854,-0.0035318979854855937,-0.02362894446842532,0.09774922960030558,36.09446859390736,-104.27510100388527,80.21211738781929
2024-09-23 14:56:18.604817,40.38,29.624854,-0.0033329230534799477,-0.023330473146428877,0.09685382322919964,40.106058693909645,-96.25519929585457,76.200527287817
2024-09-23 14:56:18.647479,40.38,29.624904,-0.0029349636958644295,-0.023330473146428877,0.09685382322919964,40.106058693909645,-96.25519929585457,76.200527287817
2024-09-23 14:56:18.658910,40.38,29.624904,-0.0029349636958644295,-0.023330473146428877,0.09675432418099966,44.11764879391193,-96.25519929585457,76.200527287817
2024-09-23 14:56:18.702763,40.38,29.624996,-0.0028354659767690416,-0.02313149783467906,0.0973015264147526,44.11764879391193,-96.25519929585457,84.22370748782159
2024-09-23 14:56:18.745610,40.38,29.625047,-0.0028354659767690416,-0.02313149783467906,0.0973015264147526,44.11764879391193,-96.25519929585457,80.21211738781929
2024-09-23 14:56:18.757292,40.38,29.625047,-0.0037308827908396356,-0.023479709566915436,0.09710254654607277,44.11764879391193,-96.25519929585457,80.21211738781929
2024-09-23 14:56:18.799935,40.38,29.625097,-0.0032831742888682963,-0.02308174982955575,0.09710254654607277,36.09446859390736,-100.26678939585686,80.21211738781929
2024-09-23 14:56:18.893654,40.38,29.625097,-0.0032831742888682963,-0.02308174982955575,0.09670458680871308,28.07457030097246,-92.24360919585227,88.23529758782387
2024-09-23 14:56:18.905461,40.38,29.625148,-0.0029349636958644295,-0.02308174982955575,0.09670458680871308,28.07457030097246,-92.24360919585227,88.23529758782387
2024-09-23 14:56:18.938044,40.38,29.625148,-0.0029349636958644295,-0.02293251340906919,0.09670458680871308,28.07457030097246,-92.24360919585227,88.23529758782387
2024-09-23 14:56:18.949726,40.38,29.625238,-0.0029349636958644295,-0.02293251340906919,0.09715228999426605,28.07457030097246,-100.26678939585686,80.21211738781929
2024-09-23 14:56:18.991766,40.38,29.625238,-0.0036811340262279837,-0.023280723622328886,0.09690356060148622,28.07457030097246,-100.26678939585686,80.21211738781929
2024-09-23 14:56:19.003412,40.38,29.625238,-0.0036811340262279837,-0.023280723622328886,0.09690356060148622,28.07457030097246,-100.26678939585686,80.21211738781929
2024-09-23 14:56:19.035765,41.72,29.62529,-0.0028852147413806935,-0.023280723622328886,0.09690356060148622,28.07457030097246,-100.26678939585686,80.21211738781929
2024-09-23 14:56:19.047736,41.72,29.62529,-0.0028852147413806935,-0.022733528983459317,0.0966050877605131,48.12595698684454,-100.26678939585686,80.21211738781929
2024-09-23 14:56:19.090178,41.72,29.625341,-0.003482159473966507,-0.023280723622328886,0.09690356060148622,48.12595698684454,-100.26678939585686,76.200527287817
2024-09-23 14:56:19.102455,41.72,29.625341,-0.003482159473966507,-0.023280723622328886,0.09690356060148622,32.08287849390507,-100.26678939585686,76.200527287817
2024-09-23 14:56:19.134213,41.72,29.625341,-0.003482159473966507,-0.023280723622328886,0.09690356060148622,32.08287849390507,-100.26678939585686,84.22370748782159
2024-09-23 14:56:19.146224,41.72,29.625435,-0.0030841997366068195,-0.023429960042815445,0.09685382322919964,32.08287849390507,-100.26678939585686,84.22370748782159
2024-09-23 14:56:19.189643,41.72,29.625486,-0.004029355252068585,-0.02313149783467906,0.09685382322919964,28.07457030097246,-100.26678939585686,84.22370748782159
2024-09-23 14:56:19.283632,41.72,29.625486,-0.004029355252068585,-0.02313149783467906,0.09695331012558621,32.08287849390507,-104.27510100388527,80.21211738781929
2024-09-23 14:56:19.295475,41.72,29.625536,-0.003631395514708897,-0.02313149783467906,0.09695331012558621,32.08287849390507,-104.27510100388527,80.21211738781929
2024-09-23 14:56:19.329044,41.72,29.625536,-0.003631395514708897,-0.02367869399252531,0.0973512698629459,32.08287849390507,-104.27510100388527,80.21211738781929
2024-09-23 14:56:19.340891,41.72,29.625628,-0.003631395514708897,-0.02367869399252531,0.0973512698629459,28.07457030097246,-100.26678939585686,88.23529758782387
2024-09-23 14:56:19.383711,41.72,29.625628,-0.0034324103296106863,-0.023827930413011865,0.09759999317981902,36.09446859390736,-104.27510100388527,88.23529758782387
2024-09-23 14:56:19.395390,41.72,29.625628,-0.0034324103296106863,-0.023827930413011865,0.09759999317981902,36.09446859390736,-104.27510100388527,80.21211738781929
2024-09-23 14:56:19.427757,41.72,29.62568,-0.0031339382481259063,-0.02308174982955575,0.09759999317981902,36.09446859390736,-104.27510100388527,80.21211738781929
2024-09-23 14:56:19.438847,41.72,29.62568,-0.0031339382481259063,-0.02308174982955575,0.09750050628343246,52.137550501942634,-96.25519929585457,80.21211738781929
2024-09-23 14:56:19.481927,41.72,29.625731,-0.004029355252068585,-0.02338022115155219,0.09715228999426605,36.09446859390736,-96.25519929585457,76.200527287817
2024-09-23 14:56:19.524541,41.72,29.625731,-0.004029355252068585,-0.02338022115155219,0.09715228999426605,36.09446859390736,-96.25519929585457,76.200527287817
2024-09-23 14:56:19.536213,41.72,29.625825,-0.0037308827908396356,-0.02293251340906919,0.09665483728461309,36.09446859390736,-96.25519929585457,76.200527287817
2024-09-23 14:56:19.580249,41.72,29.625825,-0.0037308827908396356,-0.02293251340906919,0.09665483728461309,32.08287849390507,-96.25519929585457,76.200527287817
2024-09-23 14:56:19.622575,41.72,29.625825,-0.0037308827908396356,-0.02293251340906919,0.09665483728461309,32.08287849390507,-92.24360919585227,84.22370748782159
2024-09-23 14:56:19.633855,41.72,29.625876,-0.0029349636958644295,-0.023181236725942318,0.09740101331113918,32.08287849390507,-92.24360919585227,84.22370748782159
2024-09-23 14:56:19.677637,41.72,29.625927,-0.0028852147413806935,-0.023181236725942318,0.09740101331113918,32.08287849390507,-96.25519929585457,84.22370748782159
2024-09-23 14:56:19.689389,41.72,29.625927,-0.0028852147413806935,-0.023330473146428877,0.09740101331113918,32.08287849390507,-96.25519929585457,84.22370748782159
2024-09-23 14:56:19.722753,41.72,29.625927,-0.0028852147413806935,-0.023330473146428877,0.0973015264147526,28.07457030097246,-96.25519929585457,84.22370748782159
2024-09-23 14:56:19.734579,41.72,29.626018,-0.002636491424507565,-0.023330473146428877,0.0973015264147526,28.07457030097246,-96.25519929585457,80.21211738781929
2024-09-23 14:56:19.767994,41.72,29.626018,-0.002636491424507565,-0.02352945757203875,0.09675432418099966,28.07457030097246,-96.25519929585457,80.21211738781929
2024-09-23 14:56:19.779603,41.72,29.62607,-0.002636491424507565,-0.02352945757203875,0.09675432418099966,36.09446859390736,-104.27510100388527,80.21211738781929
2024-09-23 14:56:19.822955,41.72,29.62607,-0.0038801188315820256,-0.023429960042815445,0.09755024973162574,48.12595698684454,-96.25519929585457,80.21211738781929
2024-09-23 14:56:19.834396,41.72,29.62607,-0.0038801188315820256,-0.023429960042815445,0.09755024973162574,48.12595698684454,-96.25519929585457,80.21211738781929
2024-09-23 14:56:19.917712,41.72,29.626165,-0.0029847020175114316,-0.02338022115155219,0.09759999317981902,48.12595698684454,-96.25519929585457,80.21211738781929
2024-09-23 14:56:19.929696,41.72,29.626165,-0.0029847020175114316,-0.02338022115155219,0.09759999317981902,44.11764879391193,-100.26678939585686,80.21211738781929
2024-09-23 14:56:19.962466,41.72,29.626217,-0.0029847020175114316,-0.02338022115155219,0.09759999317981902,44.11764879391193,-100.26678939585686,80.21211738781929
2024-09-23 14:56:19.974241,41.72,29.626217,-0.0034324103296106863,-0.02338022115155219,0.09759999317981902,44.11764879391193,-100.26678939585686,80.21211738781929
2024-09-23 14:56:20.016546,41.72,29.626217,-0.0034324103296106863,-0.023429960042815445,0.09720203344245934,24.06297849342227,-96.25519929585457,76.200527287817
2024-09-23 14:56:20.029186,41.72,29.626267,-0.0034324103296106863,-0.023429960042815445,0.09720203344245934,24.06297849342227,-96.25519929585457,76.200527287817
2024-09-23 14:56:20.062115,41.78,29.626267,-0.0035318979854855937,-0.02313149783467906,0.09690356060148622,24.06297849342227,-96.25519929585457,76.200527287817
2024-09-23 14:56:20.073665,41.78,29.626267,-0.0035318979854855937,-0.02313149783467906,0.09690356060148622,24.06297849342227,-88.23529758782387,80.21211738781929
2024-09-23 14:56:20.157395,41.78,29.626318,-0.0029847020175114316,-0.02313149783467906,0.09690356060148622,24.06297849342227,-88.23529758782387,80.21211738781929
2024-09-23 14:56:20.168974,41.78,29.626318,-0.0029847020175114316,-0.023230986250042305,0.0970030596496862,36.09446859390736,-96.25519929585457,80.21211738781929
2024-09-23 14:56:20.211947,41.78,29.626369,-0.0033329230534799477,-0.023230986250042305,0.0970030596496862,36.09446859390736,-96.25519929585457,80.21211738781929
2024-09-23 14:56:20.305391,41.78,29.626369,-0.0033329230534799477,-0.023479709566915436,0.09710254654607277,56.14914060194492,-96.25519929585457,80.21211738781929
2024-09-23 14:56:20.317297,41.78,29.626506,-0.0033329230534799477,-0.023479709566915436,0.09710254654607277,56.14914060194492,-96.25519929585457,80.21211738781929
2024-09-23 14:56:20.400513,41.78,29.626506,-0.0031339382481259063,-0.023479709566915436,0.09710254654607277,56.14914060194492,-96.25519929585457,80.21211738781929
2024-09-23 14:56:20.411754,41.78,29.626506,-0.0031339382481259063,-0.023877669304275123,0.09710254654607277,56.14914060194492,-96.25519929585457,80.21211738781929
2024-09-23 14:56:20.455407,41.78,29.626557,-0.0027359787006383035,-0.02308174982955575,0.09750050628343246,28.07457030097246,-96.25519929585457,80.21211738781929
2024-09-23 14:56:20.467475,41.78,29.626557,-0.0027359787006383035,-0.02308174982955575,0.09750050628343246,28.07457030097246,-104.27510100388527,80.21211738781929
2024-09-23 14:56:20.499801,41.78,29.626557,-0.0027359787006383035,-0.02308174982955575,0.09750050628343246,28.07457030097246,-104.27510100388527,84.22370748782159
2024-09-23 14:56:20.552448,41.78,29.626608,-0.0033329230534799477,-0.02362894446842532,0.09794820946898543,28.07457030097246,-104.27510100388527,84.22370748782159
2024-09-23 14:56:20.564296,41.78,29.626608,-0.0033329230534799477,-0.02362894446842532,0.09794820946898543,28.07457030097246,-104.27510100388527,84.22370748782159
2024-09-23 14:56:20.597013,41.78,29.62675,-0.0033329230534799477,-0.02362894446842532,0.09794820946898543,28.07457030097246,-104.27510100388527,76.200527287817
2024-09-23 14:56:20.608687,41.78,29.62675,-0.0031339382481259063,-0.023181236725942318,0.09745075675933246,48.12595698684454,-104.27510100388527,76.200527287817
2024-09-23 14:56:20.651244,41.78,29.62685,-0.0029349636958644295,-0.023181236725942318,0.09745075675933246,48.12595698684454,-96.25519929585457,76.200527287817
2024-09-23 14:56:20.693862,41.78,29.62685,-0.0029349636958644295,-0.023330473146428877,0.0970030596496862,48.12595698684454,-96.25519929585457,76.200527287817
2024-09-23 14:56:20.705936,41.78,29.626947,-0.0029349636958644295,-0.023330473146428877,0.0970030596496862,44.11764879391193,-100.26678939585686,80.21211738781929
2024-09-23 14:56:20.749697,41.78,29.626947,-0.0036811340262279837,-0.023181236725942318,0.09715228999426605,28.07457030097246,-96.25519929585457,84.22370748782159
2024-09-23 14:56:20.791644,41.78,29.627043,-0.0037308827908396356,-0.023181236725942318,0.09715228999426605,28.07457030097246,-96.25519929585457,84.22370748782159
2024-09-23 14:56:20.802791,41.78,29.627043,-0.0037308827908396356,-0.02313149783467906,0.0973015264147526,36.09446859390736,-96.25519929585457,84.22370748782159
2024-09-23 14:56:20.847279,41.78,29.62714,-0.003631395514708897,-0.023230986250042305,0.09715228999426605,40.106058693909645,-96.25519929585457,76.200527287817
2024-09-23 14:56:20.890928,41.78,29.627191,-0.003631395514708897,-0.023230986250042305,0.09715228999426605,40.106058693909645,-100.26678939585686,76.200527287817
2024-09-23 14:56:20.902260,41.78,29.627191,-0.0032831742888682963,-0.022982261414192504,0.09755024973162574,40.106058693909645,-100.26678939585686,76.200527287817
2024-09-23 14:56:20.945179,41.78,29.627242,-0.0028354659767690416,-0.02308174982955575,0.09755024973162574,60.15744537978172,-96.25519929585457,80.21211738781929
2024-09-23 14:56:20.988996,41.78,29.627242,-0.0028354659767690416,-0.02308174982955575,0.09715228999426605,56.14914060194492,-100.26678939585686,76.200527287817
2024-09-23 14:56:21.000657,41.78,29.627292,-0.0035318979854855937,-0.02308174982955575,0.09715228999426605,56.14914060194492,-100.26678939585686,76.200527287817
2024-09-23 14:56:21.043413,41.78,29.627383,-0.0035318979854855937,-0.02303200030545576,0.09710254654607277,28.07457030097246,-92.24360919585227,80.21211738781929
2024-09-23 14:56:21.085931,40.12,29.627383,-0.0031339382481259063,-0.022982261414192504,0.09710254654607277,28.07457030097246,-92.24360919585227,80.21211738781929
2024-09-23 14:56:21.097977,40.12,29.627383,-0.0031339382481259063,-0.022982261414192504,0.09720203344245934,32.08287849390507,-100.26678939585686,80.21211738781929
2024-09-23 14:56:21.131630,40.12,29.627435,-0.0031339382481259063,-0.022982261414192504,0.09720203344245934,32.08287849390507,-100.26678939585686,80.21211738781929
2024-09-23 14:56:21.143026,40.12,29.627435,-0.0031339382481259063,-0.023579196463302005,0.09710254654607277,28.07457030097246,-104.27510100388527,80.21211738781929
2024-09-23 14:56:21.185677,40.12,29.627486,-0.0035318979854855937,-0.023330473146428877,0.09690356060148622,28.07457030097246,-104.27510100388527,84.22370748782159
2024-09-23 14:56:21.197704,40.12,29.627486,-0.0035318979854855937,-0.023330473146428877,0.09690356060148622,36.09446859390736,-104.27510100388527,84.22370748782159
2024-09-23 14:56:21.230211,40.12,29.627486,-0.0035318979854855937,-0.023330473146428877,0.09690356060148622,36.09446859390736,-88.23529758782387,80.21211738781929
2024-09-23 14:56:21.241595,40.12,29.627536,-0.0030841997366068195,-0.02293251340906919,0.09750050628343246,36.09446859390736,-88.23529758782387,80.21211738781929
2024-09-23 14:56:21.335685,40.12,29.627587,-0.0035816467500972456,-0.023230986250042305,0.09750050628343246,40.106058693909645,-100.26678939585686,80.21211738781929
2024-09-23 14:56:21.378599,40.12,29.627587,-0.0035816467500972456,-0.023230986250042305,0.09690356060148622,44.11764879391193,-92.24360919585227,80.21211738781929
2024-09-23 14:56:21.389768,40.12,29.627638,-0.003631395514708897,-0.023230986250042305,0.09690356060148622,44.11764879391193,-92.24360919585227,80.21211738781929
2024-09-23 14:56:21.432111,40.12,29.627725,-0.003631395514708897,-0.022833026512682618,0.09710254654607277,36.09446859390736,-100.26678939585686,80.21211738781929
2024-09-23 14:56:21.475046,40.12,29.627725,-0.0033329230534799477,-0.02268379009219606,0.09680407370509965,36.09446859390736,-100.26678939585686,80.21211738781929
2024-09-23 14:56:21.486553,40.12,29.627725,-0.0033329230534799477,-0.02268379009219606,0.09680407370509965,32.08287849390507,-100.26678939585686,84.22370748782159
2024-09-23 14:56:21.529621,40.12,29.627777,-0.0032831742888682963,-0.023579196463302005,0.09710254654607277,28.07457030097246,-96.25519929585457,84.22370748782159
2024-09-23 14:56:21.572613,40.12,29.627872,-0.0035816467500972456,-0.023579196463302005,0.09710254654607277,28.07457030097246,-96.25519929585457,76.200527287817
2024-09-23 14:56:21.584447,40.12,29.627872,-0.0035816467500972456,-0.023877669304275123,0.09774922960030558,40.106058693909645,-96.25519929585457,76.200527287817
2024-09-23 14:56:21.627199,40.12,29.627923,-0.0028354659767690416,-0.02303200030545576,0.09784872257259886,40.106058693909645,-92.24360919585227,72.1922225099802
2024-09-23 14:56:21.669102,40.12,29.627923,-0.0028354659767690416,-0.02303200030545576,0.09784872257259886,48.12595698684454,-96.25519929585457,72.1922225099802
2024-09-23 14:56:21.681188,40.12,29.627974,-0.003233425524256645,-0.023330473146428877,0.09784872257259886,48.12595698684454,-96.25519929585457,76.200527287817
2024-09-23 14:56:21.724716,40.12,29.628024,-0.0035816467500972456,-0.023330473146428877,0.0973512698629459,44.11764879391193,-100.26678939585686,76.200527287817
2024-09-23 14:56:21.768123,40.12,29.628024,-0.0035816467500972456,-0.023181236725942318,0.09720203344245934,44.11764879391193,-100.26678939585686,76.200527287817
2024-09-23 14:56:21.778882,40.12,29.628115,-0.0035816467500972456,-0.023181236725942318,0.09720203344245934,44.11764879391193,-100.26678939585686,80.21211738781929
2024-09-23 14:56:21.821174,40.12,29.628115,-0.0035318979854855937,-0.02313149783467906,0.0970030596496862,28.07457030097246,-100.26678939585686,76.200527287817
2024-09-23 14:56:21.864035,40.12,29.628166,-0.0035318979854855937,-0.02313149783467906,0.0970030596496862,28.07457030097246,-100.26678939585686,76.200527287817
2024-09-23 14:56:21.878015,40.12,29.628166,-0.003233425524256645,-0.02293251340906919,0.09740101331113918,20.05138839341998,-96.25519929585457,76.200527287817
2024-09-23 14:56:21.910436,40.12,29.628166,-0.003233425524256645,-0.02293251340906919,0.09740101331113918,20.05138839341998,-96.25519929585457,80.21211738781929
2024-09-23 14:56:21.964108,40.12,29.628217,-0.0031339382481259063,-0.02338022115155219,0.09740101331113918,20.05138839341998,-96.25519929585457,80.21211738781929
2024-09-23 14:56:21.975302,40.12,29.628217,-0.0031339382481259063,-0.02338022115155219,0.09680407370509965,28.07457030097246,-96.25519929585457,80.21211738781929
2024-09-23 14:56:22.008016,40.12,29.628217,-0.0031339382481259063,-0.02338022115155219,0.09680407370509965,28.07457030097246,-96.25519929585457,80.21211738781929
2024-09-23 14:56:22.060816,40.12,29.628268,-0.0035318979854855937,-0.023728432883788564,0.09680407370509965,28.07457030097246,-96.25519929585457,80.21211738781929
2024-09-23 14:56:22.072418,40.12,29.628268,-0.0035318979854855937,-0.023728432883788564,0.09759999317981902,40.106058693909645,-100.26678939585686,80.21211738781929
2024-09-23 14:56:22.115665,39.87,29.628318,-0.0032831742888682963,-0.02362894446842532,0.09759999317981902,40.106058693909645,-100.26678939585686,76.200527287817
2024-09-23 14:56:22.129663,39.87,29.628318,-0.0032831742888682963,-0.02362894446842532,0.09715228999426605,36.09446859390736,-100.26678939585686,76.200527287817
2024-09-23 14:56:22.213433,39.87,29.628369,-0.0030841997366068195,-0.023579196463302005,0.09715228999426605,36.09446859390736,-100.26678939585686,76.200527287817
2024-09-23 14:56:22.256597,39.87,29.628456,-0.0030841997366068195,-0.023579196463302005,0.09715228999426605,48.12595698684454,-92.24360919585227,84.22370748782159
2024-09-23 14:56:22.268675,39.87,29.628456,-0.002636491424507565,-0.02293251340906919,0.09715228999426605,48.12595698684454,-92.24360919585227,84.22370748782159
2024-09-23 14:56:22.352095,39.87,29.628456,-0.002636491424507565,-0.02293251340906919,0.0966050877605131,24.06297849342227,-92.24360919585227,84.22370748782159
2024-09-23 14:56:22.363583,39.87,29.628553,-0.0036811340262279837,-0.02293251340906919,0.0966050877605131,24.06297849342227,-100.26678939585686,84.22370748782159
2024-09-23 14:56:22.448515,39.87,29.628553,-0.0036811340262279837,-0.023181236725942318,0.09665483728461309,24.06297849342227,-100.26678939585686,84.22370748782159
2024-09-23 14:56:22.500931,39.87,29.628651,-0.0036811340262279837,-0.023181236725942318,0.09665483728461309,32.08287849390507,-96.25519929585457,84.22370748782159
2024-09-23 14:56:22.512850,39.87,29.628651,-0.0036811340262279837,-0.02352945757203875,0.09665483728461309,32.08287849390507,-96.25519929585457,84.22370748782159
2024-09-23 14:56:22.545650,39.87,29.628651,-0.0036811340262279837,-0.02352945757203875,0.09755024973162574,32.08287849390507,-96.25519929585457,84.22370748782159
2024-09-23 14:56:22.556623,39.87,29.628749,-0.0035318979854855937,-0.02352945757203875,0.09755024973162574,48.12595698684454,-100.26678939585686,80.21211738781929
2024-09-23 14:56:22.599575,39.87,29.628749,-0.0035318979854855937,-0.02362894446842532,0.09690356060148622,48.12595698684454,-92.24360919585227,76.200527287817
2024-09-23 14:56:22.611285,39.87,29.6288,-0.0035318979854855937,-0.02362894446842532,0.09690356060148622,48.12595698684454,-92.24360919585227,76.200527287817
2024-09-23 14:56:22.644383,39.87,29.6288,-0.003482159473966507,-0.02313149783467906,0.09690356060148622,48.12595698684454,-92.24360919585227,76.200527287817
2024-09-23 14:56:22.655947,39.87,29.6288,-0.003482159473966507,-0.02313149783467906,0.09675432418099966,32.08287849390507,-100.26678939585686,76.200527287817
2024-09-23 14:56:22.739557,39.87,29.628896,-0.003482159473966507,-0.02313149783467906,0.09675432418099966,32.08287849390507,-100.26678939585686,76.200527287817
2024-09-23 14:56:22.751460,39.87,29.628896,-0.0029349636958644295,-0.023479709566915436,0.09705279702197278,40.106058693909645,-92.24360919585227,76.200527287817
2024-09-23 14:56:22.795176,39.87,29.629042,-0.0028354659767690416,-0.023330473146428877,0.09759999317981902,40.106058693909645,-92.24360919585227,84.22370748782159
2024-09-23 14:56:22.807420,39.87,29.629042,-0.0028354659767690416,-0.023330473146428877,0.09759999317981902,40.106058693909645,-92.24360919585227,84.22370748782159
2024-09-23 14:56:22.839703,39.87,29.629042,-0.0028354659767690416,-0.023330473146428877,0.09759999317981902,40.106058693909645,-96.25519929585457,80.21211738781929
2024-09-23 14:56:22.851289,39.87,29.629093,-0.003482159473966507,-0.023429960042815445,0.0973512698629459,40.106058693909645,-96.25519929585457,80.21211738781929
2024-09-23 14:56:22.894519,39.87,29.629144,-0.0032831742888682963,-0.02303200030545576,0.0973512698629459,40.106058693909645,-96.25519929585457,76.200527287817
2024-09-23 14:56:22.988328,39.87,29.629144,-0.0032831742888682963,-0.02303200030545576,0.09695331012558621,32.08287849390507,-100.26678939585686,80.21211738781929
2024-09-23 14:56:23.000208,39.87,29.629194,-0.0028852147413806935,-0.02303200030545576,0.09695331012558621,32.08287849390507,-100.26678939585686,80.21211738781929
2024-09-23 14:56:23.033027,39.87,29.629194,-0.0028852147413806935,-0.02293251340906919,0.09695331012558621,32.08287849390507,-100.26678939585686,80.21211738781929
2024-09-23 14:56:23.044546,39.87,29.629333,-0.0028852147413806935,-0.02293251340906919,0.09710254654607277,20.05138839341998,-96.25519929585457,84.22370748782159
2024-09-23 14:56:23.086506,39.87,29.629333,-0.003482159473966507,-0.02293251340906919,0.09710254654607277,20.05138839341998,-96.25519929585457,84.22370748782159
2024-09-23 14:56:23.139654,39.08,29.629385,-0.003482159473966507,-0.02313149783467906,0.09695331012558621,24.06297849342227,-108.28669110388756,80.21211738781929
2024-09-23 14:56:23.234030,39.08,29.629385,-0.0028354659767690416,-0.023827930413011865,0.09690356060148622,44.11764879391193,-96.25519929585457,80.21211738781929
2024-09-23 14:56:23.245941,39.08,29.629385,-0.0028354659767690416,-0.023827930413011865,0.09690356060148622,44.11764879391193,-96.25519929585457,80.21211738781929
2024-09-23 14:56:23.279630,39.08,29.629436,-0.003482159473966507,-0.023230986250042305,0.09690356060148622,44.11764879391193,-96.25519929585457,80.21211738781929
2024-09-23 14:56:23.291009,39.08,29.629436,-0.003482159473966507,-0.023230986250042305,0.09710254654607277,48.12595698684454,-96.25519929585457,80.21211738781929
2024-09-23 14:56:23.334327,39.08,29.629436,-0.003482159473966507,-0.023230986250042305,0.09710254654607277,48.12595698684454,-96.25519929585457,80.21211738781929
2024-09-23 14:56:23.377831,39.08,29.62953,-0.0028852147413806935,-0.023579196463302005,0.09710254654607277,48.12595698684454,-96.25519929585457,80.21211738781929
2024-09-23 14:56:23.390136,39.08,29.62953,-0.0028852147413806935,-0.023579196463302005,0.09655535038822652,44.11764879391193,-104.27510100388527,80.21211738781929
2024-09-23 14:56:23.423319,39.08,29.62953,-0.0028852147413806935,-0.023579196463302005,0.09655535038822652,44.11764879391193,-104.27510100388527,80.21211738781929
2024-09-23 14:56:23.434582,39.08,29.629581,-0.0028852147413806935,-0.02338022115155219,0.0973512698629459,32.08287849390507,-104.27510100388527,80.21211738781929
2024-09-23 14:56:23.477774,39.08,29.629677,-0.0036811340262279837,-0.0228827638849692,0.0973512698629459,32.08287849390507,-104.27510100388527,84.22370748782159
2024-09-23 14:56:23.489865,39.08,29.629677,-0.0036811340262279837,-0.0228827638849692,0.0973512698629459,32.08287849390507,-104.27510100388527,84.22370748782159
2024-09-23 14:56:23.523498,39.08,29.629677,-0.0036811340262279837,-0.0228827638849692,0.0973512698629459,32.08287849390507,-96.25519929585457,88.23529758782387
2024-09-23 14:56:23.535007,39.08,29.629775,-0.0031339382481259063,-0.023181236725942318,0.0973512698629459,32.08287849390507,-96.25519929585457,88.23529758782387
2024-09-23 14:56:23.577697,39.08,29.629775,-0.0031339382481259063,-0.023181236725942318,0.0973015264147526,52.137550501942634,-92.24360919585227,80.21211738781929
2024-09-23 14:56:23.620426,39.08,29.62987,-0.0032831742888682963,-0.02367869399252531,0.0973015264147526,52.137550501942634,-92.24360919585227,80.21211738781929
2024-09-23 14:56:23.632045,39.08,29.62987,-0.0032831742888682963,-0.02367869399252531,0.0973512698629459,52.137550501942634,-92.24360919585227,80.21211738781929
2024-09-23 14:56:23.674863,39.08,29.629967,-0.0033329230534799477,-0.0228827638849692,0.0973015264147526,44.11764879391193,-92.24360919585227,84.22370748782159
2024-09-23 14:56:23.718216,39.08,29.630019,-0.0033329230534799477,-0.0228827638849692,0.0973015264147526,44.11764879391193,-100.26678939585686,76.200527287817
2024-09-23 14:56:23.729789,39.08,29.630019,-0.0033329230534799477,-0.02352945757203875,0.09685382322919964,44.11764879391193,-100.26678939585686,76.200527287817
2024-09-23 14:56:23.773588,39.08,29.630069,-0.003631395514708897,-0.023330473146428877,0.09685382322919964,36.09446859390736,-100.26678939585686,80.21211738781929
2024-09-23 14:56:23.815363,39.08,29.630069,-0.003631395514708897,-0.023330473146428877,0.09645586349183995,28.07457030097246,-100.26678939585686,80.21211738781929
2024-09-23 14:56:23.909063,39.08,29.630069,-0.003631395514708897,-0.023330473146428877,0.09645586349183995,28.07457030097246,-100.26678939585686,92.24360919585227
2024-09-23 14:56:23.921064,39.08,29.63012,-0.003382661564999035,-0.02303200030545576,0.0973512698629459,36.09446859390736,-100.26678939585686,92.24360919585227
2024-09-23 14:56:24.015015,39.08,29.630211,-0.0031339382481259063,-0.022982261414192504,0.0973512698629459,36.09446859390736,-100.26678939585686,80.21211738781929
2024-09-23 14:56:24.027698,39.08,29.630211,-0.0031339382481259063,-0.022982261414192504,0.09764974270391902,36.09446859390736,-100.26678939585686,80.21211738781929
2024-09-23 14:56:24.059568,39.08,29.630211,-0.0031339382481259063,-0.022982261414192504,0.09764974270391902,40.106058693909645,-100.26678939585686,80.21211738781929
2024-09-23 14:56:24.071096,39.08,29.630263,-0.004079093383843503,-0.02303200030545576,0.09764974270391902,40.106058693909645,-100.26678939585686,80.21211738781929
2024-09-23 14:56:24.113358,39.08,29.630313,-0.0029349636958644295,-0.02303200030545576,0.09740101331113918,40.106058693909645,-100.26678939585686,80.21211738781929
2024-09-23 14:56:24.156759,38.7,29.630313,-0.0029349636958644295,-0.022982261414192504,0.09670458680871308,40.106058693909645,-100.26678939585686,80.21211738781929
2024-09-23 14:56:24.168610,38.7,29.630364,-0.0029349636958644295,-0.022982261414192504,0.09670458680871308,40.106058693909645,-96.25519929585457,80.21211738781929
2024-09-23 14:56:24.252403,38.7,29.630364,-0.0032831742888682963,-0.023280723622328886,0.09670458680871308,40.106058693909645,-96.25519929585457,80.21211738781929
2024-09-23 14:56:24.264324,38.7,29.630364,-0.0032831742888682963,-0.023280723622328886,0.09764974270391902,32.08287849390507,-96.25519929585457,76.200527287817
2024-09-23 14:56:24.308132,38.7,29.630553,-0.0027359787006383035,-0.023728432883788564,0.09720203344245934,40.106058693909645,-96.25519929585457,76.200527287817
2024-09-23 14:56:24.351027,38.7,29.630553,-0.0027359787006383035,-0.023728432883788564,0.09720203344245934,40.106058693909645,-96.25519929585457,76.200527287817
2024-09-23 14:56:24.403954,38.7,29.630604,-0.003233425524256645,-0.02367869399252531,0.09745075675933246,48.12595698684454,-96.25519929585457,76.200527287817
2024-09-23 14:56:24.416195,38.7,29.630604,-0.003233425524256645,-0.02367869399252531,0.09745075675933246,48.12595698684454,-96.25519929585457,76.200527287817
2024-09-23 14:56:24.448080,38.7,29.630655,-0.003233425524256645,-0.02367869399252531,0.09745075675933246,48.12595698684454,-96.25519929585457,92.24360919585227
2024-09-23 14:56:24.459274,38.7,29.630655,-0.0030841997366068195,-0.02352945757203875,0.09650560086412653,48.12595698684454,-96.25519929585457,92.24360919585227
2024-09-23 14:56:24.501449,38.7,29.630655,-0.0030841997366068195,-0.02352945757203875,0.09650560086412653,48.12595698684454,-100.26678939585686,92.24360919585227
2024-09-23 14:56:24.544724,38.7,29.630655,-0.0030841997366068195,-0.02352945757203875,0.09650560086412653,48.12595698684454,-100.26678939585686,76.200527287817
2024-09-23 14:56:24.556796,38.7,29.630705,-0.0036811340262279837,-0.02397715620066169,0.09725178296655933,32.08287849390507,-100.26678939585686,76.200527287817
2024-09-23 14:56:24.599226,38.7,29.630799,-0.003382661564999035,-0.022833026512682618,0.09725178296655933,32.08287849390507,-100.26678939585686,80.21211738781929
2024-09-23 14:56:24.611239,38.7,29.630799,-0.003382661564999035,-0.022833026512682618,0.09695331012558621,32.08287849390507,-100.26678939585686,80.21211738781929
2024-09-23 14:56:24.644179,38.7,29.630799,-0.003382661564999035,-0.022833026512682618,0.09695331012558621,28.07457030097246,-100.26678939585686,76.200527287817
2024-09-23 14:56:24.655877,38.7,29.630893,-0.0031339382481259063,-0.023280723622328886,0.09695331012558621,28.07457030097246,-100.26678939585686,76.200527287817
2024-09-23 14:56:24.699070,38.7,29.630893,-0.0031339382481259063,-0.023280723622328886,0.09685382322919964,32.08287849390507,-92.24360919585227,80.21211738781929
2024-09-23 14:56:24.741992,38.7,29.630991,-0.003382661564999035,-0.023330473146428877,0.09685382322919964,32.08287849390507,-92.24360919585227,80.21211738781929
2024-09-23 14:56:24.753708,38.7,29.630991,-0.003382661564999035,-0.023330473146428877,0.09690356060148622,56.14914060194492,-100.26678939585686,80.21211738781929
2024-09-23 14:56:24.797913,38.7,29.631042,-0.0033329230534799477,-0.02313149783467906,0.09750050628343246,40.106058693909645,-100.26678939585686,76.200527287817
2024-09-23 14:56:24.841108,38.7,29.631138,-0.0029349636958644295,-0.02313149783467906,0.09750050628343246,40.106058693909645,-96.25519929585457,80.21211738781929
2024-09-23 14:56:24.852160,38.7,29.631138,-0.0029349636958644295,-0.023579196463302005,0.09705279702197278,40.106058693909645,-96.25519929585457,80.21211738781929
2024-09-23 14:56:24.884010,38.7,29.631138,-0.0029349636958644295,-0.023579196463302005,0.09705279702197278,32.08287849390507,-96.25519929585457,80.21211738781929
2024-09-23 14:56:24.895512,38.7,29.631189,-0.0035816467500972456,-0.022833026512682618,0.09705279702197278,32.08287849390507,-92.24360919585227,84.22370748782159
2024-09-23 14:56:24.939440,38.7,29.631189,-0.0035816467500972456,-0.022833026512682618,0.0973015264147526,28.07457030097246,-100.26678939585686,80.21211738781929
2024-09-23 14:56:24.951495,38.7,29.63124,-0.0031339382481259063,-0.022833026512682618,0.0973015264147526,28.07457030097246,-100.26678939585686,80.21211738781929
2024-09-23 14:56:25.035369,38.7,29.63124,-0.0031339382481259063,-0.02367869399252531,0.09705279702197278,24.06297849342227,-100.26678939585686,80.21211738781929
2024-09-23 14:56:25.047005,38.7,29.631332,-0.0031339382481259063,-0.02367869399252531,0.09705279702197278,24.06297849342227,-100.26678939585686,84.22370748782159
2024-09-23 14:56:25.080237,38.7,29.631332,-0.0038303700669703737,-0.02367869399252531,0.09705279702197278,24.06297849342227,-100.26678939585686,84.22370748782159
2024-09-23 14:56:25.092101,38.7,29.631332,-0.0038303700669703737,-0.02338022115155219,0.09740101331113918,36.09446859390736,-104.27510100388527,80.21211738781929
2024-09-23 14:56:25.134681,38.7,29.631384,-0.002636491424507565,-0.02303200030545576,0.09740101331113918,36.09446859390736,-104.27510100388527,80.21211738781929
2024-09-23 14:56:25.176902,38.76,29.631384,-0.002636491424507565,-0.02303200030545576,0.09670458680871308,36.09446859390736,-104.27510100388527,80.21211738781929
2024-09-23 14:56:25.188554,38.76,29.631434,-0.0029349636958644295,-0.02303200030545576,0.09670458680871308,48.12595698684454,-96.25519929585457,76.200527287817
2024-09-23 14:56:25.282284,38.76,29.631434,-0.0029349636958644295,-0.02362894446842532,0.09670458680871308,48.12595698684454,-96.25519929585457,76.200527287817
2024-09-23 14:56:25.325314,38.76,29.631434,-0.0029349636958644295,-0.02362894446842532,0.0966050877605131,40.106058693909645,-96.25519929585457,76.200527287817
2024-09-23 14:56:25.336523,38.76,29.631485,-0.0038303700669703737,-0.02362894446842532,0.0966050877605131,40.106058693909645,-96.25519929585457,80.21211738781929
2024-09-23 14:56:25.379301,38.76,29.631485,-0.0038303700669703737,-0.02303200030545576,0.0973015264147526,36.09446859390736,-88.23529758782387,80.21211738781929
2024-09-23 14:56:25.421907,38.76,29.631485,-0.0038303700669703737,-0.02303200030545576,0.0973015264147526,36.09446859390736,-88.23529758782387,88.23529758782387
2024-09-23 14:56:25.433313,38.76,29.631578,-0.003233425524256645,-0.023181236725942318,0.09670458680871308,28.07457030097246,-88.23529758782387,88.23529758782387
2024-09-23 14:56:25.476851,38.76,29.631629,-0.0035318979854855937,-0.023280723622328886,0.09670458680871308,28.07457030097246,-92.24360919585227,80.21211738781929
2024-09-23 14:56:25.488716,38.76,29.631629,-0.0035318979854855937,-0.023280723622328886,0.09705279702197278,28.07457030097246,-92.24360919585227,80.21211738781929
2024-09-23 14:56:25.520793,38.76,29.631629,-0.0035318979854855937,-0.023280723622328886,0.09705279702197278,44.11764879391193,-100.26678939585686,80.21211738781929
2024-09-23 14:56:25.532295,38.76,29.631724,-0.003382661564999035,-0.022982261414192504,0.09705279702197278,44.11764879391193,-100.26678939585686,76.200527287817
2024-09-23 14:56:25.574925,38.76,29.63187,-0.0033329230534799477,-0.022982261414192504,0.0970030596496862,36.09446859390736,-96.25519929585457,88.23529758782387
2024-09-23 14:56:25.617433,38.76,29.63187,-0.0033329230534799477,-0.023429960042815445,0.0973015264147526,36.09446859390736,-96.25519929585457,88.23529758782387
2024-09-23 14:56:25.628574,38.76,29.631921,-0.0033329230534799477,-0.023429960042815445,0.0973015264147526,40.106058693909645,-96.25519929585457,80.21211738781929
2024-09-23 14:56:25.670796,38.76,29.631921,-0.004029355252068585,-0.023330473146428877,0.09745075675933246,32.08287849390507,-96.25519929585457,80.21211738781929
2024-09-23 14:56:25.683472,38.76,29.631921,-0.004029355252068585,-0.023330473146428877,0.09745075675933246,32.08287849390507,-96.25519929585457,80.21211738781929
2024-09-23 14:56:25.715397,38.76,29.632015,-0.0030841997366068195,-0.023330473146428877,0.09745075675933246,32.08287849390507,-96.25519929585457,80.21211738781929
2024-09-23 14:56:25.727300,38.76,29.632015,-0.0030841997366068195,-0.023330473146428877,0.09690356060148622,28.07457030097246,-100.26678939585686,80.21211738781929
2024-09-23 14:56:25.770236,38.76,29.632067,-0.0031339382481259063,-0.0228827638849692,0.09720203344245934,36.09446859390736,-100.26678939585686,84.22370748782159
2024-09-23 14:56:25.812276,38.76,29.632067,-0.0031339382481259063,-0.0228827638849692,0.09720203344245934,36.09446859390736,-96.25519929585457,84.22370748782159
2024-09-23 14:56:25.824051,38.76,29.632117,-0.0033329230534799477,-0.023479709566915436,0.09745075675933246,36.09446859390736,-96.25519929585457,84.22370748782159
2024-09-23 14:56:25.866228,38.76,29.632168,-0.0033329230534799477,-0.023479709566915436,0.09745075675933246,44.11764879391193,-92.24360919585227,80.21211738781929
2024-09-23 14:56:25.877800,38.76,29.632168,-0.0033329230534799477,-0.02308174982955575,0.09745075675933246,44.11764879391193,-92.24360919585227,80.21211738781929
2024-09-23 14:56:25.910200,38.76,29.632168,-0.0033329230534799477,-0.02308174982955575,0.09685382322919964,48.12595698684454,-92.24360919585227,80.21211738781929
2024-09-23 14:56:25.921263,38.76,29.632219,-0.0036811340262279837,-0.02308174982955575,0.09685382322919964,48.12595698684454,-92.24360919585227,84.22370748782159
2024-09-23 14:56:25.964623,38.76,29.632307,-0.0036811340262279837,-0.023479709566915436,0.09745075675933246,40.106058693909645,-92.24360919585227,80.21211738781929
2024-09-23 14:56:26.006711,38.76,29.632307,-0.003979606107712764,-0.023181236725942318,0.09745075675933246,40.106058693909645,-92.24360919585227,80.21211738781929
2024-09-23 14:56:26.059971,38.76,29.632307,-0.003979606107712764,-0.023181236725942318,0.09690356060148622,32.08287849390507,-100.26678939585686,80.21211738781929
2024-09-23 14:56:26.072960,38.76,29.632359,-0.003382661564999035,-0.023181236725942318,0.09690356060148622,32.08287849390507,-100.26678939585686,80.21211738781929
2024-09-23 14:56:26.105204,38.76,29.632359,-0.003382661564999035,-0.023230986250042305,0.09720203344245934,32.08287849390507,-100.26678939585686,80.21211738781929
2024-09-23 14:56:26.116441,38.76,29.632409,-0.003382661564999035,-0.023230986250042305,0.09720203344245934,24.06297849342227,-104.27510100388527,80.21211738781929
2024-09-23 14:56:26.158991,38.76,29.632409,-0.003382661564999035,-0.023330473146428877,0.09750050628343246,24.06297849342227,-100.26678939585686,80.21211738781929
2024-09-23 14:56:26.170931,38.76,29.632409,-0.003382661564999035,-0.023330473146428877,0.09750050628343246,24.06297849342227,-100.26678939585686,84.22370748782159
2024-09-23 14:56:26.203832,39.11,29.63246,-0.0030841997366068195,-0.02313149783467906,0.09750050628343246,24.06297849342227,-100.26678939585686,84.22370748782159
2024-09-23 14:56:26.214986,39.11,29.63246,-0.0030841997366068195,-0.02313149783467906,0.0973512698629459,44.11764879391193,-92.24360919585227,84.22370748782159
2024-09-23 14:56:26.257353,39.11,29.632511,-0.0032831742888682963,-0.022982261414192504,0.09705279702197278,48.12595698684454,-92.24360919585227,76.200527287817
2024-09-23 14:56:26.300481,39.11,29.632511,-0.0032831742888682963,-0.022982261414192504,0.09705279702197278,48.12595698684454,-100.26678939585686,80.21211738781929
2024-09-23 14:56:26.312690,39.11,29.632601,-0.0032831742888682963,-0.023479709566915436,0.09710254654607277,48.12595698684454,-100.26678939585686,80.21211738781929
2024-09-23 14:56:26.355876,39.11,29.632652,-0.0031339382481259063,-0.02268379009219606,0.09710254654607277,56.14914060194492,-100.26678939585686,80.21211738781929
2024-09-23 14:56:26.398444,39.11,29.632652,-0.0031339382481259063,-0.02268379009219606,0.09715228999426605,40.106058693909645,-100.26678939585686,80.21211738781929
2024-09-23 14:56:26.451122,39.11,29.632703,-0.002785727465249955,-0.02268379009219606,0.09715228999426605,40.106058693909645,-92.24360919585227,80.21211738781929
2024-09-23 14:56:26.463145,39.11,29.632703,-0.002785727465249955,-0.02397715620066169,0.09715228999426605,40.106058693909645,-92.24360919585227,80.21211738781929
2024-09-23 14:56:26.495925,39.11,29.632703,-0.002785727465249955,-0.02397715620066169,0.09715228999426605,16.039798293417693,-100.26678939585686,80.21211738781929
2024-09-23 14:56:26.507328,39.11,29.632795,-0.0031836870127375577,-0.022584292562972758,0.09715228999426605,16.039798293417693,-100.26678939585686,80.21211738781929
2024-09-23 14:56:26.550958,39.11,29.632846,-0.0030841997366068195,-0.022584292562972758,0.09720203344245934,16.039798293417693,-104.27510100388527,80.21211738781929
2024-09-23 14:56:26.593736,39.11,29.632846,-0.0030841997366068195,-0.022982261414192504,0.09799795899308542,16.039798293417693,-104.27510100388527,80.21211738781929
2024-09-23 14:56:26.646817,39.11,29.632897,-0.0030841997366068195,-0.022982261414192504,0.09799795899308542,44.11764879391193,-92.24360919585227,84.22370748782159
2024-09-23 14:56:26.658956,39.11,29.632897,-0.0031339382481259063,-0.023230986250042305,0.09799795899308542,44.11764879391193,-92.24360919585227,84.22370748782159
2024-09-23 14:56:26.692888,39.11,29.632897,-0.0031339382481259063,-0.023230986250042305,0.09705279702197278,44.11764879391193,-92.24360919585227,84.22370748782159
2024-09-23 14:56:26.704300,39.11,29.63299,-0.0037308827908396356,-0.023230986250042305,0.09705279702197278,44.11764879391193,-92.24360919585227,80.21211738781929
2024-09-23 14:56:26.736941,39.11,29.63299,-0.0037308827908396356,-0.023330473146428877,0.09705279702197278,44.11764879391193,-92.24360919585227,80.21211738781929
2024-09-23 14:56:26.748573,39.11,29.633042,-0.0037308827908396356,-0.023330473146428877,0.0973512698629459,44.11764879391193,-92.24360919585227,84.22370748782159
2024-09-23 14:56:26.791085,39.11,29.633042,-0.003233425524256645,-0.023230986250042305,0.09740101331113918,32.08287849390507,-92.24360919585227,84.22370748782159
2024-09-23 14:56:26.802923,39.11,29.633042,-0.003233425524256645,-0.023230986250042305,0.09740101331113918,32.08287849390507,-100.26678939585686,76.200527287817
2024-09-23 14:56:26.835772,39.11,29.633092,-0.0028852147413806935,-0.023230986250042305,0.09740101331113918,32.08287849390507,-100.26678939585686,76.200527287817
2024-09-23 14:56:26.847354,39.11,29.633092,-0.0028852147413806935,-0.02293251340906919,0.09705279702197278,24.06297849342227,-100.26678939585686,76.200527287817
2024-09-23 14:56:26.889404,39.11,29.633186,-0.003929857343101113,-0.023230986250042305,0.09690356060148622,24.06297849342227,-100.26678939585686,80.21211738781929
2024-09-23 14:56:26.901180,39.11,29.633186,-0.003929857343101113,-0.023230986250042305,0.09690356060148622,36.09446859390736,-100.26678939585686,80.21211738781929
2024-09-23 14:56:26.932773,39.11,29.633186,-0.003929857343101113,-0.023230986250042305,0.09690356060148622,36.09446859390736,-92.24360919585227,80.21211738781929
2024-09-23 14:56:26.944644,39.11,29.633237,-0.0038801188315820256,-0.022833026512682618,0.09705279702197278,36.09446859390736,-92.24360919585227,84.22370748782159
2024-09-23 14:56:26.988318,39.11,29.633288,-0.0032831742888682963,-0.023330473146428877,0.09705279702197278,40.106058693909645,-92.24360919585227,80.21211738781929
2024-09-23 14:56:27.082378,39.11,29.633288,-0.0032831742888682963,-0.023330473146428877,0.09794820946898543,40.106058693909645,-100.26678939585686,80.21211738781929
2024-09-23 14:56:27.094013,39.11,29.633338,-0.003233425524256645,-0.023330473146428877,0.09794820946898543,40.106058693909645,-100.26678939585686,80.21211738781929
2024-09-23 14:56:27.128120,39.11,29.633338,-0.003233425524256645,-0.02278327698858263,0.09794820946898543,40.106058693909645,-100.26678939585686,80.21211738781929
2024-09-23 14:56:27.139196,39.11,29.633428,-0.003233425524256645,-0.02278327698858263,0.09680407370509965,40.106058693909645,-100.26678939585686,80.21211738781929
2024-09-23 14:56:27.182128,39.11,29.633428,-0.002785727465249955,-0.02313149783467906,0.09745075675933246,40.106058693909645,-108.28669110388756,80.21211738781929
2024-09-23 14:56:27.194683,39.11,29.633428,-0.002785727465249955,-0.02313149783467906,0.09745075675933246,40.106058693909645,-108.28669110388756,76.200527287817
2024-09-23 14:56:27.229023,39.29,29.63348,-0.0033329230534799477,-0.02308174982955575,0.09745075675933246,40.106058693909645,-108.28669110388756,76.200527287817
2024-09-23 14:56:27.240627,39.29,29.63348,-0.0033329230534799477,-0.02308174982955575,0.09740101331113918,40.106058693909645,-108.28669110388756,76.200527287817
2024-09-23 14:56:27.283033,39.29,29.633531,-0.0032831742888682963,-0.02308174982955575,0.09740101331113918,28.07457030097246,-88.23529758782387,80.21211738781929
2024-09-23 14:56:27.294497,39.29,29.633531,-0.0032831742888682963,-0.023280723622328886,0.09740101331113918,28.07457030097246,-88.23529758782387,80.21211738781929
2024-09-23 14:56:27.325997,39.29,29.633531,-0.0032831742888682963,-0.023280723622328886,0.09705279702197278,32.08287849390507,-100.26678939585686,80.21211738781929
2024-09-23 14:56:27.338159,39.29,29.633625,-0.0030841997366068195,-0.023280723622328886,0.09705279702197278,32.08287849390507,-100.26678939585686,80.21211738781929
2024-09-23 14:56:27.370573,39.29,29.633625,-0.0030841997366068195,-0.02293251340906919,0.09705279702197278,32.08287849390507,-100.26678939585686,80.21211738781929
2024-09-23 14:56:27.382082,39.29,29.633676,-0.0030841997366068195,-0.02293251340906919,0.09774922960030558,32.08287849390507,-96.25519929585457,80.21211738781929
2024-09-23 14:56:27.424353,39.29,29.633676,-0.0035816467500972456,-0.023330473146428877,0.09755024973162574,32.08287849390507,-96.25519929585457,80.21211738781929
2024-09-23 14:56:27.519204,39.29,29.633676,-0.0035816467500972456,-0.023330473146428877,0.09755024973162574,40.106058693909645,-100.26678939585686,80.21211738781929
2024-09-23 14:56:27.530778,39.29,29.633727,-0.0031836870127375577,-0.023429960042815445,0.09755024973162574,40.106058693909645,-100.26678939585686,76.200527287817
2024-09-23 14:56:27.574076,39.29,29.63382,-0.0031836870127375577,-0.023429960042815445,0.09764974270391902,52.137550501942634,-100.26678939585686,80.21211738781929
2024-09-23 14:56:27.586271,39.29,29.63382,-0.0035318979854855937,-0.023429960042815445,0.09764974270391902,52.137550501942634,-100.26678939585686,80.21211738781929
2024-09-23 14:56:27.619125,39.29,29.63382,-0.0035318979854855937,-0.023230986250042305,0.09720203344245934,44.11764879391193,-100.26678939585686,80.21211738781929
2024-09-23 14:56:27.630735,39.29,29.633871,-0.0035318979854855937,-0.023230986250042305,0.09720203344245934,44.11764879391193,-96.25519929585457,76.200527287817
2024-09-23 14:56:27.663072,39.29,29.633871,-0.003482159473966507,-0.023230986250042305,0.09720203344245934,44.11764879391193,-96.25519929585457,76.200527287817
2024-09-23 14:56:27.674283,39.29,29.633871,-0.003482159473966507,-0.02338022115155219,0.09685382322919964,28.07457030097246,-96.25519929585457,80.21211738781929
2024-09-23 14:56:27.716584,39.29,29.633921,-0.0035318979854855937,-0.02303200030545576,0.09755024973162574,28.07457030097246,-96.25519929585457,80.21211738781929
2024-09-23 14:56:27.728083,39.29,29.633921,-0.0035318979854855937,-0.02303200030545576,0.09755024973162574,44.11764879391193,-96.25519929585457,80.21211738781929
2024-09-23 14:56:27.771441,39.29,29.634063,-0.003631395514708897,-0.02313149783467906,0.09740101331113918,44.11764879391193,-96.25519929585457,80.21211738781929
2024-09-23 14:56:27.814145,39.29,29.634114,-0.0033329230534799477,-0.02313149783467906,0.09740101331113918,44.11764879391193,-96.25519929585457,88.23529758782387
2024-09-23 14:56:27.825700,39.29,29.634114,-0.0033329230534799477,-0.02313149783467906,0.09705279702197278,44.11764879391193,-96.25519929585457,88.23529758782387
2024-09-23 14:56:27.857651,39.29,29.634114,-0.0033329230534799477,-0.02313149783467906,0.09705279702197278,48.12595698684454,-96.25519929585457,88.23529758782387
2024-09-23 14:56:27.869400,39.29,29.634165,-0.003382661564999035,-0.023330473146428877,0.09705279702197278,48.12595698684454,-88.23529758782387,80.21211738781929
2024-09-23 14:56:27.911604,39.29,29.634165,-0.003382661564999035,-0.023330473146428877,0.09720203344245934,36.09446859390736,-92.24360919585227,84.22370748782159
2024-09-23 14:56:27.925313,39.29,29.634216,-0.0030841997366068195,-0.023330473146428877,0.09720203344245934,36.09446859390736,-92.24360919585227,84.22370748782159
2024-09-23 14:56:28.008894,39.29,29.634216,-0.0030841997366068195,-0.02303200030545576,0.09720203344245934,32.08287849390507,-92.24360919585227,84.22370748782159
2024-09-23 14:56:28.020626,39.29,29.634306,-0.0030841997366068195,-0.02303200030545576,0.09720203344245934,32.08287849390507,-100.26678939585686,80.21211738781929
2024-09-23 14:56:28.054500,39.29,29.634306,-0.0030841997366068195,-0.02303200030545576,0.09720203344245934,32.08287849390507,-100.26678939585686,80.21211738781929
2024-09-23 14:56:28.065446,39.29,29.634306,-0.0030841997366068195,-0.023181236725942318,0.0973015264147526,32.08287849390507,-104.27510100388527,80.21211738781929
2024-09-23 14:56:28.108376,39.29,29.634357,-0.0031836870127375577,-0.02313149783467906,0.0973015264147526,32.08287849390507,-104.27510100388527,80.21211738781929
2024-09-23 14:56:28.151270,39.29,29.634357,-0.0031836870127375577,-0.02313149783467906,0.0973015264147526,40.106058693909645,-104.27510100388527,80.21211738781929
2024-09-23 14:56:28.163028,39.29,29.634408,-0.003382661564999035,-0.023330473146428877,0.0973015264147526,40.106058693909645,-108.28669110388756,76.200527287817
2024-09-23 14:56:28.205572,39.29,29.634459,-0.003382661564999035,-0.023330473146428877,0.0973015264147526,40.106058693909645,-96.25519929585457,80.21211738781929
2024-09-23 14:56:28.217255,39.29,29.634459,-0.0035318979854855937,-0.023330473146428877,0.0973015264147526,40.106058693909645,-96.25519929585457,80.21211738781929
2024-09-23 14:56:28.249661,39.37,29.634459,-0.0035318979854855937,-0.022584292562972758,0.09705279702197278,40.106058693909645,-96.25519929585457,80.21211738781929
2024-09-23 14:56:28.260919,39.37,29.634552,-0.0035318979854855937,-0.022584292562972758,0.09705279702197278,48.12595698684454,-96.25519929585457,80.21211738781929
2024-09-23 14:56:28.303566,39.37,29.634552,-0.0035816467500972456,-0.02303200030545576,0.09710254654607277,44.11764879391193,-108.28669110388756,80.21211738781929
2024-09-23 14:56:28.315154,39.37,29.634552,-0.0035816467500972456,-0.02303200030545576,0.09710254654607277,44.11764879391193,-108.28669110388756,80.21211738781929
2024-09-23 14:56:28.347015,39.37,29.634603,-0.003233425524256645,-0.02303200030545576,0.09710254654607277,44.11764879391193,-108.28669110388756,80.21211738781929
2024-09-23 14:56:28.358719,39.37,29.634603,-0.003233425524256645,-0.022733528983459317,0.09710254654607277,44.11764879391193,-108.28669110388756,80.21211738781929
2024-09-23 14:56:28.400892,39.37,29.634697,-0.003233425524256645,-0.022733528983459317,0.09645586349183995,32.08287849390507,-100.26678939585686,76.200527287817
2024-09-23 14:56:28.412770,39.37,29.634697,-0.003382661564999035,-0.022733528983459317,0.09645586349183995,32.08287849390507,-100.26678939585686,76.200527287817
2024-09-23 14:56:28.444631,39.37,29.634697,-0.003382661564999035,-0.023280723622328886,0.0976994861521123,32.08287849390507,-100.26678939585686,76.200527287817
2024-09-23 14:56:28.456508,39.37,29.634748,-0.003382661564999035,-0.023280723622328886,0.0976994861521123,20.05138839341998,-96.25519929585457,80.21211738781929
2024-09-23 14:56:28.501590,39.37,29.634748,-0.0031339382481259063,-0.02293251340906919,0.09705279702197278,28.07457030097246,-96.25519929585457,76.200527287817
2024-09-23 14:56:28.544772,39.37,29.634799,-0.003780631555451287,-0.02268379009219606,0.09705279702197278,28.07457030097246,-96.25519929585457,76.200527287817
2024-09-23 14:56:28.555835,39.37,29.634799,-0.003780631555451287,-0.02268379009219606,0.09740101331113918,40.106058693909645,-96.25519929585457,76.200527287817
2024-09-23 14:56:28.598490,39.37,29.634849,-0.0038303700669703737,-0.023330473146428877,0.09705279702197278,36.09446859390736,-96.25519929585457,72.1922225099802
2024-09-23 14:56:28.640197,39.37,29.634849,-0.0038303700669703737,-0.023330473146428877,0.09705279702197278,36.09446859390736,-92.24360919585227,84.22370748782159
2024-09-23 14:56:28.651693,39.37,29.634941,-0.0027359787006383035,-0.023181236725942318,0.09710254654607277,36.09446859390736,-92.24360919585227,84.22370748782159
2024-09-23 14:56:28.694541,39.37,29.634992,-0.0032831742888682963,-0.023579196463302005,0.09710254654607277,36.09446859390736,-92.24360919585227,84.22370748782159
2024-09-23 14:56:28.736861,39.37,29.634992,-0.0032831742888682963,-0.023579196463302005,0.09650560086412653,32.08287849390507,-92.24360919585227,84.22370748782159
2024-09-23 14:56:28.748241,39.37,29.634992,-0.0032831742888682963,-0.023579196463302005,0.09650560086412653,32.08287849390507,-92.24360919585227,80.21211738781929
2024-09-23 14:56:28.791297,39.37,29.635043,-0.003631395514708897,-0.02308174982955575,0.09750050628343246,32.08287849390507,-92.24360919585227,80.21211738781929
2024-09-23 14:56:28.803791,39.37,29.635043,-0.003631395514708897,-0.02308174982955575,0.09750050628343246,32.08287849390507,-92.24360919585227,80.21211738781929
2024-09-23 14:56:28.836400,39.37,29.635135,-0.0032831742888682963,-0.02308174982955575,0.09750050628343246,32.08287849390507,-92.24360919585227,84.22370748782159
2024-09-23 14:56:28.848327,39.37,29.635135,-0.0032831742888682963,-0.023579196463302005,0.09750050628343246,32.08287849390507,-92.24360919585227,84.22370748782159
2024-09-23 14:56:28.890846,39.37,29.635186,-0.003631395514708897,-0.023579196463302005,0.09725178296655933,32.08287849390507,-92.24360919585227,84.22370748782159
2024-09-23 14:56:28.934700,39.37,29.635186,-0.003631395514708897,-0.022833026512682618,0.09715228999426605,40.106058693909645,-92.24360919585227,84.22370748782159
2024-09-23 14:56:28.945816,39.37,29.635237,-0.003631395514708897,-0.022833026512682618,0.09715228999426605,40.106058693909645,-100.26678939585686,80.21211738781929
2024-09-23 14:56:29.029297,39.37,29.635237,-0.0031836870127375577,-0.022833026512682618,0.09715228999426605,40.106058693909645,-100.26678939585686,80.21211738781929
2024-09-23 14:56:29.041331,39.37,29.635237,-0.0031836870127375577,-0.022733528983459317,0.0976994861521123,44.11764879391193,-100.26678939585686,84.22370748782159
2024-09-23 14:56:29.084444,39.37,29.635288,-0.0028354659767690416,-0.023778180888911878,0.09680407370509965,44.11764879391193,-100.26678939585686,84.22370748782159
2024-09-23 14:56:29.096864,39.37,29.635288,-0.0028354659767690416,-0.023778180888911878,0.09680407370509965,32.08287849390507,-96.25519929585457,84.22370748782159
2024-09-23 14:56:29.129362,39.37,29.635378,-0.0028354659767690416,-0.023778180888911878,0.09680407370509965,32.08287849390507,-96.25519929585457,84.22370748782159
2024-09-23 14:56:29.181651,39.37,29.635378,-0.0036811340262279837,-0.022982261414192504,0.09705279702197278,24.06297849342227,-100.26678939585686,84.22370748782159
2024-09-23 14:56:29.193770,39.37,29.635378,-0.0036811340262279837,-0.022982261414192504,0.09705279702197278,24.06297849342227,-100.26678939585686,84.22370748782159
2024-09-23 14:56:29.226359,39.37,29.63543,-0.0035816467500972456,-0.023230986250042305,0.09705279702197278,24.06297849342227,-100.26678939585686,84.22370748782159
2024-09-23 14:56:29.279043,39.14,29.635481,-0.0035816467500972456,-0.023230986250042305,0.09690356060148622,24.06297849342227,-100.26678939585686,88.23529758782387
2024-09-23 14:56:29.290850,39.14,29.635481,-0.0034324103296106863,-0.023230986250042305,0.09690356060148622,24.06297849342227,-100.26678939585686,88.23529758782387
2024-09-23 14:56:29.324280,39.14,29.635481,-0.0034324103296106863,-0.023181236725942318,0.0973015264147526,36.09446859390736,-100.26678939585686,88.23529758782387
2024-09-23 14:56:29.335799,39.14,29.635576,-0.0034324103296106863,-0.023181236725942318,0.0973015264147526,36.09446859390736,-100.26678939585686,84.22370748782159
2024-09-23 14:56:29.378718,39.14,29.635576,-0.0037308827908396356,-0.023181236725942318,0.0973512698629459,44.11764879391193,-96.25519929585457,80.21211738781929
2024-09-23 14:56:29.421809,39.14,29.635671,-0.003482159473966507,-0.023230986250042305,0.0973512698629459,44.11764879391193,-96.25519929585457,80.21211738781929
2024-09-23 14:56:29.434319,39.14,29.635671,-0.003482159473966507,-0.023230986250042305,0.09705279702197278,40.106058693909645,-96.25519929585457,80.21211738781929
2024-09-23 14:56:29.466466,39.14,29.635671,-0.003482159473966507,-0.023230986250042305,0.09705279702197278,40.106058693909645,-96.25519929585457,84.22370748782159
2024-09-23 14:56:29.478110,39.14,29.635722,-0.0032831742888682963,-0.02303200030545576,0.09705279702197278,28.07457030097246,-96.25519929585457,84.22370748782159
2024-09-23 14:56:29.520249,39.14,29.635819,-0.003233425524256645,-0.02303200030545576,0.09705279702197278,28.07457030097246,-96.25519929585457,84.22370748782159
2024-09-23 14:56:29.531909,39.14,29.635819,-0.003233425524256645,-0.02338022115155219,0.09720203344245934,28.07457030097246,-96.25519929585457,84.22370748782159
2024-09-23 14:56:29.564250,39.14,29.635819,-0.003233425524256645,-0.02338022115155219,0.09720203344245934,20.05138839341998,-96.25519929585457,84.22370748782159
2024-09-23 14:56:29.575762,39.14,29.63587,-0.003233425524256645,-0.02308174982955575,0.09720203344245934,20.05138839341998,-100.26678939585686,88.23529758782387
2024-09-23 14:56:29.618438,39.14,29.63587,-0.003233425524256645,-0.02308174982955575,0.09710254654607277,32.08287849390507,-96.25519929585457,84.22370748782159
2024-09-23 14:56:29.630354,39.14,29.63592,-0.003233425524256645,-0.02308174982955575,0.09710254654607277,32.08287849390507,-96.25519929585457,84.22370748782159
2024-09-23 14:56:29.662042,39.14,29.63592,-0.003233425524256645,-0.02313149783467906,0.09710254654607277,32.08287849390507,-96.25519929585457,84.22370748782159
2024-09-23 14:56:29.677961,39.14,29.636012,-0.003233425524256645,-0.02313149783467906,0.09720203344245934,48.12595698684454,-108.28669110388756,84.22370748782159
2024-09-23 14:56:29.710503,39.14,29.636012,-0.0030344509719951677,-0.02313149783467906,0.09720203344245934,48.12595698684454,-108.28669110388756,84.22370748782159
2024-09-23 14:56:29.721887,39.14,29.636012,-0.0030344509719951677,-0.023429960042815445,0.09720203344245934,44.11764879391193,-92.24360919585227,84.22370748782159
2024-09-23 14:56:29.764902,39.14,29.636064,-0.0034324103296106863,-0.023429960042815445,0.09715228999426605,44.11764879391193,-92.24360919585227,84.22370748782159
2024-09-23 14:56:29.776726,39.14,29.636064,-0.0034324103296106863,-0.023429960042815445,0.09715228999426605,40.106058693909645,-100.26678939585686,84.22370748782159
2024-09-23 14:56:29.809139,39.14,29.636064,-0.0034324103296106863,-0.023429960042815445,0.09715228999426605,40.106058693909645,-100.26678939585686,80.21211738781929
2024-09-23 14:56:29.820564,39.14,29.636114,-0.003233425524256645,-0.02338022115155219,0.09720203344245934,24.06297849342227,-100.26678939585686,80.21211738781929
2024-09-23 14:56:29.863150,39.14,29.636165,-0.0034324103296106863,-0.02313149783467906,0.09720203344245934,24.06297849342227,-96.25519929585457,76.200527287817
2024-09-23 14:56:29.874951,39.14,29.636165,-0.0034324103296106863,-0.02313149783467906,0.09670458680871308,24.06297849342227,-96.25519929585457,76.200527287817
2024-09-23 14:56:29.909659,39.14,29.636165,-0.0034324103296106863,-0.02313149783467906,0.09670458680871308,20.05138839341998,-96.25519929585457,76.200527287817
2024-09-23 14:56:29.921703,39.14,29.636216,-0.0030841997366068195,-0.024076653729884996,0.09670458680871308,20.05138839341998,-96.25519929585457,76.200527287817
2024-09-23 14:56:29.954057,39.14,29.636216,-0.0030841997366068195,-0.024076653729884996,0.0973512698629459,20.05138839341998,-96.25519929585457,76.200527287817
2024-09-23 14:56:29.965641,39.14,29.636266,-0.0032831742888682963,-0.024076653729884996,0.0973512698629459,24.06297849342227,-96.25519929585457,80.21211738781929
2024-09-23 14:56:30.059094,39.14,29.636266,-0.0032831742888682963,-0.023429960042815445,0.0970030596496862,44.11764879391193,-100.26678939585686,80.21211738781929
2024-09-23 14:56:30.101840,39.14,29.636353,-0.0032831742888682963,-0.023429960042815445,0.0970030596496862,44.11764879391193,-100.26678939585686,80.21211738781929
2024-09-23 14:56:30.113809,39.14,29.636353,-0.003382661564999035,-0.023181236725942318,0.09745075675933246,48.12595698684454,-88.23529758782387,80.21211738781929
2024-09-23 14:56:30.156529,39.14,29.636405,-0.003929857343101113,-0.02268379009219606,0.09710254654607277,48.12595698684454,-88.23529758782387,76.200527287817
2024-09-23 14:56:30.168322,39.14,29.636405,-0.003929857343101113,-0.02268379009219606,0.09710254654607277,56.14914060194492,-88.23529758782387,76.200527287817
2024-09-23 14:56:30.200710,39.14,29.636405,-0.003929857343101113,-0.02268379009219606,0.09710254654607277,56.14914060194492,-96.25519929585457,72.1922225099802
2024-09-23 14:56:30.211636,39.14,29.636456,-0.0031339382481259063,-0.02367869399252531,0.09705279702197278,56.14914060194492,-96.25519929585457,72.1922225099802
2024-09-23 14:56:30.253927,39.14,29.636506,-0.003482159473966507,-0.02367869399252531,0.09705279702197278,28.07457030097246,-96.25519929585457,84.22370748782159
2024-09-23 14:56:30.265853,39.14,29.636506,-0.003482159473966507,-0.02293251340906919,0.09705279702197278,28.07457030097246,-96.25519929585457,84.22370748782159
2024-09-23 14:56:30.297839,39.47,29.636506,-0.003482159473966507,-0.02293251340906919,0.09715228999426605,32.08287849390507,-96.25519929585457,84.22370748782159
2024-09-23 14:56:30.309946,39.47,29.6366,-0.0034324103296106863,-0.02293251340906919,0.09715228999426605,32.08287849390507,-100.26678939585686,80.21211738781929
2024-09-23 14:56:30.352707,39.47,29.636695,-0.0034324103296106863,-0.02338022115155219,0.0973015264147526,32.08287849390507,-96.25519929585457,80.21211738781929
2024-09-23 14:56:30.394818,39.47,29.636695,-0.0038303700669703737,-0.02367869399252531,0.0973015264147526,32.08287849390507,-96.25519929585457,80.21211738781929
2024-09-23 14:56:30.405773,39.47,29.636695,-0.0038303700669703737,-0.02367869399252531,0.0973015264147526,36.09446859390736,-100.26678939585686,80.21211738781929
2024-09-23 14:56:30.449631,39.47,29.636746,-0.003233425524256645,-0.023330473146428877,0.09764974270391902,48.12595698684454,-92.24360919585227,80.21211738781929
2024-09-23 14:56:30.492257,39.47,29.636797,-0.003233425524256645,-0.023330473146428877,0.09764974270391902,48.12595698684454,-92.24360919585227,80.21211738781929
2024-09-23 14:56:30.503543,39.47,29.636797,-0.003780631555451287,-0.02293251340906919,0.09740101331113918,48.12595698684454,-92.24360919585227,80.21211738781929
2024-09-23 14:56:30.546492,39.47,29.636848,-0.0030841997366068195,-0.02338022115155219,0.09740101331113918,48.12595698684454,-96.25519929585457,80.21211738781929
2024-09-23 14:56:30.558639,39.47,29.636848,-0.0030841997366068195,-0.02338022115155219,0.09690356060148622,48.12595698684454,-96.25519929585457,80.21211738781929
2024-09-23 14:56:30.592239,39.47,29.636848,-0.0030841997366068195,-0.02338022115155219,0.09690356060148622,32.08287849390507,-100.26678939585686,84.22370748782159
2024-09-23 14:56:30.603658,39.47,29.636898,-0.003233425524256645,-0.023330473146428877,0.09690356060148622,32.08287849390507,-100.26678939585686,84.22370748782159
2024-09-23 14:56:30.646040,39.47,29.636949,-0.0030344509719951677,-0.023330473146428877,0.09764974270391902,28.07457030097246,-92.24360919585227,80.21211738781929
2024-09-23 14:56:30.688562,39.47,29.636949,-0.0030344509719951677,-0.023230986250042305,0.09710254654607277,28.07457030097246,-92.24360919585227,80.21211738781929
2024-09-23 14:56:30.700700,39.47,29.636949,-0.0030344509719951677,-0.023230986250042305,0.09710254654607277,28.07457030097246,-96.25519929585457,72.1922225099802
2024-09-23 14:56:30.743202,39.47,29.637036,-0.0032831742888682963,-0.02367869399252531,0.09715228999426605,32.08287849390507,-108.28669110388756,72.1922225099802
2024-09-23 14:56:30.784914,39.47,29.637087,-0.0032831742888682963,-0.02367869399252531,0.09715228999426605,32.08287849390507,-108.28669110388756,80.21211738781929
2024-09-23 14:56:30.795971,39.47,29.637087,-0.0033329230534799477,-0.022833026512682618,0.09710254654607277,40.106058693909645,-108.28669110388756,80.21211738781929
2024-09-23 14:56:30.839135,39.47,29.637138,-0.0031339382481259063,-0.02352945757203875,0.09710254654607277,40.106058693909645,-92.24360919585227,80.21211738781929
2024-09-23 14:56:30.850903,39.47,29.637138,-0.0031339382481259063,-0.02352945757203875,0.0973512698629459,40.106058693909645,-92.24360919585227,80.21211738781929
2024-09-23 14:56:30.882803,39.47,29.637138,-0.0031339382481259063,-0.02352945757203875,0.0973512698629459,48.12595698684454,-96.25519929585457,80.21211738781929
2024-09-23 14:56:30.895285,39.47,29.637189,-0.0036811340262279837,-0.023181236725942318,0.0973512698629459,48.12595698684454,-96.25519929585457,76.200527287817
2024-09-23 14:56:30.938785,39.47,29.637189,-0.0036811340262279837,-0.023181236725942318,0.09695331012558621,48.12595698684454,-96.25519929585457,76.200527287817
2024-09-23 14:56:30.981404,39.47,29.637189,-0.0036811340262279837,-0.023181236725942318,0.09695331012558621,40.106058693909645,-92.24360919585227,76.200527287817
2024-09-23 14:56:30.993870,39.47,29.637239,-0.003233425524256645,-0.02338022115155219,0.09695331012558621,40.106058693909645,-92.24360919585227,76.200527287817
2024-09-23 14:56:31.035920,39.47,29.637328,-0.0031339382481259063,-0.02338022115155219,0.09705279702197278,32.08287849390507,-104.27510100388527,76.200527287817
2024-09-23 14:56:31.079150,39.47,29.637328,-0.0031339382481259063,-0.023728432883788564,0.09710254654607277,28.07457030097246,-104.27510100388527,76.200527287817
2024-09-23 14:56:31.090745,39.47,29.63738,-0.0031339382481259063,-0.023728432883788564,0.09710254654607277,28.07457030097246,-104.27510100388527,76.200527287817
2024-09-23 14:56:31.133452,39.47,29.63738,-0.003780631555451287,-0.02338022115155219,0.09755024973162574,24.06297849342227,-92.24360919585227,76.200527287817
2024-09-23 14:56:31.177055,39.47,29.637431,-0.0028354659767690416,-0.02352945757203875,0.09755024973162574,24.06297849342227,-92.24360919585227,76.200527287817
2024-09-23 14:56:31.188978,39.47,29.637431,-0.0028354659767690416,-0.02352945757203875,0.09645586349183995,44.11764879391193,-104.27510100388527,76.200527287817
2024-09-23 14:56:31.222893,39.47,29.637431,-0.0028354659767690416,-0.02352945757203875,0.09645586349183995,44.11764879391193,-104.27510100388527,80.21211738781929
2024-09-23 14:56:31.234331,39.47,29.637525,-0.0029349636958644295,-0.023429960042815445,0.09710254654607277,40.106058693909645,-104.27510100388527,80.21211738781929
2024-09-23 14:56:31.276022,39.47,29.637576,-0.0035318979854855937,-0.023429960042815445,0.09710254654607277,40.106058693909645,-96.25519929585457,80.21211738781929
2024-09-23 14:56:31.287869,39.47,29.637576,-0.0035318979854855937,-0.023230986250042305,0.09720203344245934,40.106058693909645,-96.25519929585457,80.21211738781929
2024-09-23 14:56:31.320577,40.16,29.637576,-0.0035318979854855937,-0.023230986250042305,0.09720203344245934,44.11764879391193,-96.25519929585457,80.21211738781929
2024-09-23 14:56:31.332344,40.16,29.637626,-0.003233425524256645,-0.02352945757203875,0.09720203344245934,44.11764879391193,-100.26678939585686,80.21211738781929
2024-09-23 14:56:31.375497,40.16,29.637677,-0.003233425524256645,-0.02352945757203875,0.09705279702197278,36.09446859390736,-96.25519929585457,80.21211738781929
2024-09-23 14:56:31.387244,40.16,29.637677,-0.003482159473966507,-0.02352945757203875,0.09705279702197278,36.09446859390736,-96.25519929585457,80.21211738781929
2024-09-23 14:56:31.418635,40.16,29.637677,-0.003482159473966507,-0.023230986250042305,0.09750050628343246,36.09446859390736,-96.25519929585457,80.21211738781929
2024-09-23 14:56:31.429707,40.16,29.637767,-0.003482159473966507,-0.023230986250042305,0.09750050628343246,24.06297849342227,-92.24360919585227,88.23529758782387
2024-09-23 14:56:31.473301,40.16,29.637767,-0.0025369937054121774,-0.02268379009219606,0.0966050877605131,28.07457030097246,-100.26678939585686,84.22370748782159
2024-09-23 14:56:31.516591,40.16,29.637819,-0.0033329230534799477,-0.02268379009219606,0.0966050877605131,28.07457030097246,-100.26678939585686,84.22370748782159
2024-09-23 14:56:31.527645,40.16,29.637819,-0.0033329230534799477,-0.02268379009219606,0.09725178296655933,40.106058693909645,-100.26678939585686,84.22370748782159
2024-09-23 14:56:31.570143,40.16,29.637869,-0.003382661564999035,-0.023280723622328886,0.09705279702197278,40.106058693909645,-100.26678939585686,80.21211738781929
2024-09-23 14:56:31.582267,40.16,29.637869,-0.003382661564999035,-0.023280723622328886,0.09705279702197278,40.106058693909645,-100.26678939585686,80.21211738781929
2024-09-23 14:56:31.614379,40.16,29.637869,-0.003382661564999035,-0.023280723622328886,0.09705279702197278,40.106058693909645,-96.25519929585457,80.21211738781929
2024-09-23 14:56:31.626277,40.16,29.63792,-0.002785727465249955,-0.02313149783467906,0.09695331012558621,40.106058693909645,-96.25519929585457,80.21211738781929
2024-09-23 14:56:31.668455,40.16,29.637971,-0.003382661564999035,-0.022982261414192504,0.09695331012558621,48.12595698684454,-100.26678939585686,80.21211738781929
2024-09-23 14:56:31.710975,40.16,29.637971,-0.003382661564999035,-0.022982261414192504,0.09690356060148622,44.11764879391193,-100.26678939585686,80.21211738781929
2024-09-23 14:56:31.722697,40.16,29.638021,-0.002785727465249955,-0.022982261414192504,0.09690356060148622,44.11764879391193,-92.24360919585227,88.23529758782387
2024-09-23 14:56:31.765654,40.16,29.638021,-0.002785727465249955,-0.023429960042815445,0.09720203344245934,24.06297849342227,-100.26678939585686,84.22370748782159
2024-09-23 14:56:31.777805,40.16,29.638108,-0.002785727465249955,-0.023429960042815445,0.09720203344245934,24.06297849342227,-100.26678939585686,84.22370748782159
2024-09-23 14:56:31.810512,40.16,29.638108,-0.0028852147413806935,-0.02313149783467906,0.09725178296655933,24.06297849342227,-100.26678939585686,84.22370748782159
2024-09-23 14:56:31.822041,40.16,29.638108,-0.0028852147413806935,-0.02313149783467906,0.09725178296655933,24.06297849342227,-100.26678939585686,84.22370748782159
2024-09-23 14:56:31.865792,40.16,29.63816,-0.0029349636958644295,-0.022833026512682618,0.09690356060148622,32.08287849390507,-92.24360919585227,84.22370748782159
2024-09-23 14:56:31.908014,40.16,29.638211,-0.0031339382481259063,-0.022833026512682618,0.09690356060148622,32.08287849390507,-92.24360919585227,92.24360919585227
2024-09-23 14:56:31.919290,40.16,29.638211,-0.0031339382481259063,-0.023280723622328886,0.09789846602079214,40.106058693909645,-92.24360919585227,92.24360919585227
2024-09-23 14:56:31.961707,40.16,29.638261,-0.003233425524256645,-0.0228827638849692,0.09710254654607277,40.106058693909645,-100.26678939585686,84.22370748782159
2024-09-23 14:56:32.004507,40.16,29.638261,-0.003233425524256645,-0.0228827638849692,0.09710254654607277,36.09446859390736,-96.25519929585457,84.22370748782159
2024-09-23 14:56:32.015762,40.16,29.638312,-0.0033329230534799477,-0.023280723622328886,0.09710254654607277,36.09446859390736,-96.25519929585457,84.22370748782159
2024-09-23 14:56:32.057836,40.16,29.638363,-0.0033329230534799477,-0.023280723622328886,0.09740101331113918,44.11764879391193,-96.25519929585457,84.22370748782159
2024-09-23 14:56:32.069658,40.16,29.638363,-0.003233425524256645,-0.023280723622328886,0.09740101331113918,44.11764879391193,-96.25519929585457,84.22370748782159
2024-09-23 14:56:32.103405,40.16,29.638363,-0.003233425524256645,-0.02308174982955575,0.0973015264147526,20.05138839341998,-96.25519929585457,84.22370748782159
2024-09-23 14:56:32.114714,40.16,29.63845,-0.003233425524256645,-0.02308174982955575,0.0973015264147526,20.05138839341998,-96.25519929585457,84.22370748782159
2024-09-23 14:56:32.157298,40.16,29.63845,-0.0032831742888682963,-0.023280723622328886,0.0973015264147526,20.05138839341998,-100.26678939585686,84.22370748782159
2024-09-23 14:56:32.169003,40.16,29.63845,-0.0032831742888682963,-0.023280723622328886,0.0973015264147526,20.05138839341998,-100.26678939585686,80.21211738781929
2024-09-23 14:56:32.200548,40.16,29.638501,-0.0031339382481259063,-0.023579196463302005,0.0973015264147526,20.05138839341998,-100.26678939585686,80.21211738781929
2024-09-23 14:56:32.213844,40.16,29.638501,-0.0031339382481259063,-0.023579196463302005,0.09759999317981902,24.06297849342227,-100.26678939585686,80.21211738781929
2024-09-23 14:56:32.246753,40.16,29.638501,-0.0031339382481259063,-0.023579196463302005,0.09759999317981902,24.06297849342227,-96.25519929585457,80.21211738781929
2024-09-23 14:56:32.258468,40.16,29.638552,-0.0030344509719951677,-0.023280723622328886,0.09789846602079214,24.06297849342227,-96.25519929585457,80.21211738781929
2024-09-23 14:56:32.300504,40.16,29.638603,-0.0030344509719951677,-0.023280723622328886,0.09789846602079214,40.106058693909645,-92.24360919585227,84.22370748782159
2024-09-23 14:56:32.311883,40.16,29.638603,-0.003233425524256645,-0.02303200030545576,0.09789846602079214,40.106058693909645,-92.24360919585227,84.22370748782159
2024-09-23 14:56:32.344743,40.86,29.638603,-0.003233425524256645,-0.02303200030545576,0.0973015264147526,40.106058693909645,-92.24360919585227,84.22370748782159
2024-09-23 14:56:32.357591,40.86,29.638653,-0.0033329230534799477,-0.02303200030545576,0.0973015264147526,40.106058693909645,-104.27510100388527,80.21211738781929
2024-09-23 14:56:32.399824,40.86,29.638704,-0.0033329230534799477,-0.023181236725942318,0.09740101331113918,40.106058693909645,-96.25519929585457,84.22370748782159
2024-09-23 14:56:32.442591,40.86,29.638704,-0.0030344509719951677,-0.02278327698858263,0.09740101331113918,40.106058693909645,-96.25519929585457,84.22370748782159
2024-09-23 14:56:32.454016,40.86,29.638704,-0.0030344509719951677,-0.02278327698858263,0.0973512698629459,48.12595698684454,-96.25519929585457,80.21211738781929
2024-09-23 14:56:32.496354,40.86,29.638791,-0.0034324103296106863,-0.022584292562972758,0.0973015264147526,32.08287849390507,-96.25519929585457,80.21211738781929
2024-09-23 14:56:32.508584,40.86,29.638791,-0.0034324103296106863,-0.022584292562972758,0.0973015264147526,32.08287849390507,-96.25519929585457,80.21211738781929
2024-09-23 14:56:32.540856,40.86,29.638843,-0.0034324103296106863,-0.022584292562972758,0.0973015264147526,32.08287849390507,-96.25519929585457,76.200527287817
2024-09-23 14:56:32.551893,40.86,29.638843,-0.003482159473966507,-0.023230986250042305,0.09759999317981902,28.07457030097246,-96.25519929585457,76.200527287817
2024-09-23 14:56:32.594839,40.86,29.638893,-0.0035816467500972456,-0.02293251340906919,0.09715228999426605,28.07457030097246,-104.27510100388527,80.21211738781929
2024-09-23 14:56:32.637242,40.86,29.638893,-0.0035816467500972456,-0.02293251340906919,0.09715228999426605,28.07457030097246,-108.28669110388756,80.21211738781929
2024-09-23 14:56:32.648895,40.86,29.638944,-0.0035816467500972456,-0.02352945757203875,0.09715228999426605,28.07457030097246,-108.28669110388756,76.200527287817
2024-09-23 14:56:32.691581,40.86,29.638995,-0.003233425524256645,-0.02352945757203875,0.09779897304849887,28.07457030097246,-96.25519929585457,80.21211738781929
2024-09-23 14:56:32.734555,40.86,29.638995,-0.003233425524256645,-0.02293251340906919,0.0973015264147526,28.07457030097246,-96.25519929585457,80.21211738781929
2024-09-23 14:56:32.745966,40.86,29.639083,-0.003233425524256645,-0.02293251340906919,0.0973015264147526,40.106058693909645,-108.28669110388756,76.200527287817
2024-09-23 14:56:32.787904,40.86,29.639083,-0.0033329230534799477,-0.023181236725942318,0.09710254654607277,48.12595698684454,-104.27510100388527,76.200527287817
2024-09-23 14:56:32.799680,40.86,29.639083,-0.0033329230534799477,-0.023181236725942318,0.09710254654607277,48.12595698684454,-104.27510100388527,76.200527287817
2024-09-23 14:56:32.832176,40.86,29.639135,-0.0036811340262279837,-0.023181236725942318,0.09710254654607277,48.12595698684454,-104.27510100388527,76.200527287817
2024-09-23 14:56:32.843302,40.86,29.639135,-0.0036811340262279837,-0.023181236725942318,0.09715228999426605,44.11764879391193,-96.25519929585457,76.200527287817
2024-09-23 14:56:32.886056,40.86,29.639186,-0.0030344509719951677,-0.02338022115155219,0.0966050877605131,44.11764879391193,-96.25519929585457,80.21211738781929
2024-09-23 14:56:32.898012,40.86,29.639186,-0.0030344509719951677,-0.02338022115155219,0.0966050877605131,32.08287849390507,-96.25519929585457,80.21211738781929
2024-09-23 14:56:32.930929,40.86,29.639186,-0.0030344509719951677,-0.02338022115155219,0.0966050877605131,32.08287849390507,-104.27510100388527,80.21211738781929
2024-09-23 14:56:32.943186,40.86,29.639236,-0.0031339382481259063,-0.02293251340906919,0.09725178296655933,32.08287849390507,-104.27510100388527,80.21211738781929
2024-09-23 14:56:32.986814,40.86,29.639287,-0.003233425524256645,-0.023181236725942318,0.09725178296655933,20.05138839341998,-96.25519929585457,84.22370748782159
2024-09-23 14:56:33.030244,40.86,29.639287,-0.003233425524256645,-0.023181236725942318,0.09705279702197278,28.07457030097246,-96.25519929585457,84.22370748782159
2024-09-23 14:56:33.042181,40.86,29.639338,-0.0030841997366068195,-0.023181236725942318,0.09705279702197278,28.07457030097246,-96.25519929585457,80.21211738781929
2024-09-23 14:56:33.074540,40.86,29.639338,-0.0030841997366068195,-0.0228827638849692,0.09705279702197278,28.07457030097246,-96.25519929585457,80.21211738781929
2024-09-23 14:56:33.086205,40.86,29.639338,-0.0030841997366068195,-0.0228827638849692,0.09725178296655933,56.14914060194492,-92.24360919585227,80.21211738781929
2024-09-23 14:56:33.129408,40.86,29.639425,-0.0031836870127375577,-0.023429960042815445,0.09715228999426605,56.14914060194492,-92.24360919585227,72.1922225099802
2024-09-23 14:56:33.141084,40.86,29.639425,-0.0031836870127375577,-0.023429960042815445,0.09715228999426605,52.137550501942634,-92.24360919585227,72.1922225099802
2024-09-23 14:56:33.172972,40.86,29.639425,-0.0031836870127375577,-0.023429960042815445,0.09715228999426605,52.137550501942634,-92.24360919585227,72.1922225099802
2024-09-23 14:56:33.185222,40.86,29.639476,-0.0035318979854855937,-0.02352945757203875,0.09759999317981902,52.137550501942634,-92.24360919585227,76.200527287817
2024-09-23 14:56:33.227744,40.86,29.639527,-0.003382661564999035,-0.02352945757203875,0.09759999317981902,36.09446859390736,-96.25519929585457,76.200527287817
2024-09-23 14:56:33.239756,40.86,29.639527,-0.003382661564999035,-0.023429960042815445,0.09759999317981902,36.09446859390736,-96.25519929585457,76.200527287817
2024-09-23 14:56:33.272526,40.86,29.639527,-0.003382661564999035,-0.023429960042815445,0.09665483728461309,32.08287849390507,-96.25519929585457,76.200527287817
2024-09-23 14:56:33.284221,40.86,29.639578,-0.0031339382481259063,-0.023429960042815445,0.09665483728461309,32.08287849390507,-96.25519929585457,80.21211738781929
2024-09-23 14:56:33.327238,40.86,29.639628,-0.0031339382481259063,-0.0228827638849692,0.09640611396773996,28.07457030097246,-96.25519929585457,84.22370748782159
2024-09-23 14:56:33.369323,41.74,29.639628,-0.0037308827908396356,-0.0228827638849692,0.09640611396773996,28.07457030097246,-96.25519929585457,84.22370748782159
2024-09-23 14:56:33.421728,41.74,29.639628,-0.0037308827908396356,-0.02303200030545576,0.09690356060148622,36.09446859390736,-96.25519929585457,80.21211738781929
2024-09-23 14:56:33.433760,41.74,29.639718,-0.0037308827908396356,-0.02303200030545576,0.09690356060148622,36.09446859390736,-96.25519929585457,80.21211738781929
2024-09-23 14:56:33.466681,41.74,29.639718,-0.0029349636958644295,-0.023280723622328886,0.09690356060148622,36.09446859390736,-96.25519929585457,80.21211738781929
2024-09-23 14:56:33.478086,41.74,29.639718,-0.0029349636958644295,-0.023280723622328886,0.0973015264147526,36.09446859390736,-96.25519929585457,80.21211738781929
2024-09-23 14:56:33.520450,41.74,29.639769,-0.0035816467500972456,-0.023479709566915436,0.09695331012558621,48.12595698684454,-96.25519929585457,80.21211738781929
2024-09-23 14:56:33.532660,41.74,29.639769,-0.0035816467500972456,-0.023479709566915436,0.09695331012558621,48.12595698684454,-96.25519929585457,80.21211738781929
2024-09-23 14:56:33.565711,41.74,29.63982,-0.0036811340262279837,-0.023479709566915436,0.09695331012558621,48.12595698684454,-96.25519929585457,80.21211738781929
2024-09-23 14:56:33.577664,41.74,29.63982,-0.0036811340262279837,-0.022833026512682618,0.09675432418099966,48.12595698684454,-96.25519929585457,80.21211738781929
2024-09-23 14:56:33.620514,41.74,29.63987,-0.0031836870127375577,-0.02278327698858263,0.0966050877605131,48.12595698684454,-92.24360919585227,76.200527287817
2024-09-23 14:56:33.662509,41.74,29.63987,-0.0031836870127375577,-0.02278327698858263,0.0966050877605131,44.11764879391193,-96.25519929585457,84.22370748782159
2024-09-23 14:56:33.674778,41.74,29.639963,-0.0030841997366068195,-0.02338022115155219,0.0966050877605131,44.11764879391193,-96.25519929585457,84.22370748782159
2024-09-23 14:56:33.718111,41.74,29.640014,-0.0030841997366068195,-0.02338022115155219,0.09685382322919964,32.08287849390507,-96.25519929585457,80.21211738781929
2024-09-23 14:56:33.760893,41.74,29.640014,-0.0030841997366068195,-0.02313149783467906,0.09740101331113918,24.06297849342227,-96.25519929585457,80.21211738781929
2024-09-23 14:56:33.772805,41.74,29.640108,-0.0030841997366068195,-0.02313149783467906,0.09740101331113918,24.06297849342227,-96.25519929585457,84.22370748782159
2024-09-23 14:56:33.805939,41.74,29.640108,-0.0033329230534799477,-0.02313149783467906,0.09740101331113918,24.06297849342227,-96.25519929585457,84.22370748782159
2024-09-23 14:56:33.817033,41.74,29.640108,-0.0033329230534799477,-0.02293251340906919,0.0973015264147526,28.07457030097246,-100.26678939585686,84.22370748782159
2024-09-23 14:56:33.860987,41.74,29.640159,-0.0028354659767690416,-0.023330473146428877,0.09715228999426605,28.07457030097246,-100.26678939585686,84.22370748782159
2024-09-23 14:56:33.873634,41.74,29.640159,-0.0028354659767690416,-0.023330473146428877,0.09715228999426605,36.09446859390736,-96.25519929585457,84.22370748782159
2024-09-23 14:56:33.906917,41.74,29.640209,-0.0028354659767690416,-0.023330473146428877,0.09715228999426605,36.09446859390736,-96.25519929585457,80.21211738781929
2024-09-23 14:56:33.917945,41.74,29.640209,-0.003482159473966507,-0.023579196463302005,0.09740101331113918,48.12595698684454,-96.25519929585457,80.21211738781929
2024-09-23 14:56:33.960448,41.74,29.64026,-0.0035816467500972456,-0.02303200030545576,0.0973015264147526,48.12595698684454,-92.24360919585227,80.21211738781929
2024-09-23 14:56:34.002589,41.74,29.64026,-0.0035816467500972456,-0.02303200030545576,0.0973015264147526,28.07457030097246,-104.27510100388527,80.21211738781929
2024-09-23 14:56:34.014705,41.74,29.640311,-0.003482159473966507,-0.02308174982955575,0.0973015264147526,28.07457030097246,-104.27510100388527,80.21211738781929
2024-09-23 14:56:34.058525,41.74,29.640361,-0.003631395514708897,-0.02308174982955575,0.09680407370509965,24.06297849342227,-104.27510100388527,84.22370748782159
2024-09-23 14:56:34.102500,41.74,29.640361,-0.003631395514708897,-0.0228827638849692,0.09670458680871308,20.05138839341998,-104.27510100388527,84.22370748782159
2024-09-23 14:56:34.116734,41.74,29.640448,-0.003631395514708897,-0.0228827638849692,0.09670458680871308,20.05138839341998,-96.25519929585457,80.21211738781929
2024-09-23 14:56:34.148515,41.74,29.640448,-0.0029847020175114316,-0.02303200030545576,0.09670458680871308,20.05138839341998,-96.25519929585457,80.21211738781929
2024-09-23 14:56:34.159758,41.74,29.640448,-0.0029847020175114316,-0.02303200030545576,0.09710254654607277,24.06297849342227,-92.24360919585227,80.21211738781929
2024-09-23 14:56:34.201710,41.74,29.6405,-0.0035816467500972456,-0.02352945757203875,0.0973512698629459,36.09446859390736,-92.24360919585227,80.21211738781929
2024-09-23 14:56:34.213703,41.74,29.6405,-0.0035816467500972456,-0.02352945757203875,0.0973512698629459,36.09446859390736,-100.26678939585686,80.21211738781929
2024-09-23 14:56:34.245952,41.74,29.640551,-0.0035816467500972456,-0.02352945757203875,0.0973512698629459,36.09446859390736,-100.26678939585686,80.21211738781929
2024-09-23 14:56:34.257301,41.74,29.640551,-0.0030841997366068195,-0.02338022115155219,0.0970030596496862,36.09446859390736,-100.26678939585686,80.21211738781929
2024-09-23 14:56:34.299795,41.74,29.640601,-0.003780631555451287,-0.023230986250042305,0.0970030596496862,36.09446859390736,-88.23529758782387,88.23529758782387
2024-09-23 14:56:34.343784,41.74,29.640601,-0.003780631555451287,-0.023230986250042305,0.09764974270391902,36.09446859390736,-88.23529758782387,88.23529758782387
2024-09-23 14:56:34.355371,41.74,29.640652,-0.0033329230534799477,-0.023230986250042305,0.09764974270391902,36.09446859390736,-96.25519929585457,84.22370748782159
2024-09-23 14:56:34.401013,42.46,29.640703,-0.0033329230534799477,-0.02308174982955575,0.09755024973162574,40.106058693909645,-100.26678939585686,80.21211738781929
2024-09-23 14:56:34.443776,42.46,29.640703,-0.0028852147413806935,-0.02293251340906919,0.09640611396773996,28.07457030097246,-100.26678939585686,80.21211738781929
2024-09-23 14:56:34.455312,42.46,29.640703,-0.0028852147413806935,-0.02293251340906919,0.09640611396773996,28.07457030097246,-92.24360919585227,84.22370748782159
2024-09-23 14:56:34.487604,42.46,29.64079,-0.0028852147413806935,-0.02293251340906919,0.09640611396773996,28.07457030097246,-92.24360919585227,84.22370748782159
2024-09-23 14:56:34.499270,42.46,29.64079,-0.003233425524256645,-0.023330473146428877,0.09695331012558621,28.07457030097246,-100.26678939585686,84.22370748782159
2024-09-23 14:56:34.542159,42.46,29.640842,-0.0028852147413806935,-0.02338022115155219,0.09695331012558621,28.07457030097246,-100.26678939585686,84.22370748782159
2024-09-23 14:56:34.553439,42.46,29.640842,-0.0028852147413806935,-0.02338022115155219,0.09710254654607277,32.08287849390507,-100.26678939585686,84.22370748782159
2024-09-23 14:56:34.584904,42.46,29.640842,-0.0028852147413806935,-0.02338022115155219,0.09710254654607277,32.08287849390507,-96.25519929585457,84.22370748782159
2024-09-23 14:56:34.596565,42.46,29.640892,-0.0029847020175114316,-0.02362894446842532,0.09720203344245934,32.08287849390507,-96.25519929585457,80.21211738781929
2024-09-23 14:56:34.639292,42.46,29.640892,-0.0029847020175114316,-0.02362894446842532,0.09720203344245934,48.12595698684454,-96.25519929585457,88.23529758782387
2024-09-23 14:56:34.650880,42.46,29.640943,-0.003631395514708897,-0.022982261414192504,0.09720203344245934,48.12595698684454,-96.25519929585457,88.23529758782387
2024-09-23 14:56:34.683809,42.46,29.640943,-0.003631395514708897,-0.022982261414192504,0.09759999317981902,48.12595698684454,-96.25519929585457,88.23529758782387
2024-09-23 14:56:34.695143,42.46,29.640994,-0.0035816467500972456,-0.022982261414192504,0.09759999317981902,64.16903547978401,-96.25519929585457,80.21211738781929
2024-09-23 14:56:34.737919,42.46,29.640994,-0.0035816467500972456,-0.02303200030545576,0.09750050628343246,44.11764879391193,-100.26678939585686,80.21211738781929
2024-09-23 14:56:34.749210,42.46,29.641082,-0.0035816467500972456,-0.02303200030545576,0.09750050628343246,44.11764879391193,-100.26678939585686,80.21211738781929
2024-09-23 14:56:34.780963,42.46,29.641082,-0.0029349636958644295,-0.02303200030545576,0.09750050628343246,44.11764879391193,-100.26678939585686,80.21211738781929
2024-09-23 14:56:34.792679,42.46,29.641082,-0.0029349636958644295,-0.02352945757203875,0.09665483728461309,28.07457030097246,-100.26678939585686,76.200527287817
2024-09-23 14:56:34.834437,42.46,29.641134,-0.003780631555451287,-0.023230986250042305,0.0976994861521123,28.07457030097246,-100.26678939585686,76.200527287817
2024-09-23 14:56:34.847331,42.46,29.641134,-0.003780631555451287,-0.023230986250042305,0.0976994861521123,32.08287849390507,-96.25519929585457,76.200527287817
2024-09-23 14:56:34.879919,42.46,29.641134,-0.003780631555451287,-0.023230986250042305,0.0976994861521123,32.08287849390507,-96.25519929585457,80.21211738781929
2024-09-23 14:56:34.891382,42.46,29.641184,-0.0029847020175114316,-0.02308174982955575,0.0970030596496862,24.06297849342227,-96.25519929585457,80.21211738781929
2024-09-23 14:56:34.934465,42.46,29.641235,-0.0031339382481259063,-0.02308174982955575,0.0970030596496862,24.06297849342227,-96.25519929585457,76.200527287817
2024-09-23 14:56:34.946252,42.46,29.641235,-0.0031339382481259063,-0.02308174982955575,0.09740101331113918,24.06297849342227,-96.25519929585457,76.200527287817
2024-09-23 14:56:34.979246,42.46,29.641235,-0.0031339382481259063,-0.02308174982955575,0.09740101331113918,28.07457030097246,-92.24360919585227,80.21211738781929
2024-09-23 14:56:34.990762,42.46,29.641286,-0.0038801188315820256,-0.023181236725942318,0.09740101331113918,28.07457030097246,-92.24360919585227,80.21211738781929
2024-09-23 14:56:35.074545,42.46,29.641286,-0.0038801188315820256,-0.023181236725942318,0.09750050628343246,44.11764879391193,-92.24360919585227,80.21211738781929
2024-09-23 14:56:35.086063,42.46,29.641336,-0.0031339382481259063,-0.023181236725942318,0.09750050628343246,44.11764879391193,-96.25519929585457,84.22370748782159
2024-09-23 14:56:35.129073,42.46,29.641336,-0.0031339382481259063,-0.023330473146428877,0.09725178296655933,48.12595698684454,-96.25519929585457,76.200527287817
2024-09-23 14:56:35.141285,42.46,29.641423,-0.0031339382481259063,-0.023330473146428877,0.09725178296655933,48.12595698684454,-96.25519929585457,76.200527287817
2024-09-23 14:56:35.174078,42.46,29.641423,-0.0030841997366068195,-0.023181236725942318,0.09670458680871308,48.12595698684454,-96.25519929585457,76.200527287817
2024-09-23 14:56:35.185680,42.46,29.641423,-0.0030841997366068195,-0.023181236725942318,0.09670458680871308,40.106058693909645,-96.25519929585457,80.21211738781929
2024-09-23 14:56:35.270400,42.46,29.641475,-0.0035318979854855937,-0.023181236725942318,0.09670458680871308,40.106058693909645,-96.25519929585457,80.21211738781929
2024-09-23 14:56:35.281871,42.46,29.641475,-0.0035318979854855937,-0.023778180888911878,0.09750050628343246,24.06297849342227,-92.24360919585227,80.21211738781929
2024-09-23 14:56:35.325344,42.46,29.641526,-0.0031836870127375577,-0.02313149783467906,0.09745075675933246,24.06297849342227,-92.24360919585227,80.21211738781929
2024-09-23 14:56:35.337767,42.46,29.641526,-0.0031836870127375577,-0.02313149783467906,0.09745075675933246,20.05138839341998,-92.24360919585227,80.21211738781929
2024-09-23 14:56:35.370959,42.46,29.64162,-0.0026862297461545674,-0.02313149783467906,0.09745075675933246,20.05138839341998,-96.25519929585457,84.22370748782159
2024-09-23 14:56:35.382708,42.46,29.64162,-0.0026862297461545674,-0.023330473146428877,0.09774922960030558,20.05138839341998,-96.25519929585457,84.22370748782159
2024-09-23 14:56:35.415147,42.98,29.64162,-0.0026862297461545674,-0.023330473146428877,0.09774922960030558,36.09446859390736,-96.25519929585457,84.22370748782159
2024-09-23 14:56:35.426868,42.98,29.641671,-0.0034324103296106863,-0.023330473146428877,0.09774922960030558,36.09446859390736,-96.25519929585457,80.21211738781929
2024-09-23 14:56:35.470526,42.98,29.641722,-0.0034324103296106863,-0.023330473146428877,0.09755024973162574,44.11764879391193,-96.25519929585457,76.200527287817
2024-09-23 14:56:35.482128,42.98,29.641722,-0.003482159473966507,-0.023330473146428877,0.09755024973162574,44.11764879391193,-96.25519929585457,76.200527287817
2024-09-23 14:56:35.565469,42.98,29.641722,-0.003482159473966507,-0.02362894446842532,0.09725178296655933,32.08287849390507,-92.24360919585227,76.200527287817
2024-09-23 14:56:35.577315,42.98,29.641862,-0.003482159473966507,-0.02362894446842532,0.09725178296655933,32.08287849390507,-92.24360919585227,88.23529758782387
2024-09-23 14:56:35.608994,42.98,29.641862,-0.003482159473966507,-0.02362894446842532,0.09725178296655933,32.08287849390507,-92.24360919585227,88.23529758782387
2024-09-23 14:56:35.620639,42.98,29.641862,-0.003482159473966507,-0.0228827638849692,0.09690356060148622,28.07457030097246,-100.26678939585686,88.23529758782387
2024-09-23 14:56:35.663663,42.98,29.641914,-0.0031836870127375577,-0.023479709566915436,0.09725178296655933,28.07457030097246,-100.26678939585686,88.23529758782387
2024-09-23 14:56:35.675573,42.98,29.641914,-0.0031836870127375577,-0.023479709566915436,0.09725178296655933,20.05138839341998,-100.26678939585686,88.23529758782387
2024-09-23 14:56:35.709164,42.98,29.641964,-0.0031836870127375577,-0.023479709566915436,0.09725178296655933,20.05138839341998,-100.26678939585686,84.22370748782159
2024-09-23 14:56:35.720282,42.98,29.641964,-0.0034324103296106863,-0.023778180888911878,0.09725178296655933,24.06297849342227,-100.26678939585686,84.22370748782159
2024-09-23 14:56:35.763500,42.98,29.642015,-0.0034324103296106863,-0.023778180888911878,0.09720203344245934,24.06297849342227,-100.26678939585686,80.21211738781929
2024-09-23 14:56:35.805988,42.98,29.642015,-0.0034324103296106863,-0.023778180888911878,0.09720203344245934,48.12595698684454,-96.25519929585457,80.21211738781929
2024-09-23 14:56:35.817442,42.98,29.642108,-0.0030841997366068195,-0.02303200030545576,0.09720203344245934,48.12595698684454,-96.25519929585457,76.200527287817
2024-09-23 14:56:35.860197,42.98,29.642159,-0.0030841997366068195,-0.02303200030545576,0.09725178296655933,48.12595698684454,-96.25519929585457,84.22370748782159
2024-09-23 14:56:35.872640,42.98,29.642159,-0.0035318979854855937,-0.02303200030545576,0.09725178296655933,48.12595698684454,-96.25519929585457,84.22370748782159
2024-09-23 14:56:35.904645,42.98,29.642159,-0.0035318979854855937,-0.023579196463302005,0.09720203344245934,48.12595698684454,-96.25519929585457,84.22370748782159
2024-09-23 14:56:35.915934,42.98,29.642252,-0.0035318979854855937,-0.023579196463302005,0.09720203344245934,44.11764879391193,-96.25519929585457,72.1922225099802
2024-09-23 14:56:35.958846,42.98,29.642252,-0.0029349636958644295,-0.02278327698858263,0.09740101331113918,36.09446859390736,-100.26678939585686,76.200527287817
2024-09-23 14:56:36.001035,42.98,29.642304,-0.0033329230534799477,-0.02278327698858263,0.09740101331113918,36.09446859390736,-100.26678939585686,76.200527287817
2024-09-23 14:56:36.012404,42.98,29.642304,-0.0033329230534799477,-0.023579196463302005,0.09680407370509965,32.08287849390507,-104.27510100388527,76.200527287817
2024-09-23 14:56:36.054690,42.98,29.642355,-0.0035318979854855937,-0.023579196463302005,0.09829641968224512,32.08287849390507,-104.27510100388527,72.1922225099802
2024-09-23 14:56:36.066824,42.98,29.642355,-0.0035318979854855937,-0.023579196463302005,0.09829641968224512,32.08287849390507,-104.27510100388527,72.1922225099802
2024-09-23 14:56:36.098918,42.98,29.642355,-0.0035318979854855937,-0.023579196463302005,0.09829641968224512,32.08287849390507,-96.25519929585457,76.200527287817
2024-09-23 14:56:36.110938,42.98,29.642406,-0.0038801188315820256,-0.02352945757203875,0.0966050877605131,32.08287849390507,-96.25519929585457,76.200527287817
2024-09-23 14:56:36.152920,42.98,29.642406,-0.0038801188315820256,-0.02352945757203875,0.0966050877605131,44.11764879391193,-96.25519929585457,76.200527287817
2024-09-23 14:56:36.195129,42.98,29.642406,-0.0038801188315820256,-0.02352945757203875,0.0966050877605131,44.11764879391193,-96.25519929585457,76.200527287817
2024-09-23 14:56:36.207298,42.98,29.642456,-0.0030841997366068195,-0.023230986250042305,0.09690356060148622,44.11764879391193,-96.25519929585457,84.22370748782159
2024-09-23 14:56:36.250584,42.98,29.642507,-0.0030344509719951677,-0.023230986250042305,0.09690356060148622,32.08287849390507,-96.25519929585457,80.21211738781929
2024-09-23 14:56:36.262139,42.98,29.642507,-0.0030344509719951677,-0.023181236725942318,0.09690356060148622,32.08287849390507,-96.25519929585457,80.21211738781929
2024-09-23 14:56:36.294074,42.98,29.642507,-0.0030344509719951677,-0.023181236725942318,0.09725178296655933,40.106058693909645,-96.25519929585457,80.21211738781929
2024-09-23 14:56:36.306019,42.98,29.642593,-0.003233425524256645,-0.023181236725942318,0.09725178296655933,40.106058693909645,-96.25519929585457,84.22370748782159
2024-09-23 14:56:36.349261,42.98,29.642645,-0.003233425524256645,-0.0228827638849692,0.09710254654607277,24.06297849342227,-100.26678939585686,80.21211738781929
2024-09-23 14:56:36.392222,42.98,29.642645,-0.003382661564999035,-0.023429960042815445,0.09725178296655933,24.06297849342227,-100.26678939585686,80.21211738781929
2024-09-23 14:56:36.403305,42.98,29.642645,-0.003382661564999035,-0.023429960042815445,0.09725178296655933,24.06297849342227,-100.26678939585686,84.22370748782159
2024-09-23 14:56:36.486482,42.9,29.64274,-0.003382661564999035,-0.023429960042815445,0.09725178296655933,24.06297849342227,-100.26678939585686,84.22370748782159
2024-09-23 14:56:36.498488,42.9,29.64274,-0.0035816467500972456,-0.023429960042815445,0.09759999317981902,28.07457030097246,-100.26678939585686,84.22370748782159
2024-09-23 14:56:36.541060,42.9,29.642792,-0.0037308827908396356,-0.023330473146428877,0.09759999317981902,28.07457030097246,-100.26678939585686,80.21211738781929
2024-09-23 14:56:36.552979,42.9,29.642792,-0.0037308827908396356,-0.023330473146428877,0.0970030596496862,40.106058693909645,-100.26678939585686,80.21211738781929
2024-09-23 14:56:36.637335,42.9,29.642842,-0.0037308827908396356,-0.023330473146428877,0.0970030596496862,40.106058693909645,-96.25519929585457,76.200527287817
2024-09-23 14:56:36.649827,42.9,29.642842,-0.0038303700669703737,-0.022982261414192504,0.09750050628343246,40.106058693909645,-96.25519929585457,76.200527287817
2024-09-23 14:56:36.682916,42.9,29.642842,-0.0038303700669703737,-0.022982261414192504,0.09750050628343246,48.12595698684454,-96.25519929585457,76.200527287817
2024-09-23 14:56:36.694019,42.9,29.642893,-0.003631395514708897,-0.023827930413011865,0.09750050628343246,48.12595698684454,-104.27510100388527,76.200527287817
2024-09-23 14:56:36.736347,42.9,29.642893,-0.003631395514708897,-0.023827930413011865,0.09705279702197278,44.11764879391193,-96.25519929585457,80.21211738781929
2024-09-23 14:56:36.747680,42.9,29.642944,-0.0030344509719951677,-0.023827930413011865,0.09705279702197278,44.11764879391193,-96.25519929585457,80.21211738781929
2024-09-23 14:56:36.780568,42.9,29.642944,-0.0030344509719951677,-0.023230986250042305,0.09705279702197278,44.11764879391193,-96.25519929585457,80.21211738781929
2024-09-23 14:56:36.791690,42.9,29.643081,-0.0030344509719951677,-0.023230986250042305,0.09640611396773996,32.08287849390507,-96.25519929585457,76.200527287817
2024-09-23 14:56:36.833647,42.9,29.643081,-0.0029349636958644295,-0.023181236725942318,0.0970030596496862,24.06297849342227,-96.25519929585457,76.200527287817
2024-09-23 14:56:36.845304,42.9,29.643081,-0.0029349636958644295,-0.023181236725942318,0.0970030596496862,24.06297849342227,-100.26678939585686,76.200527287817
2024-09-23 14:56:36.878519,42.9,29.643179,-0.0027359787006383035,-0.023181236725942318,0.0970030596496862,24.06297849342227,-100.26678939585686,76.200527287817
2024-09-23 14:56:36.891233,42.9,29.643179,-0.0027359787006383035,-0.023280723622328886,0.09720203344245934,40.106058693909645,-96.25519929585457,76.200527287817
2024-09-23 14:56:36.934767,42.9,29.643231,-0.0030841997366068195,-0.02338022115155219,0.0973512698629459,44.11764879391193,-96.25519929585457,80.21211738781929
2024-09-23 14:56:36.976477,42.9,29.643231,-0.0030841997366068195,-0.02338022115155219,0.0973512698629459,44.11764879391193,-100.26678939585686,76.200527287817
2024-09-23 14:56:36.987867,42.9,29.643281,-0.003482159473966507,-0.0228827638849692,0.0976994861521123,44.11764879391193,-100.26678939585686,76.200527287817
2024-09-23 14:56:37.031974,42.9,29.643332,-0.0029349636958644295,-0.023181236725942318,0.0976994861521123,44.11764879391193,-96.25519929585457,76.200527287817
2024-09-23 14:56:37.075394,42.9,29.643332,-0.0029349636958644295,-0.023181236725942318,0.09675432418099966,32.08287849390507,-100.26678939585686,76.200527287817
2024-09-23 14:56:37.086402,42.9,29.643383,-0.0032831742888682963,-0.023181236725942318,0.09675432418099966,32.08287849390507,-100.26678939585686,76.200527287817
2024-09-23 14:56:37.128888,42.9,29.643471,-0.0032831742888682963,-0.02313149783467906,0.0970030596496862,36.09446859390736,-96.25519929585457,80.21211738781929
2024-09-23 14:56:37.171612,42.9,29.643471,-0.003233425524256645,-0.023778180888911878,0.0970030596496862,36.09446859390736,-96.25519929585457,80.21211738781929
2024-09-23 14:56:37.183172,42.9,29.643471,-0.003233425524256645,-0.023778180888911878,0.0973015264147526,32.08287849390507,-92.24360919585227,84.22370748782159
2024-09-23 14:56:37.226056,42.9,29.643523,-0.0033329230534799477,-0.02308174982955575,0.09764974270391902,32.08287849390507,-92.24360919585227,84.22370748782159
2024-09-23 14:56:37.237815,42.9,29.643523,-0.0033329230534799477,-0.02308174982955575,0.09764974270391902,32.08287849390507,-104.27510100388527,84.22370748782159
2024-09-23 14:56:37.270197,42.9,29.643573,-0.0033329230534799477,-0.02308174982955575,0.09764974270391902,32.08287849390507,-104.27510100388527,80.21211738781929
2024-09-23 14:56:37.322670,42.9,29.643573,-0.0033329230534799477,-0.02313149783467906,0.09745075675933246,44.11764879391193,-104.27510100388527,80.21211738781929
2024-09-23 14:56:37.334554,42.9,29.643573,-0.0033329230534799477,-0.02313149783467906,0.09745075675933246,44.11764879391193,-104.27510100388527,80.21211738781929
2024-09-23 14:56:37.366392,42.9,29.643624,-0.0033329230534799477,-0.02313149783467906,0.09745075675933246,44.11764879391193,-104.27510100388527,80.21211738781929
2024-09-23 14:56:37.378390,42.9,29.643624,-0.0033329230534799477,-0.023230986250042305,0.09705279702197278,40.106058693909645,-100.26678939585686,80.21211738781929
2024-09-23 14:56:37.421348,42.9,29.643675,-0.0033329230534799477,-0.023230986250042305,0.09690356060148622,40.106058693909645,-100.26678939585686,84.22370748782159
2024-09-23 14:56:37.432953,42.9,29.643675,-0.0033329230534799477,-0.023230986250042305,0.09690356060148622,44.11764879391193,-100.26678939585686,84.22370748782159
2024-09-23 14:56:37.465922,42.9,29.643725,-0.0033329230534799477,-0.023230986250042305,0.09690356060148622,44.11764879391193,-92.24360919585227,88.23529758782387
2024-09-23 14:56:37.477824,42.9,29.643725,-0.0035816467500972456,-0.023280723622328886,0.0970030596496862,44.11764879391193,-92.24360919585227,88.23529758782387
2024-09-23 14:56:37.510845,43.19,29.643725,-0.0035816467500972456,-0.023280723622328886,0.0970030596496862,32.08287849390507,-92.24360919585227,88.23529758782387
2024-09-23 14:56:37.522415,43.19,29.643725,-0.0035816467500972456,-0.023280723622328886,0.0970030596496862,32.08287849390507,-100.26678939585686,84.22370748782159
2024-09-23 14:56:37.565366,43.19,29.643812,-0.003233425524256645,-0.023230986250042305,0.0970030596496862,32.08287849390507,-100.26678939585686,84.22370748782159
2024-09-23 14:56:37.576610,43.19,29.643812,-0.003233425524256645,-0.023230986250042305,0.09720203344245934,32.08287849390507,-100.26678939585686,84.22370748782159
2024-09-23 14:56:37.609408,43.19,29.643812,-0.003233425524256645,-0.023230986250042305,0.09720203344245934,32.08287849390507,-100.26678939585686,80.21211738781929
2024-09-23 14:56:37.620920,43.19,29.643864,-0.0032831742888682963,-0.022833026512682618,0.0973015264147526,40.106058693909645,-100.26678939585686,80.21211738781929
2024-09-23 14:56:37.664291,43.19,29.643958,-0.0031339382481259063,-0.023181236725942318,0.0973015264147526,40.106058693909645,-104.27510100388527,88.23529758782387
2024-09-23 14:56:37.676106,43.19,29.643958,-0.0031339382481259063,-0.023181236725942318,0.09745075675933246,40.106058693909645,-104.27510100388527,88.23529758782387
2024-09-23 14:56:37.709126,43.19,29.643958,-0.0031339382481259063,-0.023181236725942318,0.09745075675933246,44.11764879391193,-100.26678939585686,84.22370748782159
2024-09-23 14:56:37.720979,43.19,29.64401,-0.003382661564999035,-0.023230986250042305,0.09745075675933246,44.11764879391193,-100.26678939585686,84.22370748782159
2024-09-23 14:56:37.753742,43.19,29.64401,-0.003382661564999035,-0.023230986250042305,0.0973015264147526,44.11764879391193,-100.26678939585686,84.22370748782159
2024-09-23 14:56:37.806224,43.19,29.64401,-0.003382661564999035,-0.023230986250042305,0.0973015264147526,48.12595698684454,-96.25519929585457,80.21211738781929
2024-09-23 14:56:37.818047,43.19,29.644061,-0.0038303700669703737,-0.02362894446842532,0.0973015264147526,48.12595698684454,-96.25519929585457,80.21211738781929
2024-09-23 14:56:37.860641,43.19,29.644154,-0.0031836870127375577,-0.02362894446842532,0.09690356060148622,36.09446859390736,-100.26678939585686,76.200527287817
2024-09-23 14:56:37.904777,43.19,29.644154,-0.0031836870127375577,-0.023230986250042305,0.09685382322919964,20.05138839341998,-100.26678939585686,76.200527287817
2024-09-23 14:56:37.916123,43.19,29.644205,-0.0031836870127375577,-0.023230986250042305,0.09685382322919964,20.05138839341998,-96.25519929585457,80.21211738781929
2024-09-23 14:56:37.958548,43.19,29.644205,-0.0033329230534799477,-0.023330473146428877,0.09670458680871308,20.05138839341998,-112.29828120388984,76.200527287817
2024-09-23 14:56:38.001565,43.19,29.644256,-0.0029349636958644295,-0.02338022115155219,0.09670458680871308,20.05138839341998,-112.29828120388984,76.200527287817
2024-09-23 14:56:38.014343,43.19,29.644256,-0.0029349636958644295,-0.02338022115155219,0.09695331012558621,36.09446859390736,-100.26678939585686,76.200527287817
2024-09-23 14:56:38.046963,43.19,29.644256,-0.0029349636958644295,-0.02338022115155219,0.09695331012558621,36.09446859390736,-100.26678939585686,76.200527287817
2024-09-23 14:56:38.058875,43.19,29.64435,-0.0034324103296106863,-0.02397715620066169,0.0973512698629459,48.12595698684454,-100.26678939585686,76.200527287817
2024-09-23 14:56:38.101270,43.19,29.644401,-0.0033329230534799477,-0.02397715620066169,0.0973512698629459,48.12595698684454,-100.26678939585686,76.200527287817
2024-09-23 14:56:38.112649,43.19,29.644401,-0.0033329230534799477,-0.022833026512682618,0.09725178296655933,48.12595698684454,-100.26678939585686,76.200527287817
2024-09-23 14:56:38.146121,43.19,29.644401,-0.0033329230534799477,-0.022833026512682618,0.09725178296655933,52.137550501942634,-96.25519929585457,76.200527287817
2024-09-23 14:56:38.157568,43.19,29.644451,-0.002785727465249955,-0.02308174982955575,0.09725178296655933,52.137550501942634,-96.25519929585457,80.21211738781929
2024-09-23 14:56:38.199269,43.19,29.644502,-0.002785727465249955,-0.02308174982955575,0.0973512698629459,48.12595698684454,-96.25519929585457,84.22370748782159
2024-09-23 14:56:38.211062,43.19,29.644502,-0.0035816467500972456,-0.02308174982955575,0.0973512698629459,48.12595698684454,-96.25519929585457,84.22370748782159
2024-09-23 14:56:38.242843,43.19,29.644502,-0.0035816467500972456,-0.023230986250042305,0.0973512698629459,48.12595698684454,-96.25519929585457,84.22370748782159
2024-09-23 14:56:38.255217,43.19,29.644592,-0.0035816467500972456,-0.023230986250042305,0.09695331012558621,32.08287849390507,-92.24360919585227,80.21211738781929
2024-09-23 14:56:38.298086,43.19,29.644592,-0.003482159473966507,-0.02362894446842532,0.09680407370509965,32.08287849390507,-92.24360919585227,80.21211738781929
2024-09-23 14:56:38.340489,43.19,29.644592,-0.003482159473966507,-0.02362894446842532,0.09680407370509965,28.07457030097246,-92.24360919585227,80.21211738781929
2024-09-23 14:56:38.352147,43.19,29.644644,-0.0033329230534799477,-0.022733528983459317,0.09680407370509965,28.07457030097246,-108.28669110388756,68.18063240997792
2024-09-23 14:56:38.395732,43.19,29.644694,-0.0033329230534799477,-0.022733528983459317,0.09680407370509965,44.11764879391193,-100.26678939585686,76.200527287817
2024-09-23 14:56:38.408210,43.19,29.644694,-0.0032831742888682963,-0.022733528983459317,0.09680407370509965,44.11764879391193,-100.26678939585686,76.200527287817
2024-09-23 14:56:38.440873,43.19,29.644694,-0.0032831742888682963,-0.023181236725942318,0.09740101331113918,48.12595698684454,-88.23529758782387,76.200527287817
2024-09-23 14:56:38.452017,43.19,29.644745,-0.0032831742888682963,-0.023181236725942318,0.09740101331113918,48.12595698684454,-88.23529758782387,84.22370748782159
2024-09-23 14:56:38.494435,43.19,29.644745,-0.0032831742888682963,-0.02308174982955575,0.09720203344245934,48.12595698684454,-88.23529758782387,80.21211738781929
2024-09-23 14:56:38.538001,43.46,29.644796,-0.003631395514708897,-0.02308174982955575,0.09720203344245934,48.12595698684454,-88.23529758782387,80.21211738781929
2024-09-23 14:56:38.550013,43.46,29.644796,-0.003631395514708897,-0.02308174982955575,0.09720203344245934,48.12595698684454,-96.25519929585457,80.21211738781929
2024-09-23 14:56:38.593002,43.46,29.644886,-0.0031339382481259063,-0.023579196463302005,0.09755024973162574,32.08287849390507,-96.25519929585457,76.200527287817
2024-09-23 14:56:38.635025,43.46,29.644937,-0.0031339382481259063,-0.023579196463302005,0.09755024973162574,32.08287849390507,-100.26678939585686,76.200527287817
2024-09-23 14:56:38.646934,43.46,29.644937,-0.0029349636958644295,-0.023429960042815445,0.09755024973162574,32.08287849390507,-100.26678939585686,76.200527287817
2024-09-23 14:56:38.731353,43.46,29.644937,-0.0029349636958644295,-0.023429960042815445,0.09675432418099966,24.06297849342227,-100.26678939585686,76.200527287817
2024-09-23 14:56:38.743200,43.46,29.644988,-0.0028354659767690416,-0.023429960042815445,0.09675432418099966,24.06297849342227,-100.26678939585686,88.23529758782387
2024-09-23 14:56:38.787564,43.46,29.645038,-0.0028354659767690416,-0.023230986250042305,0.09675432418099966,24.06297849342227,-96.25519929585457,84.22370748782159
2024-09-23 14:56:38.830827,43.46,29.645038,-0.0028852147413806935,-0.023479709566915436,0.0976994861521123,24.06297849342227,-96.25519929585457,84.22370748782159
2024-09-23 14:56:38.842551,43.46,29.645038,-0.0028852147413806935,-0.023479709566915436,0.0976994861521123,32.08287849390507,-96.25519929585457,80.21211738781929
2024-09-23 14:56:38.885623,43.46,29.645128,-0.0036811340262279837,-0.023280723622328886,0.09695331012558621,32.08287849390507,-96.25519929585457,80.21211738781929
2024-09-23 14:56:38.929167,43.46,29.64518,-0.0031339382481259063,-0.02293251340906919,0.09695331012558621,32.08287849390507,-96.25519929585457,84.22370748782159
2024-09-23 14:56:38.940651,43.46,29.64518,-0.0031339382481259063,-0.02293251340906919,0.09720203344245934,40.106058693909645,-96.25519929585457,84.22370748782159
2024-09-23 14:56:38.972811,43.46,29.64518,-0.0031339382481259063,-0.02293251340906919,0.09720203344245934,40.106058693909645,-104.27510100388527,84.22370748782159
2024-09-23 14:56:38.984508,43.46,29.645276,-0.0033329230534799477,-0.023429960042815445,0.09675432418099966,40.106058693909645,-104.27510100388527,80.21211738781929
2024-09-23 14:56:39.026666,43.46,29.645327,-0.0033329230534799477,-0.023429960042815445,0.09675432418099966,32.08287849390507,-104.27510100388527,80.21211738781929
2024-09-23 14:56:39.039709,43.46,29.645327,-0.0034324103296106863,-0.02263404056809607,0.09675432418099966,32.08287849390507,-104.27510100388527,80.21211738781929
