Ayaan's Suite
Timestamp,Sample Rate (Hz),Time,Ax,Ay,Az,Gx,Gy,Gz
2024-09-23 20:18:20.846320,0,48.947473,0.0009451553255896806,-0.02313149783467906,0.09759999317981902,40.106058693909645,-92.24360919585227,72.1922225099802
2024-09-23 20:18:20.879553,0,48.947473,0.0009451553255896806,-0.023280723622328886,0.09725178296655933,56.14914060194492,-88.23529758782387,72.1922225099802
2024-09-23 20:18:20.890944,0,48.94756,0.0009451553255896806,-0.023280723622328886,0.09725178296655933,56.14914060194492,-88.23529758782387,76.200527287817
2024-09-23 20:18:20.924237,0,48.94756,0.0005471957306340564,-0.023280723622328886,0.09725178296655933,56.14914060194492,-88.23529758782387,76.200527287817
2024-09-23 20:18:20.935821,0,48.94756,0.0005471957306340564,-0.023181236725942318,0.09705279702197278,48.12595698684454,-92.24360919585227,68.18063240997792
2024-09-23 20:18:20.977908,0,48.947611,0.0010943914612681128,-0.02338022115155219,0.09794820946898543,48.12595698684454,-92.24360919585227,68.18063240997792
2024-09-23 20:18:20.989528,0,48.947611,0.0010943914612681128,-0.02338022115155219,0.09794820946898543,40.106058693909645,-96.25519929585457,68.18063240997792
2024-09-23 20:18:21.022276,0,48.947662,0.0010943914612681128,-0.02338022115155219,0.09794820946898543,40.106058693909645,-96.25519929585457,68.18063240997792
2024-09-23 20:18:21.033839,0,48.947662,0.0005471957306340564,-0.023230986250042305,0.0962568775472534,48.12595698684454,-96.25519929585457,68.18063240997792
2024-09-23 20:18:21.077776,0,48.947713,0.0007959191899112484,-0.02313149783467906,0.0962568775472534,48.12595698684454,-96.25519929585457,68.18063240997792
2024-09-23 20:18:21.089574,0,48.947713,0.0007959191899112484,-0.02313149783467906,0.09710254654607277,48.12595698684454,-96.25519929585457,68.18063240997792
2024-09-23 20:18:21.122731,0,48.947713,0.0007959191899112484,-0.02313149783467906,0.09710254654607277,44.11764879391193,-96.25519929585457,76.200527287817
2024-09-23 20:18:21.135013,0,48.947763,0.001044642601720419,-0.023230986250042305,0.09710254654607277,44.11764879391193,-96.25519929585457,76.200527287817
2024-09-23 20:18:21.167779,0,48.947763,0.001044642601720419,-0.023230986250042305,0.09774922960030558,44.11764879391193,-96.25519929585457,76.200527287817
2024-09-23 20:18:21.180285,0,48.947814,0.0007959191899112484,-0.023230986250042305,0.09774922960030558,36.09446859390736,-96.25519929585457,80.21211738781929
2024-09-23 20:18:21.222356,0,48.947814,0.0007959191899112484,-0.023479709566915436,0.09774922960030558,48.12595698684454,-96.25519929585457,72.1922225099802
2024-09-23 20:18:21.234304,0,48.947901,0.0007959191899112484,-0.023479709566915436,0.09774922960030558,48.12595698684454,-96.25519929585457,72.1922225099802
2024-09-23 20:18:21.267276,0,48.947901,0.0005471957306340564,-0.02303200030545576,0.09774922960030558,48.12595698684454,-96.25519929585457,72.1922225099802
2024-09-23 20:18:21.278671,0,48.947901,0.0005471957306340564,-0.02303200030545576,0.09759999317981902,40.106058693909645,-84.22370748782159,80.21211738781929
2024-09-23 20:18:21.321820,0,48.947953,0.0005471957306340564,-0.02352945757203875,0.0973512698629459,44.11764879391193,-92.24360919585227,80.21211738781929
2024-09-23 20:18:21.364316,0,48.948004,0.0005471957306340564,-0.02352945757203875,0.0973512698629459,44.11764879391193,-92.24360919585227,72.1922225099802
2024-09-23 20:18:21.376375,0,48.948004,0.0008954064660419869,-0.02367869399252531,0.09799795899308542,44.11764879391193,-92.24360919585227,72.1922225099802
2024-09-23 20:18:21.419932,0,48.948055,0.0007461703303635545,-0.02278327698858263,0.0976994861521123,44.11764879391193,-92.24360919585227,72.1922225099802
2024-09-23 20:18:21.463531,0,48.948055,0.0007461703303635545,-0.02278327698858263,0.0976994861521123,40.106058693909645,-88.23529758782387,72.1922225099802
2024-09-23 20:18:21.474833,0,48.948105,0.0010943914612681128,-0.02308174982955575,0.0976994861521123,40.106058693909645,-88.23529758782387,72.1922225099802
2024-09-23 20:18:21.518422,0,48.948156,0.0007461703303635545,-0.02308174982955575,0.09690356060148622,36.09446859390736,-92.24360919585227,76.200527287817
2024-09-23 20:18:21.560868,0,48.948156,0.0007461703303635545,-0.02303200030545576,0.0973015264147526,36.09446859390736,-92.24360919585227,76.200527287817
2024-09-23 20:18:21.572336,0,48.948242,0.0007461703303635545,-0.02303200030545576,0.0973015264147526,36.09446859390736,-92.24360919585227,80.21211738781929
2024-09-23 20:18:21.614805,0,48.948242,0.0008954064660419869,-0.023330473146428877,0.09725178296655933,44.11764879391193,-100.26678939585686,76.200527287817
2024-09-23 20:18:21.658811,0,48.948294,0.00029846189959424716,-0.023280723622328886,0.09725178296655933,44.11764879391193,-100.26678939585686,76.200527287817
2024-09-23 20:18:21.669813,0,48.948294,0.00029846189959424716,-0.023280723622328886,0.09715228999426605,36.09446859390736,-92.24360919585227,76.200527287817
2024-09-23 20:18:21.712349,0,48.948345,0.00034821073540793035,-0.02303200030545576,0.09745075675933246,32.08287849390507,-92.24360919585227,80.21211738781929
2024-09-23 20:18:21.754394,0,48.948345,0.00034821073540793035,-0.02303200030545576,0.09745075675933246,32.08287849390507,-88.23529758782387,84.22370748782159
2024-09-23 20:18:21.766808,0,48.948395,0.0007461703303635545,-0.022833026512682618,0.0973512698629459,32.08287849390507,-88.23529758782387,84.22370748782159
2024-09-23 20:18:21.802482,0,48.948395,0.0007461703303635545,-0.022833026512682618,0.0973512698629459,40.106058693909645,-92.24360919585227,84.22370748782159
2024-09-23 20:18:21.813824,0,48.948446,0.0010943914612681128,-0.022982261414192504,0.0973512698629459,40.106058693909645,-92.24360919585227,68.18063240997792
2024-09-23 20:18:21.856215,44.07,48.948446,0.0010943914612681128,-0.022982261414192504,0.09725178296655933,36.09446859390736,-96.25519929585457,72.1922225099802
2024-09-23 20:18:21.867982,44.07,48.948497,0.0004974468710863627,-0.022982261414192504,0.09725178296655933,36.09446859390736,-96.25519929585457,72.1922225099802
2024-09-23 20:18:21.900404,44.07,48.948497,0.0004974468710863627,-0.0228827638849692,0.09690356060148622,36.09446859390736,-96.25519929585457,72.1922225099802
2024-09-23 20:18:21.912188,44.07,48.948497,0.0004974468710863627,-0.0228827638849692,0.09690356060148622,36.09446859390736,-96.25519929585457,72.1922225099802
2024-09-23 20:18:21.954621,44.07,48.948584,0.0007959191899112484,-0.023181236725942318,0.09690356060148622,36.09446859390736,-88.23529758782387,76.200527287817
2024-09-23 20:18:21.966410,44.07,48.948584,0.0007959191899112484,-0.023181236725942318,0.09745075675933246,36.09446859390736,-88.23529758782387,76.200527287817
2024-09-23 20:18:21.998898,44.07,48.948584,0.0007959191899112484,-0.023181236725942318,0.09745075675933246,44.11764879391193,-88.23529758782387,76.200527287817
2024-09-23 20:18:22.010200,44.07,48.948635,0.0007461703303635545,-0.023181236725942318,0.09745075675933246,44.11764879391193,-88.23529758782387,72.1922225099802
2024-09-23 20:18:22.052349,44.07,48.948686,0.0007461703303635545,-0.023181236725942318,0.09665483728461309,48.12595698684454,-92.24360919585227,72.1922225099802
2024-09-23 20:18:22.064236,44.07,48.948686,0.0003979595949556242,-0.023181236725942318,0.09665483728461309,48.12595698684454,-92.24360919585227,72.1922225099802
2024-09-23 20:18:22.098029,44.07,48.948686,0.0003979595949556242,-0.023280723622328886,0.09740101331113918,52.137550501942634,-92.24360919585227,72.1922225099802
2024-09-23 20:18:22.109776,44.07,48.948736,0.0003979595949556242,-0.023280723622328886,0.09740101331113918,52.137550501942634,-88.23529758782387,84.22370748782159
2024-09-23 20:18:22.141820,44.07,48.948736,0.0005969341946851222,-0.023280723622328886,0.09740101331113918,52.137550501942634,-88.23529758782387,84.22370748782159
2024-09-23 20:18:22.153236,44.07,48.948736,0.0005969341946851222,-0.023579196463302005,0.09759999317981902,44.11764879391193,-92.24360919585227,72.1922225099802
2024-09-23 20:18:22.197858,44.07,48.948828,0.0005969341946851222,-0.022982261414192504,0.09745075675933246,44.11764879391193,-92.24360919585227,72.1922225099802
2024-09-23 20:18:22.209408,44.07,48.948828,0.0005969341946851222,-0.022982261414192504,0.09745075675933246,40.106058693909645,-88.23529758782387,72.1922225099802
2024-09-23 20:18:22.243018,44.07,48.948879,0.000845657606494293,-0.022982261414192504,0.09745075675933246,40.106058693909645,-88.23529758782387,72.1922225099802
2024-09-23 20:18:22.254140,44.07,48.948879,0.000845657606494293,-0.023230986250042305,0.0976994861521123,40.106058693909645,-88.23529758782387,72.1922225099802
2024-09-23 20:18:22.297569,44.07,48.94893,0.000845657606494293,-0.023330473146428877,0.09720203344245934,40.106058693909645,-96.25519929585457,76.200527287817
2024-09-23 20:18:22.340766,44.07,48.94893,0.000845657606494293,-0.023330473146428877,0.09720203344245934,36.09446859390736,-92.24360919585227,76.200527287817
2024-09-23 20:18:22.352322,44.07,48.948981,0.0007959191899112484,-0.023429960042815445,0.09720203344245934,36.09446859390736,-92.24360919585227,76.200527287817
2024-09-23 20:18:22.395417,44.07,48.949032,0.0006466830067647949,-0.023429960042815445,0.0973015264147526,36.09446859390736,-88.23529758782387,76.200527287817
2024-09-23 20:18:22.438271,44.07,48.949032,0.0006466830067647949,-0.023280723622328886,0.09745075675933246,48.12595698684454,-88.23529758782387,76.200527287817
2024-09-23 20:18:22.449836,44.07,48.94912,0.0006466830067647949,-0.023280723622328886,0.09745075675933246,48.12595698684454,-88.23529758782387,72.1922225099802
2024-09-23 20:18:22.484402,44.07,48.94912,0.0007959191899112484,-0.023280723622328886,0.09745075675933246,48.12595698684454,-88.23529758782387,72.1922225099802
2024-09-23 20:18:22.495693,44.07,48.94912,0.0007959191899112484,-0.02303200030545576,0.09715228999426605,40.106058693909645,-92.24360919585227,76.200527287817
2024-09-23 20:18:22.538997,44.07,48.949171,0.0008954064660419869,-0.02352945757203875,0.0973015264147526,48.12595698684454,-92.24360919585227,76.200527287817
2024-09-23 20:18:22.551050,44.07,48.949171,0.0008954064660419869,-0.02352945757203875,0.0973015264147526,48.12595698684454,-92.24360919585227,76.200527287817
2024-09-23 20:18:22.584317,44.07,48.949222,0.001044642601720419,-0.02352945757203875,0.0973015264147526,48.12595698684454,-92.24360919585227,76.200527287817
2024-09-23 20:18:22.596683,44.07,48.949222,0.001044642601720419,-0.023230986250042305,0.09764974270391902,44.11764879391193,-92.24360919585227,76.200527287817
2024-09-23 20:18:22.638631,44.07,48.949273,0.00034821073540793035,-0.023330473146428877,0.09755024973162574,44.11764879391193,-96.25519929585457,76.200527287817
2024-09-23 20:18:22.680725,44.07,48.949273,0.00034821073540793035,-0.023330473146428877,0.09755024973162574,36.09446859390736,-96.25519929585457,76.200527287817
2024-09-23 20:18:22.692982,44.07,48.949323,0.0003979595949556242,-0.02308174982955575,0.09755024973162574,36.09446859390736,-96.25519929585457,80.21211738781929
2024-09-23 20:18:22.735903,44.07,48.949374,0.0003979595949556242,-0.02308174982955575,0.09690356060148622,44.11764879391193,-100.26678939585686,72.1922225099802
2024-09-23 20:18:22.747390,44.07,48.949374,0.0004974468710863627,-0.02308174982955575,0.09690356060148622,44.11764879391193,-100.26678939585686,72.1922225099802
2024-09-23 20:18:22.779749,44.07,48.949374,0.0004974468710863627,-0.023230986250042305,0.09779897304849887,36.09446859390736,-100.26678939585686,72.1922225099802
2024-09-23 20:18:22.791214,44.07,48.949461,0.0004974468710863627,-0.023230986250042305,0.09779897304849887,36.09446859390736,-92.24360919585227,80.21211738781929
2024-09-23 20:18:22.833826,44.07,48.949461,0.0004974468710863627,-0.02293251340906919,0.09750050628343246,36.09446859390736,-92.24360919585227,76.200527287817
2024-09-23 20:18:22.876103,45.08,48.949513,0.0003979595949556242,-0.02293251340906919,0.09750050628343246,36.09446859390736,-92.24360919585227,76.200527287817
2024-09-23 20:18:22.887734,45.08,48.949513,0.0003979595949556242,-0.02352945757203875,0.09799795899308542,44.11764879391193,-92.24360919585227,76.200527287817
2024-09-23 20:18:22.929857,45.08,48.949563,0.0009451553255896806,-0.02338022115155219,0.09779897304849887,40.106058693909645,-92.24360919585227,76.200527287817
2024-09-23 20:18:22.973737,45.08,48.949614,0.0009451553255896806,-0.02338022115155219,0.09779897304849887,40.106058693909645,-92.24360919585227,76.200527287817
2024-09-23 20:18:22.985555,45.08,48.949614,0.000845657606494293,-0.023230986250042305,0.09755024973162574,40.106058693909645,-92.24360919585227,76.200527287817
2024-09-23 20:18:23.028572,45.08,48.949665,0.0009451553255896806,-0.0225345536717095,0.09755024973162574,48.12595698684454,-84.22370748782159,76.200527287817
2024-09-23 20:18:23.071897,45.08,48.949665,0.0009451553255896806,-0.0225345536717095,0.09685382322919964,36.09446859390736,-96.25519929585457,76.200527287817
2024-09-23 20:18:23.083561,45.08,48.949715,0.00024872343554318134,-0.0225345536717095,0.09685382322919964,36.09446859390736,-96.25519929585457,76.200527287817
2024-09-23 20:18:23.119160,45.08,48.949715,0.00024872343554318134,-0.02313149783467906,0.09685382322919964,36.09446859390736,-96.25519929585457,76.200527287817
2024-09-23 20:18:23.130590,45.08,48.949803,0.00024872343554318134,-0.02313149783467906,0.0970030596496862,36.09446859390736,-96.25519929585457,84.22370748782159
2024-09-23 20:18:23.173744,45.08,48.949803,0.0007959191899112484,-0.02308174982955575,0.0973512698629459,44.11764879391193,-92.24360919585227,84.22370748782159
2024-09-23 20:18:23.185774,45.08,48.949803,0.0007959191899112484,-0.02308174982955575,0.0973512698629459,44.11764879391193,-92.24360919585227,76.200527287817
2024-09-23 20:18:23.220346,45.08,48.949854,4.973845218406054e-05,-0.02338022115155219,0.0973512698629459,44.11764879391193,-92.24360919585227,76.200527287817
2024-09-23 20:18:23.232098,45.08,48.949854,4.973845218406054e-05,-0.02338022115155219,0.0973512698629459,36.09446859390736,-92.24360919585227,76.200527287817
2024-09-23 20:18:23.264618,45.08,48.949854,4.973845218406054e-05,-0.02338022115155219,0.0973512698629459,36.09446859390736,-92.24360919585227,76.200527287817
2024-09-23 20:18:23.276183,45.08,48.949905,0.00034821073540793035,-0.02303200030545576,0.09759999317981902,48.12595698684454,-92.24360919585227,76.200527287817
2024-09-23 20:18:23.318804,45.08,48.949955,0.0007959191899112484,-0.023429960042815445,0.09759999317981902,48.12595698684454,-92.24360919585227,72.1922225099802
2024-09-23 20:18:23.330453,45.08,48.949955,0.0007959191899112484,-0.023429960042815445,0.0973015264147526,48.12595698684454,-92.24360919585227,72.1922225099802
2024-09-23 20:18:23.363396,45.08,48.949955,0.0007959191899112484,-0.023429960042815445,0.0973015264147526,40.106058693909645,-96.25519929585457,72.1922225099802
2024-09-23 20:18:23.374574,45.08,48.950006,0.0007461703303635545,-0.023877669304275123,0.0973015264147526,40.106058693909645,-96.25519929585457,76.200527287817
2024-09-23 20:18:23.416633,45.08,48.950057,0.0007461703303635545,-0.023877669304275123,0.09740101331113918,48.12595698684454,-100.26678939585686,72.1922225099802
2024-09-23 20:18:23.428992,45.08,48.950057,0.0004974468710863627,-0.023877669304275123,0.09740101331113918,48.12595698684454,-100.26678939585686,72.1922225099802
2024-09-23 20:18:23.461128,45.08,48.950057,0.0004974468710863627,-0.02313149783467906,0.09745075675933246,48.12595698684454,-100.26678939585686,72.1922225099802
2024-09-23 20:18:23.472553,45.08,48.950144,0.0004974468710863627,-0.02313149783467906,0.09745075675933246,44.11764879391193,-100.26678939585686,76.200527287817
2024-09-23 20:18:23.515109,45.08,48.950144,0.0005969341946851222,-0.02397715620066169,0.09759999317981902,36.09446859390736,-96.25519929585457,76.200527287817
2024-09-23 20:18:23.557438,45.08,48.950195,0.0007959191899112484,-0.02397715620066169,0.09759999317981902,36.09446859390736,-96.25519929585457,76.200527287817
2024-09-23 20:18:23.569628,45.08,48.950195,0.0007959191899112484,-0.022982261414192504,0.0973512698629459,32.08287849390507,-88.23529758782387,76.200527287817
2024-09-23 20:18:23.612365,45.08,48.950246,0.0006964318663124887,-0.02338022115155219,0.09764974270391902,40.106058693909645,-88.23529758782387,80.21211738781929
2024-09-23 20:18:23.654989,45.08,48.950246,0.0006964318663124887,-0.02338022115155219,0.09764974270391902,40.106058693909645,-100.26678939585686,64.16903547978401
2024-09-23 20:18:23.666028,45.08,48.950296,0.00034821073540793035,-0.02303200030545576,0.09814718933766527,40.106058693909645,-100.26678939585686,64.16903547978401
2024-09-23 20:18:23.709142,45.08,48.950347,0.0009948937421727254,-0.02303200030545576,0.09814718933766527,44.11764879391193,-96.25519929585457,72.1922225099802
2024-09-23 20:18:23.720961,45.08,48.950347,0.0009948937421727254,-0.023728432883788564,0.09814718933766527,44.11764879391193,-96.25519929585457,72.1922225099802
2024-09-23 20:18:23.753120,45.08,48.950347,0.0009948937421727254,-0.023728432883788564,0.09755024973162574,44.11764879391193,-96.25519929585457,72.1922225099802
2024-09-23 20:18:23.764947,45.08,48.950398,0.0007461703303635545,-0.023728432883788564,0.09755024973162574,44.11764879391193,-92.24360919585227,80.21211738781929
2024-09-23 20:18:23.807134,45.08,48.950398,0.0007461703303635545,-0.023330473146428877,0.0973015264147526,36.09446859390736,-96.25519929585457,80.21211738781929
2024-09-23 20:18:23.819305,45.08,48.950485,0.0007461703303635545,-0.023330473146428877,0.0973015264147526,36.09446859390736,-96.25519929585457,80.21211738781929
2024-09-23 20:18:23.852667,45.08,48.950485,0.0005471957306340564,-0.0228827638849692,0.09745075675933246,36.09446859390736,-96.25519929585457,80.21211738781929
2024-09-23 20:18:23.864176,45.08,48.950485,0.0005471957306340564,-0.0228827638849692,0.09745075675933246,40.106058693909645,-88.23529758782387,72.1922225099802
2024-09-23 20:18:23.906497,44.93,48.950537,0.0007461703303635545,-0.02303200030545576,0.09690356060148622,36.09446859390736,-88.23529758782387,72.1922225099802
2024-09-23 20:18:23.948208,44.93,48.950587,0.0007461703303635545,-0.02303200030545576,0.09690356060148622,36.09446859390736,-88.23529758782387,80.21211738781929
2024-09-23 20:18:23.959347,44.93,48.950587,0.0010943914612681128,-0.022833026512682618,0.09809744588947199,44.11764879391193,-88.23529758782387,80.21211738781929
2024-09-23 20:18:24.003013,44.93,48.950638,4.973845218406054e-05,-0.02352945757203875,0.0970030596496862,44.11764879391193,-100.26678939585686,80.21211738781929
2024-09-23 20:18:24.045065,44.93,48.950638,4.973845218406054e-05,-0.02352945757203875,0.0970030596496862,48.12595698684454,-100.26678939585686,80.21211738781929
2024-09-23 20:18:24.056813,44.93,48.950689,0.0011441298778511575,-0.02303200030545576,0.0970030596496862,48.12595698684454,-100.26678939585686,76.200527287817
2024-09-23 20:18:24.099915,44.93,48.95074,0.0009451553255896806,-0.02303200030545576,0.09725178296655933,44.11764879391193,-96.25519929585457,72.1922225099802
2024-09-23 20:18:24.142716,44.93,48.95074,0.0009451553255896806,-0.02268379009219606,0.09764974270391902,44.11764879391193,-96.25519929585457,72.1922225099802
2024-09-23 20:18:24.154094,44.93,48.950826,0.0009451553255896806,-0.02268379009219606,0.09764974270391902,48.12595698684454,-96.25519929585457,80.21211738781929
2024-09-23 20:18:24.195985,44.93,48.950826,0.00024872343554318134,-0.02303200030545576,0.09680407370509965,28.07457030097246,-96.25519929585457,80.21211738781929
2024-09-23 20:18:24.208784,44.93,48.950826,0.00024872343554318134,-0.02303200030545576,0.09680407370509965,28.07457030097246,-96.25519929585457,76.200527287817
2024-09-23 20:18:24.241334,44.93,48.950878,0.0004974468710863627,-0.022833026512682618,0.09680407370509965,28.07457030097246,-96.25519929585457,76.200527287817
2024-09-23 20:18:24.252625,44.93,48.950878,0.0004974468710863627,-0.022833026512682618,0.09750050628343246,28.07457030097246,-96.25519929585457,76.200527287817
2024-09-23 20:18:24.295467,44.93,48.950928,0.0010943914612681128,-0.02352945757203875,0.09779897304849887,32.08287849390507,-96.25519929585457,80.21211738781929
2024-09-23 20:18:24.337325,44.93,48.950928,0.0010943914612681128,-0.02352945757203875,0.09779897304849887,32.08287849390507,-92.24360919585227,80.21211738781929
2024-09-23 20:18:24.349348,44.93,48.950979,0.0008954064660419869,-0.02293251340906919,0.09720203344245934,32.08287849390507,-92.24360919585227,80.21211738781929
2024-09-23 20:18:24.392216,44.93,48.95103,0.000845657606494293,-0.02293251340906919,0.09720203344245934,40.106058693909645,-84.22370748782159,84.22370748782159
2024-09-23 20:18:24.403847,44.93,48.95103,0.000845657606494293,-0.02303200030545576,0.09720203344245934,40.106058693909645,-84.22370748782159,84.22370748782159
2024-09-23 20:18:24.435784,44.93,48.95103,0.000845657606494293,-0.02303200030545576,0.09685382322919964,40.106058693909645,-84.22370748782159,84.22370748782159
2024-09-23 20:18:24.447521,44.93,48.95108,0.0009948937421727254,-0.02303200030545576,0.09685382322919964,40.106058693909645,-92.24360919585227,76.200527287817
2024-09-23 20:18:24.490312,44.93,48.951167,0.0009948937421727254,-0.023181236725942318,0.09710254654607277,36.09446859390736,-100.26678939585686,72.1922225099802
2024-09-23 20:18:24.533029,44.93,48.951167,0.0004974468710863627,-0.02313149783467906,0.09710254654607277,36.09446859390736,-100.26678939585686,72.1922225099802
2024-09-23 20:18:24.544832,44.93,48.951167,0.0004974468710863627,-0.02313149783467906,0.09715228999426605,40.106058693909645,-88.23529758782387,80.21211738781929
2024-09-23 20:18:24.587389,44.93,48.951219,0.0009451553255896806,-0.02303200030545576,0.0976994861521123,48.12595698684454,-92.24360919585227,80.21211738781929
2024-09-23 20:18:24.630828,44.93,48.95127,0.0009451553255896806,-0.02303200030545576,0.0976994861521123,48.12595698684454,-92.24360919585227,80.21211738781929
2024-09-23 20:18:24.641875,44.93,48.95127,0.0009451553255896806,-0.022982261414192504,0.09764974270391902,44.11764879391193,-92.24360919585227,80.21211738781929
2024-09-23 20:18:24.684986,44.93,48.95132,0.00044769805900669,-0.02278327698858263,0.09764974270391902,44.11764879391193,-100.26678939585686,72.1922225099802
2024-09-23 20:18:24.696762,44.93,48.95132,0.00044769805900669,-0.02278327698858263,0.09755024973162574,44.11764879391193,-100.26678939585686,72.1922225099802
2024-09-23 20:18:24.730750,44.93,48.95132,0.00044769805900669,-0.02278327698858263,0.09755024973162574,48.12595698684454,-100.26678939585686,80.21211738781929
2024-09-23 20:18:24.742050,44.93,48.951371,0.0013431148730772837,-0.023330473146428877,0.09755024973162574,48.12595698684454,-100.26678939585686,80.21211738781929
2024-09-23 20:18:24.784516,44.93,48.951422,0.0012933660135295898,-0.023330473146428877,0.09670458680871308,48.12595698684454,-92.24360919585227,76.200527287817
2024-09-23 20:18:24.827064,44.93,48.951422,0.0012933660135295898,-0.0228827638849692,0.09710254654607277,48.12595698684454,-92.24360919585227,76.200527287817
2024-09-23 20:18:24.839204,44.93,48.951509,0.0012933660135295898,-0.0228827638849692,0.09710254654607277,44.11764879391193,-92.24360919585227,76.200527287817
2024-09-23 20:18:24.883342,44.93,48.951509,0.000845657606494293,-0.0228827638849692,0.09764974270391902,36.09446859390736,-96.25519929585457,76.200527287817
2024-09-23 20:18:24.926108,44.0,48.95156,0.0006964318663124887,-0.022833026512682618,0.09764974270391902,36.09446859390736,-96.25519929585457,76.200527287817
2024-09-23 20:18:24.937141,44.0,48.95156,0.0006964318663124887,-0.022833026512682618,0.09779897304849887,40.106058693909645,-92.24360919585227,76.200527287817
2024-09-23 20:18:24.969984,44.0,48.95156,0.0006964318663124887,-0.022833026512682618,0.09779897304849887,40.106058693909645,-92.24360919585227,80.21211738781929
2024-09-23 20:18:24.981197,44.0,48.951611,0.0009948937421727254,-0.02308174982955575,0.09705279702197278,44.11764879391193,-92.24360919585227,80.21211738781929
2024-09-23 20:18:25.024683,44.0,48.951662,0.0007461703303635545,-0.02293251340906919,0.09705279702197278,44.11764879391193,-96.25519929585457,76.200527287817
2024-09-23 20:18:25.036601,44.0,48.951662,0.0007461703303635545,-0.02293251340906919,0.09745075675933246,44.11764879391193,-96.25519929585457,76.200527287817
2024-09-23 20:18:25.068871,44.0,48.951662,0.0007461703303635545,-0.02293251340906919,0.09745075675933246,40.106058693909645,-104.27510100388527,76.200527287817
2024-09-23 20:18:25.080395,44.0,48.951712,0.0012436275969465451,-0.022584292562972758,0.09745075675933246,40.106058693909645,-104.27510100388527,76.200527287817
2024-09-23 20:18:25.123631,44.0,48.951763,0.0012436275969465451,-0.022584292562972758,0.0973015264147526,40.106058693909645,-96.25519929585457,76.200527287817
2024-09-23 20:18:25.135927,44.0,48.951763,0.0006466830067647949,-0.022584292562972758,0.0973015264147526,40.106058693909645,-96.25519929585457,76.200527287817
2024-09-23 20:18:25.168163,44.0,48.951763,0.0006466830067647949,-0.02313149783467906,0.09740101331113918,44.11764879391193,-96.25519929585457,76.200527287817
2024-09-23 20:18:25.179895,44.0,48.95185,0.0006466830067647949,-0.02313149783467906,0.09740101331113918,44.11764879391193,-92.24360919585227,76.200527287817
2024-09-23 20:18:25.222699,44.0,48.95185,0.0004974468710863627,-0.02293251340906919,0.09745075675933246,40.106058693909645,-100.26678939585686,76.200527287817
2024-09-23 20:18:25.265249,44.0,48.951901,0.0006964318663124887,-0.02303200030545576,0.09745075675933246,40.106058693909645,-100.26678939585686,76.200527287817
2024-09-23 20:18:25.276919,44.0,48.951901,0.0006964318663124887,-0.02303200030545576,0.09794820946898543,48.12595698684454,-100.26678939585686,76.200527287817
2024-09-23 20:18:25.319223,44.0,48.951952,0.0005471957306340564,-0.023280723622328886,0.09750050628343246,48.12595698684454,-96.25519929585457,68.18063240997792
2024-09-23 20:18:25.362658,44.0,48.951952,0.0005471957306340564,-0.023280723622328886,0.09750050628343246,52.137550501942634,-96.25519929585457,68.18063240997792
2024-09-23 20:18:25.374089,44.0,48.952003,0.000845657606494293,-0.022733528983459317,0.09750050628343246,52.137550501942634,-96.25519929585457,80.21211738781929
2024-09-23 20:18:25.417140,44.0,48.952053,0.0010943914612681128,-0.022733528983459317,0.09755024973162574,44.11764879391193,-96.25519929585457,80.21211738781929
2024-09-23 20:18:25.460295,44.0,48.952053,0.0010943914612681128,-0.022584292562972758,0.0973512698629459,44.11764879391193,-96.25519929585457,80.21211738781929
2024-09-23 20:18:25.472372,44.0,48.952104,0.0010943914612681128,-0.022584292562972758,0.0973512698629459,44.11764879391193,-96.25519929585457,76.200527287817
2024-09-23 20:18:25.514943,44.0,48.952104,0.0004974468710863627,-0.02313149783467906,0.09764974270391902,48.12595698684454,-92.24360919585227,76.200527287817
2024-09-23 20:18:25.556846,44.0,48.952192,0.0009451553255896806,-0.02313149783467906,0.09764974270391902,48.12595698684454,-92.24360919585227,76.200527287817
2024-09-23 20:18:25.568002,44.0,48.952192,0.0009451553255896806,-0.02313149783467906,0.09750050628343246,40.106058693909645,-92.24360919585227,76.200527287817
2024-09-23 20:18:25.610657,44.0,48.952243,0.00024872343554318134,-0.02268379009219606,0.09695331012558621,40.106058693909645,-92.24360919585227,72.1922225099802
2024-09-23 20:18:25.622458,44.0,48.952243,0.00024872343554318134,-0.02268379009219606,0.09695331012558621,36.09446859390736,-92.24360919585227,72.1922225099802
2024-09-23 20:18:25.654556,44.0,48.952243,0.00024872343554318134,-0.02268379009219606,0.09695331012558621,36.09446859390736,-88.23529758782387,76.200527287817
2024-09-23 20:18:25.666347,44.0,48.952294,0.000845657606494293,-0.022733528983459317,0.09745075675933246,36.09446859390736,-88.23529758782387,76.200527287817
2024-09-23 20:18:25.709853,44.0,48.952344,0.0006466830067647949,-0.02303200030545576,0.09745075675933246,40.106058693909645,-100.26678939585686,76.200527287817
2024-09-23 20:18:25.753615,44.0,48.952344,0.0006466830067647949,-0.02303200030545576,0.09844565610273168,48.12595698684454,-96.25519929585457,76.200527287817
2024-09-23 20:18:25.764884,44.0,48.952395,0.0007959191899112484,-0.02303200030545576,0.09844565610273168,48.12595698684454,-96.25519929585457,76.200527287817
2024-09-23 20:18:25.848657,44.0,48.952395,0.0007959191899112484,-0.022833026512682618,0.09844565610273168,48.12595698684454,-96.25519929585457,76.200527287817
2024-09-23 20:18:25.860559,44.0,48.952484,0.0007959191899112484,-0.022833026512682618,0.09725178296655933,40.106058693909645,-96.25519929585457,72.1922225099802
2024-09-23 20:18:25.903253,44.0,48.952484,0.0009948937421727254,-0.023827930413011865,0.098047696365372,40.106058693909645,-96.25519929585457,72.1922225099802
2024-09-23 20:18:25.915947,44.0,48.952484,0.0009948937421727254,-0.023827930413011865,0.098047696365372,40.106058693909645,-96.25519929585457,72.1922225099802
2024-09-23 20:18:25.948064,43.61,48.952535,0.0009451553255896806,-0.0228827638849692,0.098047696365372,40.106058693909645,-96.25519929585457,72.1922225099802
2024-09-23 20:18:25.959138,43.61,48.952535,0.0009451553255896806,-0.0228827638849692,0.09759999317981902,36.09446859390736,-96.25519929585457,72.1922225099802
2024-09-23 20:18:26.002893,43.61,48.952586,0.0009948937421727254,-0.02293251340906919,0.0973512698629459,36.09446859390736,-96.25519929585457,76.200527287817
2024-09-23 20:18:26.046358,43.61,48.952636,0.0009948937421727254,-0.02293251340906919,0.0973512698629459,36.09446859390736,-96.25519929585457,72.1922225099802
2024-09-23 20:18:26.057921,43.61,48.952636,0.0006964318663124887,-0.02313149783467906,0.09680407370509965,36.09446859390736,-96.25519929585457,72.1922225099802
2024-09-23 20:18:26.100140,43.61,48.95273,0.0009451553255896806,-0.023728432883788564,0.09680407370509965,52.137550501942634,-100.26678939585686,72.1922225099802
2024-09-23 20:18:26.143603,43.61,48.95273,0.0009451553255896806,-0.023728432883788564,0.09799795899308542,52.137550501942634,-96.25519929585457,72.1922225099802
2024-09-23 20:18:26.155112,43.61,48.95278,0.0005969341946851222,-0.023728432883788564,0.09799795899308542,52.137550501942634,-96.25519929585457,80.21211738781929
2024-09-23 20:18:26.197772,43.61,48.952874,0.0005969341946851222,-0.023330473146428877,0.09685382322919964,32.08287849390507,-100.26678939585686,72.1922225099802
2024-09-23 20:18:26.240581,43.61,48.952874,0.0007461703303635545,-0.02367869399252531,0.09755024973162574,32.08287849390507,-100.26678939585686,72.1922225099802
2024-09-23 20:18:26.252781,43.61,48.952874,0.0007461703303635545,-0.02367869399252531,0.09755024973162574,56.14914060194492,-96.25519929585457,76.200527287817
2024-09-23 20:18:26.295013,43.61,48.952926,0.0011441298778511575,-0.022833026512682618,0.09784872257259886,44.11764879391193,-96.25519929585457,76.200527287817
2024-09-23 20:18:26.337324,43.61,48.952976,0.0011441298778511575,-0.022833026512682618,0.09784872257259886,44.11764879391193,-96.25519929585457,80.21211738781929
2024-09-23 20:18:26.390430,43.61,48.952976,0.0008954064660419869,-0.022982261414192504,0.098047696365372,44.11764879391193,-96.25519929585457,80.21211738781929
2024-09-23 20:18:26.402598,43.61,48.952976,0.0008954064660419869,-0.022982261414192504,0.098047696365372,44.11764879391193,-96.25519929585457,80.21211738781929
2024-09-23 20:18:26.435171,43.61,48.953027,0.00034821073540793035,-0.022982261414192504,0.098047696365372,44.11764879391193,-96.25519929585457,80.21211738781929
2024-09-23 20:18:26.446724,43.61,48.953027,0.00034821073540793035,-0.023280723622328886,0.0973015264147526,36.09446859390736,-96.25519929585457,80.21211738781929
2024-09-23 20:18:26.489805,43.61,48.953078,0.0012933660135295898,-0.022833026512682618,0.09720203344245934,48.12595698684454,-96.25519929585457,76.200527287817
2024-09-23 20:18:26.531891,43.61,48.953078,0.0012933660135295898,-0.022833026512682618,0.09720203344245934,48.12595698684454,-100.26678939585686,76.200527287817
2024-09-23 20:18:26.544111,43.61,48.953129,0.0007959191899112484,-0.02303200030545576,0.09774922960030558,48.12595698684454,-100.26678939585686,76.200527287817
2024-09-23 20:18:26.586504,43.61,48.953215,0.0003979595949556242,-0.02308174982955575,0.09774922960030558,36.09446859390736,-88.23529758782387,76.200527287817
2024-09-23 20:18:26.629476,43.61,48.953215,0.0003979595949556242,-0.02308174982955575,0.09695331012558621,44.11764879391193,-88.23529758782387,76.200527287817
2024-09-23 20:18:26.640891,43.61,48.953266,0.0004974468710863627,-0.02308174982955575,0.09695331012558621,44.11764879391193,-88.23529758782387,80.21211738781929
2024-09-23 20:18:26.684651,43.61,48.953266,0.0004974468710863627,-0.023181236725942318,0.0973512698629459,48.12595698684454,-96.25519929585457,68.18063240997792
2024-09-23 20:18:26.696535,43.61,48.953361,0.0004974468710863627,-0.023181236725942318,0.0973512698629459,48.12595698684454,-96.25519929585457,68.18063240997792
2024-09-23 20:18:26.730119,43.61,48.953361,0.00044769805900669,-0.023280723622328886,0.09809744588947199,48.12595698684454,-96.25519929585457,68.18063240997792
2024-09-23 20:18:26.741614,43.61,48.953361,0.00044769805900669,-0.023280723622328886,0.09809744588947199,44.11764879391193,-92.24360919585227,76.200527287817
2024-09-23 20:18:26.773803,43.61,48.953413,0.00044769805900669,-0.023280723622328886,0.09809744588947199,44.11764879391193,-92.24360919585227,76.200527287817
2024-09-23 20:18:26.785215,43.61,48.953413,0.0005969341946851222,-0.02308174982955575,0.0973015264147526,44.11764879391193,-96.25519929585457,76.200527287817
2024-09-23 20:18:26.827719,43.61,48.953413,0.0005969341946851222,-0.02308174982955575,0.0973015264147526,44.11764879391193,-96.25519929585457,76.200527287817
2024-09-23 20:18:26.880966,43.61,48.953464,0.0009451553255896806,-0.023280723622328886,0.09715228999426605,40.106058693909645,-92.24360919585227,76.200527287817
2024-09-23 20:18:26.924725,43.61,48.953514,0.0011441298778511575,-0.02233556924609963,0.09715228999426605,40.106058693909645,-92.24360919585227,72.1922225099802
2024-09-23 20:18:26.936599,43.61,48.953514,0.0011441298778511575,-0.02233556924609963,0.09725178296655933,44.11764879391193,-92.24360919585227,72.1922225099802
2024-09-23 20:18:26.968390,43.04,48.953514,0.0011441298778511575,-0.02233556924609963,0.09725178296655933,44.11764879391193,-96.25519929585457,72.1922225099802
2024-09-23 20:18:26.979644,43.04,48.953565,0.0009451553255896806,-0.023230986250042305,0.09750050628343246,44.11764879391193,-96.25519929585457,68.18063240997792
2024-09-23 20:18:27.023271,43.04,48.953616,0.0009451553255896806,-0.023230986250042305,0.09750050628343246,40.106058693909645,-92.24360919585227,80.21211738781929
2024-09-23 20:18:27.038862,43.04,48.953616,0.000845657606494293,-0.023330473146428877,0.09750050628343246,40.106058693909645,-92.24360919585227,80.21211738781929
2024-09-23 20:18:27.071339,43.04,48.953616,0.000845657606494293,-0.023330473146428877,0.0973015264147526,32.08287849390507,-96.25519929585457,72.1922225099802
2024-09-23 20:18:27.083915,43.04,48.953702,0.0008954064660419869,-0.023330473146428877,0.0973015264147526,32.08287849390507,-96.25519929585457,72.1922225099802
2024-09-23 20:18:27.116431,43.04,48.953702,0.0008954064660419869,-0.02293251340906919,0.09799795899308542,32.08287849390507,-96.25519929585457,72.1922225099802
2024-09-23 20:18:27.127943,43.04,48.9538,0.0008954064660419869,-0.02293251340906919,0.09799795899308542,36.09446859390736,-92.24360919585227,72.1922225099802
2024-09-23 20:18:27.171407,43.04,48.9538,0.0004974468710863627,-0.02308174982955575,0.09759999317981902,52.137550501942634,-92.24360919585227,72.1922225099802
2024-09-23 20:18:27.182860,43.04,48.9538,0.0004974468710863627,-0.02308174982955575,0.09759999317981902,52.137550501942634,-92.24360919585227,76.200527287817
2024-09-23 20:18:27.214283,43.04,48.953851,0.0010943914612681128,-0.02308174982955575,0.09759999317981902,52.137550501942634,-92.24360919585227,76.200527287817
2024-09-23 20:18:27.225400,43.04,48.953851,0.0010943914612681128,-0.02303200030545576,0.0973015264147526,40.106058693909645,-92.24360919585227,76.200527287817
2024-09-23 20:18:27.268415,43.04,48.953902,0.0004974468710863627,-0.023479709566915436,0.0973015264147526,40.106058693909645,-92.24360919585227,76.200527287817
2024-09-23 20:18:27.281637,43.04,48.953902,0.0004974468710863627,-0.023479709566915436,0.0973512698629459,40.106058693909645,-92.24360919585227,76.200527287817
2024-09-23 20:18:27.313900,43.04,48.953953,0.0004974468710863627,-0.023479709566915436,0.0973512698629459,40.106058693909645,-96.25519929585457,80.21211738781929
2024-09-23 20:18:27.325007,43.04,48.953953,0.0005969341946851222,-0.023778180888911878,0.09755024973162574,40.106058693909645,-96.25519929585457,80.21211738781929
2024-09-23 20:18:27.367159,43.04,48.954004,0.0006466830067647949,-0.023429960042815445,0.09755024973162574,36.09446859390736,-92.24360919585227,84.22370748782159
2024-09-23 20:18:27.409269,43.04,48.954004,0.0006466830067647949,-0.023429960042815445,0.09764974270391902,48.12595698684454,-92.24360919585227,84.22370748782159
2024-09-23 20:18:27.421677,43.04,48.954055,0.0009948937421727254,-0.023429960042815445,0.09764974270391902,48.12595698684454,-92.24360919585227,76.200527287817
2024-09-23 20:18:27.463942,43.04,48.954141,0.0009948937421727254,-0.02352945757203875,0.09755024973162574,36.09446859390736,-92.24360919585227,76.200527287817
2024-09-23 20:18:27.506626,43.04,48.954141,0.00044769805900669,-0.023429960042815445,0.09755024973162574,36.09446859390736,-92.24360919585227,76.200527287817
2024-09-23 20:18:27.518008,43.04,48.954141,0.00044769805900669,-0.023429960042815445,0.09755024973162574,36.09446859390736,-96.25519929585457,76.200527287817
2024-09-23 20:18:27.560379,43.04,48.954193,0.0012933660135295898,-0.0228827638849692,0.0973512698629459,48.12595698684454,-96.25519929585457,76.200527287817
2024-09-23 20:18:27.572158,43.04,48.954193,0.0012933660135295898,-0.0228827638849692,0.0973512698629459,48.12595698684454,-100.26678939585686,76.200527287817
2024-09-23 20:18:27.604037,43.04,48.954193,0.0012933660135295898,-0.0228827638849692,0.0973512698629459,48.12595698684454,-100.26678939585686,76.200527287817
2024-09-23 20:18:27.615945,43.04,48.954243,0.0009451553255896806,-0.02308174982955575,0.09720203344245934,52.137550501942634,-100.26678939585686,76.200527287817
2024-09-23 20:18:27.658834,43.04,48.954294,0.0006964318663124887,-0.023280723622328886,0.09799795899308542,52.137550501942634,-96.25519929585457,80.21211738781929
2024-09-23 20:18:27.701813,43.04,48.954294,0.0006964318663124887,-0.023280723622328886,0.09799795899308542,44.11764879391193,-88.23529758782387,80.21211738781929
2024-09-23 20:18:27.713775,43.04,48.954345,0.0007461703303635545,-0.023181236725942318,0.09799795899308542,44.11764879391193,-88.23529758782387,84.22370748782159
2024-09-23 20:18:27.755641,43.04,48.954395,0.0007461703303635545,-0.023181236725942318,0.09715228999426605,48.12595698684454,-92.24360919585227,76.200527287817
2024-09-23 20:18:27.767536,43.04,48.954395,0.0007461703303635545,-0.023181236725942318,0.09715228999426605,48.12595698684454,-92.24360919585227,76.200527287817
2024-09-23 20:18:27.800429,43.04,48.954395,0.0007461703303635545,-0.022982261414192504,0.09750050628343246,48.12595698684454,-92.24360919585227,76.200527287817
2024-09-23 20:18:27.811603,43.04,48.954482,0.0007461703303635545,-0.022982261414192504,0.09750050628343246,48.12595698684454,-88.23529758782387,76.200527287817
2024-09-23 20:18:27.854161,43.04,48.954482,0.0006466830067647949,-0.02293251340906919,0.09750050628343246,52.137550501942634,-92.24360919585227,76.200527287817
2024-09-23 20:18:27.865739,43.04,48.954482,0.0006466830067647949,-0.02293251340906919,0.09750050628343246,52.137550501942634,-92.24360919585227,72.1922225099802
2024-09-23 20:18:27.898263,43.04,48.954534,0.000845657606494293,-0.022982261414192504,0.09750050628343246,52.137550501942634,-92.24360919585227,72.1922225099802
2024-09-23 20:18:27.910043,43.04,48.954534,0.000845657606494293,-0.022982261414192504,0.0976994861521123,48.12595698684454,-92.24360919585227,72.1922225099802
2024-09-23 20:18:27.952588,43.04,48.954585,0.0011938787373988514,-0.02338022115155219,0.0970030596496862,44.11764879391193,-92.24360919585227,76.200527287817
2024-09-23 20:18:27.994918,43.29,48.954585,0.0011938787373988514,-0.02338022115155219,0.0970030596496862,44.11764879391193,-96.25519929585457,72.1922225099802
2024-09-23 20:18:28.006403,43.29,48.954635,0.0008954064660419869,-0.023330473146428877,0.09759999317981902,44.11764879391193,-96.25519929585457,72.1922225099802
2024-09-23 20:18:28.049983,43.29,48.954686,0.0011441298778511575,-0.023479709566915436,0.09759999317981902,36.09446859390736,-96.25519929585457,80.21211738781929
2024-09-23 20:18:28.093327,43.29,48.954686,0.0011441298778511575,-0.023479709566915436,0.0973512698629459,40.106058693909645,-92.24360919585227,80.21211738781929
2024-09-23 20:18:28.104621,43.29,48.954737,0.0007461703303635545,-0.023479709566915436,0.0973512698629459,40.106058693909645,-92.24360919585227,80.21211738781929
2024-09-23 20:18:28.147601,43.29,48.954824,0.0007461703303635545,-0.02293251340906919,0.09715228999426605,36.09446859390736,-92.24360919585227,72.1922225099802
2024-09-23 20:18:28.190118,43.29,48.954824,0.0005471957306340564,-0.022982261414192504,0.0973015264147526,36.09446859390736,-92.24360919585227,72.1922225099802
2024-09-23 20:18:28.201161,43.29,48.954824,0.0005471957306340564,-0.022982261414192504,0.0973015264147526,44.11764879391193,-100.26678939585686,76.200527287817
2024-09-23 20:18:28.243322,43.29,48.954875,0.00034821073540793035,-0.02303200030545576,0.09750050628343246,52.137550501942634,-92.24360919585227,76.200527287817
2024-09-23 20:18:28.285961,43.29,48.954926,0.00034821073540793035,-0.02303200030545576,0.09750050628343246,52.137550501942634,-92.24360919585227,76.200527287817
2024-09-23 20:18:28.299027,43.29,48.954926,0.0010943914612681128,-0.02303200030545576,0.0970030596496862,40.106058693909645,-92.24360919585227,76.200527287817
2024-09-23 20:18:28.342178,43.29,48.954976,0.0004974468710863627,-0.023181236725942318,0.09745075675933246,40.106058693909645,-92.24360919585227,80.21211738781929
2024-09-23 20:18:28.384277,43.29,48.954976,0.0004974468710863627,-0.023181236725942318,0.09745075675933246,20.05138839341998,-92.24360919585227,80.21211738781929
2024-09-23 20:18:28.395481,43.29,48.955027,0.0006964318663124887,-0.023280723622328886,0.09745075675933246,20.05138839341998,-92.24360919585227,80.21211738781929
2024-09-23 20:18:28.438349,43.29,48.955078,0.0006964318663124887,-0.023280723622328886,0.0973512698629459,40.106058693909645,-88.23529758782387,80.21211738781929
2024-09-23 20:18:28.449810,43.29,48.955078,0.00034821073540793035,-0.023280723622328886,0.0973512698629459,40.106058693909645,-88.23529758782387,80.21211738781929
2024-09-23 20:18:28.481157,43.29,48.955078,0.00034821073540793035,-0.023280723622328886,0.09745075675933246,40.106058693909645,-88.23529758782387,80.21211738781929
2024-09-23 20:18:28.492846,43.29,48.955165,0.00034821073540793035,-0.023280723622328886,0.09745075675933246,44.11764879391193,-92.24360919585227,76.200527287817
2024-09-23 20:18:28.535084,43.29,48.955165,0.001044642601720419,-0.02338022115155219,0.09750050628343246,40.106058693909645,-92.24360919585227,76.200527287817
2024-09-23 20:18:28.547127,43.29,48.955165,0.001044642601720419,-0.02338022115155219,0.09750050628343246,40.106058693909645,-92.24360919585227,76.200527287817
2024-09-23 20:18:28.580347,43.29,48.955216,0.0009451553255896806,-0.02278327698858263,0.09750050628343246,40.106058693909645,-92.24360919585227,76.200527287817
2024-09-23 20:18:28.591473,43.29,48.955216,0.0009451553255896806,-0.02278327698858263,0.0976994861521123,52.137550501942634,-84.22370748782159,76.200527287817
2024-09-23 20:18:28.633607,43.29,48.955267,0.0006466830067647949,-0.023230986250042305,0.0970030596496862,52.137550501942634,-84.22370748782159,88.23529758782387
2024-09-23 20:18:28.645623,43.29,48.955267,0.0006466830067647949,-0.023230986250042305,0.0970030596496862,52.137550501942634,-84.22370748782159,88.23529758782387
2024-09-23 20:18:28.678809,43.29,48.955318,0.0006466830067647949,-0.023230986250042305,0.0970030596496862,52.137550501942634,-92.24360919585227,76.200527287817
2024-09-23 20:18:28.690113,43.29,48.955318,0.0006466830067647949,-0.023330473146428877,0.09764974270391902,52.137550501942634,-92.24360919585227,76.200527287817
2024-09-23 20:18:28.732520,43.29,48.955368,0.0009948937421727254,-0.022833026512682618,0.09764974270391902,48.12595698684454,-100.26678939585686,76.200527287817
2024-09-23 20:18:28.775195,43.29,48.955368,0.0009948937421727254,-0.022833026512682618,0.09715228999426605,32.08287849390507,-92.24360919585227,76.200527287817
2024-09-23 20:18:28.787378,43.29,48.955419,0.0005969341946851222,-0.022833026512682618,0.09715228999426605,32.08287849390507,-92.24360919585227,80.21211738781929
2024-09-23 20:18:28.830030,43.29,48.955506,0.0005969341946851222,-0.02268379009219606,0.09759999317981902,52.137550501942634,-92.24360919585227,76.200527287817
2024-09-23 20:18:28.873922,43.29,48.955506,0.0006466830067647949,-0.02293251340906919,0.09720203344245934,52.137550501942634,-92.24360919585227,76.200527287817
2024-09-23 20:18:28.885844,43.29,48.955506,0.0006466830067647949,-0.02293251340906919,0.09720203344245934,40.106058693909645,-96.25519929585457,76.200527287817
2024-09-23 20:18:28.918461,43.29,48.955558,0.0006466830067647949,-0.02293251340906919,0.09720203344245934,40.106058693909645,-96.25519929585457,76.200527287817
2024-09-23 20:18:28.929812,43.29,48.955558,0.001044642601720419,-0.0228827638849692,0.09690356060148622,52.137550501942634,-84.22370748782159,76.200527287817
2024-09-23 20:18:28.972432,43.29,48.955608,0.0006466830067647949,-0.02338022115155219,0.09690356060148622,52.137550501942634,-84.22370748782159,76.200527287817
2024-09-23 20:18:28.984359,43.29,48.955608,0.0006466830067647949,-0.02338022115155219,0.09745075675933246,48.12595698684454,-84.22370748782159,76.200527287817
2024-09-23 20:18:29.015874,43.27,48.955608,0.0006466830067647949,-0.02338022115155219,0.09745075675933246,48.12595698684454,-96.25519929585457,76.200527287817
2024-09-23 20:18:29.027232,43.27,48.955659,0.00014922575204880957,-0.02352945757203875,0.09774922960030558,48.12595698684454,-96.25519929585457,76.200527287817
2024-09-23 20:18:29.069583,43.27,48.95571,0.00014922575204880957,-0.02352945757203875,0.09774922960030558,44.11764879391193,-88.23529758782387,76.200527287817
2024-09-23 20:18:29.080795,43.27,48.95571,0.001044642601720419,-0.023181236725942318,0.09774922960030558,44.11764879391193,-88.23529758782387,76.200527287817
2024-09-23 20:18:29.123120,43.27,48.95576,0.0005969341946851222,-0.023181236725942318,0.09759999317981902,32.08287849390507,-92.24360919585227,76.200527287817
2024-09-23 20:18:29.166602,43.27,48.95576,0.0005969341946851222,-0.023280723622328886,0.09740101331113918,48.12595698684454,-92.24360919585227,76.200527287817
2024-09-23 20:18:29.178126,43.27,48.955847,0.0005969341946851222,-0.023280723622328886,0.09740101331113918,48.12595698684454,-96.25519929585457,72.1922225099802
2024-09-23 20:18:29.220264,43.27,48.955847,0.0007959191899112484,-0.02238531725122294,0.0973015264147526,44.11764879391193,-100.26678939585686,72.1922225099802
2024-09-23 20:18:29.262955,43.27,48.955899,0.00034821073540793035,-0.022733528983459317,0.0973015264147526,44.11764879391193,-100.26678939585686,72.1922225099802
2024-09-23 20:18:29.274452,43.27,48.955899,0.00034821073540793035,-0.022733528983459317,0.09685382322919964,44.11764879391193,-96.25519929585457,72.1922225099802
2024-09-23 20:18:29.317615,43.27,48.95595,0.0009948937421727254,-0.02362894446842532,0.09774922960030558,48.12595698684454,-96.25519929585457,76.200527287817
2024-09-23 20:18:29.360195,43.27,48.956,0.0009948937421727254,-0.02362894446842532,0.09774922960030558,48.12595698684454,-100.26678939585686,80.21211738781929
2024-09-23 20:18:29.371280,43.27,48.956,0.0004974468710863627,-0.023280723622328886,0.0973015264147526,48.12595698684454,-100.26678939585686,80.21211738781929
2024-09-23 20:18:29.415260,43.27,48.956051,0.0007959191899112484,-0.022733528983459317,0.0973015264147526,48.12595698684454,-88.23529758782387,80.21211738781929
2024-09-23 20:18:29.457328,43.27,48.956051,0.0007959191899112484,-0.022733528983459317,0.09745075675933246,48.12595698684454,-92.24360919585227,80.21211738781929
2024-09-23 20:18:29.468690,43.27,48.956102,0.0008954064660419869,-0.022733528983459317,0.09745075675933246,48.12595698684454,-92.24360919585227,72.1922225099802
2024-09-23 20:18:29.511234,43.27,48.956102,0.0008954064660419869,-0.023280723622328886,0.09720203344245934,36.09446859390736,-92.24360919585227,72.1922225099802
2024-09-23 20:18:29.523227,43.27,48.956189,0.0008954064660419869,-0.023280723622328886,0.09720203344245934,36.09446859390736,-92.24360919585227,72.1922225099802
2024-09-23 20:18:29.556099,43.27,48.956189,0.0004974468710863627,-0.023330473146428877,0.0973015264147526,36.09446859390736,-92.24360919585227,72.1922225099802
2024-09-23 20:18:29.567780,43.27,48.956189,0.0004974468710863627,-0.023330473146428877,0.0973015264147526,40.106058693909645,-92.24360919585227,72.1922225099802
2024-09-23 20:18:29.610483,43.27,48.956241,0.0004974468710863627,-0.02352945757203875,0.09764974270391902,40.106058693909645,-92.24360919585227,80.21211738781929
2024-09-23 20:18:29.655249,43.27,48.956241,0.0004974468710863627,-0.02352945757203875,0.09764974270391902,36.09446859390736,-92.24360919585227,80.21211738781929
2024-09-23 20:18:29.669643,43.27,48.956291,0.0015918383798224967,-0.023330473146428877,0.09764974270391902,36.09446859390736,-92.24360919585227,80.21211738781929
2024-09-23 20:18:29.702406,43.27,48.956291,0.0015918383798224967,-0.023330473146428877,0.09715228999426605,40.106058693909645,-92.24360919585227,80.21211738781929
2024-09-23 20:18:29.713823,43.27,48.956342,0.0012436275969465451,-0.023330473146428877,0.09715228999426605,40.106058693909645,-92.24360919585227,80.21211738781929
2024-09-23 20:18:29.756382,43.27,48.956393,0.0012436275969465451,-0.023181236725942318,0.09814718933766527,48.12595698684454,-96.25519929585457,84.22370748782159
2024-09-23 20:18:29.799174,43.27,48.956393,0.0007461703303635545,-0.02293251340906919,0.09759999317981902,48.12595698684454,-96.25519929585457,84.22370748782159
2024-09-23 20:18:29.810608,43.27,48.956393,0.0007461703303635545,-0.02293251340906919,0.09759999317981902,48.12595698684454,-92.24360919585227,76.200527287817
2024-09-23 20:18:29.853893,43.27,48.956482,0.0008954064660419869,-0.02293251340906919,0.09814718933766527,52.137550501942634,-96.25519929585457,76.200527287817
2024-09-23 20:18:29.896081,43.27,48.956533,0.0008954064660419869,-0.02293251340906919,0.09814718933766527,52.137550501942634,-96.25519929585457,72.1922225099802
2024-09-23 20:18:29.907769,43.27,48.956533,0.0006466830067647949,-0.022733528983459317,0.0973512698629459,36.09446859390736,-96.25519929585457,72.1922225099802
2024-09-23 20:18:29.950924,43.27,48.956584,0.0008954064660419869,-0.02303200030545576,0.0973512698629459,36.09446859390736,-92.24360919585227,76.200527287817
2024-09-23 20:18:29.994495,43.27,48.956584,0.0008954064660419869,-0.02303200030545576,0.0973512698629459,52.137550501942634,-88.23529758782387,72.1922225099802
2024-09-23 20:18:30.006339,43.27,48.956634,0.0003979595949556242,-0.023230986250042305,0.0973512698629459,52.137550501942634,-88.23529758782387,72.1922225099802
2024-09-23 20:18:30.049135,42.98,48.956685,0.0009948937421727254,-0.023230986250042305,0.09764974270391902,40.106058693909645,-100.26678939585686,80.21211738781929
2024-09-23 20:18:30.092114,42.98,48.956685,0.0009948937421727254,-0.02303200030545576,0.0976994861521123,36.09446859390736,-100.26678939585686,80.21211738781929
2024-09-23 20:18:30.103571,42.98,48.956774,0.0009948937421727254,-0.02303200030545576,0.0976994861521123,36.09446859390736,-96.25519929585457,76.200527287817
2024-09-23 20:18:30.146765,42.98,48.956774,0.000845657606494293,-0.02338022115155219,0.09710254654607277,44.11764879391193,-92.24360919585227,72.1922225099802
2024-09-23 20:18:30.189986,42.98,48.956825,0.0007959191899112484,-0.02362894446842532,0.09710254654607277,44.11764879391193,-92.24360919585227,72.1922225099802
2024-09-23 20:18:30.202082,42.98,48.956825,0.0007959191899112484,-0.02362894446842532,0.09690356060148622,56.14914060194492,-96.25519929585457,72.1922225099802
2024-09-23 20:18:30.234302,42.98,48.956825,0.0007959191899112484,-0.02362894446842532,0.09690356060148622,56.14914060194492,-96.25519929585457,76.200527287817
2024-09-23 20:18:30.245563,42.98,48.956876,0.0012933660135295898,-0.023280723622328886,0.0973015264147526,40.106058693909645,-96.25519929585457,76.200527287817
2024-09-23 20:18:30.288092,42.98,48.956927,0.0012933660135295898,-0.023280723622328886,0.0973015264147526,40.106058693909645,-100.26678939585686,64.16903547978401
2024-09-23 20:18:30.299075,42.98,48.956927,0.00034821073540793035,-0.023280723622328886,0.09750050628343246,40.106058693909645,-100.26678939585686,64.16903547978401
2024-09-23 20:18:30.342212,42.98,48.956977,0.0007959191899112484,-0.023877669304275123,0.09750050628343246,28.07457030097246,-92.24360919585227,76.200527287817
2024-09-23 20:18:30.383982,42.98,48.956977,0.0007959191899112484,-0.023877669304275123,0.09784872257259886,48.12595698684454,-96.25519929585457,76.200527287817
2024-09-23 20:18:30.394986,42.98,48.957028,0.0010943914612681128,-0.023877669304275123,0.09784872257259886,48.12595698684454,-96.25519929585457,72.1922225099802
2024-09-23 20:18:30.437583,42.98,48.957115,0.0010943914612681128,-0.022733528983459317,0.09759999317981902,36.09446859390736,-100.26678939585686,76.200527287817
2024-09-23 20:18:30.480586,42.98,48.957115,0.0008954064660419869,-0.02308174982955575,0.09759999317981902,36.09446859390736,-100.26678939585686,76.200527287817
2024-09-23 20:18:30.491885,42.98,48.957115,0.0008954064660419869,-0.02308174982955575,0.0970030596496862,36.09446859390736,-96.25519929585457,72.1922225099802
2024-09-23 20:18:30.534389,42.98,48.957166,0.0008954064660419869,-0.022982261414192504,0.09750050628343246,36.09446859390736,-96.25519929585457,72.1922225099802
2024-09-23 20:18:30.546410,42.98,48.957166,0.0008954064660419869,-0.022982261414192504,0.09750050628343246,36.09446859390736,-92.24360919585227,72.1922225099802
2024-09-23 20:18:30.578881,42.98,48.957217,0.0008954064660419869,-0.022982261414192504,0.09750050628343246,36.09446859390736,-92.24360919585227,72.1922225099802
2024-09-23 20:18:30.590247,42.98,48.957217,0.0005471957306340564,-0.023479709566915436,0.09745075675933246,40.106058693909645,-92.24360919585227,72.1922225099802
2024-09-23 20:18:30.633656,42.98,48.957268,0.0009451553255896806,-0.022584292562972758,0.09755024973162574,40.106058693909645,-96.25519929585457,80.21211738781929
2024-09-23 20:18:30.677171,42.98,48.957268,0.0009451553255896806,-0.022584292562972758,0.09755024973162574,48.12595698684454,-92.24360919585227,76.200527287817
2024-09-23 20:18:30.688810,42.98,48.957319,0.0007461703303635545,-0.022733528983459317,0.09755024973162574,48.12595698684454,-92.24360919585227,76.200527287817
2024-09-23 20:18:30.731220,42.98,48.957369,0.0009451553255896806,-0.022733528983459317,0.0973015264147526,44.11764879391193,-96.25519929585457,76.200527287817
2024-09-23 20:18:30.772969,42.98,48.957369,0.0009451553255896806,-0.023230986250042305,0.0973512698629459,44.11764879391193,-96.25519929585457,76.200527287817
2024-09-23 20:18:30.784179,42.98,48.957456,0.0009451553255896806,-0.023230986250042305,0.0973512698629459,36.09446859390736,-92.24360919585227,76.200527287817
2024-09-23 20:18:30.827074,42.98,48.957456,0.0005969341946851222,-0.023429960042815445,0.09829641968224512,44.11764879391193,-96.25519929585457,76.200527287817
2024-09-23 20:18:30.838718,42.98,48.957456,0.0005969341946851222,-0.023429960042815445,0.09829641968224512,44.11764879391193,-96.25519929585457,72.1922225099802
2024-09-23 20:18:30.870562,42.98,48.957508,0.00029846189959424716,-0.023429960042815445,0.09829641968224512,44.11764879391193,-96.25519929585457,72.1922225099802
2024-09-23 20:18:30.881744,42.98,48.957508,0.00029846189959424716,-0.02293251340906919,0.09725178296655933,44.11764879391193,-96.25519929585457,72.1922225099802
2024-09-23 20:18:30.924600,42.98,48.957558,0.0006964318663124887,-0.02303200030545576,0.09759999317981902,40.106058693909645,-96.25519929585457,72.1922225099802
2024-09-23 20:18:30.967704,42.98,48.957558,0.0006964318663124887,-0.02303200030545576,0.09759999317981902,40.106058693909645,-96.25519929585457,76.200527287817
2024-09-23 20:18:30.979140,42.98,48.957609,0.001442602149208022,-0.02313149783467906,0.09779897304849887,40.106058693909645,-96.25519929585457,76.200527287817
2024-09-23 20:18:31.021160,42.98,48.95766,0.0005471957306340564,-0.02313149783467906,0.09779897304849887,44.11764879391193,-100.26678939585686,72.1922225099802
2024-09-23 20:18:31.032784,42.98,48.95766,0.0005471957306340564,-0.023429960042815445,0.09779897304849887,44.11764879391193,-100.26678939585686,72.1922225099802
2024-09-23 20:18:31.065414,43.01,48.95766,0.0005471957306340564,-0.023429960042815445,0.09764974270391902,44.11764879391193,-100.26678939585686,72.1922225099802
2024-09-23 20:18:31.077034,43.01,48.95771,0.000845657606494293,-0.023429960042815445,0.09764974270391902,44.11764879391193,-96.25519929585457,76.200527287817
2024-09-23 20:18:31.119788,43.01,48.95771,0.000845657606494293,-0.022584292562972758,0.09759999317981902,40.106058693909645,-88.23529758782387,76.200527287817
2024-09-23 20:18:31.132132,43.01,48.957797,0.000845657606494293,-0.022584292562972758,0.09759999317981902,40.106058693909645,-88.23529758782387,76.200527287817
2024-09-23 20:18:31.163915,43.01,48.957797,0.0005969341946851222,-0.023280723622328886,0.09764974270391902,40.106058693909645,-88.23529758782387,76.200527287817
2024-09-23 20:18:31.176208,43.01,48.957797,0.0005969341946851222,-0.023280723622328886,0.09764974270391902,44.11764879391193,-96.25519929585457,76.200527287817
2024-09-23 20:18:31.218988,43.01,48.957849,0.00034821073540793035,-0.023230986250042305,0.09670458680871308,28.07457030097246,-92.24360919585227,76.200527287817
2024-09-23 20:18:31.261899,43.01,48.9579,0.0006964318663124887,-0.023230986250042305,0.09670458680871308,28.07457030097246,-92.24360919585227,80.21211738781929
2024-09-23 20:18:31.273738,43.01,48.9579,0.0006964318663124887,-0.023479709566915436,0.09745075675933246,32.08287849390507,-92.24360919585227,80.21211738781929
2024-09-23 20:18:31.316649,43.01,48.95795,0.0009948937421727254,-0.02268379009219606,0.0976994861521123,32.08287849390507,-100.26678939585686,76.200527287817
2024-09-23 20:18:31.359475,43.01,48.95795,0.0009948937421727254,-0.02268379009219606,0.0976994861521123,36.09446859390736,-96.25519929585457,80.21211738781929
2024-09-23 20:18:31.370970,43.01,48.958001,0.0005471957306340564,-0.02308174982955575,0.0976994861521123,36.09446859390736,-96.25519929585457,80.21211738781929
2024-09-23 20:18:31.413716,43.01,48.958052,0.00024872343554318134,-0.02308174982955575,0.09759999317981902,52.137550501942634,-92.24360919585227,80.21211738781929
2024-09-23 20:18:31.457036,43.01,48.958052,0.00024872343554318134,-0.023181236725942318,0.09759999317981902,36.09446859390736,-92.24360919585227,80.21211738781929
2024-09-23 20:18:31.468473,43.01,48.958139,0.00024872343554318134,-0.023181236725942318,0.09759999317981902,36.09446859390736,-96.25519929585457,80.21211738781929
2024-09-23 20:18:31.511386,43.01,48.958139,0.0004974468710863627,-0.023230986250042305,0.0970030596496862,44.11764879391193,-104.27510100388527,80.21211738781929
2024-09-23 20:18:31.554239,43.01,48.95819,0.0007461703303635545,-0.02293251340906919,0.0970030596496862,44.11764879391193,-104.27510100388527,80.21211738781929
2024-09-23 20:18:31.566186,43.01,48.95819,0.0007461703303635545,-0.02293251340906919,0.0973512698629459,40.106058693909645,-96.25519929585457,80.21211738781929
2024-09-23 20:18:31.610106,43.01,48.958241,0.0005969341946851222,-0.02263404056809607,0.09755024973162574,48.12595698684454,-96.25519929585457,76.200527287817
2024-09-23 20:18:31.652358,43.01,48.958291,0.0005969341946851222,-0.02263404056809607,0.09755024973162574,48.12595698684454,-100.26678939585686,76.200527287817
2024-09-23 20:18:31.663808,43.01,48.958291,0.0001989745997294981,-0.023181236725942318,0.09725178296655933,48.12595698684454,-100.26678939585686,76.200527287817
2024-09-23 20:18:31.707236,43.01,48.958342,0.001442602149208022,-0.0225345536717095,0.09725178296655933,48.12595698684454,-96.25519929585457,76.200527287817
2024-09-23 20:18:31.749430,43.01,48.958342,0.001442602149208022,-0.0225345536717095,0.09750050628343246,48.12595698684454,-96.25519929585457,76.200527287817
2024-09-23 20:18:31.801742,43.01,48.958393,0.001044642601720419,-0.0225345536717095,0.09750050628343246,44.11764879391193,-84.22370748782159,84.22370748782159
2024-09-23 20:18:31.813913,43.01,48.958393,0.001044642601720419,-0.023479709566915436,0.09750050628343246,44.11764879391193,-84.22370748782159,84.22370748782159
2024-09-23 20:18:31.847104,43.01,48.958393,0.001044642601720419,-0.023479709566915436,0.09759999317981902,48.12595698684454,-96.25519929585457,84.22370748782159
2024-09-23 20:18:31.858646,43.01,48.95848,0.00044769805900669,-0.023479709566915436,0.09759999317981902,48.12595698684454,-96.25519929585457,72.1922225099802
2024-09-23 20:18:31.901288,43.01,48.958531,0.00044769805900669,-0.023181236725942318,0.0973512698629459,40.106058693909645,-92.24360919585227,76.200527287817
2024-09-23 20:18:31.944987,43.01,48.958531,0.00044769805900669,-0.02313149783467906,0.09764974270391902,40.106058693909645,-92.24360919585227,76.200527287817
2024-09-23 20:18:31.956335,43.01,48.958531,0.00044769805900669,-0.02313149783467906,0.09764974270391902,40.106058693909645,-92.24360919585227,76.200527287817
2024-09-23 20:18:31.999074,43.01,48.958582,0.00029846189959424716,-0.022484804147609512,0.09794820946898543,40.106058693909645,-92.24360919585227,76.200527287817
2024-09-23 20:18:32.042434,43.01,48.958676,0.000845657606494293,-0.022484804147609512,0.09794820946898543,40.106058693909645,-92.24360919585227,76.200527287817
2024-09-23 20:18:32.053719,43.01,48.958676,0.000845657606494293,-0.02352945757203875,0.0973512698629459,40.106058693909645,-92.24360919585227,76.200527287817
2024-09-23 20:18:32.097579,42.58,48.958727,0.000845657606494293,-0.0228827638849692,0.09755024973162574,40.106058693909645,-84.22370748782159,76.200527287817
2024-09-23 20:18:32.140238,42.58,48.958727,0.000845657606494293,-0.0228827638849692,0.09755024973162574,40.106058693909645,-92.24360919585227,80.21211738781929
2024-09-23 20:18:32.152055,42.58,48.958778,0.0005471957306340564,-0.022833026512682618,0.09755024973162574,40.106058693909645,-92.24360919585227,80.21211738781929
2024-09-23 20:18:32.194266,42.58,48.958828,0.0006964318663124887,-0.022833026512682618,0.09695331012558621,40.106058693909645,-100.26678939585686,76.200527287817
2024-09-23 20:18:32.237927,42.58,48.958828,0.0006964318663124887,-0.023230986250042305,0.09695331012558621,40.106058693909645,-100.26678939585686,76.200527287817
2024-09-23 20:18:32.291284,42.58,48.958919,0.0006466830067647949,-0.023230986250042305,0.09725178296655933,40.106058693909645,-92.24360919585227,72.1922225099802
2024-09-23 20:18:32.334563,42.58,48.958919,0.0006466830067647949,-0.023579196463302005,0.09759999317981902,44.11764879391193,-92.24360919585227,72.1922225099802
2024-09-23 20:18:32.347095,42.58,48.95897,0.0006466830067647949,-0.023579196463302005,0.09759999317981902,44.11764879391193,-96.25519929585457,72.1922225099802
2024-09-23 20:18:32.379588,42.58,48.95897,9.948729986474904e-05,-0.023579196463302005,0.09759999317981902,44.11764879391193,-96.25519929585457,72.1922225099802
2024-09-23 20:18:32.391141,42.58,48.95897,9.948729986474904e-05,-0.023230986250042305,0.0973015264147526,40.106058693909645,-92.24360919585227,72.1922225099802
2024-09-23 20:18:32.433003,42.58,48.959021,0.0006964318663124887,-0.022733528983459317,0.09740101331113918,40.106058693909645,-92.24360919585227,72.1922225099802
2024-09-23 20:18:32.444438,42.58,48.959021,0.0006964318663124887,-0.022733528983459317,0.09740101331113918,44.11764879391193,-88.23529758782387,72.1922225099802
2024-09-23 20:18:32.476909,42.58,48.959021,0.0006964318663124887,-0.022733528983459317,0.09740101331113918,44.11764879391193,-88.23529758782387,76.200527287817
2024-09-23 20:18:32.488480,42.58,48.959072,0.0007461703303635545,-0.023230986250042305,0.09690356060148622,44.11764879391193,-88.23529758782387,76.200527287817
2024-09-23 20:18:32.532089,42.58,48.959164,0.000845657606494293,-0.023230986250042305,0.09690356060148622,44.11764879391193,-100.26678939585686,76.200527287817
2024-09-23 20:18:32.543397,42.58,48.959164,0.000845657606494293,-0.023330473146428877,0.09755024973162574,44.11764879391193,-100.26678939585686,76.200527287817
2024-09-23 20:18:32.577457,42.58,48.959164,0.000845657606494293,-0.023330473146428877,0.09755024973162574,52.137550501942634,-100.26678939585686,76.200527287817
2024-09-23 20:18:32.589799,42.58,48.959215,0.0007461703303635545,-0.0225345536717095,0.09755024973162574,52.137550501942634,-100.26678939585686,76.200527287817
2024-09-23 20:18:32.632444,42.58,48.959265,0.0005471957306340564,-0.0225345536717095,0.09745075675933246,44.11764879391193,-92.24360919585227,76.200527287817
2024-09-23 20:18:32.674504,42.58,48.959265,0.0005471957306340564,-0.02233556924609963,0.09764974270391902,44.11764879391193,-92.24360919585227,76.200527287817
2024-09-23 20:18:32.686089,42.58,48.959357,0.0005471957306340564,-0.02233556924609963,0.09764974270391902,40.106058693909645,-88.23529758782387,84.22370748782159
2024-09-23 20:18:32.730358,42.58,48.959357,0.0005969341946851222,-0.023181236725942318,0.0970030596496862,40.106058693909645,-84.22370748782159,80.21211738781929
2024-09-23 20:18:32.773070,42.58,48.959409,0.0009451553255896806,-0.023579196463302005,0.0970030596496862,40.106058693909645,-84.22370748782159,80.21211738781929
2024-09-23 20:18:32.784759,42.58,48.959409,0.0009451553255896806,-0.023579196463302005,0.09740101331113918,36.09446859390736,-104.27510100388527,80.21211738781929
2024-09-23 20:18:32.827614,42.58,48.95946,0.0003979595949556242,-0.023280723622328886,0.0973015264147526,48.12595698684454,-104.27510100388527,76.200527287817
2024-09-23 20:18:32.871269,42.58,48.95951,0.0003979595949556242,-0.023280723622328886,0.0973015264147526,48.12595698684454,-92.24360919585227,72.1922225099802
2024-09-23 20:18:32.882543,42.58,48.95951,0.0004974468710863627,-0.02278327698858263,0.09764974270391902,48.12595698684454,-92.24360919585227,72.1922225099802
2024-09-23 20:18:32.925141,42.58,48.959561,0.001044642601720419,-0.02308174982955575,0.09764974270391902,36.09446859390736,-100.26678939585686,76.200527287817
2024-09-23 20:18:32.967845,42.58,48.959561,0.001044642601720419,-0.02308174982955575,0.09750050628343246,40.106058693909645,-100.26678939585686,76.200527287817
2024-09-23 20:18:32.979850,42.58,48.959612,0.0010943914612681128,-0.02308174982955575,0.09750050628343246,40.106058693909645,-100.26678939585686,76.200527287817
2024-09-23 20:18:33.022729,42.58,48.959612,0.0010943914612681128,-0.02313149783467906,0.09715228999426605,44.11764879391193,-96.25519929585457,76.200527287817
2024-09-23 20:18:33.034422,42.58,48.959699,0.0010943914612681128,-0.02313149783467906,0.09715228999426605,44.11764879391193,-96.25519929585457,76.200527287817
2024-09-23 20:18:33.067530,42.58,48.959699,0.0003979595949556242,-0.022833026512682618,0.09750050628343246,48.12595698684454,-96.25519929585457,76.200527287817
2024-09-23 20:18:33.079416,42.58,48.959699,0.0003979595949556242,-0.022833026512682618,0.09750050628343246,48.12595698684454,-96.25519929585457,76.200527287817
2024-09-23 20:18:33.112334,42.11,48.95975,0.0003979595949556242,-0.022833026512682618,0.09750050628343246,48.12595698684454,-96.25519929585457,76.200527287817
2024-09-23 20:18:33.123986,42.11,48.95975,0.0009948937421727254,-0.0228827638849692,0.09750050628343246,48.12595698684454,-96.25519929585457,76.200527287817
2024-09-23 20:18:33.166229,42.11,48.959801,0.0004974468710863627,-0.022733528983459317,0.09740101331113918,48.12595698684454,-96.25519929585457,76.200527287817
2024-09-23 20:18:33.178498,42.11,48.959801,0.0004974468710863627,-0.022733528983459317,0.09740101331113918,32.08287849390507,-96.25519929585457,76.200527287817
2024-09-23 20:18:33.210017,42.11,48.959801,0.0004974468710863627,-0.022733528983459317,0.09740101331113918,32.08287849390507,-100.26678939585686,76.200527287817
2024-09-23 20:18:33.221682,42.11,48.959852,0.0009451553255896806,-0.023579196463302005,0.09740101331113918,32.08287849390507,-100.26678939585686,76.200527287817
2024-09-23 20:18:33.264579,42.11,48.959852,0.0009451553255896806,-0.023579196463302005,0.09740101331113918,40.106058693909645,-100.26678939585686,76.200527287817
2024-09-23 20:18:33.307348,42.11,48.959852,0.0009451553255896806,-0.023579196463302005,0.09740101331113918,40.106058693909645,-92.24360919585227,80.21211738781929
2024-09-23 20:18:33.319197,42.11,48.959902,0.0006466830067647949,-0.02293251340906919,0.09745075675933246,40.106058693909645,-92.24360919585227,80.21211738781929
2024-09-23 20:18:33.363271,42.11,48.959953,0.0005471957306340564,-0.02293251340906919,0.09745075675933246,36.09446859390736,-96.25519929585457,80.21211738781929
2024-09-23 20:18:33.374947,42.11,48.959953,0.0005471957306340564,-0.02308174982955575,0.09745075675933246,36.09446859390736,-96.25519929585457,80.21211738781929
2024-09-23 20:18:33.407197,42.11,48.959953,0.0005471957306340564,-0.02308174982955575,0.0966050877605131,48.12595698684454,-96.25519929585457,80.21211738781929
2024-09-23 20:18:33.418575,42.11,48.96004,0.000845657606494293,-0.02308174982955575,0.0966050877605131,48.12595698684454,-96.25519929585457,72.1922225099802
2024-09-23 20:18:33.461597,42.11,48.960091,0.000845657606494293,-0.023479709566915436,0.09759999317981902,32.08287849390507,-96.25519929585457,68.18063240997792
2024-09-23 20:18:33.503890,42.11,48.960091,0.0006466830067647949,-0.023429960042815445,0.098047696365372,32.08287849390507,-96.25519929585457,68.18063240997792
2024-09-23 20:18:33.514879,42.11,48.960091,0.0006466830067647949,-0.023429960042815445,0.098047696365372,36.09446859390736,-96.25519929585457,76.200527287817
2024-09-23 20:18:33.557608,42.11,48.960187,0.0006964318663124887,-0.02308174982955575,0.09715228999426605,44.11764879391193,-100.26678939585686,76.200527287817
2024-09-23 20:18:33.600602,42.11,48.960238,0.0006964318663124887,-0.02308174982955575,0.09715228999426605,44.11764879391193,-100.26678939585686,68.18063240997792
2024-09-23 20:18:33.612574,42.11,48.960238,0.0011938787373988514,-0.023330473146428877,0.09750050628343246,44.11764879391193,-100.26678939585686,68.18063240997792
2024-09-23 20:18:33.655620,42.11,48.960289,0.001442602149208022,-0.02313149783467906,0.09750050628343246,44.11764879391193,-96.25519929585457,76.200527287817
2024-09-23 20:18:33.667764,42.11,48.960289,0.001442602149208022,-0.02313149783467906,0.0976994861521123,44.11764879391193,-96.25519929585457,76.200527287817
2024-09-23 20:18:33.699796,42.11,48.960289,0.001442602149208022,-0.02313149783467906,0.0976994861521123,44.11764879391193,-92.24360919585227,76.200527287817
2024-09-23 20:18:33.711317,42.11,48.960339,0.0007959191899112484,-0.023230986250042305,0.0976994861521123,44.11764879391193,-92.24360919585227,76.200527287817
2024-09-23 20:18:33.746623,42.11,48.960339,0.0007959191899112484,-0.023230986250042305,0.09750050628343246,44.11764879391193,-92.24360919585227,76.200527287817
2024-09-23 20:18:33.758218,42.11,48.96039,0.0007959191899112484,-0.023230986250042305,0.09750050628343246,48.12595698684454,-96.25519929585457,76.200527287817
2024-09-23 20:18:33.800870,42.11,48.96039,0.0007959191899112484,-0.02263404056809607,0.09715228999426605,44.11764879391193,-96.25519929585457,76.200527287817
2024-09-23 20:18:33.843703,42.11,48.96039,0.0007959191899112484,-0.02263404056809607,0.09715228999426605,44.11764879391193,-92.24360919585227,76.200527287817
2024-09-23 20:18:33.855654,42.11,48.960479,0.0006964318663124887,-0.022982261414192504,0.09725178296655933,44.11764879391193,-92.24360919585227,76.200527287817
2024-09-23 20:18:33.899274,42.11,48.96053,0.0009948937421727254,-0.022982261414192504,0.09725178296655933,48.12595698684454,-100.26678939585686,80.21211738781929
2024-09-23 20:18:33.910742,42.11,48.96053,0.0009948937421727254,-0.02352945757203875,0.09725178296655933,48.12595698684454,-100.26678939585686,80.21211738781929
2024-09-23 20:18:33.942511,42.11,48.96053,0.0009948937421727254,-0.02352945757203875,0.0973015264147526,44.11764879391193,-100.26678939585686,80.21211738781929
2024-09-23 20:18:33.953683,42.11,48.960581,0.0010943914612681128,-0.02352945757203875,0.0973015264147526,44.11764879391193,-100.26678939585686,80.21211738781929
2024-09-23 20:18:33.996309,42.11,48.960581,0.0010943914612681128,-0.022982261414192504,0.0973512698629459,36.09446859390736,-96.25519929585457,80.21211738781929
2024-09-23 20:18:34.008403,42.11,48.960632,0.0010943914612681128,-0.022982261414192504,0.0973512698629459,36.09446859390736,-96.25519929585457,80.21211738781929
2024-09-23 20:18:34.040153,42.11,48.960632,0.0007461703303635545,-0.02313149783467906,0.0973015264147526,36.09446859390736,-96.25519929585457,80.21211738781929
2024-09-23 20:18:34.051892,42.11,48.960632,0.0007461703303635545,-0.02313149783467906,0.0973015264147526,44.11764879391193,-92.24360919585227,72.1922225099802
2024-09-23 20:18:34.093818,42.11,48.960723,0.0003979595949556242,-0.02352945757203875,0.09750050628343246,40.106058693909645,-92.24360919585227,72.1922225099802
2024-09-23 20:18:34.136969,42.03,48.960774,0.0003979595949556242,-0.02352945757203875,0.09750050628343246,40.106058693909645,-92.24360919585227,76.200527287817
2024-09-23 20:18:34.148595,42.03,48.960774,0.0005969341946851222,-0.02308174982955575,0.09685382322919964,56.14914060194492,-92.24360919585227,76.200527287817
2024-09-23 20:18:34.191000,42.03,48.960826,0.0007461703303635545,-0.0228827638849692,0.0970030596496862,56.14914060194492,-96.25519929585457,76.200527287817
2024-09-23 20:18:34.233997,42.03,48.960826,0.0007461703303635545,-0.0228827638849692,0.0970030596496862,44.11764879391193,-104.27510100388527,76.200527287817
2024-09-23 20:18:34.245781,42.03,48.960876,0.0006466830067647949,-0.02362894446842532,0.0970030596496862,44.11764879391193,-104.27510100388527,76.200527287817
2024-09-23 20:18:34.289939,42.03,48.960927,0.00024872343554318134,-0.02362894446842532,0.0970030596496862,36.09446859390736,-100.26678939585686,72.1922225099802
2024-09-23 20:18:34.333151,42.03,48.960927,0.00024872343554318134,-0.0228827638849692,0.09755024973162574,48.12595698684454,-100.26678939585686,72.1922225099802
2024-09-23 20:18:34.344644,42.03,48.960927,0.00024872343554318134,-0.0228827638849692,0.09755024973162574,48.12595698684454,-100.26678939585686,76.200527287817
2024-09-23 20:18:34.387001,42.03,48.961015,0.0004974468710863627,-0.023579196463302005,0.09774922960030558,40.106058693909645,-96.25519929585457,76.200527287817
2024-09-23 20:18:34.428845,42.03,48.961066,0.0004974468710863627,-0.023579196463302005,0.09774922960030558,40.106058693909645,-96.25519929585457,80.21211738781929
2024-09-23 20:18:34.440687,42.03,48.961066,0.0004974468710863627,-0.02308174982955575,0.09740101331113918,32.08287849390507,-96.25519929585457,80.21211738781929
2024-09-23 20:18:34.483604,42.03,48.961117,0.0006964318663124887,-0.023230986250042305,0.09740101331113918,32.08287849390507,-96.25519929585457,84.22370748782159
2024-09-23 20:18:34.495714,42.03,48.961117,0.0006964318663124887,-0.023230986250042305,0.09745075675933246,32.08287849390507,-96.25519929585457,84.22370748782159
2024-09-23 20:18:34.528348,42.03,48.961117,0.0006964318663124887,-0.023230986250042305,0.09745075675933246,44.11764879391193,-88.23529758782387,80.21211738781929
2024-09-23 20:18:34.540067,42.03,48.961168,0.00029846189959424716,-0.02308174982955575,0.09745075675933246,44.11764879391193,-88.23529758782387,80.21211738781929
2024-09-23 20:18:34.582123,42.03,48.961218,0.00034821073540793035,-0.02308174982955575,0.0973512698629459,40.106058693909645,-96.25519929585457,80.21211738781929
2024-09-23 20:18:34.625739,42.03,48.961218,0.00034821073540793035,-0.02293251340906919,0.09740101331113918,32.08287849390507,-96.25519929585457,80.21211738781929
2024-09-23 20:18:34.637395,42.03,48.961307,0.00034821073540793035,-0.02293251340906919,0.09740101331113918,32.08287849390507,-92.24360919585227,80.21211738781929
2024-09-23 20:18:34.679968,42.03,48.961307,0.0004974468710863627,-0.02313149783467906,0.09774922960030558,44.11764879391193,-88.23529758782387,76.200527287817
2024-09-23 20:18:34.723316,42.03,48.961359,0.0013928637326249774,-0.02367869399252531,0.09774922960030558,44.11764879391193,-88.23529758782387,76.200527287817
2024-09-23 20:18:34.734758,42.03,48.961359,0.0013928637326249774,-0.02367869399252531,0.09745075675933246,48.12595698684454,-92.24360919585227,76.200527287817
2024-09-23 20:18:34.777653,42.03,48.96141,0.0010943914612681128,-0.0228827638849692,0.09759999317981902,52.137550501942634,-92.24360919585227,76.200527287817
2024-09-23 20:18:34.820844,42.03,48.96146,0.0010943914612681128,-0.0228827638849692,0.09759999317981902,52.137550501942634,-92.24360919585227,76.200527287817
2024-09-23 20:18:34.832378,42.03,48.96146,0.0012933660135295898,-0.023280723622328886,0.09720203344245934,52.137550501942634,-92.24360919585227,76.200527287817
2024-09-23 20:18:34.875004,42.03,48.961511,0.0007959191899112484,-0.023728432883788564,0.09720203344245934,40.106058693909645,-96.25519929585457,68.18063240997792
2024-09-23 20:18:34.917589,42.03,48.961511,0.0007959191899112484,-0.023728432883788564,0.09750050628343246,36.09446859390736,-92.24360919585227,68.18063240997792
2024-09-23 20:18:34.969936,42.03,48.961562,0.0005969341946851222,-0.023181236725942318,0.09750050628343246,36.09446859390736,-92.24360919585227,68.18063240997792
2024-09-23 20:18:34.981643,42.03,48.961562,0.0005969341946851222,-0.023181236725942318,0.09725178296655933,32.08287849390507,-92.24360919585227,68.18063240997792
2024-09-23 20:18:35.014156,42.03,48.961562,0.0005969341946851222,-0.023181236725942318,0.09725178296655933,32.08287849390507,-96.25519929585457,76.200527287817
2024-09-23 20:18:35.025353,42.03,48.961649,0.00034821073540793035,-0.023230986250042305,0.0973512698629459,32.08287849390507,-96.25519929585457,76.200527287817
2024-09-23 20:18:35.067326,42.03,48.9617,0.00034821073540793035,-0.023230986250042305,0.0973512698629459,36.09446859390736,-96.25519929585457,80.21211738781929
2024-09-23 20:18:35.078219,42.03,48.9617,0.0009948937421727254,-0.02293251340906919,0.0973512698629459,36.09446859390736,-96.25519929585457,80.21211738781929
2024-09-23 20:18:35.110763,42.03,48.9617,0.0009948937421727254,-0.02293251340906919,0.09725178296655933,36.09446859390736,-96.25519929585457,80.21211738781929
2024-09-23 20:18:35.123078,42.03,48.961751,0.0007959191899112484,-0.02293251340906919,0.09725178296655933,40.106058693909645,-92.24360919585227,76.200527287817
2024-09-23 20:18:35.165913,42.0,48.961802,0.0007959191899112484,-0.02352945757203875,0.09794820946898543,48.12595698684454,-92.24360919585227,80.21211738781929
2024-09-23 20:18:35.209063,42.0,48.961802,0.0011441298778511575,-0.023230986250042305,0.09794820946898543,48.12595698684454,-92.24360919585227,80.21211738781929
2024-09-23 20:18:35.220261,42.0,48.961802,0.0011441298778511575,-0.023230986250042305,0.09759999317981902,40.106058693909645,-96.25519929585457,76.200527287817
2024-09-23 20:18:35.263423,42.0,48.961893,0.00024872343554318134,-0.023429960042815445,0.09750050628343246,40.106058693909645,-100.26678939585686,76.200527287817
2024-09-23 20:18:35.306238,42.0,48.961945,0.00024872343554318134,-0.023429960042815445,0.09750050628343246,40.106058693909645,-100.26678939585686,68.18063240997792
2024-09-23 20:18:35.317865,42.0,48.961945,0.00044769805900669,-0.02313149783467906,0.09740101331113918,36.09446859390736,-100.26678939585686,68.18063240997792
2024-09-23 20:18:35.359737,42.0,48.961995,0.0007959191899112484,-0.022733528983459317,0.09740101331113918,36.09446859390736,-100.26678939585686,72.1922225099802
2024-09-23 20:18:35.372454,42.0,48.961995,0.0007959191899112484,-0.022733528983459317,0.0973512698629459,36.09446859390736,-100.26678939585686,72.1922225099802
2024-09-23 20:18:35.405078,42.0,48.961995,0.0007959191899112484,-0.022733528983459317,0.0973512698629459,32.08287849390507,-100.26678939585686,72.1922225099802
2024-09-23 20:18:35.458012,42.0,48.962046,0.0004974468710863627,-0.023429960042815445,0.0973512698629459,32.08287849390507,-96.25519929585457,76.200527287817
2024-09-23 20:18:35.469834,42.0,48.962046,0.0004974468710863627,-0.023429960042815445,0.0973015264147526,32.08287849390507,-96.25519929585457,76.200527287817
2024-09-23 20:18:35.503807,42.0,48.962046,0.0004974468710863627,-0.023429960042815445,0.0973015264147526,44.11764879391193,-92.24360919585227,76.200527287817
2024-09-23 20:18:35.515157,42.0,48.962097,0.0008954064660419869,-0.02352945757203875,0.0973015264147526,44.11764879391193,-92.24360919585227,76.200527287817
2024-09-23 20:18:35.557642,42.0,48.962185,0.0004974468710863627,-0.02352945757203875,0.09715228999426605,44.11764879391193,-92.24360919585227,76.200527287817
2024-09-23 20:18:35.600134,42.0,48.962185,0.0004974468710863627,-0.02293251340906919,0.09740101331113918,24.06297849342227,-92.24360919585227,76.200527287817
2024-09-23 20:18:35.611532,42.0,48.962236,0.0004974468710863627,-0.02293251340906919,0.09740101331113918,24.06297849342227,-88.23529758782387,80.21211738781929
2024-09-23 20:18:35.653471,42.0,48.962236,0.00014922575204880957,-0.02263404056809607,0.09720203344245934,44.11764879391193,-96.25519929585457,72.1922225099802
2024-09-23 20:18:35.696925,42.0,48.962332,0.0005969341946851222,-0.02263404056809607,0.09720203344245934,44.11764879391193,-96.25519929585457,72.1922225099802
2024-09-23 20:18:35.708123,42.0,48.962332,0.0005969341946851222,-0.0228827638849692,0.09725178296655933,36.09446859390736,-96.25519929585457,72.1922225099802
2024-09-23 20:18:35.751487,42.0,48.962383,0.0,-0.02293251340906919,0.0976994861521123,36.09446859390736,-96.25519929585457,76.200527287817
2024-09-23 20:18:35.763590,42.0,48.962383,0.0,-0.02293251340906919,0.0976994861521123,36.09446859390736,-96.25519929585457,76.200527287817
2024-09-23 20:18:35.795796,42.0,48.962383,0.0,-0.02293251340906919,0.0976994861521123,36.09446859390736,-100.26678939585686,68.18063240997792
2024-09-23 20:18:35.807080,42.0,48.962434,0.00034821073540793035,-0.02308174982955575,0.09710254654607277,36.09446859390736,-100.26678939585686,68.18063240997792
2024-09-23 20:18:35.849233,42.0,48.962484,0.00034821073540793035,-0.023280723622328886,0.09710254654607277,48.12595698684454,-92.24360919585227,76.200527287817
2024-09-23 20:18:35.892437,42.0,48.962484,0.00034821073540793035,-0.023280723622328886,0.09774922960030558,44.11764879391193,-92.24360919585227,76.200527287817
2024-09-23 20:18:35.903458,42.0,48.962535,0.0004974468710863627,-0.023280723622328886,0.09774922960030558,44.11764879391193,-92.24360919585227,76.200527287817
2024-09-23 20:18:35.945754,42.0,48.962535,0.0004974468710863627,-0.02293251340906919,0.09725178296655933,44.11764879391193,-92.24360919585227,76.200527287817
2024-09-23 20:18:35.989051,42.0,48.962535,0.0004974468710863627,-0.02293251340906919,0.09725178296655933,28.07457030097246,-92.24360919585227,76.200527287817
2024-09-23 20:18:36.000797,42.0,48.962624,0.0006964318663124887,-0.02367869399252531,0.09725178296655933,28.07457030097246,-92.24360919585227,76.200527287817
2024-09-23 20:18:36.044143,42.0,48.962676,0.0006964318663124887,-0.02367869399252531,0.09740101331113918,52.137550501942634,-96.25519929585457,76.200527287817
2024-09-23 20:18:36.055600,42.0,48.962676,0.000845657606494293,-0.02367869399252531,0.09740101331113918,52.137550501942634,-96.25519929585457,76.200527287817
2024-09-23 20:18:36.088289,42.0,48.962676,0.000845657606494293,-0.02313149783467906,0.09740101331113918,44.11764879391193,-96.25519929585457,76.200527287817
2024-09-23 20:18:36.099543,42.0,48.962727,0.000845657606494293,-0.02313149783467906,0.09740101331113918,44.11764879391193,-92.24360919585227,72.1922225099802
2024-09-23 20:18:36.142314,42.0,48.962727,0.0004974468710863627,-0.023230986250042305,0.09745075675933246,40.106058693909645,-100.26678939585686,72.1922225099802
2024-09-23 20:18:36.184116,41.91,48.962777,0.000845657606494293,-0.023230986250042305,0.09745075675933246,40.106058693909645,-100.26678939585686,72.1922225099802
2024-09-23 20:18:36.195588,41.91,48.962777,0.000845657606494293,-0.023280723622328886,0.09740101331113918,32.08287849390507,-88.23529758782387,72.1922225099802
2024-09-23 20:18:36.238168,41.91,48.962869,0.0007461703303635545,-0.023230986250042305,0.09784872257259886,32.08287849390507,-88.23529758782387,76.200527287817
2024-09-23 20:18:36.249951,41.91,48.962869,0.0007461703303635545,-0.023230986250042305,0.09784872257259886,32.08287849390507,-88.23529758782387,76.200527287817
2024-09-23 20:18:36.281606,41.91,48.962869,0.0007461703303635545,-0.023230986250042305,0.09784872257259886,32.08287849390507,-92.24360919585227,80.21211738781929
2024-09-23 20:18:36.293358,41.91,48.96292,0.0004974468710863627,-0.02303200030545576,0.09759999317981902,32.08287849390507,-92.24360919585227,80.21211738781929
2024-09-23 20:18:36.335872,41.91,48.96297,0.0005969341946851222,-0.02303200030545576,0.09759999317981902,36.09446859390736,-92.24360919585227,84.22370748782159
2024-09-23 20:18:36.347861,41.91,48.96297,0.0005969341946851222,-0.023479709566915436,0.09759999317981902,36.09446859390736,-92.24360919585227,84.22370748782159
2024-09-23 20:18:36.379995,41.91,48.96297,0.0005969341946851222,-0.023479709566915436,0.09750050628343246,40.106058693909645,-92.24360919585227,84.22370748782159
2024-09-23 20:18:36.391299,41.91,48.963021,0.001442602149208022,-0.023479709566915436,0.09750050628343246,40.106058693909645,-92.24360919585227,80.21211738781929
2024-09-23 20:18:36.433893,41.91,48.963021,0.001442602149208022,-0.02303200030545576,0.09745075675933246,48.12595698684454,-92.24360919585227,76.200527287817
2024-09-23 20:18:36.445483,41.91,48.963111,0.001442602149208022,-0.02303200030545576,0.09745075675933246,48.12595698684454,-92.24360919585227,76.200527287817
2024-09-23 20:18:36.477849,41.91,48.963111,0.00034821073540793035,-0.02362894446842532,0.09715228999426605,48.12595698684454,-92.24360919585227,76.200527287817
2024-09-23 20:18:36.489852,41.91,48.963111,0.00034821073540793035,-0.02362894446842532,0.09715228999426605,36.09446859390736,-92.24360919585227,76.200527287817
2024-09-23 20:18:36.574358,41.91,48.963111,0.00034821073540793035,-0.02362894446842532,0.09715228999426605,36.09446859390736,-92.24360919585227,76.200527287817
2024-09-23 20:18:36.586257,41.91,48.963163,0.0009451553255896806,-0.023778180888911878,0.09740101331113918,36.09446859390736,-92.24360919585227,76.200527287817
2024-09-23 20:18:36.630168,41.91,48.963213,0.00034821073540793035,-0.02308174982955575,0.09740101331113918,48.12595698684454,-96.25519929585457,84.22370748782159
2024-09-23 20:18:36.673213,41.91,48.963213,0.00034821073540793035,-0.02308174982955575,0.09759999317981902,48.12595698684454,-96.25519929585457,84.22370748782159
2024-09-23 20:18:36.685288,41.91,48.963264,0.0005471957306340564,-0.02308174982955575,0.09759999317981902,48.12595698684454,-96.25519929585457,80.21211738781929
2024-09-23 20:18:36.727964,41.91,48.963315,0.0005471957306340564,-0.023479709566915436,0.09720203344245934,60.15744537978172,-100.26678939585686,80.21211738781929
2024-09-23 20:18:36.770755,41.91,48.963315,0.0006964318663124887,-0.022733528983459317,0.09755024973162574,60.15744537978172,-100.26678939585686,80.21211738781929
2024-09-23 20:18:36.782360,41.91,48.963315,0.0006964318663124887,-0.022733528983459317,0.09755024973162574,40.106058693909645,-92.24360919585227,80.21211738781929
2024-09-23 20:18:36.825208,41.91,48.963453,0.0007959191899112484,-0.02263404056809607,0.09764974270391902,40.106058693909645,-96.25519929585457,80.21211738781929
2024-09-23 20:18:36.866979,41.91,48.963504,0.0007959191899112484,-0.02263404056809607,0.09764974270391902,40.106058693909645,-96.25519929585457,76.200527287817
2024-09-23 20:18:36.878723,41.91,48.963504,0.00029846189959424716,-0.02278327698858263,0.09715228999426605,44.11764879391193,-96.25519929585457,76.200527287817
2024-09-23 20:18:36.921481,41.91,48.963555,0.0011938787373988514,-0.02308174982955575,0.09764974270391902,44.11764879391193,-100.26678939585686,72.1922225099802
2024-09-23 20:18:36.964129,41.91,48.963555,0.0011938787373988514,-0.02308174982955575,0.09764974270391902,48.12595698684454,-92.24360919585227,72.1922225099802
2024-09-23 20:18:36.975608,41.91,48.963606,0.0007959191899112484,-0.02313149783467906,0.09764974270391902,48.12595698684454,-92.24360919585227,72.1922225099802
2024-09-23 20:18:37.018953,41.91,48.963656,0.0007959191899112484,-0.02313149783467906,0.09799795899308542,40.106058693909645,-92.24360919585227,76.200527287817
2024-09-23 20:18:37.030551,41.91,48.963656,0.0005471957306340564,-0.02313149783467906,0.09799795899308542,40.106058693909645,-92.24360919585227,76.200527287817
2024-09-23 20:18:37.062109,41.91,48.963656,0.0005471957306340564,-0.023181236725942318,0.09690356060148622,40.106058693909645,-92.24360919585227,76.200527287817
2024-09-23 20:18:37.073814,41.91,48.963745,0.0005471957306340564,-0.023181236725942318,0.09690356060148622,28.07457030097246,-96.25519929585457,72.1922225099802
2024-09-23 20:18:37.115501,41.91,48.963745,0.0005969341946851222,-0.0228827638849692,0.09725178296655933,32.08287849390507,-100.26678939585686,72.1922225099802
2024-09-23 20:18:37.127453,41.91,48.963745,0.0005969341946851222,-0.0228827638849692,0.09725178296655933,32.08287849390507,-100.26678939585686,72.1922225099802
2024-09-23 20:18:37.160818,41.91,48.963797,0.0012933660135295898,-0.023330473146428877,0.09725178296655933,32.08287849390507,-100.26678939585686,72.1922225099802
2024-09-23 20:18:37.172136,41.91,48.963797,0.0012933660135295898,-0.023330473146428877,0.09774922960030558,44.11764879391193,-96.25519929585457,72.1922225099802
2024-09-23 20:18:37.215290,42.16,48.963847,0.000845657606494293,-0.0228827638849692,0.09740101331113918,24.06297849342227,-96.25519929585457,76.200527287817
2024-09-23 20:18:37.258415,42.16,48.963898,0.000845657606494293,-0.0228827638849692,0.09740101331113918,24.06297849342227,-92.24360919585227,84.22370748782159
2024-09-23 20:18:37.269954,42.16,48.963898,0.00029846189959424716,-0.02278327698858263,0.09750050628343246,24.06297849342227,-92.24360919585227,84.22370748782159
2024-09-23 20:18:37.313676,42.16,48.963949,0.000845657606494293,-0.02338022115155219,0.09750050628343246,36.09446859390736,-96.25519929585457,76.200527287817
2024-09-23 20:18:37.355723,42.16,48.963949,0.000845657606494293,-0.02338022115155219,0.0973512698629459,52.137550501942634,-96.25519929585457,76.200527287817
2024-09-23 20:18:37.366668,42.16,48.963999,0.0001989745997294981,-0.02338022115155219,0.0973512698629459,52.137550501942634,-92.24360919585227,76.200527287817
2024-09-23 20:18:37.410001,42.16,48.964086,0.0001989745997294981,-0.02268379009219606,0.09720203344245934,40.106058693909645,-100.26678939585686,80.21211738781929
2024-09-23 20:18:37.451862,42.16,48.964086,0.0003979595949556242,-0.02303200030545576,0.09720203344245934,40.106058693909645,-100.26678939585686,80.21211738781929
2024-09-23 20:18:37.463804,42.16,48.964086,0.0003979595949556242,-0.02303200030545576,0.09725178296655933,48.12595698684454,-92.24360919585227,76.200527287817
2024-09-23 20:18:37.507276,42.16,48.964138,0.0003979595949556242,-0.02313149783467906,0.09725178296655933,44.11764879391193,-96.25519929585457,76.200527287817
2024-09-23 20:18:37.550467,42.16,48.964188,0.0011441298778511575,-0.02313149783467906,0.09725178296655933,44.11764879391193,-96.25519929585457,80.21211738781929
2024-09-23 20:18:37.561685,42.16,48.964188,0.0011441298778511575,-0.02352945757203875,0.09720203344245934,40.106058693909645,-96.25519929585457,80.21211738781929
2024-09-23 20:18:37.604319,42.16,48.964239,0.00034821073540793035,-0.023728432883788564,0.09720203344245934,40.106058693909645,-96.25519929585457,80.21211738781929
2024-09-23 20:18:37.646438,42.16,48.964239,0.00034821073540793035,-0.023728432883788564,0.09720203344245934,40.106058693909645,-84.22370748782159,80.21211738781929
2024-09-23 20:18:37.657837,42.16,48.96429,0.0008954064660419869,-0.02308174982955575,0.09720203344245934,40.106058693909645,-84.22370748782159,84.22370748782159
2024-09-23 20:18:37.700679,42.16,48.96434,0.0008954064660419869,-0.02308174982955575,0.09740101331113918,48.12595698684454,-88.23529758782387,80.21211738781929
2024-09-23 20:18:37.712429,42.16,48.96434,0.0005471957306340564,-0.02308174982955575,0.09740101331113918,48.12595698684454,-88.23529758782387,80.21211738781929
2024-09-23 20:18:37.744205,42.16,48.96434,0.0005471957306340564,-0.02362894446842532,0.09784872257259886,48.12595698684454,-88.23529758782387,80.21211738781929
2024-09-23 20:18:37.755968,42.16,48.964427,0.0005471957306340564,-0.02362894446842532,0.09784872257259886,48.12595698684454,-100.26678939585686,76.200527287817
2024-09-23 20:18:37.798957,42.16,48.964427,0.0005969341946851222,-0.023429960042815445,0.0970030596496862,44.11764879391193,-92.24360919585227,80.21211738781929
2024-09-23 20:18:37.841466,42.16,48.964479,0.0012436275969465451,-0.023429960042815445,0.0970030596496862,44.11764879391193,-92.24360919585227,80.21211738781929
2024-09-23 20:18:37.852723,42.16,48.964479,0.0012436275969465451,-0.02293251340906919,0.09759999317981902,40.106058693909645,-92.24360919585227,80.21211738781929
2024-09-23 20:18:37.894738,42.16,48.96453,0.0005471957306340564,-0.02313149783467906,0.09665483728461309,40.106058693909645,-92.24360919585227,80.21211738781929
2024-09-23 20:18:37.906606,42.16,48.96453,0.0005471957306340564,-0.02313149783467906,0.09665483728461309,40.106058693909645,-92.24360919585227,80.21211738781929
2024-09-23 20:18:37.939088,42.16,48.96453,0.0005471957306340564,-0.02313149783467906,0.09665483728461309,40.106058693909645,-92.24360919585227,76.200527287817
2024-09-23 20:18:37.950127,42.16,48.96458,0.0006964318663124887,-0.02362894446842532,0.09690356060148622,40.106058693909645,-92.24360919585227,76.200527287817
2024-09-23 20:18:37.991899,42.16,48.964631,0.0006964318663124887,-0.02362894446842532,0.09690356060148622,40.106058693909645,-92.24360919585227,80.21211738781929
2024-09-23 20:18:38.003614,42.16,48.964631,0.00034821073540793035,-0.0228827638849692,0.09690356060148622,40.106058693909645,-92.24360919585227,80.21211738781929
2024-09-23 20:18:38.037996,42.16,48.964631,0.00034821073540793035,-0.0228827638849692,0.09725178296655933,40.106058693909645,-92.24360919585227,80.21211738781929
2024-09-23 20:18:38.049278,42.16,48.964682,0.00034821073540793035,-0.0228827638849692,0.09725178296655933,40.106058693909645,-96.25519929585457,76.200527287817
2024-09-23 20:18:38.092455,42.16,48.964682,0.0008954064660419869,-0.02313149783467906,0.09750050628343246,52.137550501942634,-88.23529758782387,80.21211738781929
2024-09-23 20:18:38.134463,42.16,48.964769,0.001044642601720419,-0.02313149783467906,0.09750050628343246,52.137550501942634,-88.23529758782387,80.21211738781929
2024-09-23 20:18:38.146457,42.16,48.964769,0.001044642601720419,-0.023230986250042305,0.09764974270391902,52.137550501942634,-88.23529758782387,80.21211738781929
2024-09-23 20:18:38.189749,42.16,48.96482,0.0009948937421727254,-0.023827930413011865,0.0973015264147526,52.137550501942634,-88.23529758782387,76.200527287817
2024-09-23 20:18:38.232003,41.81,48.96482,0.0009948937421727254,-0.023827930413011865,0.0973015264147526,52.137550501942634,-88.23529758782387,76.200527287817
2024-09-23 20:18:38.243024,41.81,48.964871,0.0007461703303635545,-0.023230986250042305,0.0973512698629459,52.137550501942634,-88.23529758782387,76.200527287817
2024-09-23 20:18:38.286294,41.81,48.964922,0.0008954064660419869,-0.023230986250042305,0.0973512698629459,56.14914060194492,-92.24360919585227,76.200527287817
2024-09-23 20:18:38.298030,41.81,48.964922,0.0008954064660419869,-0.02263404056809607,0.0973512698629459,56.14914060194492,-92.24360919585227,76.200527287817
2024-09-23 20:18:38.331325,41.81,48.964922,0.0008954064660419869,-0.02263404056809607,0.0973015264147526,48.12595698684454,-92.24360919585227,76.200527287817
2024-09-23 20:18:38.342666,41.81,48.964972,0.0009451553255896806,-0.02263404056809607,0.0973015264147526,48.12595698684454,-92.24360919585227,80.21211738781929
2024-09-23 20:18:38.385314,41.81,48.965061,0.0009451553255896806,-0.023181236725942318,0.09720203344245934,36.09446859390736,-96.25519929585457,76.200527287817
2024-09-23 20:18:38.429960,41.81,48.965061,0.0013431148730772837,-0.02338022115155219,0.09799795899308542,36.09446859390736,-96.25519929585457,76.200527287817
2024-09-23 20:18:38.441586,41.81,48.965061,0.0013431148730772837,-0.02338022115155219,0.09799795899308542,48.12595698684454,-100.26678939585686,76.200527287817
2024-09-23 20:18:38.473132,41.81,48.965113,0.0013431148730772837,-0.02338022115155219,0.09799795899308542,48.12595698684454,-100.26678939585686,76.200527287817
2024-09-23 20:18:38.484517,41.81,48.965113,0.0008954064660419869,-0.02313149783467906,0.09725178296655933,56.14914060194492,-92.24360919585227,76.200527287817
2024-09-23 20:18:38.527519,41.81,48.965163,0.0008954064660419869,-0.023230986250042305,0.09725178296655933,56.14914060194492,-92.24360919585227,80.21211738781929
2024-09-23 20:18:38.539615,41.81,48.965163,0.0008954064660419869,-0.023230986250042305,0.0970030596496862,40.106058693909645,-92.24360919585227,80.21211738781929
2024-09-23 20:18:38.572741,41.81,48.965163,0.0008954064660419869,-0.023230986250042305,0.0970030596496862,40.106058693909645,-92.24360919585227,76.200527287817
2024-09-23 20:18:38.584288,41.81,48.965214,0.0007959191899112484,-0.02313149783467906,0.09764974270391902,40.106058693909645,-92.24360919585227,76.200527287817
2024-09-23 20:18:38.626816,41.81,48.965265,0.0007959191899112484,-0.02313149783467906,0.09764974270391902,40.106058693909645,-96.25519929585457,84.22370748782159
2024-09-23 20:18:38.638895,41.81,48.965265,0.0003979595949556242,-0.023181236725942318,0.09764974270391902,40.106058693909645,-96.25519929585457,84.22370748782159
2024-09-23 20:18:38.670941,41.81,48.965265,0.0003979595949556242,-0.023181236725942318,0.09779897304849887,40.106058693909645,-96.25519929585457,84.22370748782159
2024-09-23 20:18:38.682094,41.81,48.965315,0.000845657606494293,-0.023181236725942318,0.09779897304849887,40.106058693909645,-92.24360919585227,80.21211738781929
2024-09-23 20:18:38.724813,41.81,48.965315,0.000845657606494293,-0.022584292562972758,0.0976994861521123,44.11764879391193,-96.25519929585457,80.21211738781929
2024-09-23 20:18:38.736584,41.81,48.965402,0.000845657606494293,-0.022584292562972758,0.0976994861521123,44.11764879391193,-96.25519929585457,80.21211738781929
2024-09-23 20:18:38.768336,41.81,48.965402,0.0006466830067647949,-0.0228827638849692,0.0976994861521123,44.11764879391193,-96.25519929585457,80.21211738781929
2024-09-23 20:18:38.780393,41.81,48.965402,0.0006466830067647949,-0.0228827638849692,0.09745075675933246,44.11764879391193,-92.24360919585227,84.22370748782159
2024-09-23 20:18:38.823743,41.81,48.965454,0.0007959191899112484,-0.02352945757203875,0.09784872257259886,28.07457030097246,-100.26678939585686,84.22370748782159
2024-09-23 20:18:38.865662,41.81,48.965505,0.0007959191899112484,-0.02352945757203875,0.09784872257259886,28.07457030097246,-100.26678939585686,80.21211738781929
2024-09-23 20:18:38.877060,41.81,48.965505,0.0007959191899112484,-0.023579196463302005,0.09720203344245934,44.11764879391193,-100.26678939585686,80.21211738781929
2024-09-23 20:18:38.920274,41.81,48.965555,0.0010943914612681128,-0.023330473146428877,0.0976994861521123,44.11764879391193,-100.26678939585686,76.200527287817
2024-09-23 20:18:38.962749,41.81,48.965555,0.0010943914612681128,-0.023330473146428877,0.0976994861521123,32.08287849390507,-92.24360919585227,76.200527287817
2024-09-23 20:18:38.974320,41.81,48.965606,0.0008954064660419869,-0.02352945757203875,0.0976994861521123,32.08287849390507,-92.24360919585227,80.21211738781929
2024-09-23 20:18:39.016340,41.81,48.965657,0.0008954064660419869,-0.02352945757203875,0.09789846602079214,32.08287849390507,-92.24360919585227,80.21211738781929
2024-09-23 20:18:39.029915,41.81,48.965657,0.0011938787373988514,-0.02352945757203875,0.09789846602079214,32.08287849390507,-92.24360919585227,80.21211738781929
2024-09-23 20:18:39.061857,41.81,48.965657,0.0011938787373988514,-0.0228827638849692,0.09745075675933246,44.11764879391193,-92.24360919585227,80.21211738781929
2024-09-23 20:18:39.072975,41.81,48.965744,0.0011938787373988514,-0.0228827638849692,0.09745075675933246,44.11764879391193,-96.25519929585457,76.200527287817
2024-09-23 20:18:39.116126,41.81,48.965744,0.0005471957306340564,-0.0228827638849692,0.09745075675933246,40.106058693909645,-96.25519929585457,76.200527287817
2024-09-23 20:18:39.159524,41.81,48.965795,0.0004974468710863627,-0.022982261414192504,0.09745075675933246,40.106058693909645,-96.25519929585457,76.200527287817
2024-09-23 20:18:39.171080,41.81,48.965795,0.0004974468710863627,-0.022982261414192504,0.09705279702197278,52.137550501942634,-88.23529758782387,76.200527287817
2024-09-23 20:18:39.214253,41.81,48.965846,0.0010943914612681128,-0.02263404056809607,0.09740101331113918,48.12595698684454,-88.23529758782387,80.21211738781929
2024-09-23 20:18:39.257236,41.89,48.965897,0.0010943914612681128,-0.02263404056809607,0.09740101331113918,48.12595698684454,-96.25519929585457,80.21211738781929
2024-09-23 20:18:39.268930,41.89,48.965897,0.0005471957306340564,-0.022982261414192504,0.09740101331113918,48.12595698684454,-96.25519929585457,80.21211738781929
2024-09-23 20:18:39.303700,41.89,48.965897,0.0005471957306340564,-0.022982261414192504,0.09740101331113918,56.14914060194492,-96.25519929585457,80.21211738781929
2024-09-23 20:18:39.315484,41.89,48.965947,0.0007461703303635545,-0.023579196463302005,0.09740101331113918,56.14914060194492,-100.26678939585686,68.18063240997792
2024-09-23 20:18:39.357739,41.89,48.965998,0.0007461703303635545,-0.023579196463302005,0.0973512698629459,48.12595698684454,-100.26678939585686,72.1922225099802
2024-09-23 20:18:39.369850,41.89,48.965998,0.0007461703303635545,-0.023579196463302005,0.0973512698629459,48.12595698684454,-100.26678939585686,72.1922225099802
2024-09-23 20:18:39.403018,41.89,48.965998,0.0007461703303635545,-0.023230986250042305,0.09725178296655933,36.09446859390736,-100.26678939585686,72.1922225099802
2024-09-23 20:18:39.414882,41.89,48.966085,0.0007461703303635545,-0.023230986250042305,0.09725178296655933,36.09446859390736,-100.26678939585686,76.200527287817
2024-09-23 20:18:39.457825,41.89,48.966085,0.0004974468710863627,-0.023280723622328886,0.09824668230995855,44.11764879391193,-96.25519929585457,72.1922225099802
2024-09-23 20:18:39.500766,41.89,48.966136,0.0009948937421727254,-0.023479709566915436,0.09824668230995855,44.11764879391193,-96.25519929585457,72.1922225099802
2024-09-23 20:18:39.512357,41.89,48.966136,0.0009948937421727254,-0.023479709566915436,0.0976994861521123,44.11764879391193,-96.25519929585457,72.1922225099802
2024-09-23 20:18:39.555256,41.89,48.966187,0.0012436275969465451,-0.023330473146428877,0.09710254654607277,48.12595698684454,-96.25519929585457,76.200527287817
2024-09-23 20:18:39.597408,41.89,48.966187,0.0012436275969465451,-0.023330473146428877,0.09710254654607277,48.12595698684454,-92.24360919585227,76.200527287817
2024-09-23 20:18:39.608627,41.89,48.966238,0.0010943914612681128,-0.023230986250042305,0.09764974270391902,48.12595698684454,-92.24360919585227,76.200527287817
2024-09-23 20:18:39.651363,41.89,48.966288,0.0005969341946851222,-0.023230986250042305,0.09764974270391902,40.106058693909645,-92.24360919585227,76.200527287817
2024-09-23 20:18:39.663135,41.89,48.966288,0.0005969341946851222,-0.0228827638849692,0.09764974270391902,40.106058693909645,-92.24360919585227,76.200527287817
2024-09-23 20:18:39.695501,41.89,48.966288,0.0005969341946851222,-0.0228827638849692,0.09720203344245934,40.106058693909645,-92.24360919585227,76.200527287817
2024-09-23 20:18:39.707646,41.89,48.966339,0.0005969341946851222,-0.0228827638849692,0.09720203344245934,40.106058693909645,-92.24360919585227,80.21211738781929
2024-09-23 20:18:39.749977,41.89,48.966426,0.0005969341946851222,-0.023230986250042305,0.09680407370509965,16.039798293417693,-92.24360919585227,76.200527287817
2024-09-23 20:18:39.794298,41.89,48.966426,0.0006466830067647949,-0.022833026512682618,0.09755024973162574,28.07457030097246,-92.24360919585227,76.200527287817
2024-09-23 20:18:39.805566,41.89,48.966426,0.0006466830067647949,-0.022833026512682618,0.09755024973162574,28.07457030097246,-88.23529758782387,76.200527287817
2024-09-23 20:18:39.848151,41.89,48.966478,0.00044769805900669,-0.023280723622328886,0.09715228999426605,36.09446859390736,-88.23529758782387,76.200527287817
2024-09-23 20:18:39.890252,41.89,48.966528,0.0005969341946851222,-0.023280723622328886,0.09715228999426605,36.09446859390736,-88.23529758782387,72.1922225099802
2024-09-23 20:18:39.901733,41.89,48.966528,0.0005969341946851222,-0.023230986250042305,0.09759999317981902,36.09446859390736,-88.23529758782387,72.1922225099802
2024-09-23 20:18:39.945049,41.89,48.966579,0.0006964318663124887,-0.022733528983459317,0.0973015264147526,36.09446859390736,-92.24360919585227,72.1922225099802
2024-09-23 20:18:39.988428,41.89,48.966579,0.0006964318663124887,-0.022733528983459317,0.0973015264147526,48.12595698684454,-96.25519929585457,76.200527287817
2024-09-23 20:18:39.999765,41.89,48.96663,0.0008954064660419869,-0.02313149783467906,0.0973015264147526,48.12595698684454,-96.25519929585457,76.200527287817
2024-09-23 20:18:40.042351,41.89,48.96668,0.0009451553255896806,-0.02313149783467906,0.09764974270391902,44.11764879391193,-100.26678939585686,76.200527287817
2024-09-23 20:18:40.084866,41.89,48.96668,0.0009451553255896806,-0.023330473146428877,0.09755024973162574,44.11764879391193,-100.26678939585686,76.200527287817
2024-09-23 20:18:40.096276,41.89,48.966767,0.0009451553255896806,-0.023330473146428877,0.09755024973162574,44.11764879391193,-92.24360919585227,76.200527287817
2024-09-23 20:18:40.139255,41.89,48.966767,0.0009948937421727254,-0.02268379009219606,0.09725178296655933,44.11764879391193,-96.25519929585457,76.200527287817
2024-09-23 20:18:40.151323,41.89,48.966767,0.0009948937421727254,-0.02268379009219606,0.09725178296655933,44.11764879391193,-96.25519929585457,76.200527287817
2024-09-23 20:18:40.184016,41.89,48.966819,0.0007461703303635545,-0.02313149783467906,0.09725178296655933,44.11764879391193,-96.25519929585457,76.200527287817
2024-09-23 20:18:40.195316,41.89,48.966819,0.0007461703303635545,-0.02313149783467906,0.09740101331113918,36.09446859390736,-92.24360919585227,76.200527287817
2024-09-23 20:18:40.237725,41.89,48.96687,0.00024872343554318134,-0.022733528983459317,0.09710254654607277,32.08287849390507,-92.24360919585227,72.1922225099802
2024-09-23 20:18:40.280283,42.03,48.96692,0.00024872343554318134,-0.022733528983459317,0.09710254654607277,32.08287849390507,-100.26678939585686,80.21211738781929
2024-09-23 20:18:40.292505,42.03,48.96692,0.001044642601720419,-0.023330473146428877,0.09764974270391902,32.08287849390507,-100.26678939585686,80.21211738781929
2024-09-23 20:18:40.335538,42.03,48.966971,0.0009451553255896806,-0.02367869399252531,0.09764974270391902,32.08287849390507,-92.24360919585227,80.21211738781929
2024-09-23 20:18:40.378212,42.03,48.966971,0.0009451553255896806,-0.02367869399252531,0.0973512698629459,36.09446859390736,-96.25519929585457,80.21211738781929
2024-09-23 20:18:40.389334,42.03,48.967022,0.0009948937421727254,-0.02367869399252531,0.0973512698629459,36.09446859390736,-96.25519929585457,76.200527287817
2024-09-23 20:18:40.432100,42.03,48.967109,0.0009948937421727254,-0.023181236725942318,0.09799795899308542,52.137550501942634,-92.24360919585227,72.1922225099802
2024-09-23 20:18:40.475026,42.03,48.967109,0.0008954064660419869,-0.02268379009219606,0.09745075675933246,52.137550501942634,-92.24360919585227,72.1922225099802
2024-09-23 20:18:40.486038,42.03,48.967109,0.0008954064660419869,-0.02268379009219606,0.09745075675933246,40.106058693909645,-96.25519929585457,72.1922225099802
2024-09-23 20:18:40.528093,42.03,48.96716,0.0007461703303635545,-0.023230986250042305,0.09710254654607277,44.11764879391193,-96.25519929585457,72.1922225099802
2024-09-23 20:18:40.540414,42.03,48.96716,0.0007461703303635545,-0.023230986250042305,0.09710254654607277,44.11764879391193,-96.25519929585457,72.1922225099802
2024-09-23 20:18:40.572523,42.03,48.967211,0.0007461703303635545,-0.023230986250042305,0.09710254654607277,44.11764879391193,-96.25519929585457,76.200527287817
2024-09-23 20:18:40.584272,42.03,48.967211,0.0011938787373988514,-0.022733528983459317,0.0973015264147526,48.12595698684454,-96.25519929585457,76.200527287817
2024-09-23 20:18:40.626435,42.03,48.967262,0.00024872343554318134,-0.0228827638849692,0.09745075675933246,48.12595698684454,-96.25519929585457,76.200527287817
2024-09-23 20:18:40.669105,42.03,48.967262,0.00024872343554318134,-0.0228827638849692,0.09745075675933246,44.11764879391193,-96.25519929585457,76.200527287817
2024-09-23 20:18:40.681264,42.03,48.967313,0.00044769805900669,-0.022833026512682618,0.09745075675933246,44.11764879391193,-96.25519929585457,80.21211738781929
2024-09-23 20:18:40.724905,42.03,48.967363,0.0009451553255896806,-0.022833026512682618,0.09680407370509965,40.106058693909645,-96.25519929585457,72.1922225099802
2024-09-23 20:18:40.767669,42.03,48.967363,0.0009451553255896806,-0.023280723622328886,0.09745075675933246,40.106058693909645,-96.25519929585457,72.1922225099802
2024-09-23 20:18:40.778679,42.03,48.96745,0.0009451553255896806,-0.023280723622328886,0.09745075675933246,40.106058693909645,-96.25519929585457,84.22370748782159
2024-09-23 20:18:40.821380,42.03,48.96745,0.00029846189959424716,-0.02268379009219606,0.09710254654607277,44.11764879391193,-88.23529758782387,80.21211738781929
2024-09-23 20:18:40.863805,42.03,48.967502,0.0007461703303635545,-0.02268379009219606,0.09710254654607277,44.11764879391193,-88.23529758782387,80.21211738781929
2024-09-23 20:18:40.875363,42.03,48.967502,0.0007461703303635545,-0.023230986250042305,0.09745075675933246,36.09446859390736,-92.24360919585227,80.21211738781929
2024-09-23 20:18:40.918183,42.03,48.967552,0.0007959191899112484,-0.023877669304275123,0.0973015264147526,36.09446859390736,-92.24360919585227,80.21211738781929
2024-09-23 20:18:40.930269,42.03,48.967552,0.0007959191899112484,-0.023877669304275123,0.0973015264147526,40.106058693909645,-92.24360919585227,80.21211738781929
2024-09-23 20:18:40.962621,42.03,48.967552,0.0007959191899112484,-0.023877669304275123,0.0973015264147526,40.106058693909645,-100.26678939585686,68.18063240997792
2024-09-23 20:18:40.973715,42.03,48.967603,0.0009948937421727254,-0.022584292562972758,0.09705279702197278,40.106058693909645,-100.26678939585686,68.18063240997792
2024-09-23 20:18:41.016652,42.03,48.967653,0.0007461703303635545,-0.022584292562972758,0.09705279702197278,36.09446859390736,-92.24360919585227,72.1922225099802
2024-09-23 20:18:41.028457,42.03,48.967653,0.0007461703303635545,-0.023280723622328886,0.09705279702197278,36.09446859390736,-92.24360919585227,72.1922225099802
2024-09-23 20:18:41.061246,42.03,48.967653,0.0007461703303635545,-0.023280723622328886,0.09710254654607277,48.12595698684454,-96.25519929585457,72.1922225099802
2024-09-23 20:18:41.072976,42.03,48.967704,0.0011938787373988514,-0.023280723622328886,0.09710254654607277,48.12595698684454,-96.25519929585457,72.1922225099802
2024-09-23 20:18:41.116306,42.03,48.967791,0.0011938787373988514,-0.02303200030545576,0.09745075675933246,48.12595698684454,-92.24360919585227,80.21211738781929
2024-09-23 20:18:41.159200,42.03,48.967791,0.00034821073540793035,-0.023330473146428877,0.09750050628343246,40.106058693909645,-92.24360919585227,80.21211738781929
2024-09-23 20:18:41.170932,42.03,48.967791,0.00034821073540793035,-0.023330473146428877,0.09750050628343246,40.106058693909645,-92.24360919585227,80.21211738781929
2024-09-23 20:18:41.203187,42.03,48.967843,0.00034821073540793035,-0.023330473146428877,0.09750050628343246,40.106058693909645,-92.24360919585227,80.21211738781929
2024-09-23 20:18:41.214661,42.03,48.967843,0.00029846189959424716,-0.02313149783467906,0.09715228999426605,36.09446859390736,-92.24360919585227,80.21211738781929
2024-09-23 20:18:41.258133,42.03,48.967893,0.00044769805900669,-0.023181236725942318,0.09715228999426605,36.09446859390736,-92.24360919585227,76.200527287817
2024-09-23 20:18:41.269449,42.03,48.967893,0.00044769805900669,-0.023181236725942318,0.0973512698629459,44.11764879391193,-92.24360919585227,76.200527287817
2024-09-23 20:18:41.302368,42.1,48.967893,0.00044769805900669,-0.023181236725942318,0.0973512698629459,44.11764879391193,-84.22370748782159,76.200527287817
2024-09-23 20:18:41.313789,42.1,48.967944,0.0007959191899112484,-0.023181236725942318,0.09759999317981902,44.11764879391193,-84.22370748782159,76.200527287817
2024-09-23 20:18:41.355640,42.1,48.967995,0.0007959191899112484,-0.023181236725942318,0.09759999317981902,48.12595698684454,-96.25519929585457,72.1922225099802
2024-09-23 20:18:41.399396,42.1,48.967995,0.000845657606494293,-0.023181236725942318,0.09759999317981902,48.12595698684454,-96.25519929585457,72.1922225099802
2024-09-23 20:18:41.411306,42.1,48.967995,0.000845657606494293,-0.023579196463302005,0.09720203344245934,52.137550501942634,-100.26678939585686,72.1922225099802
2024-09-23 20:18:41.455059,42.1,48.968045,0.0003979595949556242,-0.02293251340906919,0.09715228999426605,32.08287849390507,-100.26678939585686,72.1922225099802
2024-09-23 20:18:41.466590,42.1,48.968045,0.0003979595949556242,-0.02293251340906919,0.09715228999426605,32.08287849390507,-96.25519929585457,72.1922225099802
2024-09-23 20:18:41.498035,42.1,48.968132,0.0003979595949556242,-0.02293251340906919,0.09715228999426605,32.08287849390507,-96.25519929585457,80.21211738781929
2024-09-23 20:18:41.509262,42.1,48.968132,0.0005969341946851222,-0.0225345536717095,0.09799795899308542,36.09446859390736,-96.25519929585457,80.21211738781929
2024-09-23 20:18:41.551865,42.1,48.968184,0.000845657606494293,-0.02352945757203875,0.09799795899308542,36.09446859390736,-100.26678939585686,76.200527287817
2024-09-23 20:18:41.563913,42.1,48.968184,0.000845657606494293,-0.02352945757203875,0.09745075675933246,36.09446859390736,-100.26678939585686,76.200527287817
2024-09-23 20:18:41.595634,42.1,48.968184,0.000845657606494293,-0.02352945757203875,0.09745075675933246,36.09446859390736,-96.25519929585457,76.200527287817
2024-09-23 20:18:41.606803,42.1,48.968235,0.0013431148730772837,-0.022833026512682618,0.09745075675933246,36.09446859390736,-96.25519929585457,84.22370748782159
2024-09-23 20:18:41.649653,42.1,48.968285,0.0013431148730772837,-0.022833026512682618,0.09759999317981902,36.09446859390736,-88.23529758782387,76.200527287817
2024-09-23 20:18:41.661847,42.1,48.968285,0.0007461703303635545,-0.022833026512682618,0.09759999317981902,36.09446859390736,-88.23529758782387,76.200527287817
2024-09-23 20:18:41.693754,42.1,48.968285,0.0007461703303635545,-0.023429960042815445,0.09764974270391902,36.09446859390736,-88.23529758782387,76.200527287817
2024-09-23 20:18:41.706032,42.1,48.968376,0.0007461703303635545,-0.023429960042815445,0.09764974270391902,36.09446859390736,-88.23529758782387,80.21211738781929
2024-09-23 20:18:41.749312,42.1,48.968376,0.0003979595949556242,-0.02238531725122294,0.09745075675933246,40.106058693909645,-96.25519929585457,72.1922225099802
2024-09-23 20:18:41.791865,42.1,48.968428,0.0004974468710863627,-0.02313149783467906,0.09745075675933246,40.106058693909645,-96.25519929585457,72.1922225099802
2024-09-23 20:18:41.803345,42.1,48.968428,0.0004974468710863627,-0.02313149783467906,0.09675432418099966,40.106058693909645,-96.25519929585457,72.1922225099802
2024-09-23 20:18:41.846436,42.1,48.968478,0.0009948937421727254,-0.023230986250042305,0.09675432418099966,40.106058693909645,-96.25519929585457,80.21211738781929
2024-09-23 20:18:41.889450,42.1,48.968529,0.0009948937421727254,-0.023230986250042305,0.09675432418099966,40.106058693909645,-88.23529758782387,76.200527287817
2024-09-23 20:18:41.901244,42.1,48.968529,0.0006466830067647949,-0.022982261414192504,0.09715228999426605,40.106058693909645,-88.23529758782387,76.200527287817
2024-09-23 20:18:41.944566,42.1,48.96858,0.00044769805900669,-0.023579196463302005,0.09715228999426605,32.08287849390507,-92.24360919585227,80.21211738781929
2024-09-23 20:18:41.986391,42.1,48.96858,0.00044769805900669,-0.023579196463302005,0.09789846602079214,36.09446859390736,-92.24360919585227,80.21211738781929
2024-09-23 20:18:41.998287,42.1,48.96863,0.0007461703303635545,-0.023579196463302005,0.09789846602079214,36.09446859390736,-92.24360919585227,84.22370748782159
2024-09-23 20:18:42.040290,42.1,48.968717,0.0007461703303635545,-0.02263404056809607,0.09720203344245934,52.137550501942634,-92.24360919585227,80.21211738781929
2024-09-23 20:18:42.083367,42.1,48.968717,0.0005969341946851222,-0.022833026512682618,0.09720203344245934,52.137550501942634,-92.24360919585227,80.21211738781929
2024-09-23 20:18:42.094340,42.1,48.968717,0.0005969341946851222,-0.022833026512682618,0.09779897304849887,44.11764879391193,-96.25519929585457,80.21211738781929
2024-09-23 20:18:42.136620,42.1,48.968769,0.0006466830067647949,-0.023280723622328886,0.09750050628343246,44.11764879391193,-96.25519929585457,80.21211738781929
2024-09-23 20:18:42.148440,42.1,48.968769,0.0006466830067647949,-0.023280723622328886,0.09750050628343246,32.08287849390507,-92.24360919585227,80.21211738781929
2024-09-23 20:18:42.181329,42.1,48.96882,0.0010943914612681128,-0.023280723622328886,0.09750050628343246,32.08287849390507,-92.24360919585227,76.200527287817
2024-09-23 20:18:42.192562,42.1,48.96882,0.0010943914612681128,-0.02308174982955575,0.0976994861521123,52.137550501942634,-92.24360919585227,76.200527287817
2024-09-23 20:18:42.235213,42.1,48.96887,0.0010943914612681128,-0.02338022115155219,0.09710254654607277,52.137550501942634,-96.25519929585457,72.1922225099802
2024-09-23 20:18:42.278131,42.1,48.96887,0.0010943914612681128,-0.02338022115155219,0.09710254654607277,52.137550501942634,-96.25519929585457,72.1922225099802
2024-09-23 20:18:42.289556,42.1,48.968921,0.0006964318663124887,-0.023181236725942318,0.09710254654607277,52.137550501942634,-96.25519929585457,72.1922225099802
2024-09-23 20:18:42.331431,42.41,48.968972,0.0006964318663124887,-0.023181236725942318,0.09690356060148622,32.08287849390507,-92.24360919585227,80.21211738781929
2024-09-23 20:18:42.343188,42.41,48.968972,0.0005471957306340564,-0.023181236725942318,0.09690356060148622,32.08287849390507,-92.24360919585227,80.21211738781929
