Ayaan's Suite
Timestamp,Sample Rate (Hz),Time,Ax,Ay,Az,Gx,Gy,Gz
2024-09-23 06:14:55.902264,0,23.919279,-0.014574005516297226,0.01914740125216718,1.0119492611510794,0.38932495064372197,-1.1724439050000162,-1.3387163820605725
2024-09-23 06:14:55.913895,0,23.919366,-0.014574005516297226,0.01914740125216718,1.0119492611510794,0.38932495064372197,-1.1724439050000162,-1.3824903330512346
2024-09-23 06:14:55.946105,0,23.919366,-0.01481783924724956,0.01914740125216718,1.0119492611510794,0.38932495064372197,-1.1724439050000162,-1.3824903330512346
2024-09-23 06:14:55.957853,0,23.919366,-0.01481783924724956,0.01914740125216718,1.0132298678554648,0.3630834878716618,-1.1724439050000162,-1.3911993609655648
2024-09-23 06:14:55.999903,0,23.919418,-0.014634963569291141,0.019452293288574063,1.011217527554791,0.3630834878716618,-1.1724439050000162,-1.3911993609655648
2024-09-23 06:14:56.053025,0,23.919468,-0.014756881194255646,0.018659531766364576,1.011217527554791,0.3674952580444515,-1.1243154934130608,-1.3780785628784449
2024-09-23 06:14:56.096609,0,23.919468,-0.014756881194255646,0.018659531766364576,1.0151811574455674,0.39809120809324083,-1.1287272635858505,-1.3780785628784449
2024-09-23 06:14:56.107736,0,23.919519,-0.013049540777332799,0.018659531766364576,1.0151811574455674,0.39809120809324083,-1.1287272635858505,-1.3868447936475277
2024-09-23 06:14:56.150857,0,23.919519,-0.013049540777332799,0.020732824044125523,1.0126809947473678,0.39373674749694765,-1.1506142924420535,-1.469981032177806
2024-09-23 06:14:56.163354,0,23.91957,-0.013049540777332799,0.020732824044125523,1.0126809947473678,0.39373674749694765,-1.1506142924420535,-1.469981032177806
2024-09-23 06:14:56.195710,0,23.91957,-0.0173180429578192,0.018171764051999276,1.0146322843374704,0.2843590461946093,-1.1506142924420535,-1.469981032177806
2024-09-23 06:14:56.207507,0,23.91957,-0.0173180429578192,0.018171764051999276,1.0146322843374704,0.2843590461946093,-1.1724439050000162,-1.3780785628784449
2024-09-23 06:14:56.239927,0,23.919621,-0.0173180429578192,0.018171764051999276,1.0146322843374704,0.2843590461946093,-1.1724439050000162,-1.3780785628784449
2024-09-23 06:14:56.250989,0,23.919621,-0.015183792627064338,0.020306014382754138,1.0128639524500669,0.3149550229238346,-1.1374934943549335,-1.3780785628784449
2024-09-23 06:14:56.294173,0,23.919708,-0.012317737308117227,0.01835463821098102,1.0076198130694125,0.3149550229238346,-1.1374934943549335,-1.3387163820605725
2024-09-23 06:14:56.306154,0,23.919708,-0.012317737308117227,0.01835463821098102,1.0076198130694125,0.3324875378228724,-1.1374934943549335,-1.3387163820605725
2024-09-23 06:14:56.338725,0,23.919708,-0.012317737308117227,0.01835463821098102,1.0076198130694125,0.3324875378228724,-1.1899764732599258,-1.434973311956227
2024-09-23 06:14:56.350070,0,23.91976,-0.014939857124674697,0.02097675802753849,1.012498037044669,0.3324875378228724,-1.1899764732599258,-1.434973311956227
2024-09-23 06:14:56.392180,0,23.91981,-0.01585453627184869,0.02097675802753849,1.012498037044669,0.3368419984191656,-1.0849533125951887,-1.3999655917346479
2024-09-23 06:14:56.404469,0,23.91981,-0.01585453627184869,0.019574312684975875,1.012498037044669,0.3368419984191656,-1.0849533125951887,-1.3999655917346479
2024-09-23 06:14:56.437997,0,23.91981,-0.01585453627184869,0.019574312684975875,1.0146322843374704,0.3018342781975865,-1.1330817241821438,-1.3999655917346479
2024-09-23 06:14:56.449179,0,23.919861,-0.013232416455291218,0.019574312684975875,1.0146322843374704,0.3018342781975865,-1.1330817241821438,-1.3518370734259486
2024-09-23 06:14:56.491980,0,23.919951,-0.013232416455291218,0.01975718684395762,1.0151811574455674,0.39373674749694765,-1.1506142924420535,-1.3606034109167755
2024-09-23 06:14:56.534365,0,23.919951,-0.014634963569291141,0.02012303845233509,1.0119492611510794,0.39373674749694765,-1.1506142924420535,-1.3606034109167755
2024-09-23 06:14:56.546570,0,23.919951,-0.014634963569291141,0.02012303845233509,1.0119492611510794,0.3499627431454137,-1.0980740039605648,-1.3999655917346479
2024-09-23 06:14:56.589367,0,23.920003,-0.015793578218854774,0.019086441680196593,1.0131078636488298,0.3237212803733535,-1.1943309338562191,-1.3999655917346479
2024-09-23 06:14:56.631221,0,23.920053,-0.015793578218854774,0.019086441680196593,1.0131078636488298,0.3237212803733535,-1.1943309338562191,-1.3780785628784449
2024-09-23 06:14:56.642596,0,23.920053,-0.01365932788809991,0.01914740125216718,1.0102418827597397,0.3368419984191656,-1.1943309338562191,-1.3780785628784449
2024-09-23 06:14:56.685434,0,23.920053,-0.01365932788809991,0.01914740125216718,1.0102418827597397,0.3368419984191656,-1.0630662837389857,-1.3562488435987383
2024-09-23 06:14:56.728417,0,23.920104,-0.01585453627184869,0.01914740125216718,1.0102418827597397,0.3368419984191656,-1.0630662837389857,-1.3562488435987383
2024-09-23 06:14:56.739666,0,23.920104,-0.01585453627184869,0.020793883868556746,1.0107297051572652,0.4287444677185267,-1.1374934943549335,-1.3562488435987383
2024-09-23 06:14:56.781990,0,23.920155,-0.013720285941093825,0.02451355699126995,1.01231507934197,0.4287444677185267,-1.1374934943549335,-1.4306188513599336
2024-09-23 06:14:56.794298,0,23.920155,-0.013720285941093825,0.02451355699126995,1.01231507934197,0.3456082558686845,-1.1374934943549335,-1.4306188513599336
2024-09-23 06:14:56.826074,0,23.920155,-0.013720285941093825,0.02451355699126995,1.01231507934197,0.3456082558686845,-1.207451731943339,-1.426207081187144
2024-09-23 06:14:56.837128,0,23.920206,-0.013842202047081654,0.02122069352992813,1.0132298678554648,0.3456082558686845,-1.207451731943339,-1.426207081187144
2024-09-23 06:14:56.880302,43.1,23.920292,-0.01396421992450679,0.02122069352992813,1.0132298678554648,0.37184974532118065,-1.0805987452771515,-1.4218526205908506
2024-09-23 06:14:56.892044,43.1,23.920292,-0.01396421992450679,0.020732824044125523,1.0132298678554648,0.37184974532118065,-1.0805987452771515,-1.4218526205908506
2024-09-23 06:14:56.925483,43.1,23.920292,-0.01396421992450679,0.020732824044125523,1.0109736163560281,0.3018342781975865,-1.1330817241821438,-1.4218526205908506
2024-09-23 06:14:56.937988,43.1,23.920343,-0.01445198763887209,0.020732824044125523,1.0109736163560281,0.3018342781975865,-1.1330817241821438,-1.434973311956227
2024-09-23 06:14:56.970306,43.1,23.920343,-0.01445198763887209,0.021098777423940302,1.0109736163560281,0.3018342781975865,-1.1330817241821438,-1.434973311956227
2024-09-23 06:14:56.981283,43.1,23.920439,-0.01445198763887209,0.021098777423940302,1.0167666288447792,0.3062460483703762,-1.0718325145080685,-1.3911993609655648
2024-09-23 06:14:57.023752,43.1,23.920439,-0.015976452377836518,0.020001120827370582,1.0132298678554648,0.3499627431454137,-1.0718325145080685,-1.3911993609655648
2024-09-23 06:14:57.035299,43.1,23.920439,-0.015976452377836518,0.020001120827370582,1.0132298678554648,0.3499627431454137,-1.1199610328167677,-1.3824903330512346
2024-09-23 06:14:57.067443,43.1,23.92049,-0.015976452377836518,0.020001120827370582,1.0132298678554648,0.3499627431454137,-1.1199610328167677,-1.3824903330512346
2024-09-23 06:14:57.079060,43.1,23.92049,-0.014756881194255646,0.01914740125216718,1.0138396944596255,0.3849704900474288,-1.0455910250555724,-1.3824903330512346
2024-09-23 06:14:57.120970,43.1,23.920541,-0.016586237969626952,0.01768389456619667,1.0138396944596255,0.3849704900474288,-1.0455910250555724,-1.4306188513599336
2024-09-23 06:14:57.132628,43.1,23.920541,-0.016586237969626952,0.01768389456619667,1.0153641151482662,0.3149550229238346,-1.0455910250555724,-1.4306188513599336
2024-09-23 06:14:57.165040,43.1,23.920541,-0.016586237969626952,0.01768389456619667,1.0153641151482662,0.3149550229238346,-1.1287272635858505,-1.4306188513599336
2024-09-23 06:14:57.177004,43.1,23.920592,-0.012805606793919833,0.022562284109910815,1.0145713308414066,0.3149550229238346,-1.1287272635858505,-1.3999655917346479
2024-09-23 06:14:57.219445,43.1,23.920642,-0.012805606793919833,0.022562284109910815,1.0145713308414066,0.2581175834225491,-1.1156065722204744,-1.3474826128296553
2024-09-23 06:14:57.230643,43.1,23.920642,-0.014878899071680782,0.02201345505213762,1.0145713308414066,0.2581175834225491,-1.1156065722204744,-1.3474826128296553
2024-09-23 06:14:57.264687,43.1,23.920642,-0.014878899071680782,0.02201345505213762,1.011034569852092,0.29747979092085736,-1.1156065722204744,-1.3474826128296553
2024-09-23 06:14:57.277069,43.1,23.920693,-0.014025177977500705,0.02201345505213762,1.011034569852092,0.29747979092085736,-1.1899764732599258,-1.413086283100024
2024-09-23 06:14:57.320174,43.1,23.92078,-0.014025177977500705,0.01963527073796979,1.0143883731387076,0.3630834878716618,-1.1680894444037229,-1.3999655917346479
2024-09-23 06:14:57.362270,43.1,23.92078,-0.010793271809664462,0.02402578927690465,1.0143883731387076,0.3630834878716618,-1.1680894444037229,-1.3999655917346479
2024-09-23 06:14:57.373403,43.1,23.92078,-0.010793271809664462,0.02402578927690465,1.012620041251304,0.38932495064372197,-1.0980740039605648,-1.4524485706396402
2024-09-23 06:14:57.416324,43.1,23.920831,-0.015488684663471218,0.021830479121718566,1.0129859566567019,0.3499627431454137,-1.0980740039605648,-1.4524485706396402
2024-09-23 06:14:57.428091,43.1,23.920831,-0.015488684663471218,0.021830479121718566,1.0129859566567019,0.3499627431454137,-1.1418479549512268,-1.4524485706396402
2024-09-23 06:14:57.460120,43.1,23.920882,-0.015488684663471218,0.021830479121718566,1.0129859566567019,0.3499627431454137,-1.1418479549512268,-1.3956111311383546
2024-09-23 06:14:57.471405,43.1,23.920882,-0.011951885699739756,0.020732824044125523,1.0146322843374704,0.27559278874509036,-1.1418479549512268,-1.3956111311383546
2024-09-23 06:14:57.513139,43.1,23.920933,-0.015976452377836518,0.019025483627202678,1.0146322843374704,0.27559278874509036,-1.1549687530383468,-1.4174980532728136
2024-09-23 06:14:57.525324,43.1,23.920933,-0.015976452377836518,0.019025483627202678,1.0157908868352208,0.27559278874509036,-1.1549687530383468,-1.4174980532728136
2024-09-23 06:14:57.557007,43.1,23.920933,-0.015976452377836518,0.019025483627202678,1.0157908868352208,0.3062460483703762,-1.0368247942864894,-1.4174980532728136
2024-09-23 06:14:57.568730,43.1,23.920984,-0.011586034850850625,0.02097675802753849,1.0157908868352208,0.3062460483703762,-1.0368247942864894,-1.3956111311383546
2024-09-23 06:14:57.610450,43.1,23.921034,-0.011586034850850625,0.02097675802753849,1.0147542885441054,0.38061600277069957,-1.1156065722204744,-1.3518370734259486
2024-09-23 06:14:57.622276,43.1,23.921034,-0.011403058160943235,0.02097675802753849,1.0147542885441054,0.38061600277069957,-1.1156065722204744,-1.3518370734259486
2024-09-23 06:14:57.654412,43.1,23.921034,-0.011403058160943235,0.016525279916633037,1.0147542885441054,0.38061600277069957,-1.1156065722204744,-1.3518370734259486
2024-09-23 06:14:57.666007,43.1,23.921121,-0.011403058160943235,0.016525279916633037,1.0147542885441054,0.31060053564710544,-1.0980740039605648,-1.4174980532728136
2024-09-23 06:14:57.707757,43.1,23.921121,-0.016159429827232244,0.021464627513341095,1.0113394345469187,0.3411964856958948,-1.0893650827679784,-1.4174980532728136
2024-09-23 06:14:57.719262,43.1,23.921121,-0.016159429827232244,0.021464627513341095,1.0113394345469187,0.3411964856958948,-1.0893650827679784,-1.4087318225037306
2024-09-23 06:14:57.750982,43.1,23.921173,-0.016159429827232244,0.021464627513341095,1.0113394345469187,0.3411964856958948,-1.0893650827679784,-1.4087318225037306
2024-09-23 06:14:57.762992,43.1,23.921173,-0.013171458402297304,0.020732824044125523,1.0144494238492787,0.3630834878716618,-1.1374934943549335,-1.4087318225037306
2024-09-23 06:14:57.806679,43.1,23.921223,-0.013537308491698099,0.020001120827370582,1.0107906586533293,0.3630834878716618,-1.1374934943549335,-1.4218526205908506
2024-09-23 06:14:57.818363,43.1,23.921223,-0.013537308491698099,0.020001120827370582,1.0107906586533293,0.3280757409696467,-1.1374934943549335,-1.4218526205908506
2024-09-23 06:14:57.850843,43.1,23.921223,-0.013537308491698099,0.020001120827370582,1.0107906586533293,0.3280757409696467,-1.1199610328167677,-1.3606034109167755
2024-09-23 06:14:57.862132,43.1,23.921274,-0.01481783924724956,0.019452293288574063,1.0130469101527657,0.3280757409696467,-1.1199610328167677,-1.3606034109167755
2024-09-23 06:14:57.905730,45.93,23.921325,-0.016037512202267738,0.01811080599900536,1.0130469101527657,0.37184974532118065,-1.1374934943549335,-1.3430708426568656
2024-09-23 06:14:57.948313,45.93,23.921325,-0.016037512202267738,0.01811080599900536,1.0135347325502915,0.37184974532118065,-1.1374934943549335,-1.3430708426568656
2024-09-23 06:14:57.959718,45.93,23.921376,-0.011098165365048018,0.01811080599900536,1.0135347325502915,0.37184974532118065,-1.0543573625463993,-1.504988752399385
2024-09-23 06:14:58.003451,45.93,23.921376,-0.011098165365048018,0.020062078880364497,1.0114614387535539,0.28871353347133843,-1.1506142924420535,-1.496222521630302
2024-09-23 06:14:58.015536,45.93,23.921463,-0.011098165365048018,0.020062078880364497,1.0114614387535539,0.28871353347133843,-1.1506142924420535,-1.496222521630302
2024-09-23 06:14:58.050980,45.93,23.921463,-0.018049744655597465,0.02189143717471248,1.0135347325502915,0.28871353347133843,-1.0980740039605648,-1.496222521630302
2024-09-23 06:14:58.062536,45.93,23.921463,-0.018049744655597465,0.02189143717471248,1.0135347325502915,0.28871353347133843,-1.0980740039605648,-1.4087318225037306
2024-09-23 06:14:58.094963,45.93,23.921514,-0.01378124399408774,0.02189143717471248,1.0135347325502915,0.28871353347133843,-1.0980740039605648,-1.4087318225037306
2024-09-23 06:14:58.107031,45.93,23.921514,-0.01378124399408774,0.01786687049661572,1.0162178529511898,0.28871353347133843,-1.0805987452771515,-1.4087318225037306
2024-09-23 06:14:58.139760,45.93,23.921514,-0.01378124399408774,0.01786687049661572,1.0162178529511898,0.28871353347133843,-1.0805987452771515,-1.3911993609655648
2024-09-23 06:14:58.151328,45.93,23.921565,-0.01433007153288426,0.020306014382754138,1.010668654446694,0.3543172304221429,-1.0805987452771515,-1.3911993609655648
2024-09-23 06:14:58.193788,45.93,23.921615,-0.014147094083488534,0.020306014382754138,1.010668654446694,0.3543172304221429,-1.1549687530383468,-1.3606034109167755
2024-09-23 06:14:58.204909,45.93,23.921615,-0.014147094083488534,0.019818144896951533,1.01426646614658,0.3543172304221429,-1.1549687530383468,-1.3606034109167755
2024-09-23 06:14:58.247426,45.93,23.921666,-0.015915494324842603,0.02207441310513153,1.01426646614658,0.3018342781975865,-1.1462025222692638,-1.43932777255252
2024-09-23 06:14:58.290187,45.93,23.921666,-0.015915494324842603,0.02207441310513153,1.014205512650516,0.3411964856958948,-1.0937195433642715,-1.43932777255252
2024-09-23 06:14:58.301668,45.93,23.921717,-0.01219582044264106,0.02207441310513153,1.014205512650516,0.3411964856958948,-1.0937195433642715,-1.4568603408124299
2024-09-23 06:14:58.344219,45.93,23.921804,-0.01219582044264106,0.019086441680196593,1.0098759673543418,0.3018342781975865,-1.0587118231426924,-1.3430708426568656
2024-09-23 06:14:58.387762,45.93,23.921804,-0.012439653414105056,0.020732824044125523,1.0121322188537785,0.3018342781975865,-1.0587118231426924,-1.3430708426568656
2024-09-23 06:14:58.400059,45.93,23.921804,-0.012439653414105056,0.020732824044125523,1.0121322188537785,0.35872900059493257,-1.0937195433642715,-1.4437395427253097
2024-09-23 06:14:58.432489,45.93,23.921855,-0.012439653414105056,0.020732824044125523,1.0121322188537785,0.35872900059493257,-1.0937195433642715,-1.4437395427253097
2024-09-23 06:14:58.444073,45.93,23.921855,-0.01713506550842347,0.017744852619190586,1.0148152420401695,0.3411964856958948,-1.0980740039605648,-1.4437395427253097
2024-09-23 06:14:58.486580,45.93,23.921906,-0.0075613656418282195,0.02189143717471248,1.0148152420401695,0.3411964856958948,-1.0980740039605648,-1.426207081187144
2024-09-23 06:14:58.498285,45.93,23.921906,-0.0075613656418282195,0.02189143717471248,1.0098759673543418,0.3368419984191656,-1.0980740039605648,-1.426207081187144
2024-09-23 06:14:58.530220,45.93,23.921906,-0.0075613656418282195,0.02189143717471248,1.0098759673543418,0.3368419984191656,-1.1374934943549335,-1.426207081187144
2024-09-23 06:14:58.541760,45.93,23.921957,-0.012866564846913748,0.018415698035412244,1.015973941752427,0.3368419984191656,-1.1374934943549335,-1.3474826128296553
2024-09-23 06:14:58.583693,45.93,23.922007,-0.012866564846913748,0.018415698035412244,1.015973941752427,0.3368419984191656,-1.1287272635858505,-1.3518370734259486
2024-09-23 06:14:58.595382,45.93,23.922007,-0.014208053655459124,0.020427930488741967,1.015973941752427,0.3368419984191656,-1.1287272635858505,-1.3518370734259486
2024-09-23 06:14:58.627202,45.93,23.922007,-0.014208053655459124,0.020427930488741967,1.0131688171448936,0.3368419984191656,-1.1287272635858505,-1.3518370734259486
2024-09-23 06:14:58.639319,45.93,23.922007,-0.014208053655459124,0.020427930488741967,1.0131688171448936,0.27123832814879717,-1.0587118231426924,-1.3649578715130686
2024-09-23 06:14:58.682832,45.93,23.922058,-0.014269113479890346,0.020610907938137694,1.0131688171448936,0.3411964856958948,-1.0587118231426924,-1.3649578715130686
2024-09-23 06:14:58.694809,45.93,23.922058,-0.014269113479890346,0.020610907938137694,1.0131688171448936,0.3411964856958948,-1.1199610328167677,-1.3649578715130686
2024-09-23 06:14:58.727295,45.93,23.922145,-0.014269113479890346,0.020610907938137694,1.0131688171448936,0.3411964856958948,-1.1199610328167677,-1.3956111311383546
2024-09-23 06:14:58.739274,45.93,23.922145,-0.016586237969626952,0.01939133523558015,1.015486022140394,0.2537058132497594,-1.1199610328167677,-1.3956111311383546
2024-09-23 06:14:58.783041,45.93,23.922196,-0.013476350438704184,0.019818144896951533,1.0128639524500669,0.2537058132497594,-1.0543573625463993,-1.3911993609655648
2024-09-23 06:14:58.826380,45.93,23.922196,-0.013476350438704184,0.019818144896951533,1.0128639524500669,0.3280757409696467,-1.1768557818945498,-1.404320052330941
2024-09-23 06:14:58.838923,45.93,23.922247,-0.01396421992450679,0.02140366946034718,1.0128639524500669,0.3280757409696467,-1.1768557818945498,-1.404320052330941
2024-09-23 06:14:58.872319,45.93,23.922247,-0.01396421992450679,0.02140366946034718,1.0161568022406187,0.3280757409696467,-1.1768557818945498,-1.404320052330941
2024-09-23 06:14:58.883599,45.93,23.922298,-0.01042742096077533,0.02140366946034718,1.0161568022406187,0.35872900059493257,-1.1549687530383468,-1.4087318225037306
2024-09-23 06:14:58.926475,45.64,23.922298,-0.01042742096077533,0.018842507696783625,1.01426646614658,0.3543172304221429,-1.0805987452771515,-1.4087318225037306
2024-09-23 06:14:58.938100,45.64,23.922389,-0.01042742096077533,0.018842507696783625,1.01426646614658,0.3543172304221429,-1.0805987452771515,-1.4437395427253097
2024-09-23 06:14:58.970209,45.64,23.922389,-0.012256778495634975,0.018842507696783625,1.01426646614658,0.3543172304221429,-1.0805987452771515,-1.4437395427253097
2024-09-23 06:14:58.981735,45.64,23.922389,-0.012256778495634975,0.018964423802771455,1.0123761300525411,0.3499627431454137,-1.15932321363464,-1.404320052330941
2024-09-23 06:14:59.025625,45.64,23.92244,-0.01341539238571027,0.01890346574977754,1.0113394345469187,0.3368419984191656,-1.15932321363464,-1.404320052330941
2024-09-23 06:14:59.037799,45.64,23.92244,-0.01341539238571027,0.01890346574977754,1.0113394345469187,0.3368419984191656,-1.0543573625463993,-1.404320052330941
2024-09-23 06:14:59.071236,45.64,23.922491,-0.01750101888823825,0.01890346574977754,1.0113394345469187,0.3368419984191656,-1.0543573625463993,-1.3737241022821516
2024-09-23 06:14:59.082741,45.64,23.922491,-0.01750101888823825,0.019208359305161096,1.0116442992417454,0.3543172304221429,-1.0543573625463993,-1.3737241022821516
2024-09-23 06:14:59.114944,45.64,23.922491,-0.01750101888823825,0.019208359305161096,1.0116442992417454,0.3543172304221429,-1.0455910250555724,-1.3737241022821516
2024-09-23 06:14:59.126664,45.64,23.922542,-0.01408613603049462,0.02207441310513153,1.0116442992417454,0.3543172304221429,-1.0455910250555724,-1.3387163820605725
2024-09-23 06:14:59.169188,45.64,23.922592,-0.01408613603049462,0.02207441310513153,1.0116442992417454,0.3324875378228724,-0.9668666634198279,-1.2818216329827905
2024-09-23 06:14:59.182120,45.64,23.922592,-0.012988480952901577,0.019574312684975875,1.0116442992417454,0.3324875378228724,-0.9668666634198279,-1.2818216329827905
2024-09-23 06:14:59.214567,45.64,23.922592,-0.012988480952901577,0.019574312684975875,1.0139006479556893,0.35872900059493257,-0.9668666634198279,-1.2818216329827905
2024-09-23 06:14:59.225835,45.64,23.922643,-0.013598266544692013,0.019574312684975875,1.0139006479556893,0.35872900059493257,-1.1024857741333545,-1.3868447936475277
2024-09-23 06:14:59.268562,45.64,23.922643,-0.013598266544692013,0.020549948366167105,1.015486022140394,0.27123832814879717,-1.1418479549512268,-1.3911993609655648
2024-09-23 06:14:59.280763,45.64,23.92273,-0.013598266544692013,0.020549948366167105,1.015486022140394,0.27123832814879717,-1.1418479549512268,-1.3911993609655648
2024-09-23 06:14:59.313835,45.64,23.92273,-0.010732313756670548,0.019574312684975875,1.0095710054450078,0.27123832814879717,-1.1418479549512268,-1.3911993609655648
2024-09-23 06:14:59.325582,45.64,23.92273,-0.010732313756670548,0.019574312684975875,1.0095710054450078,0.39809120809324083,-1.1330817241821438,-1.491868061034009
2024-09-23 06:14:59.368959,45.64,23.922781,-0.014025177977500705,0.020732824044125523,1.0153031616522024,0.3062460483703762,-1.0455910250555724,-1.491868061034009
2024-09-23 06:14:59.411641,45.64,23.922832,-0.014634963569291141,0.020732824044125523,1.0153031616522024,0.3062460483703762,-1.0455910250555724,-1.2424594521649182
2024-09-23 06:14:59.423062,45.64,23.922832,-0.014634963569291141,0.020062078880364497,1.014144559154452,0.28871353347133843,-1.0455910250555724,-1.2424594521649182
2024-09-23 06:14:59.465664,45.64,23.922883,-0.012134760618209839,0.01823272210499319,1.0153031616522024,0.28871353347133843,-1.1680894444037229,-1.3299501512914895
2024-09-23 06:14:59.508728,45.64,23.922883,-0.012134760618209839,0.01823272210499319,1.0153031616522024,0.3018342781975865,-1.1199610328167677,-1.3299501512914895
2024-09-23 06:14:59.519787,45.64,23.922934,-0.012927522899907663,0.020001120827370582,1.0153031616522024,0.3018342781975865,-1.1199610328167677,-1.3299501512914895
2024-09-23 06:14:59.561742,45.64,23.922984,-0.010976248499571852,0.020001120827370582,1.0134127283436565,0.29747979092085736,-1.1812102424908428,-1.4218526205908506
2024-09-23 06:14:59.604234,45.64,23.922984,-0.010976248499571852,0.019574312684975875,1.0126809947473678,0.29747979092085736,-1.1812102424908428,-1.4218526205908506
2024-09-23 06:14:59.616811,45.64,23.923071,-0.010976248499571852,0.019574312684975875,1.0126809947473678,0.3237212803733535,-1.1549687530383468,-1.3649578715130686
2024-09-23 06:14:59.660520,45.64,23.923071,-0.01445198763887209,0.020245056329760223,1.0124370835486052,0.24935132597303017,-1.1812102424908428,-1.3649578715130686
2024-09-23 06:14:59.704221,45.64,23.923123,-0.018842507696783625,0.020001120827370582,1.0124370835486052,0.24935132597303017,-1.1812102424908428,-1.3649578715130686
2024-09-23 06:14:59.716187,45.64,23.923123,-0.018842507696783625,0.020001120827370582,1.0181081890452284,0.3456082558686845,-1.1768557818945498,-1.3649578715130686
2024-09-23 06:14:59.748689,45.64,23.923123,-0.018842507696783625,0.020001120827370582,1.0181081890452284,0.3456082558686845,-1.1768557818945498,-1.4306188513599336
2024-09-23 06:14:59.760283,45.64,23.923173,-0.013354434332716355,0.01963527073796979,1.0113394345469187,0.3149550229238346,-1.1768557818945498,-1.4306188513599336
2024-09-23 06:14:59.802275,45.64,23.923224,-0.016159429827232244,0.01963527073796979,1.0113394345469187,0.3149550229238346,-1.1724439050000162,-1.413086283100024
2024-09-23 06:14:59.813996,45.64,23.923224,-0.016159429827232244,0.017439959063807027,1.0132908213515286,0.3149550229238346,-1.1724439050000162,-1.413086283100024
2024-09-23 06:14:59.846284,45.64,23.923224,-0.016159429827232244,0.017439959063807027,1.0132908213515286,0.3674952580444515,-1.1724439050000162,-1.413086283100024
2024-09-23 06:14:59.858043,45.64,23.923275,-0.011098165365048018,0.02122069352992813,1.0132908213515286,0.3674952580444515,-1.1549687530383468,-1.4524485706396402
2024-09-23 06:14:59.900667,45.64,23.923275,-0.011098165365048018,0.02122069352992813,1.0121931723498423,0.3368419984191656,-1.1506142924420535,-1.3212411233771593
2024-09-23 06:14:59.912558,45.64,23.923326,-0.011951885699739756,0.02122069352992813,1.0121931723498423,0.3368419984191656,-1.1506142924420535,-1.3212411233771593
2024-09-23 06:14:59.945266,45.52,23.923326,-0.011951885699739756,0.018964423802771455,1.0082904959551298,0.3368419984191656,-1.1506142924420535,-1.3212411233771593
2024-09-23 06:14:59.957126,45.52,23.923413,-0.011951885699739756,0.018964423802771455,1.0082904959551298,0.2581175834225491,-1.0587118231426924,-1.3255955839734523
2024-09-23 06:15:00.000476,45.52,23.923413,-0.013842202047081654,0.019330377182586234,1.0165227176460165,0.3499627431454137,-1.0849533125951887,-1.3430708426568656
2024-09-23 06:15:00.043315,45.52,23.923464,-0.013903160100075569,0.019330377182586234,1.0165227176460165,0.3499627431454137,-1.0849533125951887,-1.3430708426568656
2024-09-23 06:15:00.054305,45.52,23.923464,-0.013903160100075569,0.01823272210499319,1.0119492611510794,0.38932495064372197,-1.1812102424908428,-1.3430708426568656
2024-09-23 06:15:00.097126,45.52,23.923515,-0.012012843752733671,0.017439959063807027,1.0119492611510794,0.38932495064372197,-1.1812102424908428,-1.3255955839734523
2024-09-23 06:15:00.109910,45.52,23.923515,-0.012012843752733671,0.017439959063807027,1.0140835084438808,0.3018342781975865,-1.1812102424908428,-1.3255955839734523
2024-09-23 06:15:00.142272,45.52,23.923565,-0.012012843752733671,0.017439959063807027,1.0140835084438808,0.3018342781975865,-1.1156065722204744,-1.3343619214642792
2024-09-23 06:15:00.153328,45.52,23.923565,-0.011768909009832369,0.01963527073796979,1.0111565740587272,0.3018342781975865,-1.1156065722204744,-1.3343619214642792
2024-09-23 06:15:00.195619,45.52,23.923616,-0.016342405757651293,0.019940162774376668,1.0111565740587272,0.3280757409696467,-1.1330817241821438,-1.3168293532043696
2024-09-23 06:15:00.238826,45.52,23.923616,-0.016342405757651293,0.019940162774376668,1.0143883731387076,0.3368419984191656,-1.1330817241821438,-1.3168293532043696
2024-09-23 06:15:00.250397,45.52,23.923667,-0.01622038788022616,0.019940162774376668,1.0143883731387076,0.3368419984191656,-1.1506142924420535,-1.3255955839734523
2024-09-23 06:15:00.292551,45.52,23.923667,-0.01622038788022616,0.018415698035412244,1.0101198785531047,0.27123832814879717,-1.1199610328167677,-1.404320052330941
2024-09-23 06:15:00.304540,45.52,23.923754,-0.01622038788022616,0.018415698035412244,1.0101198785531047,0.27123832814879717,-1.1199610328167677,-1.404320052330941
2024-09-23 06:15:00.336927,45.52,23.923754,-0.01365932788809991,0.02140366946034718,1.0134127283436565,0.27123832814879717,-1.1199610328167677,-1.404320052330941
2024-09-23 06:15:00.348144,45.52,23.923754,-0.01365932788809991,0.02140366946034718,1.0134127283436565,0.26247207069927825,-1.1330817241821438,-1.3780785628784449
2024-09-23 06:15:00.390768,45.52,23.923805,-0.014878899071680782,0.021464627513341095,1.0126809947473678,0.29306802074806765,-1.1899764732599258,-1.3780785628784449
2024-09-23 06:15:00.432882,45.52,23.923856,-0.014878899071680782,0.021464627513341095,1.0126809947473678,0.29306802074806765,-1.1899764732599258,-1.3343619214642792
2024-09-23 06:15:00.444644,45.52,23.923856,-0.013110498830326714,0.020915799974544576,1.0150592504534395,0.3149550229238346,-1.1899764732599258,-1.3343619214642792
2024-09-23 06:15:00.486445,45.52,23.923907,-0.01481783924724956,0.01914740125216718,1.0150592504534395,0.3149550229238346,-1.1724439050000162,-1.3911993609655648
2024-09-23 06:15:00.498442,45.52,23.923907,-0.01481783924724956,0.01914740125216718,1.0145713308414066,0.3149550229238346,-1.1724439050000162,-1.3911993609655648
2024-09-23 06:15:00.530672,45.52,23.923907,-0.01481783924724956,0.01914740125216718,1.0145713308414066,0.3237212803733535,-1.1680894444037229,-1.3911993609655648
2024-09-23 06:15:00.541991,45.52,23.923957,-0.012927522899907663,0.01975718684395762,1.0145713308414066,0.3237212803733535,-1.1680894444037229,-1.294999633924663
2024-09-23 06:15:00.583860,45.52,23.923957,-0.012927522899907663,0.01975718684395762,1.012802998954003,0.24499683869630098,-1.1724439050000162,-1.3911993609655648
2024-09-23 06:15:00.595370,45.52,23.924008,-0.014147094083488534,0.01975718684395762,1.012802998954003,0.24499683869630098,-1.1724439050000162,-1.3911993609655648
2024-09-23 06:15:00.627952,45.52,23.924008,-0.014147094083488534,0.021464627513341095,1.0101198785531047,0.24499683869630098,-1.1724439050000162,-1.3911993609655648
2024-09-23 06:15:00.639011,45.52,23.924095,-0.014147094083488534,0.021464627513341095,1.0101198785531047,0.4549859571710229,-1.1637349838074296,-1.491868061034009
2024-09-23 06:15:00.681884,45.52,23.924095,-0.014391029585878175,0.02122069352992813,1.0144494238492787,0.3237212803733535,-1.1637349838074296,-1.491868061034009
2024-09-23 06:15:00.693647,45.52,23.924095,-0.014391029585878175,0.02122069352992813,1.0144494238492787,0.3237212803733535,-1.1199610328167677,-1.4218526205908506
2024-09-23 06:15:00.725912,45.52,23.924146,-0.012866564846913748,0.02122069352992813,1.0144494238492787,0.3237212803733535,-1.1199610328167677,-1.4218526205908506
2024-09-23 06:15:00.738118,45.52,23.924146,-0.012866564846913748,0.016708257366028764,1.0145103773453428,0.37620423259790986,-1.1506142924420535,-1.4218526205908506
2024-09-23 06:15:00.780390,45.52,23.924197,-0.013476350438704184,0.02201345505213762,1.00969310686615,0.3324875378228724,-1.1506142924420535,-1.4787472629468887
2024-09-23 06:15:00.822957,45.52,23.924197,-0.013476350438704184,0.02201345505213762,1.00969310686615,0.3324875378228724,-1.1680894444037229,-1.3693696416858583
2024-09-23 06:15:00.834282,45.52,23.924248,-0.016830173472016593,0.01890346574977754,1.0114614387535539,0.3324875378228724,-1.1680894444037229,-1.3693696416858583
2024-09-23 06:15:00.877887,45.52,23.924299,-0.014634963569291141,0.018049744655597465,1.0114614387535539,0.3018342781975865,-1.1243154934130608,-1.3649578715130686
2024-09-23 06:15:00.920852,45.52,23.924299,-0.014634963569291141,0.018049744655597465,1.0131688171448936,0.24935132597303017,-1.1243154934130608,-1.3649578715130686
2024-09-23 06:15:00.932273,45.52,23.924349,-0.01664729931303485,0.018049744655597465,1.0131688171448936,0.24935132597303017,-1.15932321363464,-1.4568603408124299
2024-09-23 06:15:00.975020,45.16,23.924349,-0.01664729931303485,0.019818144896951533,1.011034569852092,0.3193667930966243,-1.0718325145080685,-1.3474826128296553
2024-09-23 06:15:00.986986,45.16,23.924436,-0.01664729931303485,0.019818144896951533,1.011034569852092,0.3193667930966243,-1.0718325145080685,-1.3474826128296553
2024-09-23 06:15:01.021662,45.16,23.924436,-0.013720285941093825,0.02122069352992813,1.0099979715609768,0.3193667930966243,-1.0718325145080685,-1.3474826128296553
2024-09-23 06:15:01.033741,45.16,23.924436,-0.013720285941093825,0.02122069352992813,1.0099979715609768,0.3237212803733535,-1.1243154934130608,-1.4306188513599336
2024-09-23 06:15:01.066035,45.16,23.924488,-0.013720285941093825,0.02122069352992813,1.0099979715609768,0.3237212803733535,-1.1243154934130608,-1.4306188513599336
2024-09-23 06:15:01.077707,45.16,23.924488,-0.015488684663471218,0.019818144896951533,1.0132908213515286,0.24935132597303017,-1.0893650827679784,-1.4306188513599336
2024-09-23 06:15:01.120255,45.16,23.924539,-0.014269113479890346,0.02048899031317319,1.012620041251304,0.24935132597303017,-1.0893650827679784,-1.3387163820605725
2024-09-23 06:15:01.132016,45.16,23.924539,-0.014269113479890346,0.02048899031317319,1.012620041251304,0.29306802074806765,-1.0893650827679784,-1.3387163820605725
2024-09-23 06:15:01.164714,45.16,23.924539,-0.014269113479890346,0.02048899031317319,1.012620041251304,0.29306802074806765,-1.15932321363464,-1.3343619214642792
2024-09-23 06:15:01.175933,45.16,23.924589,-0.014147094083488534,0.016586237969626952,1.017010540043542,0.29306802074806765,-1.15932321363464,-1.3343619214642792
2024-09-23 06:15:01.218729,45.16,23.92464,-0.012317737308117227,0.016586237969626952,1.017010540043542,0.3499627431454137,-1.0937195433642715,-1.3824903330512346
2024-09-23 06:15:01.230947,45.16,23.92464,-0.012317737308117227,0.019940162774376668,1.017010540043542,0.3499627431454137,-1.0937195433642715,-1.3824903330512346
2024-09-23 06:15:01.263524,45.16,23.92464,-0.012317737308117227,0.019940162774376668,1.0133517748475924,0.3193667930966243,-1.0937195433642715,-1.3824903330512346
2024-09-23 06:15:01.274545,45.16,23.924691,-0.01433007153288426,0.019940162774376668,1.0133517748475924,0.3193667930966243,-1.0849533125951887,-1.43932777255252
2024-09-23 06:15:01.317799,45.16,23.924778,-0.01433007153288426,0.01963527073796979,1.0157299333391567,0.3018342781975865,-1.1812102424908428,-1.4306188513599336
2024-09-23 06:15:01.359640,45.16,23.924778,-0.014574005516297226,0.020793883868556746,1.0157299333391567,0.3018342781975865,-1.1812102424908428,-1.4306188513599336
2024-09-23 06:15:01.371900,45.16,23.924778,-0.014574005516297226,0.020793883868556746,1.0140835084438808,0.3368419984191656,-1.1680894444037229,-1.3562488435987383
2024-09-23 06:15:01.415421,45.16,23.924829,-0.01365932788809991,0.019330377182586234,1.011095523348156,0.2274643237972632,-1.1068402347296475,-1.3562488435987383
2024-09-23 06:15:01.459118,45.16,23.92488,-0.012500713238536278,0.019330377182586234,1.011095523348156,0.2274643237972632,-1.1068402347296475,-1.4306188513599336
2024-09-23 06:15:01.471954,45.16,23.92488,-0.012500713238536278,0.020245056329760223,1.0104247432479314,0.3368419984191656,-1.1068402347296475,-1.4306188513599336
2024-09-23 06:15:01.504749,45.16,23.92488,-0.012500713238536278,0.020245056329760223,1.0104247432479314,0.3368419984191656,-1.1330817241821438,-1.4306188513599336
2024-09-23 06:15:01.515822,45.16,23.92493,-0.01256167205101853,0.021952496999143704,1.0137175930384832,0.3368419984191656,-1.1330817241821438,-1.448094003321603
2024-09-23 06:15:01.557854,45.16,23.924981,-0.01256167205101853,0.021952496999143704,1.0137175930384832,0.38932495064372197,-1.1987427040290088,-1.2512256829340012
2024-09-23 06:15:01.569639,45.16,23.924981,-0.015244750680058252,0.02067186599113161,1.0137175930384832,0.38932495064372197,-1.1987427040290088,-1.2512256829340012
2024-09-23 06:15:01.603037,45.16,23.924981,-0.015244750680058252,0.02067186599113161,1.0126809947473678,0.38932495064372197,-1.1987427040290088,-1.2512256829340012
2024-09-23 06:15:01.614267,45.16,23.925032,-0.016708257366028764,0.02067186599113161,1.0126809947473678,0.35872900059493257,-1.0587118231426924,-1.3780785628784449
2024-09-23 06:15:01.657192,45.16,23.925032,-0.016708257366028764,0.019696228790963704,1.016705578134208,0.4287444677185267,-1.2687009416174144,-1.413086283100024
2024-09-23 06:15:01.668897,45.16,23.925119,-0.016708257366028764,0.019696228790963704,1.016705578134208,0.4287444677185267,-1.2687009416174144,-1.413086283100024
2024-09-23 06:15:01.700491,45.16,23.925119,-0.013598266544692013,0.020427930488741967,1.016705578134208,0.4287444677185267,-1.2687009416174144,-1.413086283100024
2024-09-23 06:15:01.712529,45.16,23.925119,-0.013598266544692013,0.020427930488741967,1.0102418827597397,0.35872900059493257,-1.1943309338562191,-1.3343619214642792
2024-09-23 06:15:01.755473,45.16,23.92517,-0.013293374508285133,0.020427930488741967,1.011217527554791,0.3193667930966243,-1.1199610328167677,-1.3343619214642792
2024-09-23 06:15:01.797924,45.16,23.925221,-0.013293374508285133,0.020427930488741967,1.011217527554791,0.3193667930966243,-1.1199610328167677,-1.3518370734259486
2024-09-23 06:15:01.809896,45.16,23.925221,-0.013293374508285133,0.01963527073796979,1.0112784810508548,0.3149550229238346,-1.1199610328167677,-1.3518370734259486
2024-09-23 06:15:01.852808,45.16,23.925272,-0.012805606793919833,0.019818144896951533,1.0118273541589518,0.3149550229238346,-1.15932321363464,-1.3780785628784449
2024-09-23 06:15:01.895946,45.16,23.925272,-0.012805606793919833,0.019818144896951533,1.0118273541589518,0.31060053564710544,-1.2293386540777982,-1.3780785628784449
2024-09-23 06:15:01.907754,45.16,23.925322,-0.01713506550842347,0.020306014382754138,1.0118273541589518,0.31060053564710544,-1.2293386540777982,-1.461214801408723
2024-09-23 06:15:01.950309,45.16,23.925373,-0.015549642716465131,0.020306014382754138,1.0157299333391567,0.3368419984191656,-1.2555801435302942,-1.43932777255252
2024-09-23 06:15:01.993919,45.15,23.925373,-0.015549642716465131,0.019574312684975875,1.0108517093639005,0.3368419984191656,-1.2555801435302942,-1.43932777255252
2024-09-23 06:15:02.046681,45.15,23.92546,-0.015549642716465131,0.019574312684975875,1.0108517093639005,0.3543172304221429,-1.259991913703084,-1.3649578715130686
2024-09-23 06:15:02.059108,45.15,23.92546,-0.01408613603049462,0.020062078880364497,1.0108517093639005,0.3543172304221429,-1.259991913703084,-1.3649578715130686
2024-09-23 06:15:02.092832,45.15,23.92546,-0.01408613603049462,0.020062078880364497,1.010668654446694,0.2405850685235113,-1.1899764732599258,-1.3649578715130686
2024-09-23 06:15:02.104071,45.15,23.925511,-0.016403363810645208,0.020062078880364497,1.010668654446694,0.2405850685235113,-1.1899764732599258,-1.43932777255252
2024-09-23 06:15:02.147042,45.15,23.925562,-0.016403363810645208,0.01939133523558015,1.015668979843093,0.3411964856958948,-1.1287272635858505,-1.4218526205908506
2024-09-23 06:15:02.189570,45.15,23.925562,-0.015000815177668611,0.01811080599900536,1.0116442992417454,0.3411964856958948,-1.1287272635858505,-1.4218526205908506
2024-09-23 06:15:02.201756,45.15,23.925562,-0.015000815177668611,0.01811080599900536,1.0116442992417454,0.3324875378228724,-1.0849533125951887,-1.3649578715130686
2024-09-23 06:15:02.244754,45.15,23.925613,-0.01378124399408774,0.02213537267710212,1.0112784810508548,0.4155664400962181,-1.1068402347296475,-1.3649578715130686
2024-09-23 06:15:02.287535,45.15,23.925705,-0.012073802565215924,0.02213537267710212,1.0112784810508548,0.4155664400962181,-1.1068402347296475,-1.3956111311383546
2024-09-23 06:15:02.299193,45.15,23.925705,-0.012073802565215924,0.019513251341567978,1.014144559154452,0.2537058132497594,-1.1068402347296475,-1.3956111311383546
2024-09-23 06:15:02.342562,45.15,23.925756,-0.010061467580960552,0.019940162774376668,1.0140835084438808,0.2537058132497594,-1.1374934943549335,-1.3868447936475277
2024-09-23 06:15:02.384894,45.15,23.925756,-0.010061467580960552,0.019940162774376668,1.0140835084438808,0.27994727602181957,-1.0980740039605648,-1.2862334031555802
2024-09-23 06:15:02.396171,45.15,23.925807,-0.012317737308117227,0.019574312684975875,1.0140835084438808,0.27994727602181957,-1.0980740039605648,-1.2862334031555802
2024-09-23 06:15:02.439373,45.15,23.925857,-0.014695923141261731,0.019574312684975875,1.0177422736398305,0.3237212803733535,-1.0674780539117754,-1.3343619214642792
2024-09-23 06:15:02.482716,45.15,23.925857,-0.014695923141261731,0.01695219134944173,1.0129859566567019,0.3237212803733535,-1.0674780539117754,-1.3343619214642792
2024-09-23 06:15:02.493773,45.15,23.925948,-0.014695923141261731,0.01695219134944173,1.0129859566567019,0.3237212803733535,-1.0980740039605648,-1.3299501512914895
2024-09-23 06:15:02.535715,45.15,23.925948,-0.014695923141261731,0.017744852619190586,1.0159129882563631,0.3193667930966243,-1.1199610328167677,-1.4218526205908506
2024-09-23 06:15:02.577874,45.15,23.925999,-0.016708257366028764,0.017744852619190586,1.0159129882563631,0.3193667930966243,-1.1199610328167677,-1.4218526205908506
2024-09-23 06:15:02.589986,45.15,23.925999,-0.016708257366028764,0.016830173472016593,1.0153641151482662,0.3411964856958948,-1.1855647030871361,-1.4218526205908506
2024-09-23 06:15:02.634550,45.15,23.92605,-0.016464321863639123,0.020366972435748053,1.0131078636488298,0.26247207069927825,-1.1855647030871361,-1.3780785628784449
2024-09-23 06:15:02.678061,45.15,23.926101,-0.016464321863639123,0.020366972435748053,1.0131078636488298,0.26247207069927825,-1.1637349838074296,-1.3956111311383546
2024-09-23 06:15:02.689446,45.15,23.926101,-0.012317737308117227,0.020062078880364497,1.0120102146471432,0.26247207069927825,-1.1637349838074296,-1.3956111311383546
2024-09-23 06:15:02.722832,45.15,23.926101,-0.012317737308117227,0.020062078880364497,1.0120102146471432,0.20998910513450392,-1.1637349838074296,-1.3956111311383546
2024-09-23 06:15:02.733936,45.15,23.926151,-0.01396421992450679,0.019513251341567978,1.0120102146471432,0.20998910513450392,-1.1287272635858505,-1.3824903330512346
2024-09-23 06:15:02.775847,45.15,23.926151,-0.01396421992450679,0.019513251341567978,1.013778546534547,0.2405850685235113,-1.1024857741333545,-1.3080631224352866
2024-09-23 06:15:02.787621,45.15,23.926202,-0.012805606793919833,0.019513251341567978,1.013778546534547,0.2405850685235113,-1.1024857741333545,-1.3080631224352866
2024-09-23 06:15:02.830344,45.15,23.926289,-0.012805606793919833,0.023598879363072634,1.01426646614658,0.3280757409696467,-1.15932321363464,-1.3956111311383546
2024-09-23 06:15:02.873302,45.15,23.926289,-0.012500713238536278,0.017013149402435646,1.0112784810508548,0.3280757409696467,-1.15932321363464,-1.3956111311383546
2024-09-23 06:15:02.884809,45.15,23.926289,-0.012500713238536278,0.017013149402435646,1.0112784810508548,0.38061600277069957,-1.207451731943339,-1.4306188513599336
2024-09-23 06:15:02.927427,45.15,23.92634,-0.017074107455429557,0.019696228790963704,1.0131688171448936,0.2362305812467821,-1.1024857741333545,-1.4306188513599336
2024-09-23 06:15:02.970418,45.15,23.926391,-0.017074107455429557,0.019696228790963704,1.0131688171448936,0.2362305812467821,-1.1024857741333545,-1.3737241022821516
2024-09-23 06:15:02.982026,45.15,23.926391,-0.017074107455429557,0.02274515826889256,1.01231507934197,0.35872900059493257,-1.1024857741333545,-1.3737241022821516
2024-09-23 06:15:03.016177,44.43,23.926391,-0.017074107455429557,0.02274515826889256,1.01231507934197,0.35872900059493257,-1.0412365644592791,-1.3737241022821516
2024-09-23 06:15:03.027570,44.43,23.926442,-0.012805606793919833,0.01914740125216718,1.012925003160638,0.35872900059493257,-1.0412365644592791,-1.3824903330512346
2024-09-23 06:15:03.070228,44.43,23.926492,-0.012866564846913748,0.01914740125216718,1.012925003160638,0.3849704900474288,-1.1637349838074296,-1.3911993609655648
2024-09-23 06:15:03.081971,44.43,23.926492,-0.012866564846913748,0.019574312684975875,1.012925003160638,0.3849704900474288,-1.1637349838074296,-1.3911993609655648
2024-09-23 06:15:03.114817,44.43,23.926492,-0.012866564846913748,0.019574312684975875,1.0148152420401695,0.4374534422719851,-1.1637349838074296,-1.3911993609655648
2024-09-23 06:15:03.126089,44.43,23.926543,-0.01445198763887209,0.019574312684975875,1.0148152420401695,0.4374534422719851,-1.1374934943549335,-1.3649578715130686
2024-09-23 06:15:03.168588,44.43,23.926543,-0.01445198763887209,0.022501222766502915,1.0132908213515286,0.3237212803733535,-1.1024857741333545,-1.461214801408723
2024-09-23 06:15:03.180517,44.43,23.92663,-0.01445198763887209,0.022501222766502915,1.0132908213515286,0.3237212803733535,-1.1024857741333545,-1.461214801408723
2024-09-23 06:15:03.212203,44.43,23.92663,-0.014208053655459124,0.019208359305161096,1.0132908213515286,0.3237212803733535,-1.1024857741333545,-1.461214801408723
2024-09-23 06:15:03.223687,44.43,23.92663,-0.014208053655459124,0.019208359305161096,1.0134127283436565,0.3149550229238346,-1.1768557818945498,-1.3562488435987383
2024-09-23 06:15:03.266755,44.43,23.926682,-0.013171458402297304,0.020549948366167105,1.0144494238492787,0.3018342781975865,-1.2555801435302942,-1.3562488435987383
2024-09-23 06:15:03.310307,44.43,23.926732,-0.013171458402297304,0.020549948366167105,1.0144494238492787,0.3018342781975865,-1.2555801435302942,-1.3693696416858583
2024-09-23 06:15:03.321323,44.43,23.926732,-0.01341539238571027,0.02012303845233509,1.0134736818397203,0.29306802074806765,-1.2555801435302942,-1.3693696416858583
2024-09-23 06:15:03.364750,44.43,23.926783,-0.01713506550842347,0.016159429827232244,1.0134736818397203,0.29306802074806765,-1.1987427040290088,-1.491868061034009
2024-09-23 06:15:03.377001,44.43,23.926783,-0.01713506550842347,0.016159429827232244,1.0151811574455674,0.29306802074806765,-1.1987427040290088,-1.491868061034009
2024-09-23 06:15:03.410045,44.43,23.926834,-0.01713506550842347,0.016159429827232244,1.0151811574455674,0.29306802074806765,-1.1287272635858505,-1.3080631224352866
2024-09-23 06:15:03.421333,44.43,23.926834,-0.011098165365048018,0.02012303845233509,1.0151811574455674,0.29306802074806765,-1.1287272635858505,-1.3080631224352866
2024-09-23 06:15:03.453361,44.43,23.926834,-0.011098165365048018,0.02012303845233509,1.0111565740587272,0.29306802074806765,-1.1287272635858505,-1.3080631224352866
2024-09-23 06:15:03.465254,44.43,23.926884,-0.015915494324842603,0.02012303845233509,1.0111565740587272,0.3062460483703762,-1.224984193481505,-1.294999633924663
2024-09-23 06:15:03.508225,44.43,23.926884,-0.015915494324842603,0.020732824044125523,1.0174983624410678,0.2537058132497594,-1.1418479549512268,-1.294999633924663
2024-09-23 06:15:03.519313,44.43,23.926971,-0.015915494324842603,0.020732824044125523,1.0174983624410678,0.2537058132497594,-1.1418479549512268,-1.3868447936475277
2024-09-23 06:15:03.551289,44.43,23.926971,-0.016098470255261652,0.020732824044125523,1.0174983624410678,0.2537058132497594,-1.1418479549512268,-1.3868447936475277
2024-09-23 06:15:03.562609,44.43,23.926971,-0.016098470255261652,0.01835463821098102,1.0120712653577144,0.3411964856958948,-1.1287272635858505,-1.3299501512914895
2024-09-23 06:15:03.605167,44.43,23.927023,-0.01433007153288426,0.020245056329760223,1.0122541258459061,0.3411964856958948,-1.1287272635858505,-1.3299501512914895
2024-09-23 06:15:03.616904,44.43,23.927023,-0.01433007153288426,0.020245056329760223,1.0122541258459061,0.3193667930966243,-1.1506142924420535,-1.3299501512914895
2024-09-23 06:15:03.648444,44.43,23.927023,-0.01433007153288426,0.020245056329760223,1.0122541258459061,0.3193667930966243,-1.1506142924420535,-1.2993542012427002
2024-09-23 06:15:03.660158,44.43,23.927073,-0.011159123418041933,0.019818144896951533,1.0134736818397203,0.3149550229238346,-1.1506142924420535,-1.2993542012427002
2024-09-23 06:15:03.702221,44.43,23.927124,-0.01481783924724956,0.019818144896951533,1.0134736818397203,0.3149550229238346,-1.1899764732599258,-1.404320052330941
2024-09-23 06:15:03.713576,44.43,23.927124,-0.01481783924724956,0.02048899031317319,1.0149372462468045,0.3149550229238346,-1.1899764732599258,-1.404320052330941
2024-09-23 06:15:03.745985,44.43,23.927124,-0.01481783924724956,0.02048899031317319,1.0149372462468045,0.27994727602181957,-1.1899764732599258,-1.404320052330941
2024-09-23 06:15:03.757176,44.43,23.927175,-0.014208053655459124,0.02067186599113161,1.0149372462468045,0.27994727602181957,-1.1680894444037229,-1.3999655917346479
2024-09-23 06:15:03.799879,44.43,23.927175,-0.014208053655459124,0.02067186599113161,1.0112784810508548,0.3149550229238346,-1.1418479549512268,-1.3956111311383546
2024-09-23 06:15:03.811213,44.43,23.927226,-0.012134760618209839,0.02067186599113161,1.0112784810508548,0.3149550229238346,-1.1418479549512268,-1.3956111311383546
2024-09-23 06:15:03.843991,44.43,23.927226,-0.012134760618209839,0.021952496999143704,1.0112784810508548,0.3149550229238346,-1.1418479549512268,-1.3956111311383546
2024-09-23 06:15:03.855938,44.43,23.927312,-0.012134760618209839,0.021952496999143704,1.0126809947473678,0.3411964856958948,-1.1680894444037229,-1.413086283100024
2024-09-23 06:15:03.898651,44.43,23.927312,-0.01408613603049462,0.018964423802771455,1.0139616014517532,0.3411964856958948,-1.0980740039605648,-1.413086283100024
2024-09-23 06:15:03.910336,44.43,23.927312,-0.01408613603049462,0.018964423802771455,1.0139616014517532,0.3411964856958948,-1.0980740039605648,-1.5136977803137153
2024-09-23 06:15:03.942531,44.43,23.927364,-0.01408613603049462,0.018964423802771455,1.0139616014517532,0.3411964856958948,-1.0980740039605648,-1.5136977803137153
2024-09-23 06:15:03.954991,44.43,23.927364,-0.013720285941093825,0.02213537267710212,1.0135347325502915,0.41121195281948897,-1.1418479549512268,-1.5136977803137153
2024-09-23 06:15:03.998127,44.43,23.927415,-0.017196025080394063,0.019818144896951533,1.0134736818397203,0.41121195281948897,-1.1418479549512268,-1.4787472629468887
2024-09-23 06:15:04.009906,44.43,23.927415,-0.017196025080394063,0.019818144896951533,1.0134736818397203,0.3499627431454137,-1.1418479549512268,-1.4787472629468887
2024-09-23 06:15:04.041863,44.85,23.927465,-0.017196025080394063,0.019818144896951533,1.0134736818397203,0.3499627431454137,-1.0718325145080685,-1.3824903330512346
2024-09-23 06:15:04.052877,44.85,23.927465,-0.01573262016586086,0.0187205915907958,1.0126809947473678,0.3499627431454137,-1.0718325145080685,-1.3824903330512346
2024-09-23 06:15:04.096104,44.85,23.927465,-0.01573262016586086,0.0187205915907958,1.0126809947473678,0.2668265312955715,-1.0805987452771515,-1.3824903330512346
2024-09-23 06:15:04.139944,44.85,23.927516,-0.012805606793919833,0.0187205915907958,1.0126809947473678,0.2668265312955715,-1.0805987452771515,-1.434973311956227
2024-09-23 06:15:04.151350,44.85,23.927516,-0.012805606793919833,0.017196025080394063,1.012742045457939,0.2362305812467821,-1.0805987452771515,-1.434973311956227
2024-09-23 06:15:04.194232,44.85,23.927567,-0.013903160100075569,0.01811080599900536,1.0132908213515286,0.2362305812467821,-1.1156065722204744,-1.3737241022821516
2024-09-23 06:15:04.236803,44.85,23.927567,-0.013903160100075569,0.01811080599900536,1.0132908213515286,0.3630834878716618,-1.0718325145080685,-1.3911993609655648
2024-09-23 06:15:04.248121,44.85,23.927654,-0.013903160100075569,0.019574312684975875,1.0132908213515286,0.3630834878716618,-1.0718325145080685,-1.3911993609655648
2024-09-23 06:15:04.290793,44.85,23.927705,-0.015671560341429636,0.019574312684975875,1.0149982969573756,0.24935132597303017,-1.0980740039605648,-1.3562488435987383
2024-09-23 06:15:04.332879,44.85,23.927705,-0.015671560341429636,0.020915799974544576,1.0159129882563631,0.24935132597303017,-1.0980740039605648,-1.3562488435987383
2024-09-23 06:15:04.344472,44.85,23.9278,-0.015671560341429636,0.020915799974544576,1.0159129882563631,0.3411964856958948,-1.1156065722204744,-1.4437395427253097
2024-09-23 06:15:04.386535,44.85,23.9278,-0.011524974266931064,0.019025483627202678,1.0086564113605276,0.39809120809324083,-1.1680894444037229,-1.4437395427253097
2024-09-23 06:15:04.398484,44.85,23.9278,-0.011524974266931064,0.019025483627202678,1.0086564113605276,0.39809120809324083,-1.1680894444037229,-1.426207081187144
2024-09-23 06:15:04.431051,44.85,23.927852,-0.01408613603049462,0.019025483627202678,1.0086564113605276,0.39809120809324083,-1.1680894444037229,-1.426207081187144
2024-09-23 06:15:04.442207,44.85,23.927852,-0.01408613603049462,0.015793578218854774,1.0169495865474782,0.3280757409696467,-1.1768557818945498,-1.426207081187144
2024-09-23 06:15:04.484633,44.85,23.927903,-0.015183792627064338,0.01939133523558015,1.0102418827597397,0.3280757409696467,-1.1768557818945498,-1.3999655917346479
2024-09-23 06:15:04.496774,44.85,23.927903,-0.015183792627064338,0.01939133523558015,1.0102418827597397,0.3193667930966243,-1.1768557818945498,-1.3999655917346479
2024-09-23 06:15:04.530269,44.85,23.927953,-0.015183792627064338,0.01939133523558015,1.0102418827597397,0.3193667930966243,-1.216217962712422,-1.3255955839734523
2024-09-23 06:15:04.541622,44.85,23.927953,-0.014939857124674697,0.02134260963591596,1.0135956860463553,0.3193667930966243,-1.216217962712422,-1.3255955839734523
2024-09-23 06:15:04.584286,44.85,23.928004,-0.015671560341429636,0.020610907938137694,1.0135956860463553,0.28871353347133843,-1.1506142924420535,-1.43932777255252
2024-09-23 06:15:04.627635,44.85,23.928004,-0.015671560341429636,0.020610907938137694,1.0137175930384832,0.4505741869982332,-1.1506142924420535,-1.43932777255252
2024-09-23 06:15:04.638809,44.85,23.928055,-0.013598266544692013,0.020610907938137694,1.0137175930384832,0.4505741869982332,-1.1637349838074296,-1.4306188513599336
2024-09-23 06:15:04.681340,44.85,23.928055,-0.013598266544692013,0.016098470255261652,1.0132908213515286,0.3193667930966243,-1.2336931146740913,-1.3212411233771593
2024-09-23 06:15:04.693232,44.85,23.928141,-0.013598266544692013,0.016098470255261652,1.0132908213515286,0.3193667930966243,-1.2336931146740913,-1.3212411233771593
2024-09-23 06:15:04.726673,44.85,23.928141,-0.010793271809664462,0.02018409827676631,1.0145103773453428,0.37184974532118065,-1.2336931146740913,-1.3212411233771593
2024-09-23 06:15:04.738242,44.85,23.928141,-0.010793271809664462,0.02018409827676631,1.0145103773453428,0.37184974532118065,-1.0368247942864894,-1.4174980532728136
2024-09-23 06:15:04.771115,44.85,23.928193,-0.010793271809664462,0.02018409827676631,1.0145103773453428,0.37184974532118065,-1.0368247942864894,-1.4174980532728136
2024-09-23 06:15:04.782316,44.85,23.928193,-0.011586034850850625,0.02012303845233509,1.0151811574455674,0.24935132597303017,-1.0105833048339934,-1.4174980532728136
2024-09-23 06:15:04.824021,44.85,23.928243,-0.010610295879245411,0.020610907938137694,1.0151811574455674,0.24935132597303017,-1.0105833048339934,-1.426207081187144
2024-09-23 06:15:04.835824,44.85,23.928243,-0.010610295879245411,0.020610907938137694,1.0122541258459061,0.29747979092085736,-1.0105833048339934,-1.426207081187144
2024-09-23 06:15:04.869614,44.85,23.928243,-0.010610295879245411,0.020610907938137694,1.0122541258459061,0.29747979092085736,-1.1199610328167677,-1.3824903330512346
2024-09-23 06:15:04.881680,44.85,23.928294,-0.015244750680058252,0.01798878660260355,1.0106077981651376,0.29747979092085736,-1.1199610328167677,-1.3824903330512346
2024-09-23 06:15:04.923585,44.85,23.928345,-0.013842202047081654,0.01798878660260355,1.0106077981651376,0.39373674749694765,-1.0805987452771515,-1.3606034109167755
2024-09-23 06:15:04.935259,44.85,23.928345,-0.013842202047081654,0.01914740125216718,1.0106077981651376,0.39373674749694765,-1.0805987452771515,-1.3606034109167755
2024-09-23 06:15:04.969036,44.85,23.928345,-0.013842202047081654,0.01914740125216718,1.014144559154452,0.3237212803733535,-1.15932321363464,-1.3606034109167755
2024-09-23 06:15:04.980518,44.85,23.928396,-0.014391029585878175,0.01914740125216718,1.014144559154452,0.3237212803733535,-1.15932321363464,-1.4218526205908506
2024-09-23 06:15:05.022863,44.85,23.928482,-0.014391029585878175,0.017927828549609635,1.0128639524500669,0.3237212803733535,-1.207451731943339,-1.448094003321603
2024-09-23 06:15:05.064663,44.76,23.928482,-0.01219582044264106,0.020610907938137694,1.0128639524500669,0.3237212803733535,-1.207451731943339,-1.448094003321603
2024-09-23 06:15:05.075906,44.76,23.928482,-0.01219582044264106,0.020610907938137694,1.0131688171448936,0.37620423259790986,-1.1199610328167677,-1.3299501512914895
2024-09-23 06:15:05.119117,44.76,23.928534,-0.016403363810645208,0.021952496999143704,1.0132298678554648,0.28871353347133843,-1.1768557818945498,-1.3299501512914895
2024-09-23 06:15:05.162266,44.76,23.928585,-0.016403363810645208,0.021952496999143704,1.0132298678554648,0.28871353347133843,-1.1768557818945498,-1.3868447936475277
2024-09-23 06:15:05.173594,44.76,23.928585,-0.016464321863639123,0.020001120827370582,1.009815013858278,0.3193667930966243,-1.1768557818945498,-1.3868447936475277
2024-09-23 06:15:05.216595,44.76,23.928635,-0.014756881194255646,0.022440264713509,1.012925003160638,0.3193667930966243,-1.15932321363464,-1.4218526205908506
2024-09-23 06:15:05.259490,44.76,23.928635,-0.014756881194255646,0.022440264713509,1.012925003160638,0.35872900059493257,-1.1506142924420535,-1.4218526205908506
2024-09-23 06:15:05.270889,44.76,23.928686,-0.016342405757651293,0.017805912443621806,1.012925003160638,0.35872900059493257,-1.1506142924420535,-1.3780785628784449
2024-09-23 06:15:05.313391,44.76,23.928737,-0.016342405757651293,0.017805912443621806,1.012802998954003,0.3674952580444515,-1.0937195433642715,-1.4174980532728136
2024-09-23 06:15:05.325839,44.76,23.928737,-0.01433007153288426,0.017805912443621806,1.012802998954003,0.3674952580444515,-1.0937195433642715,-1.4174980532728136
2024-09-23 06:15:05.358894,44.76,23.928737,-0.01433007153288426,0.020915799974544576,1.0100589250570406,0.3411964856958948,-1.0937195433642715,-1.4174980532728136
2024-09-23 06:15:05.370116,44.76,23.928824,-0.01433007153288426,0.020915799974544576,1.0100589250570406,0.3411964856958948,-1.2293386540777982,-1.3693696416858583
2024-09-23 06:15:05.412848,44.76,23.928824,-0.013110498830326714,0.020001120827370582,1.0151202039495033,0.3193667930966243,-1.1637349838074296,-1.4087318225037306
2024-09-23 06:15:05.454853,44.76,23.928875,-0.010793271809664462,0.020001120827370582,1.0151202039495033,0.3193667930966243,-1.1637349838074296,-1.4087318225037306
2024-09-23 06:15:05.466268,44.76,23.928875,-0.010793271809664462,0.02085484192155066,1.0137175930384832,0.29747979092085736,-1.1506142924420535,-1.4087318225037306
2024-09-23 06:15:05.509025,44.76,23.928926,-0.013476350438704184,0.019330377182586234,1.0149982969573756,0.29747979092085736,-1.1506142924420535,-1.3649578715130686
2024-09-23 06:15:05.520756,44.76,23.928926,-0.013476350438704184,0.019330377182586234,1.0149982969573756,0.38061600277069957,-1.1506142924420535,-1.3649578715130686
2024-09-23 06:15:05.554175,44.76,23.928977,-0.013476350438704184,0.019330377182586234,1.0149982969573756,0.38061600277069957,-1.0805987452771515,-1.4306188513599336
2024-09-23 06:15:05.565328,44.76,23.928977,-0.01378124399408774,0.017257084904825287,1.0128639524500669,0.38061600277069957,-1.0805987452771515,-1.4306188513599336
2024-09-23 06:15:05.608362,44.76,23.929027,-0.014391029585878175,0.021281651582922046,1.0128639524500669,0.3456082558686845,-1.0324703336901964,-1.491868061034009
2024-09-23 06:15:05.651419,44.76,23.929027,-0.014391029585878175,0.021281651582922046,1.0119492611510794,0.3674952580444515,-1.2205724233087152,-1.491868061034009
2024-09-23 06:15:05.662913,44.76,23.929078,-0.016403363810645208,0.021281651582922046,1.0119492611510794,0.3674952580444515,-1.2205724233087152,-1.461214801408723
2024-09-23 06:15:05.706583,44.76,23.929165,-0.016403363810645208,0.019330377182586234,1.0120102146471432,0.37184974532118065,-1.1156065722204744,-1.5136977803137153
2024-09-23 06:15:05.750228,44.76,23.929165,-0.011342100107949322,0.02225739055452726,1.014144559154452,0.41997821026900783,-1.1156065722204744,-1.5136977803137153
2024-09-23 06:15:05.761811,44.76,23.929165,-0.011342100107949322,0.02225739055452726,1.014144559154452,0.41997821026900783,-1.0412365644592791,-1.491868061034009
2024-09-23 06:15:05.793153,44.76,23.929217,-0.011342100107949322,0.02225739055452726,1.014144559154452,0.41997821026900783,-1.0412365644592791,-1.491868061034009
2024-09-23 06:15:05.805206,44.76,23.929217,-0.014147094083488534,0.02018409827676631,1.0114614387535539,0.35872900059493257,-1.1462025222692638,-1.491868061034009
2024-09-23 06:15:05.847417,44.76,23.929267,-0.01256167205101853,0.02225739055452726,1.0114614387535539,0.35872900059493257,-1.1462025222692638,-1.434973311956227
2024-09-23 06:15:05.859177,44.76,23.929267,-0.01256167205101853,0.02225739055452726,1.0132908213515286,0.3849704900474288,-1.1462025222692638,-1.434973311956227
2024-09-23 06:15:05.891086,44.76,23.929267,-0.01256167205101853,0.02225739055452726,1.0132908213515286,0.3849704900474288,-1.2555801435302942,-1.434973311956227
2024-09-23 06:15:05.902485,44.76,23.929318,-0.016708257366028764,0.02097675802753849,1.0140835084438808,0.3849704900474288,-1.2555801435302942,-1.4437395427253097
2024-09-23 06:15:05.944435,44.76,23.929369,-0.016708257366028764,0.02097675802753849,1.0140835084438808,0.3368419984191656,-1.0762442846808582,-1.2774671723864972
2024-09-23 06:15:05.956158,44.76,23.929369,-0.014391029585878175,0.021281651582922046,1.0140835084438808,0.3368419984191656,-1.0762442846808582,-1.2774671723864972
2024-09-23 06:15:05.988630,44.76,23.929369,-0.014391029585878175,0.021281651582922046,1.0118883076550156,0.3368419984191656,-1.0762442846808582,-1.2774671723864972
2024-09-23 06:15:06.000062,44.76,23.929419,-0.016098470255261652,0.021281651582922046,1.0118883076550156,0.3368419984191656,-1.0980740039605648,-1.3080631224352866
2024-09-23 06:15:06.041994,44.76,23.929419,-0.016098470255261652,0.02262324216290473,1.0128639524500669,0.3368419984191656,-1.0980740039605648,-1.3080631224352866
2024-09-23 06:15:06.053414,44.76,23.929419,-0.016098470255261652,0.02262324216290473,1.0128639524500669,0.3368419984191656,-1.1156065722204744,-1.426207081187144
2024-09-23 06:15:06.095774,44.64,23.929506,-0.016098470255261652,0.02262324216290473,1.0128639524500669,0.3368419984191656,-1.1156065722204744,-1.426207081187144
2024-09-23 06:15:06.138613,44.64,23.929506,-0.016098470255261652,0.017805912443621806,1.0160348952484908,0.3368419984191656,-1.1156065722204744,-1.426207081187144
2024-09-23 06:15:06.150079,44.64,23.929558,-0.016098470255261652,0.017805912443621806,1.0160348952484908,0.3368419984191656,-1.0893650827679784,-1.426207081187144
2024-09-23 06:15:06.192655,44.64,23.929558,-0.01341539238571027,0.017561976941232165,1.0113394345469187,0.3630834878716618,-1.1724439050000162,-1.3868447936475277
2024-09-23 06:15:06.286631,44.64,23.929608,-0.01365932788809991,0.020001120827370582,1.015668979843093,0.3630834878716618,-1.1724439050000162,-1.3868447936475277
2024-09-23 06:15:06.298763,44.64,23.929608,-0.01365932788809991,0.020001120827370582,1.015668979843093,0.40685746554275976,-1.1506142924420535,-1.3868447936475277
2024-09-23 06:15:06.331236,44.64,23.929608,-0.01365932788809991,0.020001120827370582,1.015668979843093,0.40685746554275976,-1.1506142924420535,-1.3693696416858583
2024-09-23 06:15:06.342252,44.64,23.929659,-0.011342100107949322,0.0173180429578192,1.0164616669354454,0.35872900059493257,-1.1506142924420535,-1.3693696416858583
2024-09-23 06:15:06.384372,44.64,23.92971,-0.012805606793919833,0.0173180429578192,1.0164616669354454,0.35872900059493257,-1.1068402347296475,-1.4174980532728136
2024-09-23 06:15:06.396151,44.64,23.92971,-0.012805606793919833,0.019818144896951533,1.0128639524500669,0.35872900059493257,-1.1068402347296475,-1.4174980532728136
2024-09-23 06:15:06.428883,44.64,23.92971,-0.012805606793919833,0.019818144896951533,1.0128639524500669,0.3280757409696467,-1.1068402347296475,-1.4174980532728136
2024-09-23 06:15:06.440015,44.64,23.929801,-0.014391029585878175,0.02097675802753849,1.0128639524500669,0.3280757409696467,-1.1637349838074296,-1.3255955839734523
2024-09-23 06:15:06.482105,44.64,23.929801,-0.014391029585878175,0.02097675802753849,1.0146322843374704,0.2843590461946093,-1.1068402347296475,-1.3299501512914895
2024-09-23 06:15:06.493548,44.64,23.929852,-0.010671253932239326,0.02097675802753849,1.0146322843374704,0.2843590461946093,-1.1068402347296475,-1.3299501512914895
2024-09-23 06:15:06.526909,44.64,23.929852,-0.010671253932239326,0.019208359305161096,1.0120712653577144,0.2843590461946093,-1.1068402347296475,-1.3299501512914895
2024-09-23 06:15:06.539352,44.64,23.929994,-0.010671253932239326,0.019208359305161096,1.0120712653577144,0.41997821026900783,-1.1330817241821438,-1.4568603408124299
2024-09-23 06:15:06.582728,44.64,23.929994,-0.013842202047081654,0.020001120827370582,1.0135956860463553,0.3849704900474288,-1.1549687530383468,-1.4568603408124299
2024-09-23 06:15:06.594224,44.64,23.929994,-0.013842202047081654,0.020001120827370582,1.0135956860463553,0.3849704900474288,-1.1549687530383468,-1.3299501512914895
2024-09-23 06:15:06.626286,44.64,23.930045,-0.01378124399408774,0.017439959063807027,1.0135956860463553,0.3849704900474288,-1.1549687530383468,-1.3299501512914895
2024-09-23 06:15:06.637752,44.64,23.930045,-0.01378124399408774,0.017439959063807027,1.0129859566567019,0.27559278874509036,-1.0805987452771515,-1.3299501512914895
2024-09-23 06:15:06.680955,44.64,23.930096,-0.015122834574070423,0.019330377182586234,1.0102418827597397,0.3411964856958948,-1.0805987452771515,-1.434973311956227
2024-09-23 06:15:06.722985,44.64,23.930147,-0.015122834574070423,0.019330377182586234,1.0102418827597397,0.3411964856958948,-1.1680894444037229,-1.3737241022821516
2024-09-23 06:15:06.734665,44.64,23.930147,-0.016525279916633037,0.019330377182586234,1.0102418827597397,0.3411964856958948,-1.1680894444037229,-1.3737241022821516
2024-09-23 06:15:06.819026,44.64,23.930147,-0.016525279916633037,0.02018409827676631,1.0102418827597397,0.3411964856958948,-1.1680894444037229,-1.3737241022821516
2024-09-23 06:15:06.830946,44.64,23.930197,-0.016525279916633037,0.02018409827676631,1.0143274196426437,0.3193667930966243,-1.1549687530383468,-1.3737241022821516
2024-09-23 06:15:06.873842,44.64,23.930197,-0.01445198763887209,0.017927828549609635,1.014205512650516,0.2537058132497594,-1.1943309338562191,-1.3737241022821516
2024-09-23 06:15:06.885470,44.64,23.930197,-0.01445198763887209,0.017927828549609635,1.014205512650516,0.2537058132497594,-1.1943309338562191,-1.3911993609655648
2024-09-23 06:15:06.916978,44.64,23.930248,-0.01341539238571027,0.017927828549609635,1.014205512650516,0.2537058132497594,-1.1943309338562191,-1.3911993609655648
2024-09-23 06:15:06.928188,44.64,23.930248,-0.01341539238571027,0.02189143717471248,1.0150592504534395,0.3062460483703762,-1.1943309338562191,-1.3911993609655648
2024-09-23 06:15:06.971878,44.64,23.930335,-0.016708257366028764,0.02176952106872465,1.0168886330514144,0.42433269754573705,-1.1943309338562191,-1.426207081187144
2024-09-23 06:15:07.014947,44.64,23.930335,-0.016708257366028764,0.02176952106872465,1.0168886330514144,0.42433269754573705,-1.1199610328167677,-1.4087318225037306
2024-09-23 06:15:07.026670,44.64,23.930386,-0.015793578218854774,0.01914740125216718,1.0117053499523165,0.42433269754573705,-1.1199610328167677,-1.4087318225037306
2024-09-23 06:15:07.068968,44.64,23.930483,-0.016403363810645208,0.021830479121718566,1.0117053499523165,0.3324875378228724,-1.1987427040290088,-1.3824903330512346
2024-09-23 06:15:07.112046,44.37,23.930483,-0.016403363810645208,0.021830479121718566,1.0120712653577144,0.3280757409696467,-1.1987427040290088,-1.3824903330512346
2024-09-23 06:15:07.123100,44.37,23.930534,-0.016525279916633037,0.021830479121718566,1.0120712653577144,0.3280757409696467,-1.1462025222692638,-1.3562488435987383
2024-09-23 06:15:07.166091,44.37,23.930534,-0.016525279916633037,0.01890346574977754,1.0161568022406187,0.3324875378228724,-1.1855647030871361,-1.469981032177806
2024-09-23 06:15:07.177853,44.37,23.930627,-0.016525279916633037,0.01890346574977754,1.0161568022406187,0.3324875378228724,-1.1855647030871361,-1.469981032177806
2024-09-23 06:15:07.211293,44.37,23.930627,-0.015976452377836518,0.02189143717471248,1.0106077981651376,0.3324875378228724,-1.1855647030871361,-1.469981032177806
2024-09-23 06:15:07.222903,44.37,23.930627,-0.015976452377836518,0.02189143717471248,1.0106077981651376,0.39809120809324083,-1.207451731943339,-1.3868447936475277
2024-09-23 06:15:07.265266,44.37,23.930679,-0.014634963569291141,0.019574312684975875,1.015668979843093,0.41997821026900783,-1.1243154934130608,-1.3868447936475277
2024-09-23 06:15:07.308114,44.37,23.93073,-0.013293374508285133,0.019574312684975875,1.015668979843093,0.41997821026900783,-1.1243154934130608,-1.491868061034009
2024-09-23 06:15:07.320139,44.37,23.93073,-0.013293374508285133,0.01713506550842347,1.015668979843093,0.3324875378228724,-1.1243154934130608,-1.491868061034009
2024-09-23 06:15:07.362778,44.37,23.93078,-0.014512945691866003,0.02122069352992813,1.0092051872541172,0.3324875378228724,-1.1549687530383468,-1.4087318225037306
2024-09-23 06:15:07.405192,44.37,23.93078,-0.014512945691866003,0.02122069352992813,1.0092051872541172,0.3018342781975865,-1.1330817241821438,-1.4087318225037306
2024-09-23 06:15:07.458878,44.37,23.930831,-0.013049540777332799,0.02152558556633501,1.0122541258459061,0.3018342781975865,-1.1330817241821438,-1.3956111311383546
2024-09-23 06:15:07.471006,44.37,23.930831,-0.013049540777332799,0.02152558556633501,1.0122541258459061,0.35872900059493257,-1.1330817241821438,-1.3956111311383546
2024-09-23 06:15:07.504381,44.37,23.930882,-0.013049540777332799,0.02152558556633501,1.0122541258459061,0.35872900059493257,-1.2993542012427002,-1.4087318225037306
2024-09-23 06:15:07.515451,44.37,23.930882,-0.01341539238571027,0.022989092252305523,1.0133517748475924,0.35872900059493257,-1.2993542012427002,-1.4087318225037306
2024-09-23 06:15:07.558097,44.37,23.930969,-0.01341539238571027,0.020915799974544576,1.0133517748475924,0.27559278874509036,-1.1024857741333545,-1.413086283100024
2024-09-23 06:15:07.601156,44.37,23.930969,-0.01341539238571027,0.020915799974544576,1.0099369208504057,0.3368419984191656,-1.0980740039605648,-1.413086283100024
2024-09-23 06:15:07.612768,44.37,23.93102,-0.017927828549609635,0.020915799974544576,1.0099369208504057,0.3368419984191656,-1.0980740039605648,-1.3737241022821516
2024-09-23 06:15:07.655705,44.37,23.931071,-0.017927828549609635,0.019696228790963704,1.0135347325502915,0.3456082558686845,-1.1111946953259408,-1.3562488435987383
2024-09-23 06:15:07.698165,44.37,23.931071,-0.014878899071680782,0.02067186599113161,1.0153031616522024,0.3456082558686845,-1.1111946953259408,-1.3562488435987383
2024-09-23 06:15:07.709331,44.37,23.931071,-0.014878899071680782,0.02067186599113161,1.0153031616522024,0.31060053564710544,-1.1637349838074296,-1.434973311956227
2024-09-23 06:15:07.751739,44.37,23.931164,-0.014939857124674697,0.021281651582922046,1.0107906586533293,0.3280757409696467,-1.0762442846808582,-1.434973311956227
2024-09-23 06:15:07.794256,44.37,23.931216,-0.014939857124674697,0.021281651582922046,1.0107906586533293,0.3280757409696467,-1.0762442846808582,-1.3868447936475277
2024-09-23 06:15:07.805829,44.37,23.931216,-0.014147094083488534,0.01914740125216718,1.0125589905407328,0.29747979092085736,-1.0762442846808582,-1.3868447936475277
2024-09-23 06:15:07.849947,44.37,23.931266,-0.016281345933220073,0.02140366946034718,1.0125589905407328,0.29747979092085736,-1.1462025222692638,-1.3737241022821516
2024-09-23 06:15:07.861947,44.37,23.931266,-0.016281345933220073,0.02140366946034718,1.0149372462468045,0.29747979092085736,-1.1462025222692638,-1.3737241022821516
2024-09-23 06:15:07.894077,44.37,23.931266,-0.016281345933220073,0.02140366946034718,1.0149372462468045,0.27994727602181957,-1.0937195433642715,-1.4218526205908506
2024-09-23 06:15:07.905088,44.37,23.931317,-0.01146401621393715,0.02207441310513153,1.0149372462468045,0.27994727602181957,-1.0937195433642715,-1.4218526205908506
2024-09-23 06:15:07.947910,44.37,23.931368,-0.013903160100075569,0.02207441310513153,1.0135347325502915,0.3499627431454137,-1.0587118231426924,-1.413086283100024
2024-09-23 06:15:07.991015,44.37,23.931368,-0.013903160100075569,0.019086441680196593,1.0134736818397203,0.3018342781975865,-1.0587118231426924,-1.413086283100024
2024-09-23 06:15:08.006040,44.37,23.931456,-0.013903160100075569,0.019086441680196593,1.0134736818397203,0.3018342781975865,-1.1330817241821438,-1.426207081187144
2024-09-23 06:15:08.038471,44.37,23.931456,-0.012744546969488612,0.0187205915907958,1.0134736818397203,0.3018342781975865,-1.1330817241821438,-1.426207081187144
2024-09-23 06:15:08.049577,44.37,23.931456,-0.012744546969488612,0.0187205915907958,1.014205512650516,0.3411964856958948,-1.1506142924420535,-1.434973311956227
2024-09-23 06:15:08.092183,44.37,23.931508,-0.011403058160943235,0.021098777423940302,1.0132298678554648,0.3193667930966243,-1.1506142924420535,-1.434973311956227
2024-09-23 06:15:08.104541,44.37,23.931508,-0.011403058160943235,0.021098777423940302,1.0132298678554648,0.3193667930966243,-1.1506142924420535,-1.434973311956227
2024-09-23 06:15:08.136827,43.69,23.931559,-0.015427726610477303,0.021098777423940302,1.0132298678554648,0.3193667930966243,-1.1506142924420535,-1.3299501512914895
2024-09-23 06:15:08.148021,43.69,23.931559,-0.015427726610477303,0.020306014382754138,1.0168886330514144,0.27559278874509036,-1.1506142924420535,-1.3299501512914895
2024-09-23 06:15:08.190970,43.69,23.931609,-0.015122834574070423,0.01664729931303485,1.0120712653577144,0.27559278874509036,-1.1243154934130608,-1.3255955839734523
2024-09-23 06:15:08.233915,43.69,23.931609,-0.015122834574070423,0.01664729931303485,1.0120712653577144,0.3018342781975865,-1.1899764732599258,-1.3255955839734523
2024-09-23 06:15:08.246080,43.69,23.93166,-0.014269113479890346,0.018964423802771455,1.0120712653577144,0.3018342781975865,-1.1899764732599258,-1.413086283100024
2024-09-23 06:15:08.289291,43.69,23.931711,-0.017805912443621806,0.018964423802771455,1.0133517748475924,0.3543172304221429,-1.0718325145080685,-1.3387163820605725
2024-09-23 06:15:08.331618,43.69,23.931711,-0.017805912443621806,0.020793883868556746,1.0169495865474782,0.3543172304221429,-1.0718325145080685,-1.3387163820605725
2024-09-23 06:15:08.343173,43.69,23.931797,-0.017805912443621806,0.020793883868556746,1.0169495865474782,0.29747979092085736,-1.1462025222692638,-1.3649578715130686
2024-09-23 06:15:08.386571,43.69,23.931797,-0.012256778495634975,0.020001120827370582,1.0146322843374704,0.3193667930966243,-1.1418479549512268,-1.2993542012427002
2024-09-23 06:15:08.429200,43.69,23.931849,-0.014512945691866003,0.019208359305161096,1.0146322843374704,0.3193667930966243,-1.1418479549512268,-1.2993542012427002
2024-09-23 06:15:08.440997,43.69,23.931849,-0.014512945691866003,0.019208359305161096,1.0165227176460165,0.3280757409696467,-1.1287272635858505,-1.2993542012427002
2024-09-23 06:15:08.482880,43.69,23.9319,-0.012988480952901577,0.02176952106872465,1.0099979715609768,0.3456082558686845,-1.1287272635858505,-1.4787472629468887
2024-09-23 06:15:08.525429,43.69,23.9319,-0.012988480952901577,0.02176952106872465,1.0099979715609768,0.3456082558686845,-1.1287272635858505,-1.3562488435987383
2024-09-23 06:15:08.536815,43.69,23.93195,-0.014208053655459124,0.02085484192155066,1.014144559154452,0.3456082558686845,-1.1287272635858505,-1.3562488435987383
2024-09-23 06:15:08.578994,43.69,23.932001,-0.015305708733052167,0.02085484192155066,1.014144559154452,0.2581175834225491,-1.0849533125951887,-1.3868447936475277
2024-09-23 06:15:08.590631,43.69,23.932001,-0.015305708733052167,0.0187205915907958,1.014144559154452,0.2581175834225491,-1.0849533125951887,-1.3868447936475277
2024-09-23 06:15:08.622895,43.69,23.932001,-0.015305708733052167,0.0187205915907958,1.0140835084438808,0.31060053564710544,-1.0849533125951887,-1.3868447936475277
2024-09-23 06:15:08.634593,43.69,23.932052,-0.013720285941093825,0.0187205915907958,1.0140835084438808,0.31060053564710544,-1.0805987452771515,-1.469981032177806
2024-09-23 06:15:08.677630,43.69,23.932139,-0.013720285941093825,0.022684200215898644,1.0145713308414066,0.37184974532118065,-1.1068402347296475,-1.4218526205908506
2024-09-23 06:15:08.720818,43.69,23.932139,-0.013049540777332799,0.02012303845233509,1.0145713308414066,0.37184974532118065,-1.1068402347296475,-1.4218526205908506
2024-09-23 06:15:08.732433,43.69,23.932139,-0.013049540777332799,0.02012303845233509,1.0139006479556893,0.3018342781975865,-1.1330817241821438,-1.4437395427253097
2024-09-23 06:15:08.775318,43.69,23.93219,-0.013049540777332799,0.02012303845233509,1.0139006479556893,0.3018342781975865,-1.1330817241821438,-1.4437395427253097
2024-09-23 06:15:08.817704,43.69,23.93219,-0.012500713238536278,0.02012303845233509,1.0139006479556893,0.3018342781975865,-1.1330817241821438,-1.4437395427253097
2024-09-23 06:15:08.829685,43.69,23.93219,-0.012500713238536278,0.020793883868556746,1.012802998954003,0.3630834878716618,-1.15932321363464,-1.3299501512914895
2024-09-23 06:15:08.874018,43.69,23.932241,-0.014574005516297226,0.019574312684975875,1.0100589250570406,0.37620423259790986,-1.224984193481505,-1.3299501512914895
2024-09-23 06:15:08.917455,43.69,23.932292,-0.013903160100075569,0.019574312684975875,1.0100589250570406,0.37620423259790986,-1.224984193481505,-1.4087318225037306
2024-09-23 06:15:08.929230,43.69,23.932292,-0.013903160100075569,0.020793883868556746,1.0121322188537785,0.29306802074806765,-1.224984193481505,-1.4087318225037306
2024-09-23 06:15:08.971839,43.69,23.932342,-0.013049540777332799,0.022501222766502915,1.011095523348156,0.29306802074806765,-1.1506142924420535,-1.448094003321603
2024-09-23 06:15:09.014430,43.69,23.932342,-0.013049540777332799,0.022501222766502915,1.011095523348156,0.3149550229238346,-1.0368247942864894,-1.3212411233771593
2024-09-23 06:15:09.025709,43.69,23.932393,-0.01408613603049462,0.019513251341567978,1.011095523348156,0.3149550229238346,-1.0368247942864894,-1.3212411233771593
2024-09-23 06:15:09.067999,43.69,23.932483,-0.00969561673207142,0.019513251341567978,1.0151811574455674,0.38932495064372197,-1.0805987452771515,-1.3780785628784449
2024-09-23 06:15:09.112031,43.69,23.932483,-0.00969561673207142,0.020427930488741967,1.0136566395424191,0.3324875378228724,-1.0805987452771515,-1.3780785628784449
2024-09-23 06:15:09.124000,43.69,23.932577,-0.00969561673207142,0.020427930488741967,1.0136566395424191,0.3324875378228724,-1.0980740039605648,-1.3168293532043696
2024-09-23 06:15:09.166720,43.16,23.932577,-0.013537308491698099,0.020732824044125523,1.0118273541589518,0.3280757409696467,-1.1637349838074296,-1.3956111311383546
2024-09-23 06:15:09.210574,43.16,23.932629,-0.011586034850850625,0.01914740125216718,1.0118273541589518,0.3280757409696467,-1.1637349838074296,-1.3956111311383546
2024-09-23 06:15:09.221706,43.16,23.932629,-0.011586034850850625,0.01914740125216718,1.0109736163560281,0.3149550229238346,-1.0105833048339934,-1.3956111311383546
2024-09-23 06:15:09.254944,43.16,23.932629,-0.011586034850850625,0.01914740125216718,1.0109736163560281,0.3149550229238346,-1.0105833048339934,-1.4174980532728136
2024-09-23 06:15:09.266788,43.16,23.93268,-0.013903160100075569,0.019330377182586234,1.015973941752427,0.3193667930966243,-1.0105833048339934,-1.4174980532728136
2024-09-23 06:15:09.310474,43.16,23.93273,-0.015549642716465131,0.019330377182586234,1.015973941752427,0.3193667930966243,-1.1768557818945498,-1.4787472629468887
2024-09-23 06:15:09.322540,43.16,23.93273,-0.015549642716465131,0.017744852619190586,1.0151811574455674,0.3193667930966243,-1.1768557818945498,-1.4787472629468887
2024-09-23 06:15:09.354856,43.16,23.93273,-0.015549642716465131,0.017744852619190586,1.0151811574455674,0.4155664400962181,-1.1506142924420535,-1.4787472629468887
2024-09-23 06:15:09.366665,43.16,23.932781,-0.011220081471035847,0.020610907938137694,1.0151811574455674,0.4155664400962181,-1.1506142924420535,-1.3999655917346479
2024-09-23 06:15:09.409201,43.16,23.932832,-0.009390723936176203,0.020610907938137694,1.0136566395424191,0.35872900059493257,-1.0674780539117754,-1.404320052330941
2024-09-23 06:15:09.452294,43.16,23.932832,-0.009390723936176203,0.018781549643789714,1.0157908868352208,0.35872900059493257,-1.0674780539117754,-1.404320052330941
2024-09-23 06:15:09.464494,43.16,23.932919,-0.009390723936176203,0.018781549643789714,1.0157908868352208,0.27123832814879717,-1.2468139127612115,-1.509343212995678
2024-09-23 06:15:09.507505,43.16,23.932919,-0.014025177977500705,0.020549948366167105,1.011217527554791,0.3018342781975865,-1.1899764732599258,-1.509343212995678
2024-09-23 06:15:09.518884,43.16,23.932919,-0.014025177977500705,0.020549948366167105,1.011217527554791,0.3018342781975865,-1.1899764732599258,-1.434973311956227
2024-09-23 06:15:09.551405,43.16,23.93297,-0.014025177977500705,0.021281651582922046,1.011217527554791,0.3018342781975865,-1.1899764732599258,-1.434973311956227
2024-09-23 06:15:09.562990,43.16,23.93297,-0.014025177977500705,0.021281651582922046,1.0151811574455674,0.4418652124447748,-1.2818216329827905,-1.434973311956227
2024-09-23 06:15:09.606559,43.16,23.933021,-0.015793578218854774,0.019208359305161096,1.0146933350480416,0.3674952580444515,-1.2818216329827905,-1.404320052330941
2024-09-23 06:15:09.648965,43.16,23.933072,-0.015793578218854774,0.019208359305161096,1.0146933350480416,0.3674952580444515,-1.1243154934130608,-1.448094003321603
2024-09-23 06:15:09.660707,43.16,23.933072,-0.014878899071680782,0.02329398580768908,1.015546975636458,0.3674952580444515,-1.1243154934130608,-1.448094003321603
2024-09-23 06:15:09.702689,43.16,23.933122,-0.015061773230662524,0.02122069352992813,1.015546975636458,0.3062460483703762,-1.028115873093903,-1.4218526205908506
2024-09-23 06:15:09.746241,43.16,23.933122,-0.015061773230662524,0.02122069352992813,1.0143883731387076,0.31060053564710544,-1.1156065722204744,-1.4218526205908506
2024-09-23 06:15:09.757168,43.16,23.933173,-0.016342405757651293,0.02122069352992813,1.0143883731387076,0.31060053564710544,-1.1156065722204744,-1.404320052330941
2024-09-23 06:15:09.799281,43.16,23.93326,-0.016342405757651293,0.01664729931303485,1.013778546534547,0.3849704900474288,-1.1899764732599258,-1.404320052330941
2024-09-23 06:15:09.841476,43.16,23.93326,-0.010854230622146716,0.017439959063807027,1.013778546534547,0.3849704900474288,-1.1899764732599258,-1.404320052330941
2024-09-23 06:15:09.853187,43.16,23.93326,-0.010854230622146716,0.017439959063807027,1.0134127283436565,0.3237212803733535,-1.1156065722204744,-1.3999655917346479
2024-09-23 06:15:09.895168,43.16,23.933312,-0.016525279916633037,0.01664729931303485,1.015546975636458,0.31060053564710544,-1.1156065722204744,-1.3999655917346479
2024-09-23 06:15:09.906937,43.16,23.933312,-0.016525279916633037,0.01664729931303485,1.015546975636458,0.31060053564710544,-1.1024857741333545,-1.3999655917346479
2024-09-23 06:15:09.939459,43.16,23.933362,-0.016525279916633037,0.01664729931303485,1.015546975636458,0.31060053564710544,-1.1024857741333545,-1.3780785628784449
2024-09-23 06:15:09.951031,43.16,23.933362,-0.01365932788809991,0.01914740125216718,1.0123761300525411,0.3193667930966243,-1.1024857741333545,-1.3780785628784449
2024-09-23 06:15:09.993958,43.16,23.933413,-0.012805606793919833,0.020549948366167105,1.0123761300525411,0.3193667930966243,-1.1330817241821438,-1.3080631224352866
2024-09-23 06:15:10.005879,43.16,23.933413,-0.012805606793919833,0.020549948366167105,1.0138396944596255,0.3193667930966243,-1.1330817241821438,-1.3080631224352866
2024-09-23 06:15:10.038853,43.16,23.933413,-0.012805606793919833,0.020549948366167105,1.0138396944596255,0.31060053564710544,-1.15932321363464,-1.3737241022821516
2024-09-23 06:15:10.050173,43.16,23.933464,-0.017379001010813116,0.017196025080394063,1.0138396944596255,0.31060053564710544,-1.15932321363464,-1.3737241022821516
2024-09-23 06:15:10.093067,43.16,23.933515,-0.015671560341429636,0.017196025080394063,1.0147542885441054,0.31060053564710544,-1.203097164625302,-1.4568603408124299
2024-09-23 06:15:10.136254,43.16,23.933515,-0.015671560341429636,0.021464627513341095,1.0132908213515286,0.31060053564710544,-1.203097164625302,-1.4568603408124299
2024-09-23 06:15:10.147829,43.16,23.933515,-0.015671560341429636,0.021464627513341095,1.0132908213515286,0.3280757409696467,-1.15932321363464,-1.2905878637518733
2024-09-23 06:15:10.190516,42.95,23.933602,-0.013476350438704184,0.02097675802753849,1.0122541258459061,0.3543172304221429,-1.1068402347296475,-1.2905878637518733
2024-09-23 06:15:10.232772,42.95,23.933653,-0.016037512202267738,0.02097675802753849,1.0122541258459061,0.3543172304221429,-1.1068402347296475,-1.3037086618389935
2024-09-23 06:15:10.244803,42.95,23.933653,-0.016037512202267738,0.020062078880364497,1.0121931723498423,0.2362305812467821,-1.1068402347296475,-1.3037086618389935
2024-09-23 06:15:10.288010,42.95,23.933704,-0.01378124399408774,0.020062078880364497,1.0131688171448936,0.2362305812467821,-1.1068402347296475,-1.426207081187144
2024-09-23 06:15:10.329946,42.95,23.933704,-0.01378124399408774,0.020062078880364497,1.0131688171448936,0.27559278874509036,-1.1549687530383468,-1.426207081187144
2024-09-23 06:15:10.340976,42.95,23.933754,-0.013293374508285133,0.019879204721382753,1.0131688171448936,0.27559278874509036,-1.1549687530383468,-1.3606034109167755
2024-09-23 06:15:10.383495,42.95,23.933805,-0.013293374508285133,0.019879204721382753,1.015486022140394,0.3237212803733535,-1.1855647030871361,-1.3430708426568656
2024-09-23 06:15:10.396281,42.95,23.933805,-0.014025177977500705,0.019879204721382753,1.015486022140394,0.3237212803733535,-1.1855647030871361,-1.3430708426568656
2024-09-23 06:15:10.428529,42.95,23.933805,-0.014025177977500705,0.02164760496273682,1.0118273541589518,0.27994727602181957,-1.1855647030871361,-1.3430708426568656
2024-09-23 06:15:10.440280,42.95,23.933894,-0.014025177977500705,0.02164760496273682,1.0118273541589518,0.27994727602181957,-1.1156065722204744,-1.448094003321603
2024-09-23 06:15:10.482829,42.95,23.933894,-0.015976452377836518,0.021708563015730736,1.009815013858278,0.3324875378228724,-1.2555801435302942,-1.3868447936475277
2024-09-23 06:15:10.525298,42.95,23.933946,-0.014939857124674697,0.021708563015730736,1.009815013858278,0.3324875378228724,-1.2555801435302942,-1.3868447936475277
2024-09-23 06:15:10.536826,42.95,23.933946,-0.014939857124674697,0.020915799974544576,1.0139616014517532,0.3149550229238346,-1.2555801435302942,-1.3868447936475277
2024-09-23 06:15:10.579337,42.95,23.933997,-0.01445198763887209,0.01768389456619667,1.0114614387535539,0.3324875378228724,-1.2555801435302942,-1.4568603408124299
2024-09-23 06:15:10.621871,42.95,23.933997,-0.01445198763887209,0.01768389456619667,1.0114614387535539,0.3324875378228724,-1.2118635021161288,-1.3824903330512346
2024-09-23 06:15:10.633795,42.95,23.934047,-0.013476350438704184,0.020793883868556746,1.0115833457456815,0.3324875378228724,-1.2118635021161288,-1.3824903330512346
2024-09-23 06:15:10.676752,42.95,23.934098,-0.015061773230662524,0.02018409827676631,1.0115833457456815,0.3237212803733535,-1.0674780539117754,-1.4087318225037306
2024-09-23 06:15:10.719114,42.95,23.934098,-0.015061773230662524,0.02018409827676631,1.0143883731387076,0.37620423259790986,-1.0674780539117754,-1.4087318225037306
2024-09-23 06:15:10.730325,42.95,23.934098,-0.015061773230662524,0.02018409827676631,1.0143883731387076,0.37620423259790986,-1.1199610328167677,-1.4218526205908506
2024-09-23 06:15:10.773327,42.95,23.934149,-0.01408613603049462,0.020915799974544576,1.012742045457939,0.29306802074806765,-1.1199610328167677,-1.4218526205908506
2024-09-23 06:15:10.785320,42.95,23.934149,-0.01408613603049462,0.020915799974544576,1.012742045457939,0.29306802074806765,-1.0980740039605648,-1.4218526205908506
2024-09-23 06:15:10.817157,42.95,23.934235,-0.01408613603049462,0.020915799974544576,1.012742045457939,0.29306802074806765,-1.0980740039605648,-1.3343619214642792
2024-09-23 06:15:10.828494,42.95,23.934235,-0.014512945691866003,0.020610907938137694,1.012802998954003,0.3324875378228724,-1.0980740039605648,-1.3343619214642792
2024-09-23 06:15:10.870695,42.95,23.934287,-0.01481783924724956,0.020610907938137694,1.012802998954003,0.3324875378228724,-1.0937195433642715,-1.43932777255252
2024-09-23 06:15:10.882446,42.95,23.934287,-0.01481783924724956,0.019330377182586234,1.0145103773453428,0.3324875378228724,-1.0937195433642715,-1.43932777255252
2024-09-23 06:15:10.914770,42.95,23.934287,-0.01481783924724956,0.019330377182586234,1.0145103773453428,0.2668265312955715,-1.1987427040290088,-1.43932777255252
2024-09-23 06:15:10.925774,42.95,23.934337,-0.01408613603049462,0.018659531766364576,1.0145103773453428,0.2668265312955715,-1.1987427040290088,-1.3956111311383546
2024-09-23 06:15:10.967566,42.95,23.934337,-0.01408613603049462,0.018659531766364576,1.0132908213515286,0.29306802074806765,-1.1111946953259408,-1.2905878637518733
2024-09-23 06:15:10.978867,42.95,23.934388,-0.01146401621393715,0.018659531766364576,1.0132908213515286,0.29306802074806765,-1.1111946953259408,-1.2905878637518733
2024-09-23 06:15:11.013068,42.95,23.934388,-0.01146401621393715,0.018781549643789714,1.0134127283436565,0.29306802074806765,-1.1111946953259408,-1.2905878637518733
2024-09-23 06:15:11.024345,42.95,23.934479,-0.01146401621393715,0.018781549643789714,1.0134127283436565,0.3499627431454137,-1.0455910250555724,-1.3606034109167755
2024-09-23 06:15:11.067005,42.95,23.934479,-0.015183792627064338,0.019208359305161096,1.01542506864433,0.3630834878716618,-1.1374934943549335,-1.3518370734259486
2024-09-23 06:15:11.108809,42.95,23.93453,-0.015183792627064338,0.019208359305161096,1.01542506864433,0.3630834878716618,-1.1374934943549335,-1.3518370734259486
2024-09-23 06:15:11.120797,42.95,23.93453,-0.015000815177668611,0.017744852619190586,1.0128639524500669,0.37620423259790986,-1.1768557818945498,-1.3518370734259486
2024-09-23 06:15:11.163507,42.95,23.934581,-0.014208053655459124,0.02067186599113161,1.0130469101527657,0.37620423259790986,-1.1768557818945498,-1.4306188513599336
2024-09-23 06:15:11.175621,42.95,23.934581,-0.014208053655459124,0.02067186599113161,1.0130469101527657,0.3411964856958948,-1.1768557818945498,-1.4306188513599336
2024-09-23 06:15:11.208032,42.9,23.934632,-0.014208053655459124,0.02067186599113161,1.0130469101527657,0.3411964856958948,-1.1506142924420535,-1.3168293532043696
2024-09-23 06:15:11.218996,42.9,23.934632,-0.015122834574070423,0.019574312684975875,1.0134736818397203,0.3411964856958948,-1.1506142924420535,-1.3168293532043696
2024-09-23 06:15:11.262617,42.9,23.934683,-0.01433007153288426,0.019940162774376668,1.0134736818397203,0.37620423259790986,-1.2818216329827905,-1.3387163820605725
2024-09-23 06:15:11.304976,42.9,23.934683,-0.01433007153288426,0.019940162774376668,1.0132298678554648,0.3062460483703762,-1.2818216329827905,-1.3387163820605725
2024-09-23 06:15:11.316940,42.9,23.934733,-0.013354434332716355,0.019940162774376668,1.0132298678554648,0.3062460483703762,-1.1243154934130608,-1.3780785628784449
2024-09-23 06:15:11.360135,42.9,23.93482,-0.013354434332716355,0.01890346574977754,1.0109126628599643,0.2843590461946093,-1.1068402347296475,-1.3868447936475277
2024-09-23 06:15:11.403902,42.9,23.93482,-0.011281142054955407,0.02140366946034718,1.0151811574455674,0.2843590461946093,-1.1068402347296475,-1.3868447936475277
2024-09-23 06:15:11.414873,42.9,23.93482,-0.011281142054955407,0.02140366946034718,1.0151811574455674,0.27123832814879717,-1.1330817241821438,-1.413086283100024
2024-09-23 06:15:11.456746,42.9,23.934872,-0.011281142054955407,0.018476656088406155,1.0096319589410718,0.3062460483703762,-1.1680894444037229,-1.413086283100024
2024-09-23 06:15:11.499279,42.9,23.934922,-0.011281142054955407,0.018476656088406155,1.0096319589410718,0.3062460483703762,-1.1680894444037229,-1.4437395427253097
2024-09-23 06:15:11.511330,42.9,23.934922,-0.013354434332716355,0.020245056329760223,1.012620041251304,0.39809120809324083,-1.1680894444037229,-1.4437395427253097
2024-09-23 06:15:11.553643,42.9,23.934973,-0.013720285941093825,0.018293680157987106,1.012620041251304,0.39809120809324083,-1.2118635021161288,-1.3693696416858583
2024-09-23 06:15:11.565804,42.9,23.934973,-0.013720285941093825,0.018293680157987106,1.0125589905407328,0.39809120809324083,-1.2118635021161288,-1.3693696416858583
2024-09-23 06:15:11.599006,42.9,23.934973,-0.013720285941093825,0.018293680157987106,1.0125589905407328,0.4155664400962181,-1.1330817241821438,-1.3693696416858583
2024-09-23 06:15:11.610778,42.9,23.935024,-0.011951885699739756,0.020793883868556746,1.0125589905407328,0.4155664400962181,-1.1330817241821438,-1.3693696416858583
2024-09-23 06:15:11.643457,42.9,23.935024,-0.011951885699739756,0.020793883868556746,1.0131078636488298,0.4155664400962181,-1.1330817241821438,-1.3693696416858583
2024-09-23 06:15:11.655114,42.9,23.935075,-0.013049540777332799,0.020793883868556746,1.0131078636488298,0.3237212803733535,-1.0762442846808582,-1.3868447936475277
2024-09-23 06:15:11.697218,42.9,23.935075,-0.013049540777332799,0.021281651582922046,1.0103637897518674,0.27559278874509036,-1.1637349838074296,-1.3868447936475277
2024-09-23 06:15:11.709129,42.9,23.935161,-0.013049540777332799,0.021281651582922046,1.0103637897518674,0.27559278874509036,-1.1637349838074296,-1.3999655917346479
2024-09-23 06:15:11.741461,42.9,23.935161,-0.014025177977500705,0.021281651582922046,1.0103637897518674,0.27559278874509036,-1.1637349838074296,-1.3999655917346479
2024-09-23 06:15:11.753558,42.9,23.935161,-0.014025177977500705,0.019818144896951533,1.0120712653577144,0.27994727602181957,-1.1374934943549335,-1.3999655917346479
2024-09-23 06:15:11.797134,42.9,23.935213,-0.013354434332716355,0.019452293288574063,1.0111565740587272,0.3674952580444515,-1.1374934943549335,-1.3999655917346479
2024-09-23 06:15:11.809272,42.9,23.935213,-0.013354434332716355,0.019452293288574063,1.0111565740587272,0.3674952580444515,-1.0543573625463993,-1.3999655917346479
2024-09-23 06:15:11.842479,42.9,23.935264,-0.013049540777332799,0.019452293288574063,1.0111565740587272,0.3674952580444515,-1.0543573625463993,-1.3868447936475277
2024-09-23 06:15:11.857930,42.9,23.935264,-0.013049540777332799,0.01926931735815501,1.0151202039495033,0.27994727602181957,-1.0543573625463993,-1.3868447936475277
2024-09-23 06:15:11.889672,42.9,23.935264,-0.013049540777332799,0.01926931735815501,1.0151202039495033,0.27994727602181957,-1.1111946953259408,-1.5224640110827983
2024-09-23 06:15:11.901680,42.9,23.935314,-0.016403363810645208,0.01823272210499319,1.0101808320491685,0.27994727602181957,-1.1111946953259408,-1.5224640110827983
2024-09-23 06:15:11.945163,42.9,23.935365,-0.01219582044264106,0.020062078880364497,1.0101808320491685,0.3018342781975865,-1.1330817241821438,-1.461214801408723
2024-09-23 06:15:11.989471,42.9,23.935365,-0.01219582044264106,0.020062078880364497,1.01426646614658,0.31060053564710544,-1.1330817241821438,-1.461214801408723
2024-09-23 06:15:12.000712,42.9,23.935416,-0.01219582044264106,0.020062078880364497,1.01426646614658,0.31060053564710544,-1.1330817241821438,-1.3824903330512346
2024-09-23 06:15:12.043074,42.9,23.935503,-0.01219582044264106,0.018659531766364576,1.0103028362558035,0.37184974532118065,-1.0630662837389857,-1.3780785628784449
2024-09-23 06:15:12.086111,42.9,23.935503,-0.015244750680058252,0.02012303845233509,1.0100589250570406,0.37184974532118065,-1.0630662837389857,-1.3780785628784449
2024-09-23 06:15:12.098007,42.9,23.935503,-0.015244750680058252,0.02012303845233509,1.0100589250570406,0.3674952580444515,-1.1374934943549335,-1.3212411233771593
2024-09-23 06:15:12.141046,42.9,23.935554,-0.011890927646745842,0.018964423802771455,1.0140835084438808,0.3411964856958948,-1.2118635021161288,-1.3212411233771593
2024-09-23 06:15:12.184511,42.9,23.935605,-0.016891131525010507,0.018964423802771455,1.0140835084438808,0.3411964856958948,-1.2118635021161288,-1.3124748926080763
2024-09-23 06:15:12.196301,42.9,23.935605,-0.016891131525010507,0.018598572194393984,1.0144494238492787,0.2055773349617142,-1.2118635021161288,-1.3124748926080763
2024-09-23 06:15:12.229353,42.79,23.935605,-0.016891131525010507,0.018598572194393984,1.0144494238492787,0.2055773349617142,-1.1374934943549335,-1.3124748926080763
2024-09-23 06:15:12.241308,42.79,23.935656,-0.013293374508285133,0.020549948366167105,1.0108517093639005,0.2055773349617142,-1.1374934943549335,-1.3124748926080763
2024-09-23 06:15:12.283091,42.79,23.935706,-0.013293374508285133,0.020549948366167105,1.0108517093639005,0.29306802074806765,-1.1374934943549335,-1.3255955839734523
2024-09-23 06:15:12.294866,42.79,23.935706,-0.017074107455429557,0.01853761414140007,1.0108517093639005,0.29306802074806765,-1.1374934943549335,-1.3255955839734523
2024-09-23 06:15:12.328244,42.79,23.935706,-0.017074107455429557,0.01853761414140007,1.0163397599433175,0.3149550229238346,-1.1374934943549335,-1.3255955839734523
2024-09-23 06:15:12.339649,42.79,23.935757,-0.01408613603049462,0.01853761414140007,1.0163397599433175,0.3149550229238346,-1.1418479549512268,-1.404320052330941
2024-09-23 06:15:12.382150,42.79,23.935757,-0.01408613603049462,0.021159735476934217,1.0145103773453428,0.3193667930966243,-1.1724439050000162,-1.4568603408124299
2024-09-23 06:15:12.393947,42.79,23.935844,-0.01408613603049462,0.021159735476934217,1.0145103773453428,0.3193667930966243,-1.1724439050000162,-1.4568603408124299
2024-09-23 06:15:12.425871,42.79,23.935844,-0.01341539238571027,0.019696228790963704,1.0145103773453428,0.3193667930966243,-1.1724439050000162,-1.4568603408124299
2024-09-23 06:15:12.438227,42.79,23.935844,-0.01341539238571027,0.019696228790963704,1.0116442992417454,0.3149550229238346,-1.1680894444037229,-1.4087318225037306
2024-09-23 06:15:12.482005,42.79,23.935895,-0.012622630104012445,0.02122069352992813,1.0131078636488298,0.37184974532118065,-1.1724439050000162,-1.4087318225037306
2024-09-23 06:15:12.525813,42.79,23.935946,-0.013049540777332799,0.02122069352992813,1.0131078636488298,0.37184974532118065,-1.1724439050000162,-1.3780785628784449
2024-09-23 06:15:12.537571,42.79,23.935946,-0.013049540777332799,0.018842507696783625,1.0095710054450078,0.38932495064372197,-1.1724439050000162,-1.3780785628784449
2024-09-23 06:15:12.570412,42.79,23.935946,-0.013049540777332799,0.018842507696783625,1.0095710054450078,0.38932495064372197,-1.2774671723864972,-1.3780785628784449
2024-09-23 06:15:12.582429,42.79,23.935997,-0.017257084904825287,0.019025483627202678,1.0093881449568163,0.38932495064372197,-1.2774671723864972,-1.426207081187144
2024-09-23 06:15:12.625433,42.79,23.936048,-0.012256778495634975,0.019025483627202678,1.0093881449568163,0.3368419984191656,-1.2205724233087152,-1.404320052330941
2024-09-23 06:15:12.637639,42.79,23.936048,-0.012256778495634975,0.019086441680196593,1.0093881449568163,0.3368419984191656,-1.2205724233087152,-1.404320052330941
2024-09-23 06:15:12.720811,42.79,23.936048,-0.012256778495634975,0.019086441680196593,1.0103028362558035,0.26247207069927825,-1.2118635021161288,-1.469981032177806
2024-09-23 06:15:12.774376,42.79,23.936098,-0.013476350438704184,0.019940162774376668,1.015668979843093,0.28871353347133843,-1.1199610328167677,-1.469981032177806
2024-09-23 06:15:12.817595,42.79,23.936185,-0.01536666678604608,0.019940162774376668,1.015668979843093,0.28871353347133843,-1.1199610328167677,-1.4218526205908506
2024-09-23 06:15:12.829387,42.79,23.936185,-0.01536666678604608,0.024574515044263865,1.0114003880429827,0.3237212803733535,-1.1199610328167677,-1.4218526205908506
2024-09-23 06:15:12.872876,42.79,23.936237,-0.014269113479890346,0.019025483627202678,1.015546975636458,0.3237212803733535,-1.1243154934130608,-1.3387163820605725
2024-09-23 06:15:12.915045,42.79,23.936237,-0.014269113479890346,0.019025483627202678,1.015546975636458,0.446219699721504,-1.224984193481505,-1.3911993609655648
2024-09-23 06:15:12.926541,42.79,23.936287,-0.013232416455291218,0.021037716080532405,1.015546975636458,0.446219699721504,-1.224984193481505,-1.3911993609655648
2024-09-23 06:15:12.969154,42.79,23.936382,-0.016342405757651293,0.021037716080532405,1.0139006479556893,0.3849704900474288,-1.0805987452771515,-1.3430708426568656
2024-09-23 06:15:13.012295,42.79,23.936382,-0.016342405757651293,0.02140366946034718,1.015546975636458,0.3674952580444515,-1.0805987452771515,-1.3430708426568656
2024-09-23 06:15:13.023898,42.79,23.936478,-0.016342405757651293,0.02140366946034718,1.015546975636458,0.3674952580444515,-1.1506142924420535,-1.413086283100024
2024-09-23 06:15:13.066691,42.79,23.936478,-0.013354434332716355,0.019879204721382753,1.0153641151482662,0.3018342781975865,-1.1462025222692638,-1.404320052330941
2024-09-23 06:15:13.109392,42.79,23.936529,-0.012744546969488612,0.02176952106872465,1.0153641151482662,0.3018342781975865,-1.1462025222692638,-1.404320052330941
2024-09-23 06:15:13.121689,42.79,23.936529,-0.012744546969488612,0.02176952106872465,1.00969310686615,0.31060053564710544,-1.1418479549512268,-1.404320052330941
2024-09-23 06:15:13.165138,42.79,23.93658,-0.011707950956838454,0.02067186599113161,1.0148762927507406,0.3237212803733535,-1.1418479549512268,-1.448094003321603
2024-09-23 06:15:13.207970,42.79,23.936631,-0.011707950956838454,0.02067186599113161,1.0148762927507406,0.3237212803733535,-1.2118635021161288,-1.491868061034009
2024-09-23 06:15:13.219875,42.79,23.936631,-0.012805606793919833,0.02085484192155066,1.0117664006628877,0.3237212803733535,-1.2118635021161288,-1.491868061034009
2024-09-23 06:15:13.252653,42.79,23.936631,-0.012805606793919833,0.02085484192155066,1.0117664006628877,0.3324875378228724,-1.2118635021161288,-1.491868061034009
2024-09-23 06:15:13.263800,42.79,23.936681,-0.013049540777332799,0.019818144896951533,1.0117664006628877,0.3324875378228724,-0.9886962759777903,-1.3649578715130686
2024-09-23 06:15:13.307138,42.79,23.936681,-0.013049540777332799,0.019818144896951533,1.0162788064472537,0.29747979092085736,-1.0368247942864894,-1.3168293532043696
2024-09-23 06:15:13.318355,42.79,23.936732,-0.010732313756670548,0.019818144896951533,1.0162788064472537,0.29747979092085736,-1.0368247942864894,-1.3168293532043696
2024-09-23 06:15:13.350649,42.79,23.936732,-0.010732313756670548,0.02067186599113161,1.0162788064472537,0.29747979092085736,-1.0368247942864894,-1.3168293532043696
2024-09-23 06:15:13.362514,42.79,23.936819,-0.010732313756670548,0.02067186599113161,1.0160958487445546,0.3018342781975865,-1.1243154934130608,-1.3737241022821516
2024-09-23 06:15:13.406159,42.79,23.936819,-0.01585453627184869,0.01975718684395762,1.0109126628599643,0.3062460483703762,-1.0937195433642715,-1.3737241022821516
2024-09-23 06:15:13.418158,42.79,23.936819,-0.01585453627184869,0.01975718684395762,1.0109126628599643,0.3062460483703762,-1.0937195433642715,-1.3911993609655648
2024-09-23 06:15:13.450829,42.79,23.93687,-0.013232416455291218,0.01939133523558015,1.0109126628599643,0.3062460483703762,-1.0937195433642715,-1.3911993609655648
2024-09-23 06:15:13.462628,42.79,23.93687,-0.013232416455291218,0.01939133523558015,1.0131688171448936,0.24935132597303017,-1.0368247942864894,-1.3911993609655648
2024-09-23 06:15:13.505810,42.79,23.936921,-0.014695923141261731,0.019086441680196593,1.0103637897518674,0.31060053564710544,-1.0368247942864894,-1.3518370734259486
2024-09-23 06:15:13.547836,42.79,23.936921,-0.014695923141261731,0.019086441680196593,1.0103637897518674,0.31060053564710544,-1.1068402347296475,-1.4174980532728136
2024-09-23 06:15:13.559084,42.79,23.936972,-0.017805912443621806,0.02189143717471248,1.0129859566567019,0.31060053564710544,-1.1068402347296475,-1.4174980532728136
2024-09-23 06:15:13.600879,42.79,23.937023,-0.01268358815700636,0.02189143717471248,1.0129859566567019,0.26247207069927825,-1.1637349838074296,-1.3868447936475277
2024-09-23 06:15:13.613139,42.79,23.937023,-0.01268358815700636,0.019452293288574063,1.0129859566567019,0.26247207069927825,-1.1637349838074296,-1.3868447936475277
2024-09-23 06:15:13.646013,42.79,23.937023,-0.01268358815700636,0.019452293288574063,1.0149372462468045,0.2668265312955715,-1.2512256829340012,-1.3868447936475277
2024-09-23 06:15:13.657192,42.79,23.937073,-0.015427726610477303,0.019452293288574063,1.0149372462468045,0.2668265312955715,-1.2512256829340012,-1.413086283100024
2024-09-23 06:15:13.699358,42.79,23.93716,-0.015427726610477303,0.019696228790963704,1.0137175930384832,0.38061600277069957,-1.1374934943549335,-1.43932777255252
2024-09-23 06:15:13.741769,42.79,23.93716,-0.01268358815700636,0.020306014382754138,1.0137175930384832,0.38061600277069957,-1.1374934943549335,-1.43932777255252
2024-09-23 06:15:13.753458,42.79,23.93716,-0.01268358815700636,0.020306014382754138,1.0109736163560281,0.31060053564710544,-1.1724439050000162,-1.448094003321603
2024-09-23 06:15:13.795854,42.79,23.937212,-0.013720285941093825,0.020062078880364497,1.01231507934197,0.29306802074806765,-1.1724439050000162,-1.448094003321603
2024-09-23 06:15:13.808010,42.79,23.937212,-0.013720285941093825,0.020062078880364497,1.01231507934197,0.29306802074806765,-1.0849533125951887,-1.448094003321603
2024-09-23 06:15:13.839730,42.79,23.937262,-0.013720285941093825,0.020062078880364497,1.01231507934197,0.29306802074806765,-1.0849533125951887,-1.3649578715130686
2024-09-23 06:15:13.851067,42.79,23.937262,-0.013171458402297304,0.019696228790963704,1.010668654446694,0.3149550229238346,-1.0849533125951887,-1.3649578715130686
2024-09-23 06:15:13.894241,42.79,23.937313,-0.012317737308117227,0.019452293288574063,1.0136566395424191,0.3149550229238346,-1.1199610328167677,-1.2993542012427002
2024-09-23 06:15:13.936742,42.79,23.937313,-0.012317737308117227,0.019452293288574063,1.0136566395424191,0.29306802074806765,-1.0412365644592791,-1.2993542012427002
2024-09-23 06:15:13.948368,42.79,23.937364,-0.012134760618209839,0.01914740125216718,1.0136566395424191,0.29306802074806765,-1.0412365644592791,-1.474335492774099
2024-09-23 06:15:13.990295,42.79,23.937415,-0.012134760618209839,0.01914740125216718,1.0149372462468045,0.3324875378228724,-1.1243154934130608,-1.4306188513599336
2024-09-23 06:15:14.002225,42.79,23.937415,-0.013354434332716355,0.01914740125216718,1.0149372462468045,0.3324875378228724,-1.1243154934130608,-1.4306188513599336
2024-09-23 06:15:14.034240,42.79,23.937415,-0.013354434332716355,0.02280611632188647,1.0114614387535539,0.3324875378228724,-1.1243154934130608,-1.4306188513599336
2024-09-23 06:15:14.045931,42.79,23.937501,-0.013354434332716355,0.02280611632188647,1.0114614387535539,0.29747979092085736,-1.0587118231426924,-1.434973311956227
2024-09-23 06:15:14.088553,42.79,23.937501,-0.014756881194255646,0.021830479121718566,1.0108517093639005,0.223109849860752,-1.1374934943549335,-1.434973311956227
2024-09-23 06:15:14.100512,42.79,23.937501,-0.014756881194255646,0.021830479121718566,1.0108517093639005,0.223109849860752,-1.1374934943549335,-1.4874562908612192
2024-09-23 06:15:14.133260,42.79,23.937553,-0.010671253932239326,0.021830479121718566,1.0108517093639005,0.223109849860752,-1.1374934943549335,-1.4874562908612192
2024-09-23 06:15:14.145237,42.79,23.937553,-0.010671253932239326,0.01853761414140007,1.0130469101527657,0.3368419984191656,-1.1243154934130608,-1.4874562908612192
2024-09-23 06:15:14.187912,42.79,23.937604,-0.01365932788809991,0.01914740125216718,1.0143883731387076,0.3237212803733535,-1.1243154934130608,-1.43932777255252
2024-09-23 06:15:14.229737,42.79,23.937604,-0.01365932788809991,0.01914740125216718,1.0143883731387076,0.3237212803733535,-1.0937195433642715,-1.3911993609655648
2024-09-23 06:15:14.241939,42.79,23.937654,-0.01695219134944173,0.020549948366167105,1.01426646614658,0.3237212803733535,-1.0937195433642715,-1.3911993609655648
2024-09-23 06:15:14.285196,42.46,23.937705,-0.013049540777332799,0.01939133523558015,1.01426646614658,0.35872900059493257,-1.0805987452771515,-1.3737241022821516
2024-09-23 06:15:14.328911,42.46,23.937705,-0.013049540777332799,0.01939133523558015,1.0118883076550156,0.3324875378228724,-1.1111946953259408,-1.3737241022821516
2024-09-23 06:15:14.340204,42.46,23.937756,-0.015000815177668611,0.01939133523558015,1.0118883076550156,0.3324875378228724,-1.1111946953259408,-1.3606034109167755
2024-09-23 06:15:14.383057,42.46,23.937843,-0.015000815177668611,0.020062078880364497,1.0165836711420804,0.3062460483703762,-1.1330817241821438,-1.3737241022821516
2024-09-23 06:15:14.425301,42.46,23.937843,-0.011707950956838454,0.018781549643789714,1.0099369208504057,0.3062460483703762,-1.1330817241821438,-1.3737241022821516
2024-09-23 06:15:14.436515,42.46,23.937843,-0.011707950956838454,0.018781549643789714,1.0099369208504057,0.3456082558686845,-1.1506142924420535,-1.4437395427253097
2024-09-23 06:15:14.480271,42.46,23.937894,-0.01481783924724956,0.019574312684975875,1.0152421109416312,0.38932495064372197,-1.1506142924420535,-1.4437395427253097
2024-09-23 06:15:14.523695,42.46,23.937945,-0.012927522899907663,0.019574312684975875,1.0152421109416312,0.38932495064372197,-1.1506142924420535,-1.3255955839734523
2024-09-23 06:15:14.534779,42.46,23.937945,-0.012927522899907663,0.020610907938137694,1.0179251341280222,0.35872900059493257,-1.1506142924420535,-1.3255955839734523
2024-09-23 06:15:14.577894,42.46,23.937996,-0.015976452377836518,0.020062078880364497,1.012925003160638,0.35872900059493257,-1.1330817241821438,-1.2774671723864972
2024-09-23 06:15:14.621168,42.46,23.937996,-0.015976452377836518,0.020062078880364497,1.012925003160638,0.27559278874509036,-1.1724439050000162,-1.3212411233771593
2024-09-23 06:15:14.632772,42.46,23.938046,-0.01378124399408774,0.020610907938137694,1.012925003160638,0.27559278874509036,-1.1724439050000162,-1.3212411233771593
2024-09-23 06:15:14.675985,42.46,23.938097,-0.013537308491698099,0.020610907938137694,1.0112784810508548,0.3237212803733535,-1.0849533125951887,-1.3868447936475277
2024-09-23 06:15:14.718112,42.46,23.938097,-0.013537308491698099,0.01975718684395762,1.0120712653577144,0.28871353347133843,-1.0849533125951887,-1.3868447936475277
2024-09-23 06:15:14.728996,42.46,23.938184,-0.013537308491698099,0.01975718684395762,1.0120712653577144,0.28871353347133843,-1.1637349838074296,-1.3649578715130686
2024-09-23 06:15:14.772855,42.46,23.938184,-0.014695923141261731,0.01811080599900536,1.0092051872541172,0.28871353347133843,-1.1374934943549335,-1.3649578715130686
2024-09-23 06:15:14.814984,42.46,23.938184,-0.014695923141261731,0.01811080599900536,1.0092051872541172,0.28871353347133843,-1.1374934943549335,-1.3080631224352866
2024-09-23 06:15:14.867663,42.46,23.938235,-0.014025177977500705,0.016037512202267738,1.012925003160638,0.27994727602181957,-1.1374934943549335,-1.3080631224352866
2024-09-23 06:15:14.911967,42.46,23.938235,-0.014025177977500705,0.016037512202267738,1.012925003160638,0.27994727602181957,-1.1462025222692638,-1.483101830264926
2024-09-23 06:15:14.923512,42.46,23.938286,-0.01445198763887209,0.017196025080394063,1.0132298678554648,0.27994727602181957,-1.1462025222692638,-1.483101830264926
2024-09-23 06:15:14.966398,42.46,23.938337,-0.010244444270867941,0.017196025080394063,1.0132298678554648,0.40244569536997005,-1.1199610328167677,-1.43932777255252
2024-09-23 06:15:14.978119,42.46,23.938337,-0.010244444270867941,0.020245056329760223,1.0132298678554648,0.40244569536997005,-1.1199610328167677,-1.43932777255252
2024-09-23 06:15:15.011045,42.46,23.938337,-0.010244444270867941,0.020245056329760223,1.0124370835486052,0.3280757409696467,-1.1199610328167677,-1.43932777255252
2024-09-23 06:15:15.022259,42.46,23.938388,-0.013598266544692013,0.020245056329760223,1.0124370835486052,0.3280757409696467,-1.224984193481505,-1.4787472629468887
2024-09-23 06:15:15.064311,42.46,23.938438,-0.013598266544692013,0.01786687049661572,1.008107538252431,0.3368419984191656,-1.238104991568625,-1.3780785628784449
2024-09-23 06:15:15.106633,42.46,23.938438,-0.013842202047081654,0.02201345505213762,1.008107538252431,0.3368419984191656,-1.238104991568625,-1.3780785628784449
2024-09-23 06:15:15.118371,42.46,23.938438,-0.013842202047081654,0.02201345505213762,1.0101808320491685,0.3237212803733535,-1.0937195433642715,-1.3037086618389935
2024-09-23 06:15:15.161349,42.46,23.938574,-0.015915494324842603,0.02097675802753849,1.0140835084438808,0.3368419984191656,-1.1899764732599258,-1.3037086618389935
2024-09-23 06:15:15.204666,42.46,23.938626,-0.015915494324842603,0.02097675802753849,1.0140835084438808,0.3368419984191656,-1.1899764732599258,-1.3911993609655648
2024-09-23 06:15:15.215887,42.46,23.938626,-0.01256167205101853,0.019025483627202678,1.0129859566567019,0.3018342781975865,-1.1899764732599258,-1.3911993609655648
2024-09-23 06:15:15.260145,42.46,23.938677,-0.012012843752733671,0.020427930488741967,1.0119492611510794,0.3018342781975865,-1.2118635021161288,-1.3474826128296553
2024-09-23 06:15:15.305402,41.89,23.938727,-0.012012843752733671,0.020427930488741967,1.0119492611510794,0.3149550229238346,-1.1680894444037229,-1.3518370734259486
2024-09-23 06:15:15.317075,41.89,23.938727,-0.012988480952901577,0.019818144896951533,1.0119492611510794,0.3149550229238346,-1.1680894444037229,-1.3518370734259486
2024-09-23 06:15:15.350095,41.89,23.938727,-0.012988480952901577,0.019818144896951533,1.015486022140394,0.3149550229238346,-1.1680894444037229,-1.3518370734259486
2024-09-23 06:15:15.361357,41.89,23.938778,-0.012927522899907663,0.019818144896951533,1.015486022140394,0.4593404177673161,-1.0412365644592791,-1.469981032177806
2024-09-23 06:15:15.403364,41.89,23.938778,-0.012927522899907663,0.020366972435748053,1.0152421109416312,0.3456082558686845,-1.0543573625463993,-1.469981032177806
2024-09-23 06:15:15.414931,41.89,23.938867,-0.012927522899907663,0.020366972435748053,1.0152421109416312,0.3456082558686845,-1.0543573625463993,-1.426207081187144
2024-09-23 06:15:15.446455,41.89,23.938867,-0.013232416455291218,0.020366972435748053,1.0152421109416312,0.3456082558686845,-1.0543573625463993,-1.426207081187144
2024-09-23 06:15:15.458747,41.89,23.938867,-0.013232416455291218,0.01750101888823825,1.0164616669354454,0.3062460483703762,-1.1506142924420535,-1.4174980532728136
2024-09-23 06:15:15.501834,41.89,23.938918,-0.01182986782231462,0.02280611632188647,1.0095710054450078,0.2668265312955715,-1.1506142924420535,-1.4174980532728136
2024-09-23 06:15:15.513421,41.89,23.938918,-0.01182986782231462,0.02280611632188647,1.0095710054450078,0.2668265312955715,-1.1111946953259408,-1.4174980532728136
2024-09-23 06:15:15.545395,41.89,23.938969,-0.01182986782231462,0.02280611632188647,1.0095710054450078,0.2668265312955715,-1.1111946953259408,-1.3737241022821516
2024-09-23 06:15:15.556881,41.89,23.938969,-0.013842202047081654,0.017927828549609635,1.01426646614658,0.35872900059493257,-1.1111946953259408,-1.3737241022821516
2024-09-23 06:15:15.600022,41.89,23.939019,-0.012500713238536278,0.02048899031317319,1.0106077981651376,0.35872900059493257,-1.0762442846808582,-1.4306188513599336
2024-09-23 06:15:15.642270,41.89,23.939019,-0.012500713238536278,0.02048899031317319,1.0106077981651376,0.3543172304221429,-1.0762442846808582,-1.4306188513599336
2024-09-23 06:15:15.654020,41.89,23.93907,-0.017196025080394063,0.018781549643789714,1.0106077981651376,0.3543172304221429,-1.0980740039605648,-1.3649578715130686
2024-09-23 06:15:15.697833,41.89,23.939121,-0.017196025080394063,0.018781549643789714,1.0149982969573756,0.3411964856958948,-0.9318589431982487,-1.491868061034009
2024-09-23 06:15:15.709849,41.89,23.939121,-0.011281142054955407,0.018781549643789714,1.0149982969573756,0.3411964856958948,-0.9318589431982487,-1.491868061034009
2024-09-23 06:15:15.742348,41.89,23.939121,-0.011281142054955407,0.02237930666051509,1.0164007134393813,0.3280757409696467,-0.9318589431982487,-1.491868061034009
2024-09-23 06:15:15.754138,41.89,23.939208,-0.011281142054955407,0.02237930666051509,1.0164007134393813,0.3280757409696467,-1.1506142924420535,-1.3956111311383546
2024-09-23 06:15:15.796778,41.89,23.939208,-0.011098165365048018,0.020732824044125523,1.0089003225592905,0.3237212803733535,-1.0893650827679784,-1.3780785628784449
2024-09-23 06:15:15.839378,41.89,23.939259,-0.015427726610477303,0.01664729931303485,1.0089003225592905,0.3237212803733535,-1.0893650827679784,-1.3780785628784449
2024-09-23 06:15:15.851234,41.89,23.939259,-0.015427726610477303,0.01664729931303485,1.010668654446694,0.3456082558686845,-1.0718325145080685,-1.3780785628784449
2024-09-23 06:15:15.894107,41.89,23.93931,-0.013537308491698099,0.020610907938137694,1.0135956860463553,0.3849704900474288,-1.0718325145080685,-1.3780785628784449
2024-09-23 06:15:15.937225,41.89,23.939361,-0.013537308491698099,0.020610907938137694,1.0135956860463553,0.3849704900474288,-1.1462025222692638,-1.448094003321603
2024-09-23 06:15:15.949147,41.89,23.939361,-0.014208053655459124,0.018476656088406155,1.0118273541589518,0.3849704900474288,-1.1462025222692638,-1.448094003321603
2024-09-23 06:15:15.991982,41.89,23.939411,-0.01408613603049462,0.017439959063807027,1.0118273541589518,0.3368419984191656,-1.0762442846808582,-1.413086283100024
2024-09-23 06:15:16.035035,41.89,23.939411,-0.01408613603049462,0.017439959063807027,1.0178641806319584,0.28871353347133843,-1.0455910250555724,-1.413086283100024
2024-09-23 06:15:16.046599,41.89,23.939462,-0.015000815177668611,0.017439959063807027,1.0178641806319584,0.28871353347133843,-1.0455910250555724,-1.3737241022821516
2024-09-23 06:15:16.091423,41.89,23.939549,-0.015000815177668611,0.01835463821098102,1.0114614387535539,0.3149550229238346,-1.1768557818945498,-1.3956111311383546
2024-09-23 06:15:16.134713,41.89,23.939549,-0.016037512202267738,0.018171764051999276,1.0114614387535539,0.3149550229238346,-1.1768557818945498,-1.3956111311383546
2024-09-23 06:15:16.176986,41.89,23.939549,-0.016037512202267738,0.018171764051999276,1.0115223922496177,0.3149550229238346,-1.1768557818945498,-1.3956111311383546
2024-09-23 06:15:16.188612,41.89,23.9396,-0.013903160100075569,0.018171764051999276,1.0115223922496177,0.28871353347133843,-1.0630662837389857,-1.3780785628784449
2024-09-23 06:15:16.231847,41.89,23.9396,-0.013903160100075569,0.015915494324842603,1.0147542885441054,0.3324875378228724,-1.0937195433642715,-1.3780785628784449
2024-09-23 06:15:16.243807,41.89,23.939651,-0.013903160100075569,0.015915494324842603,1.0147542885441054,0.3324875378228724,-1.0937195433642715,-1.3299501512914895
2024-09-23 06:15:16.277067,41.89,23.939651,-0.014391029585878175,0.022440264713509,1.0147542885441054,0.3324875378228724,-1.0937195433642715,-1.3299501512914895
2024-09-23 06:15:16.288248,41.89,23.939651,-0.014391029585878175,0.022440264713509,1.0121931723498423,0.37184974532118065,-1.1111946953259408,-1.3037086618389935
2024-09-23 06:15:16.330357,41.82,23.939702,-0.015793578218854774,0.01811080599900536,1.0139006479556893,0.29747979092085736,-1.1111946953259408,-1.3037086618389935
2024-09-23 06:15:16.341958,41.82,23.939702,-0.015793578218854774,0.01811080599900536,1.0139006479556893,0.29747979092085736,-1.1199610328167677,-1.3037086618389935
2024-09-23 06:15:16.375388,41.82,23.939753,-0.014939857124674697,0.01811080599900536,1.0139006479556893,0.29747979092085736,-1.1199610328167677,-1.294999633924663
2024-09-23 06:15:16.386487,41.82,23.939753,-0.014939857124674697,0.018659531766364576,1.0143274196426437,0.3674952580444515,-1.1199610328167677,-1.294999633924663
2024-09-23 06:15:16.428478,41.82,23.939843,-0.014878899071680782,0.017379001010813116,1.0143274196426437,0.3674952580444515,-1.1156065722204744,-1.4218526205908506
2024-09-23 06:15:16.440688,41.82,23.939843,-0.014878899071680782,0.017379001010813116,1.0139006479556893,0.3674952580444515,-1.1156065722204744,-1.4218526205908506
2024-09-23 06:15:16.472243,41.82,23.939843,-0.014878899071680782,0.017379001010813116,1.0139006479556893,0.3149550229238346,-1.1111946953259408,-1.4218526205908506
2024-09-23 06:15:16.484375,41.82,23.939894,-0.01536666678604608,0.020427930488741967,1.0139006479556893,0.3149550229238346,-1.1111946953259408,-1.434973311956227
2024-09-23 06:15:16.527017,41.82,23.939945,-0.01536666678604608,0.020427930488741967,1.0100589250570406,0.3674952580444515,-1.1462025222692638,-1.2731127117902041
2024-09-23 06:15:16.538472,41.82,23.939945,-0.01713506550842347,0.020427930488741967,1.0100589250570406,0.3674952580444515,-1.1462025222692638,-1.2731127117902041
2024-09-23 06:15:16.571260,41.82,23.939945,-0.01713506550842347,0.02018409827676631,1.0145713308414066,0.29747979092085736,-1.1462025222692638,-1.2731127117902041
