Ayaan's Suite
Timestamp,Sample Rate (Hz),Time,Ax,Ay,Az,Gx,Gy,Gz
2024-09-23 20:33:21.090617,0,49.847742,0.0014923510087557158,-0.02338022115155219,0.09764974270391902,44.11764879391193,-96.25519929585457,76.200527287817
2024-09-23 20:33:21.122564,0,49.847793,0.00029846189959424716,-0.02338022115155219,0.09764974270391902,44.11764879391193,-96.25519929585457,68.18063240997792
2024-09-23 20:33:21.134291,0,49.847793,0.00029846189959424716,-0.02268379009219606,0.09710254654607277,32.08287849390507,-96.25519929585457,68.18063240997792
2024-09-23 20:33:21.176644,0,49.847887,0.001044642601720419,-0.023330473146428877,0.09745075675933246,32.08287849390507,-100.26678939585686,80.21211738781929
2024-09-23 20:33:21.219012,0,49.847887,0.001044642601720419,-0.023330473146428877,0.09745075675933246,40.106058693909645,-92.24360919585227,80.21211738781929
2024-09-23 20:33:21.230839,0,49.847938,0.000845657606494293,-0.023230986250042305,0.09745075675933246,40.106058693909645,-92.24360919585227,76.200527287817
2024-09-23 20:33:21.272707,0,49.847989,0.000845657606494293,-0.023230986250042305,0.09759999317981902,40.106058693909645,-88.23529758782387,76.200527287817
2024-09-23 20:33:21.284434,0,49.847989,0.0005471957306340564,-0.023230986250042305,0.09759999317981902,40.106058693909645,-88.23529758782387,76.200527287817
2024-09-23 20:33:21.316652,0,49.847989,0.0005471957306340564,-0.023778180888911878,0.0976994861521123,40.106058693909645,-88.23529758782387,76.200527287817
2024-09-23 20:33:21.327744,0,49.84808,0.0005471957306340564,-0.023778180888911878,0.0976994861521123,48.12595698684454,-100.26678939585686,72.1922225099802
2024-09-23 20:33:21.420990,0,49.84808,0.00029846189959424716,-0.023181236725942318,0.09755024973162574,40.106058693909645,-100.26678939585686,76.200527287817
2024-09-23 20:33:21.464146,0,49.848132,0.0008954064660419869,-0.023280723622328886,0.09755024973162574,40.106058693909645,-100.26678939585686,76.200527287817
2024-09-23 20:33:21.475808,0,49.848132,0.0008954064660419869,-0.023280723622328886,0.09750050628343246,40.106058693909645,-88.23529758782387,76.200527287817
2024-09-23 20:33:21.518040,0,49.848183,0.00034821073540793035,-0.022982261414192504,0.09779897304849887,40.106058693909645,-88.23529758782387,76.200527287817
2024-09-23 20:33:21.560065,0,49.848183,0.00034821073540793035,-0.022982261414192504,0.09779897304849887,40.106058693909645,-100.26678939585686,76.200527287817
2024-09-23 20:33:21.571653,0,49.848233,0.0006466830067647949,-0.022833026512682618,0.0976994861521123,40.106058693909645,-100.26678939585686,76.200527287817
2024-09-23 20:33:21.665438,0,49.848284,0.0005471957306340564,-0.022733528983459317,0.0976994861521123,44.11764879391193,-100.26678939585686,68.18063240997792
2024-09-23 20:33:21.759907,0,49.848376,0.0005471957306340564,-0.022733528983459317,0.0976994861521123,44.11764879391193,-96.25519929585457,72.1922225099802
2024-09-23 20:33:21.771819,0,49.848376,0.0009451553255896806,-0.022733528983459317,0.0976994861521123,44.11764879391193,-96.25519929585457,72.1922225099802
2024-09-23 20:33:21.803877,0,49.848376,0.0009451553255896806,-0.022584292562972758,0.09779897304849887,44.11764879391193,-96.25519929585457,72.1922225099802
2024-09-23 20:33:21.815568,0,49.84847,0.0009451553255896806,-0.022584292562972758,0.09779897304849887,40.106058693909645,-96.25519929585457,80.21211738781929
2024-09-23 20:33:21.857650,0,49.84847,0.0005471957306340564,-0.02338022115155219,0.0973512698629459,36.09446859390736,-104.27510100388527,80.21211738781929
2024-09-23 20:33:21.869615,0,49.84847,0.0005471957306340564,-0.02338022115155219,0.0973512698629459,36.09446859390736,-104.27510100388527,76.200527287817
2024-09-23 20:33:21.954080,0,49.848522,0.0016415871444341481,-0.02268379009219606,0.09755024973162574,36.09446859390736,-104.27510100388527,76.200527287817
2024-09-23 20:33:21.967191,0,49.848522,0.0016415871444341481,-0.02268379009219606,0.09755024973162574,48.12595698684454,-92.24360919585227,76.200527287817
2024-09-23 20:33:21.999672,0,49.848618,0.0016415871444341481,-0.02268379009219606,0.09755024973162574,48.12595698684454,-92.24360919585227,80.21211738781929
2024-09-23 20:33:22.011415,0,49.848618,0.000845657606494293,-0.023330473146428877,0.09750050628343246,44.11764879391193,-92.24360919585227,80.21211738781929
2024-09-23 20:33:22.054873,0,49.848716,0.0005969341946851222,-0.023280723622328886,0.0973512698629459,44.11764879391193,-92.24360919585227,76.200527287817
2024-09-23 20:33:22.097724,36.33,49.848716,0.0005969341946851222,-0.023280723622328886,0.0973512698629459,40.106058693909645,-96.25519929585457,80.21211738781929
2024-09-23 20:33:22.109728,36.33,49.848767,0.00044769805900669,-0.02352945757203875,0.0973512698629459,40.106058693909645,-96.25519929585457,80.21211738781929
2024-09-23 20:33:22.151867,36.33,49.848817,0.0006964318663124887,-0.02352945757203875,0.0966050877605131,44.11764879391193,-96.25519929585457,76.200527287817
2024-09-23 20:33:22.195440,36.33,49.848817,0.0006964318663124887,-0.02293251340906919,0.09779897304849887,48.12595698684454,-96.25519929585457,76.200527287817
2024-09-23 20:33:22.206641,36.33,49.848958,0.0006964318663124887,-0.02293251340906919,0.09779897304849887,48.12595698684454,-96.25519929585457,72.1922225099802
2024-09-23 20:33:22.249198,36.33,49.848958,0.0004974468710863627,-0.0228827638849692,0.09755024973162574,36.09446859390736,-100.26678939585686,76.200527287817
2024-09-23 20:33:22.291187,36.33,49.84901,0.0007959191899112484,-0.0228827638849692,0.09755024973162574,36.09446859390736,-100.26678939585686,76.200527287817
2024-09-23 20:33:22.303026,36.33,49.84901,0.0007959191899112484,-0.02338022115155219,0.09725178296655933,32.08287849390507,-92.24360919585227,76.200527287817
2024-09-23 20:33:22.345684,36.33,49.849061,0.0007959191899112484,-0.022833026512682618,0.09774922960030558,32.08287849390507,-92.24360919585227,72.1922225099802
2024-09-23 20:33:22.357579,36.33,49.849061,0.0007959191899112484,-0.022833026512682618,0.09774922960030558,40.106058693909645,-92.24360919585227,72.1922225099802
2024-09-23 20:33:22.440389,36.33,49.849111,0.0006964318663124887,-0.022833026512682618,0.09774922960030558,40.106058693909645,-100.26678939585686,76.200527287817
2024-09-23 20:33:22.452331,36.33,49.849111,0.0006964318663124887,-0.02338022115155219,0.09755024973162574,40.106058693909645,-100.26678939585686,76.200527287817
2024-09-23 20:33:22.486440,36.33,49.849111,0.0006964318663124887,-0.02338022115155219,0.09755024973162574,40.106058693909645,-88.23529758782387,76.200527287817
2024-09-23 20:33:22.497569,36.33,49.849162,0.0006466830067647949,-0.02293251340906919,0.09755024973162574,40.106058693909645,-88.23529758782387,80.21211738781929
2024-09-23 20:33:22.540478,36.33,49.849213,0.0006466830067647949,-0.02293251340906919,0.09740101331113918,44.11764879391193,-96.25519929585457,80.21211738781929
2024-09-23 20:33:22.552375,36.33,49.849213,0.0004974468710863627,-0.02293251340906919,0.09740101331113918,44.11764879391193,-96.25519929585457,80.21211738781929
2024-09-23 20:33:22.584771,36.33,49.849213,0.0004974468710863627,-0.022584292562972758,0.09745075675933246,48.12595698684454,-96.25519929585457,80.21211738781929
2024-09-23 20:33:22.595802,36.33,49.849299,0.0004974468710863627,-0.022584292562972758,0.09745075675933246,48.12595698684454,-84.22370748782159,80.21211738781929
2024-09-23 20:33:22.638259,36.33,49.849299,0.001044642601720419,-0.02303200030545576,0.09725178296655933,44.11764879391193,-100.26678939585686,76.200527287817
2024-09-23 20:33:22.681073,36.33,49.849397,0.0007461703303635545,-0.02303200030545576,0.09725178296655933,44.11764879391193,-100.26678939585686,76.200527287817
2024-09-23 20:33:22.692844,36.33,49.849397,0.0007461703303635545,-0.02278327698858263,0.09635636444363997,32.08287849390507,-96.25519929585457,76.200527287817
2024-09-23 20:33:22.735050,36.33,49.849449,0.0007461703303635545,-0.0228827638849692,0.09759999317981902,32.08287849390507,-96.25519929585457,76.200527287817
2024-09-23 20:33:22.746754,36.33,49.849449,0.0007461703303635545,-0.0228827638849692,0.09759999317981902,44.11764879391193,-96.25519929585457,76.200527287817
2024-09-23 20:33:22.779492,36.33,49.849449,0.0007461703303635545,-0.0228827638849692,0.09759999317981902,44.11764879391193,-100.26678939585686,72.1922225099802
2024-09-23 20:33:22.791176,36.33,49.849499,0.0009451553255896806,-0.02303200030545576,0.09774922960030558,44.11764879391193,-100.26678939585686,72.1922225099802
2024-09-23 20:33:22.834510,36.33,49.84955,0.0008954064660419869,-0.023181236725942318,0.09774922960030558,48.12595698684454,-92.24360919585227,80.21211738781929
2024-09-23 20:33:22.876956,36.33,49.84955,0.0008954064660419869,-0.023181236725942318,0.09675432418099966,56.14914060194492,-100.26678939585686,80.21211738781929
2024-09-23 20:33:22.888388,36.33,49.849601,0.0005471957306340564,-0.023181236725942318,0.09675432418099966,56.14914060194492,-100.26678939585686,76.200527287817
2024-09-23 20:33:22.930623,36.33,49.849689,0.0005471957306340564,-0.02308174982955575,0.09784872257259886,40.106058693909645,-92.24360919585227,80.21211738781929
2024-09-23 20:33:22.973710,36.33,49.849689,0.0004974468710863627,-0.023330473146428877,0.09784872257259886,40.106058693909645,-92.24360919585227,80.21211738781929
2024-09-23 20:33:22.985724,36.33,49.849689,0.0004974468710863627,-0.023330473146428877,0.09630662707135339,40.106058693909645,-96.25519929585457,72.1922225099802
2024-09-23 20:33:23.027724,36.33,49.849741,0.0005969341946851222,-0.023181236725942318,0.0973015264147526,36.09446859390736,-96.25519929585457,72.1922225099802
2024-09-23 20:33:23.039653,36.33,49.849741,0.0005969341946851222,-0.023181236725942318,0.0973015264147526,36.09446859390736,-88.23529758782387,72.1922225099802
2024-09-23 20:33:23.073111,36.33,49.849792,0.001044642601720419,-0.023181236725942318,0.0973015264147526,36.09446859390736,-88.23529758782387,76.200527287817
2024-09-23 20:33:23.084327,36.33,49.849792,0.001044642601720419,-0.023181236725942318,0.09779897304849887,40.106058693909645,-88.23529758782387,76.200527287817
2024-09-23 20:33:23.127604,39.04,49.849842,0.0009451553255896806,-0.02308174982955575,0.09779897304849887,40.106058693909645,-88.23529758782387,76.200527287817
2024-09-23 20:33:23.170194,39.04,49.849842,0.0009451553255896806,-0.02308174982955575,0.09779897304849887,44.11764879391193,-104.27510100388527,76.200527287817
2024-09-23 20:33:23.181873,39.04,49.849893,0.0007959191899112484,-0.02303200030545576,0.09779897304849887,44.11764879391193,-104.27510100388527,76.200527287817
2024-09-23 20:33:23.225371,39.04,49.849944,0.001044642601720419,-0.02303200030545576,0.09725178296655933,36.09446859390736,-92.24360919585227,84.22370748782159
2024-09-23 20:33:23.267509,39.04,49.849944,0.001044642601720419,-0.022982261414192504,0.09779897304849887,52.137550501942634,-92.24360919585227,84.22370748782159
2024-09-23 20:33:23.279298,39.04,49.850031,0.001044642601720419,-0.022982261414192504,0.09779897304849887,52.137550501942634,-92.24360919585227,76.200527287817
2024-09-23 20:33:23.322207,39.04,49.850031,0.00029846189959424716,-0.023230986250042305,0.09764974270391902,40.106058693909645,-100.26678939585686,76.200527287817
2024-09-23 20:33:23.363952,39.04,49.850082,0.00044769805900669,-0.023230986250042305,0.09764974270391902,40.106058693909645,-100.26678939585686,76.200527287817
2024-09-23 20:33:23.375389,39.04,49.850082,0.00044769805900669,-0.022982261414192504,0.0973015264147526,40.106058693909645,-92.24360919585227,76.200527287817
2024-09-23 20:33:23.469054,39.04,49.850133,0.0005471957306340564,-0.02238531725122294,0.09690356060148622,40.106058693909645,-92.24360919585227,76.200527287817
2024-09-23 20:33:23.512957,39.04,49.850183,0.0005969341946851222,-0.02238531725122294,0.09690356060148622,40.106058693909645,-96.25519929585457,76.200527287817
2024-09-23 20:33:23.524856,39.04,49.850183,0.0005969341946851222,-0.02293251340906919,0.0976994861521123,40.106058693909645,-96.25519929585457,76.200527287817
2024-09-23 20:33:23.557579,39.04,49.850183,0.0005969341946851222,-0.02293251340906919,0.0976994861521123,40.106058693909645,-96.25519929585457,76.200527287817
2024-09-23 20:33:23.568941,39.04,49.850234,0.000845657606494293,-0.02308174982955575,0.0976994861521123,40.106058693909645,-96.25519929585457,80.21211738781929
2024-09-23 20:33:23.612279,39.04,49.850285,0.000845657606494293,-0.02308174982955575,0.09745075675933246,40.106058693909645,-96.25519929585457,88.23529758782387
2024-09-23 20:33:23.624051,39.04,49.850285,0.0004974468710863627,-0.02308174982955575,0.09745075675933246,40.106058693909645,-96.25519929585457,88.23529758782387
2024-09-23 20:33:23.656860,39.04,49.850285,0.0004974468710863627,-0.023579196463302005,0.09715228999426605,40.106058693909645,-96.25519929585457,88.23529758782387
2024-09-23 20:33:23.668571,39.04,49.850372,0.0004974468710863627,-0.023579196463302005,0.09715228999426605,40.106058693909645,-92.24360919585227,76.200527287817
2024-09-23 20:33:23.711160,39.04,49.850372,0.0011938787373988514,-0.02352945757203875,0.0973512698629459,36.09446859390736,-96.25519929585457,84.22370748782159
2024-09-23 20:33:23.752702,39.04,49.85047,0.00034821073540793035,-0.02352945757203875,0.0973512698629459,36.09446859390736,-96.25519929585457,84.22370748782159
2024-09-23 20:33:23.764890,39.04,49.85047,0.00034821073540793035,-0.02308174982955575,0.09779897304849887,48.12595698684454,-100.26678939585686,84.22370748782159
2024-09-23 20:33:23.807651,39.04,49.850521,0.0006466830067647949,-0.023230986250042305,0.09755024973162574,48.12595698684454,-100.26678939585686,84.22370748782159
2024-09-23 20:33:23.819441,39.04,49.850521,0.0006466830067647949,-0.023230986250042305,0.09755024973162574,48.12595698684454,-100.26678939585686,84.22370748782159
2024-09-23 20:33:23.851789,39.04,49.850521,0.0006466830067647949,-0.023230986250042305,0.09755024973162574,48.12595698684454,-92.24360919585227,72.1922225099802
2024-09-23 20:33:23.863191,39.04,49.850572,0.0006466830067647949,-0.023181236725942318,0.09695331012558621,48.12595698684454,-92.24360919585227,72.1922225099802
2024-09-23 20:33:23.905976,39.04,49.850623,0.0005969341946851222,-0.02308174982955575,0.09695331012558621,44.11764879391193,-96.25519929585457,80.21211738781929
2024-09-23 20:33:23.999526,39.04,49.850623,0.0005969341946851222,-0.02308174982955575,0.0973015264147526,32.08287849390507,-96.25519929585457,80.21211738781929
2024-09-23 20:33:24.011227,39.04,49.850673,0.0003979595949556242,-0.02308174982955575,0.0973015264147526,32.08287849390507,-96.25519929585457,76.200527287817
2024-09-23 20:33:24.043890,39.04,49.850673,0.0003979595949556242,-0.02352945757203875,0.0973015264147526,32.08287849390507,-96.25519929585457,76.200527287817
2024-09-23 20:33:24.055298,39.04,49.850762,0.0003979595949556242,-0.02352945757203875,0.09725178296655933,40.106058693909645,-92.24360919585227,76.200527287817
2024-09-23 20:33:24.097210,39.04,49.850762,0.0013431148730772837,-0.0228827638849692,0.09789846602079214,36.09446859390736,-92.24360919585227,76.200527287817
2024-09-23 20:33:24.150391,38.41,49.850813,0.000845657606494293,-0.02338022115155219,0.0976994861521123,36.09446859390736,-92.24360919585227,80.21211738781929
2024-09-23 20:33:24.195460,38.41,49.850813,0.000845657606494293,-0.02338022115155219,0.0976994861521123,40.106058693909645,-100.26678939585686,72.1922225099802
2024-09-23 20:33:24.206815,38.41,49.850864,0.0006466830067647949,-0.02308174982955575,0.0976994861521123,40.106058693909645,-100.26678939585686,72.1922225099802
2024-09-23 20:33:24.239127,38.41,49.850864,0.0006466830067647949,-0.02308174982955575,0.0973512698629459,40.106058693909645,-100.26678939585686,72.1922225099802
2024-09-23 20:33:24.250208,38.41,49.850958,0.000845657606494293,-0.02308174982955575,0.0973512698629459,44.11764879391193,-92.24360919585227,76.200527287817
2024-09-23 20:33:24.292896,38.41,49.850958,0.000845657606494293,-0.022982261414192504,0.09789846602079214,48.12595698684454,-92.24360919585227,76.200527287817
2024-09-23 20:33:24.304603,38.41,49.851009,0.000845657606494293,-0.022982261414192504,0.09789846602079214,48.12595698684454,-92.24360919585227,68.18063240997792
2024-09-23 20:33:24.337669,38.41,49.851009,0.0004974468710863627,-0.022982261414192504,0.09789846602079214,48.12595698684454,-92.24360919585227,68.18063240997792
2024-09-23 20:33:24.349559,38.41,49.851009,0.0004974468710863627,-0.02362894446842532,0.09759999317981902,40.106058693909645,-96.25519929585457,76.200527287817
2024-09-23 20:33:24.391987,38.41,49.851104,0.0009451553255896806,-0.02303200030545576,0.09794820946898543,48.12595698684454,-96.25519929585457,76.200527287817
2024-09-23 20:33:24.404093,38.41,49.851104,0.0009451553255896806,-0.02303200030545576,0.09794820946898543,48.12595698684454,-88.23529758782387,76.200527287817
2024-09-23 20:33:24.437614,38.41,49.851155,0.0009948937421727254,-0.02303200030545576,0.09794820946898543,48.12595698684454,-88.23529758782387,68.18063240997792
2024-09-23 20:33:24.448712,38.41,49.851155,0.0009948937421727254,-0.023330473146428877,0.09675432418099966,40.106058693909645,-88.23529758782387,68.18063240997792
2024-09-23 20:33:24.490921,38.41,49.851206,0.0007959191899112484,-0.022833026512682618,0.0973512698629459,40.106058693909645,-96.25519929585457,76.200527287817
2024-09-23 20:33:24.532892,38.41,49.851206,0.0007959191899112484,-0.022833026512682618,0.0973512698629459,36.09446859390736,-96.25519929585457,76.200527287817
2024-09-23 20:33:24.544974,38.41,49.851257,0.000845657606494293,-0.022833026512682618,0.0973512698629459,36.09446859390736,-96.25519929585457,76.200527287817
2024-09-23 20:33:24.588065,38.41,49.851308,0.0009451553255896806,-0.022833026512682618,0.09759999317981902,32.08287849390507,-92.24360919585227,76.200527287817
2024-09-23 20:33:24.630520,38.41,49.851308,0.0009451553255896806,-0.022833026512682618,0.09755024973162574,32.08287849390507,-92.24360919585227,76.200527287817
2024-09-23 20:33:24.641889,38.41,49.851396,0.0009451553255896806,-0.022833026512682618,0.09755024973162574,40.106058693909645,-96.25519929585457,72.1922225099802
2024-09-23 20:33:24.685457,38.41,49.851396,0.0012933660135295898,-0.023429960042815445,0.09745075675933246,44.11764879391193,-96.25519929585457,76.200527287817
2024-09-23 20:33:24.728515,38.41,49.851447,0.0013431148730772837,-0.023429960042815445,0.09745075675933246,44.11764879391193,-96.25519929585457,76.200527287817
2024-09-23 20:33:24.739490,38.41,49.851447,0.0013431148730772837,-0.02293251340906919,0.09740101331113918,36.09446859390736,-96.25519929585457,76.200527287817
2024-09-23 20:33:24.782811,38.41,49.851498,0.0008954064660419869,-0.02263404056809607,0.09759999317981902,36.09446859390736,-96.25519929585457,72.1922225099802
2024-09-23 20:33:24.794975,38.41,49.851498,0.0008954064660419869,-0.02263404056809607,0.09759999317981902,48.12595698684454,-96.25519929585457,72.1922225099802
2024-09-23 20:33:24.828522,38.41,49.851548,0.0008954064660419869,-0.02263404056809607,0.09759999317981902,48.12595698684454,-92.24360919585227,80.21211738781929
2024-09-23 20:33:24.839799,38.41,49.851548,0.0004974468710863627,-0.02308174982955575,0.09740101331113918,48.12595698684454,-92.24360919585227,80.21211738781929
2024-09-23 20:33:24.882762,38.41,49.851599,0.0005471957306340564,-0.023330473146428877,0.09740101331113918,40.106058693909645,-92.24360919585227,80.21211738781929
2024-09-23 20:33:24.924821,38.41,49.851599,0.0005471957306340564,-0.023330473146428877,0.0973512698629459,40.106058693909645,-92.24360919585227,80.21211738781929
2024-09-23 20:33:25.019179,38.41,49.851599,0.0005471957306340564,-0.023330473146428877,0.0973512698629459,44.11764879391193,-92.24360919585227,80.21211738781929
2024-09-23 20:33:25.030374,38.41,49.85165,0.0008954064660419869,-0.02308174982955575,0.0973512698629459,44.11764879391193,-88.23529758782387,76.200527287817
2024-09-23 20:33:25.073568,38.41,49.85165,0.0008954064660419869,-0.02308174982955575,0.09720203344245934,52.137550501942634,-96.25519929585457,72.1922225099802
2024-09-23 20:33:25.167890,38.39,49.851737,0.000845657606494293,-0.02367869399252531,0.09720203344245934,52.137550501942634,-96.25519929585457,72.1922225099802
2024-09-23 20:33:25.179238,38.39,49.851737,0.000845657606494293,-0.02367869399252531,0.09720203344245934,44.11764879391193,-96.25519929585457,72.1922225099802
2024-09-23 20:33:25.222655,38.39,49.851788,0.00044769805900669,-0.02308174982955575,0.09750050628343246,44.11764879391193,-96.25519929585457,76.200527287817
2024-09-23 20:33:25.266513,38.39,49.851839,0.00044769805900669,-0.02308174982955575,0.09750050628343246,44.11764879391193,-92.24360919585227,80.21211738781929
2024-09-23 20:33:25.278434,38.39,49.851839,0.0006964318663124887,-0.023330473146428877,0.09710254654607277,44.11764879391193,-92.24360919585227,80.21211738781929
2024-09-23 20:33:25.311986,38.39,49.851839,0.0006964318663124887,-0.023330473146428877,0.09710254654607277,48.12595698684454,-92.24360919585227,80.21211738781929
2024-09-23 20:33:25.323579,38.39,49.851982,0.0007461703303635545,-0.023181236725942318,0.09710254654607277,48.12595698684454,-100.26678939585686,72.1922225099802
2024-09-23 20:33:25.365754,38.39,49.851982,0.0007461703303635545,-0.023181236725942318,0.09680407370509965,36.09446859390736,-96.25519929585457,76.200527287817
2024-09-23 20:33:25.376995,38.39,49.852032,0.0009948937421727254,-0.023181236725942318,0.09680407370509965,36.09446859390736,-96.25519929585457,76.200527287817
2024-09-23 20:33:25.409315,38.39,49.852032,0.0009948937421727254,-0.02362894446842532,0.09680407370509965,36.09446859390736,-96.25519929585457,76.200527287817
2024-09-23 20:33:25.421097,38.39,49.852176,0.0009948937421727254,-0.02362894446842532,0.09725178296655933,44.11764879391193,-92.24360919585227,76.200527287817
2024-09-23 20:33:25.464330,38.39,49.852176,0.00029846189959424716,-0.02263404056809607,0.09844565610273168,40.106058693909645,-96.25519929585457,76.200527287817
2024-09-23 20:33:25.476828,38.39,49.852176,0.00029846189959424716,-0.02263404056809607,0.09844565610273168,40.106058693909645,-96.25519929585457,80.21211738781929
2024-09-23 20:33:25.509885,38.39,49.852227,0.0007959191899112484,-0.02293251340906919,0.09844565610273168,40.106058693909645,-96.25519929585457,80.21211738781929
2024-09-23 20:33:25.521171,38.39,49.852227,0.0007959191899112484,-0.02293251340906919,0.09740101331113918,48.12595698684454,-96.25519929585457,80.21211738781929
2024-09-23 20:33:25.564620,38.39,49.852278,0.0005471957306340564,-0.022833026512682618,0.09755024973162574,44.11764879391193,-96.25519929585457,68.18063240997792
2024-09-23 20:33:25.607429,38.39,49.852328,0.0005471957306340564,-0.022833026512682618,0.09755024973162574,44.11764879391193,-96.25519929585457,76.200527287817
2024-09-23 20:33:25.618940,38.39,49.852328,0.0007959191899112484,-0.023330473146428877,0.0973512698629459,44.11764879391193,-96.25519929585457,76.200527287817
2024-09-23 20:33:25.663020,38.39,49.852379,0.0003979595949556242,-0.023330473146428877,0.0973512698629459,40.106058693909645,-96.25519929585457,80.21211738781929
2024-09-23 20:33:25.756804,38.39,49.852379,0.0003979595949556242,-0.023429960042815445,0.0973512698629459,40.106058693909645,-96.25519929585457,80.21211738781929
2024-09-23 20:33:25.800710,38.39,49.852379,0.0003979595949556242,-0.023429960042815445,0.09779897304849887,44.11764879391193,-96.25519929585457,80.21211738781929
2024-09-23 20:33:25.811747,38.39,49.85243,0.0007461703303635545,-0.023429960042815445,0.09779897304849887,44.11764879391193,-92.24360919585227,76.200527287817
2024-09-23 20:33:25.854469,38.39,49.85243,0.0007461703303635545,-0.02352945757203875,0.09745075675933246,32.08287849390507,-100.26678939585686,84.22370748782159
2024-09-23 20:33:25.866453,38.39,49.852517,0.0007461703303635545,-0.02352945757203875,0.09745075675933246,32.08287849390507,-100.26678939585686,84.22370748782159
2024-09-23 20:33:25.899884,38.39,49.852517,0.0013928637326249774,-0.023330473146428877,0.09764974270391902,32.08287849390507,-100.26678939585686,84.22370748782159
2024-09-23 20:33:25.911373,38.39,49.852517,0.0013928637326249774,-0.023330473146428877,0.09764974270391902,40.106058693909645,-96.25519929585457,80.21211738781929
2024-09-23 20:33:25.954153,38.39,49.852568,0.000845657606494293,-0.022982261414192504,0.09745075675933246,44.11764879391193,-92.24360919585227,80.21211738781929
2024-09-23 20:33:25.997046,38.39,49.852619,0.000845657606494293,-0.022982261414192504,0.09745075675933246,44.11764879391193,-92.24360919585227,76.200527287817
2024-09-23 20:33:26.051354,38.39,49.852619,0.0009451553255896806,-0.023230986250042305,0.09809744588947199,52.137550501942634,-100.26678939585686,76.200527287817
2024-09-23 20:33:26.094562,38.39,49.852762,0.0009948937421727254,-0.022833026512682618,0.09809744588947199,52.137550501942634,-100.26678939585686,76.200527287817
2024-09-23 20:33:26.106009,38.39,49.852762,0.0009948937421727254,-0.022833026512682618,0.09750050628343246,40.106058693909645,-88.23529758782387,76.200527287817
2024-09-23 20:33:26.148872,38.39,49.852813,0.0005471957306340564,-0.02293251340906919,0.09759999317981902,44.11764879391193,-88.23529758782387,80.21211738781929
2024-09-23 20:33:26.193728,38.71,49.852864,0.0005471957306340564,-0.02293251340906919,0.09759999317981902,44.11764879391193,-100.26678939585686,76.200527287817
2024-09-23 20:33:26.205470,38.71,49.852864,0.0009948937421727254,-0.023181236725942318,0.09759999317981902,44.11764879391193,-100.26678939585686,76.200527287817
2024-09-23 20:33:26.238371,38.71,49.852864,0.0009948937421727254,-0.023181236725942318,0.09759999317981902,44.11764879391193,-100.26678939585686,76.200527287817
2024-09-23 20:33:26.250180,38.71,49.852956,0.001044642601720419,-0.023330473146428877,0.09759999317981902,44.11764879391193,-92.24360919585227,76.200527287817
2024-09-23 20:33:26.292927,38.71,49.852956,0.001044642601720419,-0.023330473146428877,0.09784872257259886,44.11764879391193,-88.23529758782387,92.24360919585227
2024-09-23 20:33:26.304407,38.71,49.853007,0.0007959191899112484,-0.023330473146428877,0.09784872257259886,44.11764879391193,-88.23529758782387,92.24360919585227
2024-09-23 20:33:26.336160,38.71,49.853007,0.0007959191899112484,-0.023479709566915436,0.09784872257259886,44.11764879391193,-88.23529758782387,92.24360919585227
2024-09-23 20:33:26.347901,38.71,49.853102,0.0007959191899112484,-0.023479709566915436,0.09759999317981902,44.11764879391193,-92.24360919585227,72.1922225099802
2024-09-23 20:33:26.392329,38.71,49.853102,0.0004974468710863627,-0.02278327698858263,0.09740101331113918,36.09446859390736,-88.23529758782387,72.1922225099802
2024-09-23 20:33:26.404165,38.71,49.853102,0.0004974468710863627,-0.02278327698858263,0.09740101331113918,36.09446859390736,-88.23529758782387,76.200527287817
2024-09-23 20:33:26.435861,38.71,49.853153,0.0006964318663124887,-0.02308174982955575,0.09740101331113918,36.09446859390736,-88.23529758782387,76.200527287817
2024-09-23 20:33:26.447786,38.71,49.853153,0.0006964318663124887,-0.02308174982955575,0.09755024973162574,40.106058693909645,-96.25519929585457,76.200527287817
2024-09-23 20:33:26.490400,38.71,49.853153,0.0006964318663124887,-0.02308174982955575,0.09755024973162574,40.106058693909645,-96.25519929585457,80.21211738781929
2024-09-23 20:33:26.533202,38.71,49.853204,0.0003979595949556242,-0.02338022115155219,0.09755024973162574,40.106058693909645,-96.25519929585457,80.21211738781929
2024-09-23 20:33:26.544578,38.71,49.853204,0.0003979595949556242,-0.02338022115155219,0.0973015264147526,40.106058693909645,-96.25519929585457,80.21211738781929
2024-09-23 20:33:26.587631,38.71,49.853255,0.000845657606494293,-0.02313149783467906,0.0976994861521123,52.137550501942634,-96.25519929585457,80.21211738781929
2024-09-23 20:33:26.629609,38.71,49.853255,0.000845657606494293,-0.02313149783467906,0.0976994861521123,52.137550501942634,-96.25519929585457,76.200527287817
2024-09-23 20:33:26.641659,38.71,49.853305,0.0007959191899112484,-0.022484804147609512,0.09849540562683168,52.137550501942634,-96.25519929585457,76.200527287817
2024-09-23 20:33:26.683725,38.71,49.853356,0.0009451553255896806,-0.022833026512682618,0.09849540562683168,40.106058693909645,-92.24360919585227,72.1922225099802
2024-09-23 20:33:26.726316,38.71,49.853356,0.0009451553255896806,-0.022833026512682618,0.09710254654607277,36.09446859390736,-92.24360919585227,72.1922225099802
2024-09-23 20:33:26.738270,38.71,49.853443,0.0005471957306340564,-0.022833026512682618,0.09710254654607277,36.09446859390736,-92.24360919585227,80.21211738781929
2024-09-23 20:33:26.782183,38.71,49.853541,0.0005471957306340564,-0.02293251340906919,0.09715228999426605,40.106058693909645,-96.25519929585457,72.1922225099802
2024-09-23 20:33:26.824313,38.71,49.853541,0.0011938787373988514,-0.02303200030545576,0.09715228999426605,40.106058693909645,-96.25519929585457,72.1922225099802
2024-09-23 20:33:26.835817,38.71,49.853541,0.0011938787373988514,-0.02303200030545576,0.09725178296655933,40.106058693909645,-96.25519929585457,80.21211738781929
2024-09-23 20:33:26.878727,38.71,49.853592,0.0009948937421727254,-0.023479709566915436,0.09725178296655933,36.09446859390736,-92.24360919585227,80.21211738781929
2024-09-23 20:33:26.921629,38.71,49.853643,0.0009948937421727254,-0.023479709566915436,0.09725178296655933,36.09446859390736,-92.24360919585227,80.21211738781929
2024-09-23 20:33:26.933376,38.71,49.853643,0.000845657606494293,-0.02303200030545576,0.09789846602079214,40.106058693909645,-92.24360919585227,80.21211738781929
2024-09-23 20:33:26.975939,38.71,49.853693,0.0009948937421727254,-0.023479709566915436,0.09789846602079214,40.106058693909645,-88.23529758782387,80.21211738781929
2024-09-23 20:33:26.988180,38.71,49.853693,0.0009948937421727254,-0.023479709566915436,0.09764974270391902,40.106058693909645,-88.23529758782387,80.21211738781929
2024-09-23 20:33:27.022141,38.71,49.853693,0.0009948937421727254,-0.023479709566915436,0.09764974270391902,40.106058693909645,-104.27510100388527,64.16903547978401
2024-09-23 20:33:27.033220,38.71,49.853744,0.0009948937421727254,-0.02278327698858263,0.09764974270391902,40.106058693909645,-104.27510100388527,64.16903547978401
2024-09-23 20:33:27.065778,38.71,49.853744,0.0009948937421727254,-0.02278327698858263,0.09720203344245934,40.106058693909645,-104.27510100388527,64.16903547978401
2024-09-23 20:33:27.077026,38.71,49.853795,0.0003979595949556242,-0.02278327698858263,0.09720203344245934,48.12595698684454,-96.25519929585457,72.1922225099802
2024-09-23 20:33:27.120147,38.71,49.853795,0.0003979595949556242,-0.023927417309398437,0.0973512698629459,36.09446859390736,-92.24360919585227,72.1922225099802
2024-09-23 20:33:27.131905,38.71,49.853882,0.0003979595949556242,-0.023927417309398437,0.0973512698629459,36.09446859390736,-92.24360919585227,72.1922225099802
2024-09-23 20:33:27.164953,38.71,49.853882,0.0009948937421727254,-0.023330473146428877,0.0973512698629459,36.09446859390736,-92.24360919585227,72.1922225099802
2024-09-23 20:33:27.176387,38.71,49.853882,0.0009948937421727254,-0.023330473146428877,0.09759999317981902,32.08287849390507,-100.26678939585686,76.200527287817
2024-09-23 20:33:27.218389,39.58,49.853933,0.0011938787373988514,-0.02303200030545576,0.09715228999426605,44.11764879391193,-100.26678939585686,76.200527287817
2024-09-23 20:33:27.230083,39.58,49.853933,0.0011938787373988514,-0.02303200030545576,0.09715228999426605,44.11764879391193,-96.25519929585457,76.200527287817
2024-09-23 20:33:27.263593,39.58,49.853984,0.0011938787373988514,-0.02303200030545576,0.09715228999426605,44.11764879391193,-96.25519929585457,80.21211738781929
2024-09-23 20:33:27.275524,39.58,49.853984,0.0003979595949556242,-0.02293251340906919,0.09720203344245934,44.11764879391193,-96.25519929585457,80.21211738781929
2024-09-23 20:33:27.318081,39.58,49.854035,0.0012933660135295898,-0.023230986250042305,0.09720203344245934,44.11764879391193,-92.24360919585227,76.200527287817
2024-09-23 20:33:27.329783,39.58,49.854035,0.0012933660135295898,-0.023230986250042305,0.09740101331113918,44.11764879391193,-92.24360919585227,76.200527287817
2024-09-23 20:33:27.361832,39.58,49.854035,0.0012933660135295898,-0.023230986250042305,0.09740101331113918,48.12595698684454,-80.21211738781929,80.21211738781929
2024-09-23 20:33:27.373881,39.58,49.854085,0.00034821073540793035,-0.02293251340906919,0.09740101331113918,48.12595698684454,-80.21211738781929,80.21211738781929
2024-09-23 20:33:27.406430,39.58,49.854085,0.00034821073540793035,-0.02293251340906919,0.09789846602079214,48.12595698684454,-80.21211738781929,80.21211738781929
2024-09-23 20:33:27.417855,39.58,49.854136,0.001044642601720419,-0.02293251340906919,0.09789846602079214,40.106058693909645,-92.24360919585227,80.21211738781929
2024-09-23 20:33:27.460084,39.58,49.854136,0.001044642601720419,-0.023230986250042305,0.09764974270391902,44.11764879391193,-96.25519929585457,80.21211738781929
2024-09-23 20:33:27.472092,39.58,49.854136,0.001044642601720419,-0.023230986250042305,0.09764974270391902,44.11764879391193,-96.25519929585457,76.200527287817
2024-09-23 20:33:27.504078,39.58,49.854223,0.001044642601720419,-0.023230986250042305,0.09764974270391902,44.11764879391193,-96.25519929585457,76.200527287817
2024-09-23 20:33:27.515695,39.58,49.854223,0.0005471957306340564,-0.023230986250042305,0.09764974270391902,44.11764879391193,-96.25519929585457,76.200527287817
2024-09-23 20:33:27.558822,39.58,49.854223,0.0005471957306340564,-0.023280723622328886,0.09750050628343246,40.106058693909645,-100.26678939585686,76.200527287817
2024-09-23 20:33:27.570232,39.58,49.854275,0.0005471957306340564,-0.023280723622328886,0.09750050628343246,40.106058693909645,-100.26678939585686,76.200527287817
2024-09-23 20:33:27.654643,39.58,49.854275,0.00034821073540793035,-0.023429960042815445,0.09740101331113918,40.106058693909645,-100.26678939585686,76.200527287817
2024-09-23 20:33:27.666458,39.58,49.854275,0.00034821073540793035,-0.023429960042815445,0.09740101331113918,40.106058693909645,-96.25519929585457,76.200527287817
2024-09-23 20:33:27.709373,39.58,49.854325,0.0006466830067647949,-0.02303200030545576,0.09750050628343246,44.11764879391193,-96.25519929585457,76.200527287817
2024-09-23 20:33:27.751732,39.58,49.854376,0.0011938787373988514,-0.02303200030545576,0.09750050628343246,44.11764879391193,-96.25519929585457,76.200527287817
2024-09-23 20:33:27.762891,39.58,49.854376,0.0011938787373988514,-0.0228827638849692,0.09750050628343246,44.11764879391193,-96.25519929585457,76.200527287817
2024-09-23 20:33:27.805983,39.58,49.854427,0.0003979595949556242,-0.02313149783467906,0.0976994861521123,44.11764879391193,-88.23529758782387,76.200527287817
2024-09-23 20:33:27.847909,39.58,49.854427,0.0003979595949556242,-0.02313149783467906,0.0976994861521123,40.106058693909645,-96.25519929585457,76.200527287817
2024-09-23 20:33:27.859097,39.58,49.854518,0.0008954064660419869,-0.02313149783467906,0.0976994861521123,40.106058693909645,-96.25519929585457,80.21211738781929
2024-09-23 20:33:27.900929,39.58,49.854616,0.0008954064660419869,-0.02313149783467906,0.09764974270391902,48.12595698684454,-100.26678939585686,76.200527287817
2024-09-23 20:33:27.913058,39.58,49.854616,0.0011441298778511575,-0.02313149783467906,0.09764974270391902,48.12595698684454,-100.26678939585686,76.200527287817
2024-09-23 20:33:27.944914,39.58,49.854616,0.0011441298778511575,-0.02352945757203875,0.0973015264147526,48.12595698684454,-100.26678939585686,76.200527287817
2024-09-23 20:33:27.956355,39.58,49.854711,0.0011441298778511575,-0.02352945757203875,0.0973015264147526,40.106058693909645,-104.27510100388527,80.21211738781929
2024-09-23 20:33:27.999635,39.58,49.854711,0.0001989745997294981,-0.023230986250042305,0.09740101331113918,36.09446859390736,-100.26678939585686,80.21211738781929
2024-09-23 20:33:28.011322,39.58,49.854711,0.0001989745997294981,-0.023230986250042305,0.09740101331113918,36.09446859390736,-100.26678939585686,80.21211738781929
2024-09-23 20:33:28.044173,39.58,49.854762,0.0001989745997294981,-0.023230986250042305,0.09740101331113918,36.09446859390736,-100.26678939585686,80.21211738781929
2024-09-23 20:33:28.097277,39.58,49.854762,0.00034821073540793035,-0.02293251340906919,0.09745075675933246,44.11764879391193,-100.26678939585686,80.21211738781929
2024-09-23 20:33:28.109344,39.58,49.854762,0.00034821073540793035,-0.02293251340906919,0.09745075675933246,44.11764879391193,-100.26678939585686,76.200527287817
2024-09-23 20:33:28.142759,39.58,49.854813,0.0005969341946851222,-0.02362894446842532,0.09745075675933246,44.11764879391193,-100.26678939585686,76.200527287817
2024-09-23 20:33:28.154268,39.58,49.854813,0.0005969341946851222,-0.02362894446842532,0.09745075675933246,36.09446859390736,-88.23529758782387,76.200527287817
2024-09-23 20:33:28.187305,39.58,49.854813,0.0005969341946851222,-0.02362894446842532,0.09745075675933246,36.09446859390736,-88.23529758782387,76.200527287817
2024-09-23 20:33:28.198840,39.58,49.854863,0.0010943914612681128,-0.02303200030545576,0.0973015264147526,44.11764879391193,-88.23529758782387,76.200527287817
2024-09-23 20:33:28.240683,40.21,49.854914,0.0006964318663124887,-0.02303200030545576,0.0973015264147526,44.11764879391193,-88.23529758782387,80.21211738781929
2024-09-23 20:33:28.251898,40.21,49.854914,0.0006964318663124887,-0.023181236725942318,0.09710254654607277,44.11764879391193,-88.23529758782387,80.21211738781929
2024-09-23 20:33:28.284527,40.21,49.854914,0.0006964318663124887,-0.023181236725942318,0.09710254654607277,48.12595698684454,-88.23529758782387,80.21211738781929
2024-09-23 20:33:28.295792,40.21,49.854965,0.0009451553255896806,-0.023181236725942318,0.09710254654607277,48.12595698684454,-100.26678939585686,76.200527287817
2024-09-23 20:33:28.338441,40.21,49.854965,0.0009451553255896806,-0.023181236725942318,0.09794820946898543,36.09446859390736,-92.24360919585227,80.21211738781929
2024-09-23 20:33:28.350259,40.21,49.855055,0.0006466830067647949,-0.023181236725942318,0.09794820946898543,36.09446859390736,-92.24360919585227,80.21211738781929
2024-09-23 20:33:28.383387,40.21,49.855055,0.0006466830067647949,-0.023181236725942318,0.09794820946898543,36.09446859390736,-92.24360919585227,80.21211738781929
2024-09-23 20:33:28.395209,40.21,49.855149,0.0006466830067647949,-0.023181236725942318,0.0973015264147526,44.11764879391193,-92.24360919585227,72.1922225099802
2024-09-23 20:33:28.437666,40.21,49.855149,0.0006964318663124887,-0.023280723622328886,0.09690356060148622,40.106058693909645,-100.26678939585686,72.1922225099802
2024-09-23 20:33:28.449617,40.21,49.855149,0.0006964318663124887,-0.023280723622328886,0.09690356060148622,40.106058693909645,-100.26678939585686,76.200527287817
2024-09-23 20:33:28.481668,40.21,49.855201,0.0007959191899112484,-0.023280723622328886,0.09690356060148622,40.106058693909645,-100.26678939585686,76.200527287817
2024-09-23 20:33:28.493670,40.21,49.855201,0.0007959191899112484,-0.022982261414192504,0.09779897304849887,44.11764879391193,-96.25519929585457,76.200527287817
2024-09-23 20:33:28.537010,40.21,49.855251,0.0007959191899112484,-0.023230986250042305,0.09755024973162574,44.11764879391193,-96.25519929585457,76.200527287817
2024-09-23 20:33:28.580220,40.21,49.855302,0.0007959191899112484,-0.023230986250042305,0.09755024973162574,44.11764879391193,-92.24360919585227,76.200527287817
2024-09-23 20:33:28.591947,40.21,49.855302,0.0011441298778511575,-0.023230986250042305,0.09755024973162574,44.11764879391193,-92.24360919585227,76.200527287817
2024-09-23 20:33:28.634449,40.21,49.855353,0.0011441298778511575,-0.023429960042815445,0.09710254654607277,44.11764879391193,-96.25519929585457,80.21211738781929
2024-09-23 20:33:28.677002,40.21,49.855353,9.948729986474904e-05,-0.02313149783467906,0.0973015264147526,44.11764879391193,-96.25519929585457,80.21211738781929
2024-09-23 20:33:28.688676,40.21,49.855353,9.948729986474904e-05,-0.02313149783467906,0.0973015264147526,52.137550501942634,-88.23529758782387,84.22370748782159
2024-09-23 20:33:28.731861,40.21,49.855403,0.0003979595949556242,-0.023181236725942318,0.09759999317981902,44.11764879391193,-92.24360919585227,84.22370748782159
2024-09-23 20:33:28.774022,40.21,49.855491,0.0003979595949556242,-0.023181236725942318,0.09759999317981902,44.11764879391193,-92.24360919585227,72.1922225099802
2024-09-23 20:33:28.786244,40.21,49.855491,0.00029846189959424716,-0.02263404056809607,0.09705279702197278,44.11764879391193,-92.24360919585227,72.1922225099802
2024-09-23 20:33:28.829287,40.21,49.855542,0.0004974468710863627,-0.02362894446842532,0.09745075675933246,44.11764879391193,-96.25519929585457,80.21211738781929
2024-09-23 20:33:28.871579,40.21,49.855542,0.0004974468710863627,-0.02362894446842532,0.09745075675933246,40.106058693909645,-96.25519929585457,80.21211738781929
2024-09-23 20:33:28.882571,40.21,49.855593,9.948729986474904e-05,-0.023230986250042305,0.09745075675933246,40.106058693909645,-96.25519929585457,72.1922225099802
2024-09-23 20:33:28.925664,40.21,49.855593,9.948729986474904e-05,-0.023230986250042305,0.09764974270391902,40.106058693909645,-96.25519929585457,72.1922225099802
2024-09-23 20:33:28.968243,40.21,49.855593,9.948729986474904e-05,-0.023230986250042305,0.09764974270391902,48.12595698684454,-96.25519929585457,72.1922225099802
2024-09-23 20:33:29.020712,40.21,49.855643,0.0006964318663124887,-0.023230986250042305,0.09764974270391902,48.12595698684454,-96.25519929585457,76.200527287817
2024-09-23 20:33:29.032580,40.21,49.855643,0.0006964318663124887,-0.02338022115155219,0.09725178296655933,48.12595698684454,-96.25519929585457,76.200527287817
2024-09-23 20:33:29.065299,40.21,49.855643,0.0006964318663124887,-0.02338022115155219,0.09725178296655933,36.09446859390736,-96.25519929585457,76.200527287817
2024-09-23 20:33:29.076837,40.21,49.855734,0.000845657606494293,-0.023579196463302005,0.09725178296655933,36.09446859390736,-92.24360919585227,76.200527287817
2024-09-23 20:33:29.119398,40.21,49.855786,0.000845657606494293,-0.023579196463302005,0.09794820946898543,36.09446859390736,-96.25519929585457,80.21211738781929
2024-09-23 20:33:29.131175,40.21,49.855786,0.0012436275969465451,-0.023579196463302005,0.09794820946898543,36.09446859390736,-96.25519929585457,80.21211738781929
2024-09-23 20:33:29.163849,40.21,49.855786,0.0012436275969465451,-0.02313149783467906,0.0973512698629459,36.09446859390736,-96.25519929585457,80.21211738781929
2024-09-23 20:33:29.175472,40.21,49.855837,0.0012436275969465451,-0.02313149783467906,0.0973512698629459,48.12595698684454,-92.24360919585227,76.200527287817
2024-09-23 20:33:29.217279,40.21,49.855837,0.0007959191899112484,-0.02303200030545576,0.09764974270391902,36.09446859390736,-92.24360919585227,76.200527287817
2024-09-23 20:33:29.228959,40.21,49.855837,0.0007959191899112484,-0.02303200030545576,0.09764974270391902,36.09446859390736,-92.24360919585227,80.21211738781929
2024-09-23 20:33:29.260800,40.58,49.855979,0.0007959191899112484,-0.02303200030545576,0.09764974270391902,36.09446859390736,-92.24360919585227,80.21211738781929
2024-09-23 20:33:29.313711,40.58,49.855979,0.0012933660135295898,-0.02362894446842532,0.09764974270391902,44.11764879391193,-92.24360919585227,80.21211738781929
2024-09-23 20:33:29.325463,40.58,49.855979,0.0012933660135295898,-0.02362894446842532,0.09764974270391902,44.11764879391193,-84.22370748782159,76.200527287817
2024-09-23 20:33:29.358731,40.58,49.85603,0.0013431148730772837,-0.02362894446842532,0.09764974270391902,44.11764879391193,-84.22370748782159,76.200527287817
2024-09-23 20:33:29.369881,40.58,49.85603,0.0013431148730772837,-0.022833026512682618,0.0973512698629459,52.137550501942634,-92.24360919585227,76.200527287817
2024-09-23 20:33:29.413226,40.58,49.856081,0.00014922575204880957,-0.02308174982955575,0.09745075675933246,40.106058693909645,-92.24360919585227,72.1922225099802
2024-09-23 20:33:29.455757,40.58,49.856081,0.00014922575204880957,-0.02308174982955575,0.09745075675933246,40.106058693909645,-100.26678939585686,64.16903547978401
2024-09-23 20:33:29.467069,40.58,49.856131,0.0005969341946851222,-0.023280723622328886,0.09774922960030558,40.106058693909645,-100.26678939585686,64.16903547978401
2024-09-23 20:33:29.510209,40.58,49.856182,0.0009451553255896806,-0.023280723622328886,0.09774922960030558,36.09446859390736,-96.25519929585457,76.200527287817
2024-09-23 20:33:29.522391,40.58,49.856182,0.0009451553255896806,-0.023330473146428877,0.09774922960030558,36.09446859390736,-96.25519929585457,76.200527287817
2024-09-23 20:33:29.555221,40.58,49.856182,0.0009451553255896806,-0.023330473146428877,0.0976994861521123,44.11764879391193,-100.26678939585686,76.200527287817
2024-09-23 20:33:29.608164,40.58,49.856273,0.0011441298778511575,-0.023778180888911878,0.09740101331113918,44.11764879391193,-100.26678939585686,80.21211738781929
2024-09-23 20:33:29.620268,40.58,49.856273,0.0011441298778511575,-0.023778180888911878,0.09740101331113918,40.106058693909645,-100.26678939585686,80.21211738781929
2024-09-23 20:33:29.652867,40.58,49.856368,0.0011441298778511575,-0.023778180888911878,0.09740101331113918,40.106058693909645,-96.25519929585457,80.21211738781929
2024-09-23 20:33:29.664077,40.58,49.856368,0.0006964318663124887,-0.02308174982955575,0.0976994861521123,40.106058693909645,-96.25519929585457,80.21211738781929
2024-09-23 20:33:29.706276,40.58,49.85642,0.0010943914612681128,-0.02303200030545576,0.0976994861521123,44.11764879391193,-92.24360919585227,80.21211738781929
2024-09-23 20:33:29.748358,40.58,49.85642,0.0010943914612681128,-0.02303200030545576,0.0973015264147526,40.106058693909645,-92.24360919585227,80.21211738781929
2024-09-23 20:33:29.759822,40.58,49.85647,0.0007959191899112484,-0.02303200030545576,0.0973015264147526,40.106058693909645,-88.23529758782387,80.21211738781929
2024-09-23 20:33:29.803229,40.58,49.856521,0.0007959191899112484,-0.02313149783467906,0.09755024973162574,40.106058693909645,-92.24360919585227,80.21211738781929
2024-09-23 20:33:29.845382,40.58,49.856521,0.0009451553255896806,-0.02313149783467906,0.09755024973162574,40.106058693909645,-92.24360919585227,80.21211738781929
2024-09-23 20:33:29.857349,40.58,49.856521,0.0009451553255896806,-0.023330473146428877,0.09784872257259886,40.106058693909645,-96.25519929585457,80.21211738781929
2024-09-23 20:33:29.900569,40.58,49.856612,0.0007959191899112484,-0.023479709566915436,0.09675432418099966,40.106058693909645,-96.25519929585457,80.21211738781929
2024-09-23 20:33:29.912303,40.58,49.856612,0.0007959191899112484,-0.023479709566915436,0.09675432418099966,40.106058693909645,-92.24360919585227,80.21211738781929
2024-09-23 20:33:29.944631,40.58,49.856664,0.0007461703303635545,-0.023479709566915436,0.09675432418099966,40.106058693909645,-92.24360919585227,76.200527287817
2024-09-23 20:33:29.956008,40.58,49.856664,0.0007461703303635545,-0.0225345536717095,0.09755024973162574,44.11764879391193,-92.24360919585227,76.200527287817
2024-09-23 20:33:29.998830,40.58,49.856714,0.0008954064660419869,-0.023230986250042305,0.0973015264147526,44.11764879391193,-100.26678939585686,76.200527287817
2024-09-23 20:33:30.042724,40.58,49.856714,0.0008954064660419869,-0.023230986250042305,0.0973015264147526,44.11764879391193,-100.26678939585686,80.21211738781929
2024-09-23 20:33:30.054463,40.58,49.856765,0.0009451553255896806,-0.02293251340906919,0.0973015264147526,44.11764879391193,-100.26678939585686,80.21211738781929
2024-09-23 20:33:30.096864,40.58,49.856816,0.00024872343554318134,-0.02293251340906919,0.09725178296655933,32.08287849390507,-88.23529758782387,80.21211738781929
2024-09-23 20:33:30.140533,40.58,49.856816,0.00024872343554318134,-0.0228827638849692,0.09764974270391902,32.08287849390507,-88.23529758782387,80.21211738781929
2024-09-23 20:33:30.156600,40.58,49.856904,0.00024872343554318134,-0.0228827638849692,0.09764974270391902,32.08287849390507,-100.26678939585686,80.21211738781929
2024-09-23 20:33:30.188339,40.58,49.856904,0.0005471957306340564,-0.02278327698858263,0.09740101331113918,32.08287849390507,-100.26678939585686,80.21211738781929
2024-09-23 20:33:30.199463,40.58,49.856904,0.0005471957306340564,-0.02278327698858263,0.09740101331113918,44.11764879391193,-92.24360919585227,76.200527287817
2024-09-23 20:33:30.242705,40.58,49.856956,0.0003979595949556242,-0.02278327698858263,0.09740101331113918,44.11764879391193,-92.24360919585227,76.200527287817
2024-09-23 20:33:30.285728,40.73,49.856956,0.0003979595949556242,-0.02293251340906919,0.09740101331113918,44.11764879391193,-92.24360919585227,76.200527287817
2024-09-23 20:33:30.338151,40.73,49.856956,0.0003979595949556242,-0.02293251340906919,0.09740101331113918,40.106058693909645,-96.25519929585457,72.1922225099802
2024-09-23 20:33:30.350093,40.73,49.857007,0.0004974468710863627,-0.02293251340906919,0.09740101331113918,40.106058693909645,-96.25519929585457,72.1922225099802
2024-09-23 20:33:30.382752,40.73,49.857007,0.0004974468710863627,-0.02313149783467906,0.09779897304849887,40.106058693909645,-96.25519929585457,72.1922225099802
2024-09-23 20:33:30.394457,40.73,49.857057,0.0004974468710863627,-0.02313149783467906,0.09779897304849887,40.106058693909645,-96.25519929585457,76.200527287817
2024-09-23 20:33:30.437145,40.73,49.857057,0.0005471957306340564,-0.02308174982955575,0.09779897304849887,44.11764879391193,-100.26678939585686,76.200527287817
2024-09-23 20:33:30.479516,40.73,49.857108,0.00034821073540793035,-0.02308174982955575,0.09779897304849887,44.11764879391193,-100.26678939585686,76.200527287817
2024-09-23 20:33:30.490839,40.73,49.857108,0.00034821073540793035,-0.02278327698858263,0.09725178296655933,36.09446859390736,-96.25519929585457,76.200527287817
2024-09-23 20:33:30.533230,40.73,49.857159,0.0003979595949556242,-0.023330473146428877,0.09715228999426605,36.09446859390736,-96.25519929585457,76.200527287817
2024-09-23 20:33:30.545097,40.73,49.857159,0.0003979595949556242,-0.023330473146428877,0.09715228999426605,44.11764879391193,-96.25519929585457,76.200527287817
2024-09-23 20:33:30.577335,40.73,49.857159,0.0003979595949556242,-0.023330473146428877,0.09715228999426605,44.11764879391193,-96.25519929585457,76.200527287817
2024-09-23 20:33:30.588554,40.73,49.857297,0.0,-0.02308174982955575,0.09690356060148622,44.11764879391193,-96.25519929585457,76.200527287817
2024-09-23 20:33:30.631766,40.73,49.857347,0.0004974468710863627,-0.02308174982955575,0.09690356060148622,44.11764879391193,-96.25519929585457,76.200527287817
2024-09-23 20:33:30.643670,40.73,49.857347,0.0004974468710863627,-0.022733528983459317,0.09690356060148622,44.11764879391193,-96.25519929585457,76.200527287817
2024-09-23 20:33:30.676145,40.73,49.857347,0.0004974468710863627,-0.022733528983459317,0.0976994861521123,44.11764879391193,-100.26678939585686,76.200527287817
2024-09-23 20:33:30.687899,40.73,49.857398,0.001044642601720419,-0.022733528983459317,0.0976994861521123,44.11764879391193,-100.26678939585686,76.200527287817
2024-09-23 20:33:30.730522,40.73,49.857489,0.001044642601720419,-0.023330473146428877,0.0976994861521123,40.106058693909645,-84.22370748782159,80.21211738781929
2024-09-23 20:33:30.773387,40.73,49.857489,0.0012933660135295898,-0.023230986250042305,0.0976994861521123,40.106058693909645,-84.22370748782159,80.21211738781929
2024-09-23 20:33:30.784497,40.73,49.857489,0.0012933660135295898,-0.023230986250042305,0.09784872257259886,40.106058693909645,-96.25519929585457,72.1922225099802
2024-09-23 20:33:30.827059,40.73,49.857541,0.0007959191899112484,-0.02268379009219606,0.09789846602079214,44.11764879391193,-96.25519929585457,72.1922225099802
2024-09-23 20:33:30.838650,40.73,49.857541,0.0007959191899112484,-0.02268379009219606,0.09789846602079214,44.11764879391193,-92.24360919585227,72.1922225099802
2024-09-23 20:33:30.871235,40.73,49.857592,0.0004974468710863627,-0.02268379009219606,0.09789846602079214,44.11764879391193,-92.24360919585227,76.200527287817
2024-09-23 20:33:30.883197,40.73,49.857592,0.0004974468710863627,-0.02268379009219606,0.09705279702197278,44.11764879391193,-92.24360919585227,76.200527287817
2024-09-23 20:33:30.925384,40.73,49.857643,0.0004974468710863627,-0.023479709566915436,0.09774922960030558,44.11764879391193,-96.25519929585457,80.21211738781929
2024-09-23 20:33:30.968143,40.73,49.857643,0.0004974468710863627,-0.023479709566915436,0.09774922960030558,48.12595698684454,-92.24360919585227,80.21211738781929
2024-09-23 20:33:30.980234,40.73,49.857693,0.0004974468710863627,-0.023479709566915436,0.09774922960030558,48.12595698684454,-92.24360919585227,80.21211738781929
2024-09-23 20:33:31.023233,40.73,49.857693,0.000845657606494293,-0.02303200030545576,0.09710254654607277,44.11764879391193,-96.25519929585457,76.200527287817
2024-09-23 20:33:31.066241,40.73,49.857744,0.0014923510087557158,-0.023280723622328886,0.09710254654607277,44.11764879391193,-96.25519929585457,76.200527287817
2024-09-23 20:33:31.077820,40.73,49.857744,0.0014923510087557158,-0.023280723622328886,0.09784872257259886,44.11764879391193,-92.24360919585227,76.200527287817
2024-09-23 20:33:31.120426,40.73,49.857831,0.0007959191899112484,-0.022982261414192504,0.09715228999426605,48.12595698684454,-92.24360919585227,76.200527287817
2024-09-23 20:33:31.164913,40.73,49.857882,0.0007959191899112484,-0.022982261414192504,0.09715228999426605,48.12595698684454,-100.26678939585686,72.1922225099802
2024-09-23 20:33:31.175819,40.73,49.857882,0.0003979595949556242,-0.023280723622328886,0.09690356060148622,48.12595698684454,-100.26678939585686,72.1922225099802
2024-09-23 20:33:31.218271,40.73,49.857933,0.0012436275969465451,-0.022584292562972758,0.09690356060148622,28.07457030097246,-88.23529758782387,76.200527287817
2024-09-23 20:33:31.262782,40.73,49.857933,0.0012436275969465451,-0.022584292562972758,0.09725178296655933,48.12595698684454,-104.27510100388527,76.200527287817
2024-09-23 20:33:31.273930,40.73,49.857983,0.0004974468710863627,-0.022584292562972758,0.09725178296655933,48.12595698684454,-104.27510100388527,64.16903547978401
2024-09-23 20:33:31.306091,40.87,49.857983,0.0004974468710863627,-0.02293251340906919,0.09725178296655933,48.12595698684454,-104.27510100388527,64.16903547978401
2024-09-23 20:33:31.317893,40.87,49.857983,0.0004974468710863627,-0.02293251340906919,0.09759999317981902,48.12595698684454,-104.27510100388527,64.16903547978401
2024-09-23 20:33:31.360268,40.87,49.858074,0.0004974468710863627,-0.02293251340906919,0.09759999317981902,48.12595698684454,-92.24360919585227,76.200527287817
2024-09-23 20:33:31.372350,40.87,49.858074,0.0007461703303635545,-0.02313149783467906,0.09759999317981902,48.12595698684454,-92.24360919585227,76.200527287817
2024-09-23 20:33:31.406239,40.87,49.858074,0.0007461703303635545,-0.02313149783467906,0.0973512698629459,40.106058693909645,-92.24360919585227,76.200527287817
2024-09-23 20:33:31.417941,40.87,49.858126,0.0003979595949556242,-0.02313149783467906,0.0973512698629459,40.106058693909645,-96.25519929585457,76.200527287817
2024-09-23 20:33:31.460417,40.87,49.858177,0.0003979595949556242,-0.022982261414192504,0.09725178296655933,40.106058693909645,-92.24360919585227,76.200527287817
2024-09-23 20:33:31.502268,40.87,49.858177,0.0009451553255896806,-0.022982261414192504,0.09725178296655933,40.106058693909645,-92.24360919585227,76.200527287817
2024-09-23 20:33:31.517924,40.87,49.858177,0.0009451553255896806,-0.02338022115155219,0.09685382322919964,36.09446859390736,-92.24360919585227,72.1922225099802
2024-09-23 20:33:31.549916,40.87,49.858227,0.0009451553255896806,-0.02338022115155219,0.09685382322919964,36.09446859390736,-92.24360919585227,72.1922225099802
2024-09-23 20:33:31.561239,40.87,49.858227,0.0008954064660419869,-0.02313149783467906,0.0973512698629459,48.12595698684454,-96.25519929585457,72.1922225099802
2024-09-23 20:33:31.603260,40.87,49.858319,0.0005471957306340564,-0.02313149783467906,0.0973512698629459,48.12595698684454,-96.25519929585457,80.21211738781929
2024-09-23 20:33:31.615634,40.87,49.858319,0.0005471957306340564,-0.0228827638849692,0.0973512698629459,44.11764879391193,-96.25519929585457,80.21211738781929
2024-09-23 20:33:31.649176,40.87,49.858319,0.0005471957306340564,-0.0228827638849692,0.0973512698629459,44.11764879391193,-100.26678939585686,76.200527287817
2024-09-23 20:33:31.660500,40.87,49.85837,0.0006964318663124887,-0.023230986250042305,0.09750050628343246,44.11764879391193,-100.26678939585686,76.200527287817
2024-09-23 20:33:31.702470,40.87,49.858421,0.0006964318663124887,-0.023230986250042305,0.09750050628343246,44.11764879391193,-92.24360919585227,76.200527287817
2024-09-23 20:33:31.715605,40.87,49.858421,0.0006466830067647949,-0.023579196463302005,0.09750050628343246,44.11764879391193,-92.24360919585227,76.200527287817
2024-09-23 20:33:31.749329,40.87,49.858421,0.0006466830067647949,-0.023579196463302005,0.09774922960030558,48.12595698684454,-88.23529758782387,76.200527287817
2024-09-23 20:33:31.760602,40.87,49.858472,0.0008954064660419869,-0.023579196463302005,0.09774922960030558,48.12595698684454,-88.23529758782387,76.200527287817
2024-09-23 20:33:31.802726,40.87,49.858562,0.0008954064660419869,-0.0228827638849692,0.09710254654607277,36.09446859390736,-92.24360919585227,80.21211738781929
2024-09-23 20:33:31.846300,40.87,49.858562,0.0006466830067647949,-0.023230986250042305,0.09759999317981902,36.09446859390736,-92.24360919585227,80.21211738781929
2024-09-23 20:33:31.859196,40.87,49.858562,0.0006466830067647949,-0.023230986250042305,0.09759999317981902,36.09446859390736,-88.23529758782387,80.21211738781929
2024-09-23 20:33:31.891164,40.87,49.858613,0.0006466830067647949,-0.023230986250042305,0.09759999317981902,36.09446859390736,-88.23529758782387,80.21211738781929
2024-09-23 20:33:31.902375,40.87,49.858613,0.001044642601720419,-0.022833026512682618,0.09759999317981902,32.08287849390507,-92.24360919585227,80.21211738781929
2024-09-23 20:33:31.945468,40.87,49.858664,0.001044642601720419,-0.023330473146428877,0.09759999317981902,32.08287849390507,-92.24360919585227,80.21211738781929
2024-09-23 20:33:31.957220,40.87,49.858664,0.001044642601720419,-0.023330473146428877,0.09750050628343246,40.106058693909645,-92.24360919585227,80.21211738781929
2024-09-23 20:33:31.990208,40.87,49.858664,0.001044642601720419,-0.023330473146428877,0.09750050628343246,40.106058693909645,-88.23529758782387,88.23529758782387
2024-09-23 20:33:32.001701,40.87,49.858715,0.0006964318663124887,-0.02313149783467906,0.09759999317981902,40.106058693909645,-88.23529758782387,88.23529758782387
2024-09-23 20:33:32.043908,40.87,49.858765,0.0009451553255896806,-0.02313149783467906,0.09759999317981902,44.11764879391193,-92.24360919585227,80.21211738781929
2024-09-23 20:33:32.055611,40.87,49.858765,0.0009451553255896806,-0.023330473146428877,0.09759999317981902,44.11764879391193,-92.24360919585227,80.21211738781929
2024-09-23 20:33:32.087355,40.87,49.858765,0.0009451553255896806,-0.023330473146428877,0.09794820946898543,52.137550501942634,-92.24360919585227,80.21211738781929
2024-09-23 20:33:32.099345,40.87,49.858765,0.0009451553255896806,-0.023330473146428877,0.09794820946898543,52.137550501942634,-96.25519929585457,80.21211738781929
2024-09-23 20:33:32.141313,40.87,49.858816,0.0012933660135295898,-0.023181236725942318,0.09745075675933246,52.137550501942634,-96.25519929585457,76.200527287817
2024-09-23 20:33:32.153274,40.87,49.858816,0.0012933660135295898,-0.023181236725942318,0.09745075675933246,40.106058693909645,-96.25519929585457,76.200527287817
2024-09-23 20:33:32.185458,40.87,49.858816,0.0012933660135295898,-0.023181236725942318,0.09745075675933246,40.106058693909645,-100.26678939585686,76.200527287817
2024-09-23 20:33:32.197227,40.87,49.858903,0.0012933660135295898,-0.023181236725942318,0.09745075675933246,40.106058693909645,-100.26678939585686,76.200527287817
2024-09-23 20:33:32.241999,40.87,49.858903,0.0007959191899112484,-0.023280723622328886,0.09745075675933246,40.106058693909645,-92.24360919585227,76.200527287817
2024-09-23 20:33:32.285156,40.87,49.858955,0.0011441298778511575,-0.023280723622328886,0.09745075675933246,40.106058693909645,-92.24360919585227,76.200527287817
2024-09-23 20:33:32.296726,40.87,49.858955,0.0011441298778511575,-0.02303200030545576,0.09705279702197278,44.11764879391193,-96.25519929585457,76.200527287817
2024-09-23 20:33:32.338911,41.79,49.859005,0.0011441298778511575,-0.02303200030545576,0.09705279702197278,44.11764879391193,-96.25519929585457,80.21211738781929
2024-09-23 20:33:32.381728,41.79,49.859005,0.0009451553255896806,-0.02313149783467906,0.09705279702197278,44.11764879391193,-96.25519929585457,80.21211738781929
2024-09-23 20:33:32.392856,41.79,49.859005,0.0009451553255896806,-0.02313149783467906,0.09720203344245934,40.106058693909645,-88.23529758782387,76.200527287817
2024-09-23 20:33:32.434653,41.79,49.859056,0.0005969341946851222,-0.022982261414192504,0.09824668230995855,40.106058693909645,-88.23529758782387,76.200527287817
2024-09-23 20:33:32.446540,41.79,49.859056,0.0005969341946851222,-0.022982261414192504,0.09824668230995855,40.106058693909645,-96.25519929585457,76.200527287817
2024-09-23 20:33:32.480028,41.79,49.859147,0.00029846189959424716,-0.022982261414192504,0.09824668230995855,40.106058693909645,-96.25519929585457,72.1922225099802
2024-09-23 20:33:32.491561,41.79,49.859147,0.00029846189959424716,-0.02303200030545576,0.0973015264147526,48.12595698684454,-96.25519929585457,72.1922225099802
2024-09-23 20:33:32.533924,41.79,49.859199,0.00044769805900669,-0.023230986250042305,0.09710254654607277,48.12595698684454,-100.26678939585686,76.200527287817
2024-09-23 20:33:32.578139,41.79,49.859199,0.00044769805900669,-0.023230986250042305,0.09710254654607277,48.12595698684454,-96.25519929585457,76.200527287817
2024-09-23 20:33:32.589533,41.79,49.859293,0.001044642601720419,-0.02278327698858263,0.09710254654607277,48.12595698684454,-96.25519929585457,76.200527287817
2024-09-23 20:33:32.622885,41.79,49.859293,0.001044642601720419,-0.02278327698858263,0.09685382322919964,48.12595698684454,-96.25519929585457,76.200527287817
2024-09-23 20:33:32.634469,41.79,49.859345,0.0005969341946851222,-0.02278327698858263,0.09685382322919964,36.09446859390736,-92.24360919585227,72.1922225099802
2024-09-23 20:33:32.676507,41.79,49.859345,0.0005969341946851222,-0.023579196463302005,0.09720203344245934,36.09446859390736,-100.26678939585686,72.1922225099802
2024-09-23 20:33:32.688244,41.79,49.859439,0.0005969341946851222,-0.023579196463302005,0.09720203344245934,36.09446859390736,-100.26678939585686,80.21211738781929
2024-09-23 20:33:32.722144,41.79,49.859439,0.0007959191899112484,-0.023429960042815445,0.09720203344245934,36.09446859390736,-100.26678939585686,80.21211738781929
2024-09-23 20:33:32.733861,41.79,49.859439,0.0007959191899112484,-0.023429960042815445,0.09740101331113918,52.137550501942634,-84.22370748782159,84.22370748782159
2024-09-23 20:33:32.776261,41.79,49.859491,0.0006466830067647949,-0.02268379009219606,0.09725178296655933,40.106058693909645,-96.25519929585457,84.22370748782159
2024-09-23 20:33:32.819022,41.79,49.859542,0.0006466830067647949,-0.02268379009219606,0.09725178296655933,40.106058693909645,-96.25519929585457,80.21211738781929
2024-09-23 20:33:32.831248,41.79,49.859542,0.000845657606494293,-0.02293251340906919,0.09759999317981902,32.08287849390507,-96.25519929585457,80.21211738781929
2024-09-23 20:33:32.874520,41.79,49.859592,0.0006964318663124887,-0.02412639262114825,0.098047696365372,32.08287849390507,-96.25519929585457,76.200527287817
2024-09-23 20:33:32.916313,41.79,49.859592,0.0006964318663124887,-0.02412639262114825,0.098047696365372,36.09446859390736,-96.25519929585457,76.200527287817
2024-09-23 20:33:32.927774,41.79,49.859643,0.0008954064660419869,-0.023280723622328886,0.098047696365372,36.09446859390736,-96.25519929585457,72.1922225099802
2024-09-23 20:33:32.971143,41.79,49.859694,0.0008954064660419869,-0.023280723622328886,0.09784872257259886,44.11764879391193,-96.25519929585457,72.1922225099802
2024-09-23 20:33:32.983429,41.79,49.859694,0.000845657606494293,-0.023280723622328886,0.09784872257259886,44.11764879391193,-96.25519929585457,72.1922225099802
2024-09-23 20:33:33.015357,41.79,49.859694,0.000845657606494293,-0.023181236725942318,0.09784872257259886,40.106058693909645,-96.25519929585457,72.1922225099802
2024-09-23 20:33:33.026421,41.79,49.859781,0.000845657606494293,-0.023181236725942318,0.09784872257259886,40.106058693909645,-92.24360919585227,76.200527287817
2024-09-23 20:33:33.069273,41.79,49.859781,0.0006964318663124887,-0.02278327698858263,0.0973512698629459,32.08287849390507,-92.24360919585227,84.22370748782159
2024-09-23 20:33:33.113434,41.79,49.859832,0.00044769805900669,-0.02313149783467906,0.0973512698629459,32.08287849390507,-92.24360919585227,84.22370748782159
2024-09-23 20:33:33.125218,41.79,49.859832,0.00044769805900669,-0.02313149783467906,0.09740101331113918,44.11764879391193,-96.25519929585457,84.22370748782159
2024-09-23 20:33:33.167700,41.79,49.859883,0.0007461703303635545,-0.023230986250042305,0.09764974270391902,52.137550501942634,-96.25519929585457,80.21211738781929
2024-09-23 20:33:33.210372,41.79,49.859933,0.0007461703303635545,-0.023230986250042305,0.09764974270391902,52.137550501942634,-88.23529758782387,76.200527287817
2024-09-23 20:33:33.221840,41.79,49.859933,0.0006466830067647949,-0.02308174982955575,0.09740101331113918,52.137550501942634,-88.23529758782387,76.200527287817
2024-09-23 20:33:33.264988,41.79,49.859984,0.000845657606494293,-0.02308174982955575,0.09740101331113918,44.11764879391193,-96.25519929585457,76.200527287817
2024-09-23 20:33:33.307593,41.79,49.859984,0.000845657606494293,-0.02308174982955575,0.09685382322919964,40.106058693909645,-96.25519929585457,76.200527287817
2024-09-23 20:33:33.318596,41.79,49.860035,0.0005471957306340564,-0.02308174982955575,0.09685382322919964,40.106058693909645,-96.25519929585457,80.21211738781929
2024-09-23 20:33:33.361154,41.92,49.860035,0.0005471957306340564,-0.02308174982955575,0.09745075675933246,40.106058693909645,-100.26678939585686,76.200527287817
2024-09-23 20:33:33.372988,41.92,49.860122,0.0005471957306340564,-0.02308174982955575,0.09745075675933246,40.106058693909645,-100.26678939585686,76.200527287817
2024-09-23 20:33:33.406021,41.92,49.860122,0.0006466830067647949,-0.02303200030545576,0.09710254654607277,40.106058693909645,-100.26678939585686,76.200527287817
2024-09-23 20:33:33.417475,41.92,49.860122,0.0006466830067647949,-0.02303200030545576,0.09710254654607277,44.11764879391193,-100.26678939585686,72.1922225099802
2024-09-23 20:33:33.461282,41.92,49.860173,0.0012436275969465451,-0.022833026512682618,0.0973512698629459,40.106058693909645,-88.23529758782387,72.1922225099802
2024-09-23 20:33:33.504991,41.92,49.860224,0.0004974468710863627,-0.02308174982955575,0.0973512698629459,40.106058693909645,-88.23529758782387,76.200527287817
2024-09-23 20:33:33.516826,41.92,49.860224,0.0004974468710863627,-0.02308174982955575,0.0976994861521123,32.08287849390507,-88.23529758782387,76.200527287817
2024-09-23 20:33:33.548277,41.92,49.860224,0.0004974468710863627,-0.02308174982955575,0.0976994861521123,32.08287849390507,-100.26678939585686,76.200527287817
2024-09-23 20:33:33.561013,41.92,49.860275,0.0003979595949556242,-0.02303200030545576,0.09720203344245934,32.08287849390507,-100.26678939585686,76.200527287817
2024-09-23 20:33:33.604427,41.92,49.860326,0.0009948937421727254,-0.02303200030545576,0.09720203344245934,44.11764879391193,-96.25519929585457,76.200527287817
2024-09-23 20:33:33.616649,41.92,49.860326,0.0009948937421727254,-0.02303200030545576,0.09720203344245934,44.11764879391193,-96.25519929585457,76.200527287817
2024-09-23 20:33:33.648640,41.92,49.860326,0.0009948937421727254,-0.02303200030545576,0.09755024973162574,48.12595698684454,-96.25519929585457,76.200527287817
2024-09-23 20:33:33.659651,41.92,49.860376,0.0009948937421727254,-0.02303200030545576,0.09755024973162574,48.12595698684454,-84.22370748782159,84.22370748782159
2024-09-23 20:33:33.702305,41.92,49.860376,0.0009948937421727254,-0.023181236725942318,0.09789846602079214,40.106058693909645,-96.25519929585457,72.1922225099802
2024-09-23 20:33:33.713874,41.92,49.860463,0.0009948937421727254,-0.023181236725942318,0.09789846602079214,40.106058693909645,-96.25519929585457,72.1922225099802
2024-09-23 20:33:33.747575,41.92,49.860463,0.0007461703303635545,-0.02362894446842532,0.0973015264147526,40.106058693909645,-96.25519929585457,72.1922225099802
2024-09-23 20:33:33.759318,41.92,49.860463,0.0007461703303635545,-0.02362894446842532,0.0973015264147526,36.09446859390736,-84.22370748782159,76.200527287817
2024-09-23 20:33:33.791712,41.92,49.860515,0.0007461703303635545,-0.02362894446842532,0.0973015264147526,36.09446859390736,-84.22370748782159,76.200527287817
2024-09-23 20:33:33.803043,41.92,49.860515,0.00024872343554318134,-0.02308174982955575,0.09685382322919964,44.11764879391193,-92.24360919585227,76.200527287817
2024-09-23 20:33:33.845723,41.92,49.860565,0.0009451553255896806,-0.02268379009219606,0.09685382322919964,44.11764879391193,-92.24360919585227,76.200527287817
2024-09-23 20:33:33.857050,41.92,49.860565,0.0009451553255896806,-0.02268379009219606,0.0973015264147526,48.12595698684454,-92.24360919585227,76.200527287817
2024-09-23 20:33:33.889072,41.92,49.860565,0.0009451553255896806,-0.02268379009219606,0.0973015264147526,48.12595698684454,-104.27510100388527,76.200527287817
2024-09-23 20:33:33.900726,41.92,49.860616,0.00014922575204880957,-0.02313149783467906,0.0973512698629459,48.12595698684454,-104.27510100388527,80.21211738781929
2024-09-23 20:33:33.944075,41.92,49.860667,0.00014922575204880957,-0.02313149783467906,0.0973512698629459,44.11764879391193,-96.25519929585457,76.200527287817
2024-09-23 20:33:33.955321,41.92,49.860667,0.00034821073540793035,-0.023181236725942318,0.0973512698629459,44.11764879391193,-96.25519929585457,76.200527287817
2024-09-23 20:33:33.988223,41.92,49.860667,0.00034821073540793035,-0.023181236725942318,0.09789846602079214,44.11764879391193,-96.25519929585457,76.200527287817
2024-09-23 20:33:33.999354,41.92,49.860717,0.0005969341946851222,-0.023181236725942318,0.09789846602079214,48.12595698684454,-92.24360919585227,80.21211738781929
2024-09-23 20:33:34.042306,41.92,49.860717,0.0005969341946851222,-0.023429960042815445,0.0976994861521123,40.106058693909645,-96.25519929585457,72.1922225099802
2024-09-23 20:33:34.054045,41.92,49.860804,0.0005969341946851222,-0.023429960042815445,0.0976994861521123,40.106058693909645,-96.25519929585457,72.1922225099802
2024-09-23 20:33:34.086546,41.92,49.860804,0.0009948937421727254,-0.023181236725942318,0.0976994861521123,40.106058693909645,-96.25519929585457,72.1922225099802
2024-09-23 20:33:34.098845,41.92,49.860804,0.0009948937421727254,-0.023181236725942318,0.09755024973162574,48.12595698684454,-100.26678939585686,72.1922225099802
2024-09-23 20:33:34.142128,41.92,49.860856,0.0011441298778511575,-0.02278327698858263,0.09759999317981902,44.11764879391193,-96.25519929585457,72.1922225099802
2024-09-23 20:33:34.184698,41.92,49.860907,0.0011441298778511575,-0.02278327698858263,0.09759999317981902,44.11764879391193,-96.25519929585457,72.1922225099802
2024-09-23 20:33:34.196484,41.92,49.860907,0.00044769805900669,-0.02303200030545576,0.09740101331113918,36.09446859390736,-96.25519929585457,72.1922225099802
2024-09-23 20:33:34.239588,41.92,49.860958,0.001044642601720419,-0.02303200030545576,0.09720203344245934,36.09446859390736,-100.26678939585686,76.200527287817
2024-09-23 20:33:34.282025,41.92,49.860958,0.001044642601720419,-0.02303200030545576,0.09720203344245934,32.08287849390507,-96.25519929585457,76.200527287817
2024-09-23 20:33:34.293817,41.92,49.861008,0.0010943914612681128,-0.023330473146428877,0.09720203344245934,32.08287849390507,-96.25519929585457,80.21211738781929
2024-09-23 20:33:34.337040,41.92,49.861059,0.000845657606494293,-0.023330473146428877,0.09799795899308542,40.106058693909645,-96.25519929585457,80.21211738781929
2024-09-23 20:33:34.380849,42.71,49.861059,0.000845657606494293,-0.02303200030545576,0.09750050628343246,52.137550501942634,-96.25519929585457,80.21211738781929
2024-09-23 20:33:34.392296,42.71,49.861146,0.000845657606494293,-0.02303200030545576,0.09750050628343246,52.137550501942634,-84.22370748782159,76.200527287817
2024-09-23 20:33:34.434903,42.71,49.861146,0.00029846189959424716,-0.023181236725942318,0.09720203344245934,48.12595698684454,-92.24360919585227,76.200527287817
2024-09-23 20:33:34.477484,42.71,49.861197,0.0007959191899112484,-0.02308174982955575,0.09720203344245934,48.12595698684454,-92.24360919585227,76.200527287817
2024-09-23 20:33:34.489962,42.71,49.861197,0.0007959191899112484,-0.02308174982955575,0.0973512698629459,48.12595698684454,-84.22370748782159,76.200527287817
2024-09-23 20:33:34.532815,42.71,49.861248,0.00034821073540793035,-0.022982261414192504,0.0973015264147526,40.106058693909645,-84.22370748782159,76.200527287817
2024-09-23 20:33:34.575479,42.71,49.861298,0.00034821073540793035,-0.022982261414192504,0.0973015264147526,40.106058693909645,-96.25519929585457,72.1922225099802
2024-09-23 20:33:34.586981,42.71,49.861298,0.000845657606494293,-0.022833026512682618,0.09779897304849887,40.106058693909645,-96.25519929585457,72.1922225099802
2024-09-23 20:33:34.629848,42.71,49.861349,-0.00024872343554318134,-0.022833026512682618,0.09779897304849887,40.106058693909645,-92.24360919585227,76.200527287817
2024-09-23 20:33:34.672581,42.71,49.861349,-0.00024872343554318134,-0.022833026512682618,0.09690356060148622,44.11764879391193,-96.25519929585457,76.200527287817
2024-09-23 20:33:34.684120,42.71,49.8614,-0.00024872343554318134,-0.022833026512682618,0.09690356060148622,44.11764879391193,-96.25519929585457,76.200527287817
2024-09-23 20:33:34.727446,42.71,49.8614,0.0013928637326249774,-0.023330473146428877,0.09720203344245934,36.09446859390736,-96.25519929585457,80.21211738781929
2024-09-23 20:33:34.770456,42.71,49.861487,0.0013431148730772837,-0.02308174982955575,0.09720203344245934,36.09446859390736,-96.25519929585457,80.21211738781929
2024-09-23 20:33:34.781934,42.71,49.861487,0.0013431148730772837,-0.02308174982955575,0.09774922960030558,52.137550501942634,-108.28669110388756,80.21211738781929
2024-09-23 20:33:34.824734,42.71,49.861538,0.000845657606494293,-0.02362894446842532,0.0976994861521123,44.11764879391193,-108.28669110388756,80.21211738781929
2024-09-23 20:33:34.868119,42.71,49.861589,0.000845657606494293,-0.02362894446842532,0.0976994861521123,44.11764879391193,-96.25519929585457,84.22370748782159
2024-09-23 20:33:34.879622,42.71,49.861589,0.0007959191899112484,-0.022484804147609512,0.09755024973162574,44.11764879391193,-96.25519929585457,84.22370748782159
2024-09-23 20:33:34.922302,42.71,49.86164,0.0011441298778511575,-0.023181236725942318,0.09755024973162574,44.11764879391193,-96.25519929585457,80.21211738781929
2024-09-23 20:33:34.965697,42.71,49.86164,0.0011441298778511575,-0.023181236725942318,0.0973015264147526,44.11764879391193,-100.26678939585686,80.21211738781929
2024-09-23 20:33:34.976907,42.71,49.86169,0.00044769805900669,-0.023181236725942318,0.0973015264147526,44.11764879391193,-100.26678939585686,80.21211738781929
2024-09-23 20:33:35.019872,42.71,49.861779,0.00044769805900669,-0.023230986250042305,0.0973015264147526,52.137550501942634,-96.25519929585457,76.200527287817
2024-09-23 20:33:35.062272,42.71,49.861779,0.0003979595949556242,-0.02293251340906919,0.09715228999426605,52.137550501942634,-96.25519929585457,76.200527287817
2024-09-23 20:33:35.073555,42.71,49.861779,0.0003979595949556242,-0.02293251340906919,0.09715228999426605,40.106058693909645,-96.25519929585457,72.1922225099802
2024-09-23 20:33:35.116523,42.71,49.861831,0.00034821073540793035,-0.022833026512682618,0.09725178296655933,44.11764879391193,-100.26678939585686,72.1922225099802
2024-09-23 20:33:35.160462,42.71,49.861882,0.00034821073540793035,-0.022833026512682618,0.09725178296655933,44.11764879391193,-100.26678939585686,80.21211738781929
2024-09-23 20:33:35.172139,42.71,49.861882,0.00034821073540793035,-0.023479709566915436,0.0973015264147526,48.12595698684454,-100.26678939585686,80.21211738781929
2024-09-23 20:33:35.214456,42.71,49.861933,0.0009451553255896806,-0.023230986250042305,0.0973015264147526,48.12595698684454,-92.24360919585227,76.200527287817
2024-09-23 20:33:35.256789,42.71,49.861933,0.0009451553255896806,-0.023230986250042305,0.0973015264147526,52.137550501942634,-96.25519929585457,76.200527287817
2024-09-23 20:33:35.268585,42.71,49.861983,0.00034821073540793035,-0.023230986250042305,0.0973015264147526,52.137550501942634,-96.25519929585457,76.200527287817
2024-09-23 20:33:35.310979,42.71,49.862034,0.0003979595949556242,-0.023230986250042305,0.09755024973162574,44.11764879391193,-100.26678939585686,64.16903547978401
2024-09-23 20:33:35.353558,42.71,49.862034,0.0003979595949556242,-0.02308174982955575,0.09750050628343246,44.11764879391193,-100.26678939585686,64.16903547978401
2024-09-23 20:33:35.364614,42.71,49.862121,0.0003979595949556242,-0.02308174982955575,0.09750050628343246,40.106058693909645,-88.23529758782387,76.200527287817
2024-09-23 20:33:35.408081,42.77,49.862121,0.0006964318663124887,-0.023181236725942318,0.09774922960030558,44.11764879391193,-88.23529758782387,76.200527287817
2024-09-23 20:33:35.419400,42.77,49.862121,0.0006964318663124887,-0.023181236725942318,0.09774922960030558,44.11764879391193,-88.23529758782387,76.200527287817
2024-09-23 20:33:35.451622,42.77,49.862172,0.0006466830067647949,-0.023181236725942318,0.09774922960030558,44.11764879391193,-88.23529758782387,76.200527287817
2024-09-23 20:33:35.462629,42.77,49.862172,0.0006466830067647949,-0.022733528983459317,0.09710254654607277,40.106058693909645,-96.25519929585457,76.200527287817
2024-09-23 20:33:35.505078,42.77,49.862223,0.0008954064660419869,-0.02303200030545576,0.09764974270391902,40.106058693909645,-96.25519929585457,80.21211738781929
2024-09-23 20:33:35.517346,42.77,49.862223,0.0008954064660419869,-0.02303200030545576,0.09764974270391902,40.106058693909645,-96.25519929585457,80.21211738781929
2024-09-23 20:33:35.549698,42.77,49.862273,0.0008954064660419869,-0.02303200030545576,0.09764974270391902,40.106058693909645,-92.24360919585227,76.200527287817
2024-09-23 20:33:35.560717,42.77,49.862273,0.000845657606494293,-0.023181236725942318,0.09759999317981902,40.106058693909645,-92.24360919585227,76.200527287817
2024-09-23 20:33:35.603189,42.77,49.862324,0.0007461703303635545,-0.023479709566915436,0.09759999317981902,44.11764879391193,-100.26678939585686,72.1922225099802
2024-09-23 20:33:35.646298,42.77,49.862324,0.0007461703303635545,-0.023479709566915436,0.09784872257259886,40.106058693909645,-100.26678939585686,72.1922225099802
2024-09-23 20:33:35.658451,42.77,49.862375,0.0005969341946851222,-0.023479709566915436,0.09784872257259886,40.106058693909645,-96.25519929585457,72.1922225099802
2024-09-23 20:33:35.701332,42.77,49.862375,0.0005969341946851222,-0.02308174982955575,0.09750050628343246,44.11764879391193,-92.24360919585227,80.21211738781929
2024-09-23 20:33:35.712811,42.77,49.862462,0.0005969341946851222,-0.02308174982955575,0.09750050628343246,44.11764879391193,-92.24360919585227,80.21211738781929
2024-09-23 20:33:35.746056,42.77,49.862462,0.0007461703303635545,-0.022982261414192504,0.09720203344245934,44.11764879391193,-92.24360919585227,80.21211738781929
2024-09-23 20:33:35.757582,42.77,49.862462,0.0007461703303635545,-0.022982261414192504,0.09720203344245934,44.11764879391193,-92.24360919585227,72.1922225099802
2024-09-23 20:33:35.790469,42.77,49.862513,0.0007461703303635545,-0.022982261414192504,0.09720203344245934,44.11764879391193,-92.24360919585227,72.1922225099802
2024-09-23 20:33:35.802022,42.77,49.862513,0.000845657606494293,-0.023579196463302005,0.09685382322919964,44.11764879391193,-96.25519929585457,72.1922225099802
2024-09-23 20:33:35.844880,42.77,49.862564,0.0013928637326249774,-0.023429960042815445,0.09685382322919964,44.11764879391193,-96.25519929585457,80.21211738781929
2024-09-23 20:33:35.856243,42.77,49.862564,0.0013928637326249774,-0.023429960042815445,0.0973512698629459,40.106058693909645,-96.25519929585457,80.21211738781929
2024-09-23 20:33:35.887806,42.77,49.862564,0.0013928637326249774,-0.023429960042815445,0.0973512698629459,40.106058693909645,-96.25519929585457,80.21211738781929
2024-09-23 20:33:35.900130,42.77,49.862615,0.000845657606494293,-0.02313149783467906,0.0973015264147526,40.106058693909645,-96.25519929585457,80.21211738781929
2024-09-23 20:33:35.942993,42.77,49.862666,0.0005471957306340564,-0.02313149783467906,0.0973015264147526,44.11764879391193,-96.25519929585457,80.21211738781929
2024-09-23 20:33:35.955079,42.77,49.862666,0.0005471957306340564,-0.02293251340906919,0.0973015264147526,44.11764879391193,-96.25519929585457,80.21211738781929
2024-09-23 20:33:35.987086,42.77,49.862666,0.0005471957306340564,-0.02293251340906919,0.09799795899308542,48.12595698684454,-96.25519929585457,80.21211738781929
2024-09-23 20:33:35.998517,42.77,49.862716,0.0006466830067647949,-0.02293251340906919,0.09799795899308542,48.12595698684454,-92.24360919585227,76.200527287817
2024-09-23 20:33:36.040972,42.77,49.862716,0.0006466830067647949,-0.023827930413011865,0.09725178296655933,36.09446859390736,-96.25519929585457,72.1922225099802
2024-09-23 20:33:36.052811,42.77,49.862803,0.0006466830067647949,-0.023827930413011865,0.09725178296655933,36.09446859390736,-96.25519929585457,72.1922225099802
2024-09-23 20:33:36.084955,42.77,49.862803,0.0013928637326249774,-0.023280723622328886,0.09725178296655933,36.09446859390736,-96.25519929585457,72.1922225099802
2024-09-23 20:33:36.096077,42.77,49.862803,0.0013928637326249774,-0.023280723622328886,0.09725178296655933,44.11764879391193,-96.25519929585457,80.21211738781929
2024-09-23 20:33:36.138438,42.77,49.862855,0.0007959191899112484,-0.023330473146428877,0.09755024973162574,44.11764879391193,-96.25519929585457,80.21211738781929
2024-09-23 20:33:36.151711,42.77,49.862855,0.0007959191899112484,-0.023330473146428877,0.09755024973162574,44.11764879391193,-92.24360919585227,80.21211738781929
2024-09-23 20:33:36.183713,42.77,49.862905,0.0007461703303635545,-0.023330473146428877,0.09755024973162574,44.11764879391193,-92.24360919585227,80.21211738781929
2024-09-23 20:33:36.195541,42.77,49.862905,0.0007461703303635545,-0.023230986250042305,0.0973512698629459,36.09446859390736,-92.24360919585227,80.21211738781929
2024-09-23 20:33:36.238731,42.77,49.862956,0.0010943914612681128,-0.02278327698858263,0.0976994861521123,36.09446859390736,-88.23529758782387,80.21211738781929
2024-09-23 20:33:36.281601,42.77,49.862956,0.0010943914612681128,-0.02278327698858263,0.0976994861521123,36.09446859390736,-96.25519929585457,76.200527287817
2024-09-23 20:33:36.293078,42.77,49.863007,0.0005969341946851222,-0.02303200030545576,0.0976994861521123,36.09446859390736,-96.25519929585457,76.200527287817
2024-09-23 20:33:36.335596,42.77,49.863057,0.0007461703303635545,-0.02303200030545576,0.09720203344245934,40.106058693909645,-92.24360919585227,76.200527287817
2024-09-23 20:33:36.378298,42.77,49.863057,0.0007461703303635545,-0.023429960042815445,0.09670458680871308,44.11764879391193,-92.24360919585227,76.200527287817
2024-09-23 20:33:36.389980,42.77,49.863057,0.0007461703303635545,-0.023429960042815445,0.09670458680871308,44.11764879391193,-96.25519929585457,76.200527287817
2024-09-23 20:33:36.433288,43.36,49.863144,0.0004974468710863627,-0.02362894446842532,0.0973512698629459,44.11764879391193,-96.25519929585457,76.200527287817
2024-09-23 20:33:36.476632,43.36,49.863196,0.0004974468710863627,-0.02362894446842532,0.0973512698629459,44.11764879391193,-96.25519929585457,76.200527287817
2024-09-23 20:33:36.487993,43.36,49.863196,0.0007959191899112484,-0.02352945757203875,0.09740101331113918,44.11764879391193,-96.25519929585457,76.200527287817
2024-09-23 20:33:36.530397,43.36,49.863247,9.948729986474904e-05,-0.0228827638849692,0.09740101331113918,48.12595698684454,-96.25519929585457,80.21211738781929
2024-09-23 20:33:36.572959,43.36,49.863247,9.948729986474904e-05,-0.0228827638849692,0.09680407370509965,48.12595698684454,-96.25519929585457,80.21211738781929
2024-09-23 20:33:36.584720,43.36,49.863297,0.0006964318663124887,-0.0228827638849692,0.09680407370509965,48.12595698684454,-96.25519929585457,76.200527287817
2024-09-23 20:33:36.627728,43.36,49.863348,0.0006964318663124887,-0.023230986250042305,0.09710254654607277,40.106058693909645,-100.26678939585686,76.200527287817
2024-09-23 20:33:36.669926,43.36,49.863348,0.0007461703303635545,-0.02338022115155219,0.09710254654607277,40.106058693909645,-100.26678939585686,76.200527287817
2024-09-23 20:33:36.682114,43.36,49.863348,0.0007461703303635545,-0.02338022115155219,0.0973512698629459,40.106058693909645,-96.25519929585457,72.1922225099802
2024-09-23 20:33:36.725782,43.36,49.863437,0.0005969341946851222,-0.022982261414192504,0.09715228999426605,40.106058693909645,-92.24360919585227,72.1922225099802
2024-09-23 20:33:36.768924,43.36,49.863489,0.0003979595949556242,-0.022982261414192504,0.09715228999426605,40.106058693909645,-92.24360919585227,76.200527287817
2024-09-23 20:33:36.780615,43.36,49.863489,0.0003979595949556242,-0.022833026512682618,0.0983959187304451,40.106058693909645,-92.24360919585227,76.200527287817
2024-09-23 20:33:36.815396,43.36,49.863489,0.0003979595949556242,-0.022833026512682618,0.0983959187304451,40.106058693909645,-96.25519929585457,76.200527287817
2024-09-23 20:33:36.827288,43.36,49.86354,0.00044769805900669,-0.023280723622328886,0.09750050628343246,40.106058693909645,-96.25519929585457,76.200527287817
2024-09-23 20:33:36.869924,43.36,49.86359,0.0009948937421727254,-0.023280723622328886,0.09750050628343246,44.11764879391193,-100.26678939585686,72.1922225099802
2024-09-23 20:33:36.881546,43.36,49.86359,0.0009948937421727254,-0.02367869399252531,0.09750050628343246,44.11764879391193,-100.26678939585686,72.1922225099802
2024-09-23 20:33:36.914244,43.36,49.86359,0.0009948937421727254,-0.02367869399252531,0.09685382322919964,48.12595698684454,-100.26678939585686,72.1922225099802
2024-09-23 20:33:36.926087,43.36,49.863641,0.0007959191899112484,-0.02367869399252531,0.09685382322919964,48.12595698684454,-100.26678939585686,76.200527287817
2024-09-23 20:33:36.968979,43.36,49.863729,0.0007959191899112484,-0.02308174982955575,0.09740101331113918,40.106058693909645,-96.25519929585457,72.1922225099802
2024-09-23 20:33:37.011062,43.36,49.863729,0.0007461703303635545,-0.022982261414192504,0.09740101331113918,40.106058693909645,-96.25519929585457,72.1922225099802
2024-09-23 20:33:37.025943,43.36,49.863729,0.0007461703303635545,-0.022982261414192504,0.09740101331113918,48.12595698684454,-96.25519929585457,72.1922225099802
2024-09-23 20:33:37.058950,43.36,49.863781,0.0007461703303635545,-0.022982261414192504,0.09740101331113918,48.12595698684454,-96.25519929585457,72.1922225099802
2024-09-23 20:33:37.070830,43.36,49.863781,0.000845657606494293,-0.023429960042815445,0.09715228999426605,48.12595698684454,-96.25519929585457,72.1922225099802
2024-09-23 20:33:37.112709,43.36,49.863832,0.0009451553255896806,-0.02263404056809607,0.09774922960030558,48.12595698684454,-96.25519929585457,72.1922225099802
2024-09-23 20:33:37.124678,43.36,49.863832,0.0009451553255896806,-0.02263404056809607,0.09774922960030558,40.106058693909645,-96.25519929585457,72.1922225099802
2024-09-23 20:33:37.156395,43.36,49.863832,0.0009451553255896806,-0.02263404056809607,0.09774922960030558,40.106058693909645,-92.24360919585227,76.200527287817
2024-09-23 20:33:37.167446,43.36,49.863882,0.0005969341946851222,-0.023330473146428877,0.09740101331113918,40.106058693909645,-92.24360919585227,76.200527287817
2024-09-23 20:33:37.210112,43.36,49.863933,0.0003979595949556242,-0.023330473146428877,0.09740101331113918,40.106058693909645,-96.25519929585457,72.1922225099802
2024-09-23 20:33:37.222232,43.36,49.863933,0.0003979595949556242,-0.023280723622328886,0.09740101331113918,40.106058693909645,-96.25519929585457,72.1922225099802
2024-09-23 20:33:37.254541,43.36,49.863933,0.0003979595949556242,-0.023280723622328886,0.09764974270391902,40.106058693909645,-96.25519929585457,72.1922225099802
2024-09-23 20:33:37.266163,43.36,49.863984,0.00034821073540793035,-0.023280723622328886,0.09764974270391902,40.106058693909645,-92.24360919585227,76.200527287817
2024-09-23 20:33:37.308434,43.36,49.863984,0.00034821073540793035,-0.02313149783467906,0.09720203344245934,40.106058693909645,-96.25519929585457,80.21211738781929
2024-09-23 20:33:37.320117,43.36,49.864071,0.00034821073540793035,-0.02313149783467906,0.09720203344245934,40.106058693909645,-96.25519929585457,80.21211738781929
2024-09-23 20:33:37.351994,43.36,49.864071,0.00044769805900669,-0.023330473146428877,0.09720203344245934,40.106058693909645,-96.25519929585457,80.21211738781929
2024-09-23 20:33:37.363392,43.36,49.864071,0.00044769805900669,-0.023330473146428877,0.09710254654607277,44.11764879391193,-92.24360919585227,76.200527287817
2024-09-23 20:33:37.406036,43.36,49.864122,0.0009451553255896806,-0.023330473146428877,0.09814718933766527,44.11764879391193,-92.24360919585227,76.200527287817
2024-09-23 20:33:37.418184,43.36,49.864122,0.0009451553255896806,-0.023330473146428877,0.09814718933766527,44.11764879391193,-92.24360919585227,76.200527287817
2024-09-23 20:33:37.450560,43.39,49.864173,0.0009451553255896806,-0.023330473146428877,0.09814718933766527,44.11764879391193,-92.24360919585227,76.200527287817
2024-09-23 20:33:37.462391,43.39,49.864173,0.0005969341946851222,-0.02263404056809607,0.0973015264147526,44.11764879391193,-92.24360919585227,76.200527287817
2024-09-23 20:33:37.505898,43.39,49.864223,0.0006964318663124887,-0.02338022115155219,0.09745075675933246,44.11764879391193,-92.24360919585227,76.200527287817
2024-09-23 20:33:37.548310,43.39,49.864223,0.0006964318663124887,-0.02338022115155219,0.09745075675933246,32.08287849390507,-96.25519929585457,72.1922225099802
2024-09-23 20:33:37.559269,43.39,49.864274,0.0007461703303635545,-0.02268379009219606,0.09745075675933246,32.08287849390507,-96.25519929585457,72.1922225099802
2024-09-23 20:33:37.601411,43.39,49.864274,0.0007461703303635545,-0.02268379009219606,0.09740101331113918,32.08287849390507,-96.25519929585457,72.1922225099802
2024-09-23 20:33:37.644386,43.39,49.864274,0.0007461703303635545,-0.02268379009219606,0.09740101331113918,36.09446859390736,-88.23529758782387,72.1922225099802
2024-09-23 20:33:37.656084,43.39,49.864325,0.0005969341946851222,-0.023728432883788564,0.09740101331113918,36.09446859390736,-88.23529758782387,76.200527287817
2024-09-23 20:33:37.699407,43.39,49.864412,0.0005969341946851222,-0.023728432883788564,0.0973015264147526,48.12595698684454,-104.27510100388527,76.200527287817
2024-09-23 20:33:37.711883,43.39,49.864412,0.0007959191899112484,-0.023728432883788564,0.0973015264147526,48.12595698684454,-104.27510100388527,76.200527287817
2024-09-23 20:33:37.744660,43.39,49.864412,0.0007959191899112484,-0.023579196463302005,0.09755024973162574,32.08287849390507,-104.27510100388527,76.200527287817
2024-09-23 20:33:37.756502,43.39,49.864463,0.0007959191899112484,-0.023579196463302005,0.09755024973162574,32.08287849390507,-88.23529758782387,80.21211738781929
2024-09-23 20:33:37.789308,43.39,49.864463,0.0005969341946851222,-0.023579196463302005,0.09755024973162574,32.08287849390507,-88.23529758782387,80.21211738781929
2024-09-23 20:33:37.800662,43.39,49.864463,0.0005969341946851222,-0.023579196463302005,0.0976994861521123,40.106058693909645,-88.23529758782387,72.1922225099802
2024-09-23 20:33:37.843815,43.39,49.864514,0.000845657606494293,-0.022833026512682618,0.09710254654607277,40.106058693909645,-88.23529758782387,72.1922225099802
2024-09-23 20:33:37.855073,43.39,49.864514,0.000845657606494293,-0.022833026512682618,0.09710254654607277,48.12595698684454,-96.25519929585457,72.1922225099802
2024-09-23 20:33:37.887361,43.39,49.864514,0.000845657606494293,-0.022833026512682618,0.09710254654607277,48.12595698684454,-96.25519929585457,80.21211738781929
2024-09-23 20:33:37.899017,43.39,49.864608,0.0009948937421727254,-0.022584292562972758,0.0976994861521123,44.11764879391193,-96.25519929585457,80.21211738781929
2024-09-23 20:33:37.942446,43.39,49.864659,0.0013928637326249774,-0.023181236725942318,0.0976994861521123,44.11764879391193,-96.25519929585457,80.21211738781929
2024-09-23 20:33:37.954192,43.39,49.864659,0.0013928637326249774,-0.023181236725942318,0.09789846602079214,44.11764879391193,-96.25519929585457,80.21211738781929
2024-09-23 20:33:37.986484,43.39,49.864659,0.0013928637326249774,-0.023181236725942318,0.09789846602079214,48.12595698684454,-96.25519929585457,80.21211738781929
2024-09-23 20:33:38.038369,43.39,49.86471,0.001044642601720419,-0.023181236725942318,0.09789846602079214,48.12595698684454,-96.25519929585457,72.1922225099802
2024-09-23 20:33:38.049838,43.39,49.86471,0.001044642601720419,-0.02263404056809607,0.09710254654607277,48.12595698684454,-96.25519929585457,72.1922225099802
2024-09-23 20:33:38.084570,43.39,49.86471,0.001044642601720419,-0.02263404056809607,0.09710254654607277,40.106058693909645,-92.24360919585227,72.1922225099802
2024-09-23 20:33:38.096637,43.39,49.86476,0.0004974468710863627,-0.023230986250042305,0.09710254654607277,40.106058693909645,-92.24360919585227,72.1922225099802
2024-09-23 20:33:38.139058,43.39,49.864851,0.0005969341946851222,-0.023230986250042305,0.09750050628343246,44.11764879391193,-92.24360919585227,80.21211738781929
2024-09-23 20:33:38.182175,43.39,49.864851,0.0005969341946851222,-0.023181236725942318,0.09784872257259886,40.106058693909645,-92.24360919585227,80.21211738781929
2024-09-23 20:33:38.193238,43.39,49.864902,0.0005969341946851222,-0.023181236725942318,0.09784872257259886,40.106058693909645,-88.23529758782387,76.200527287817
2024-09-23 20:33:38.236687,43.39,49.864902,0.0007461703303635545,-0.023778180888911878,0.09774922960030558,44.11764879391193,-84.22370748782159,76.200527287817
2024-09-23 20:33:38.280219,43.39,49.864997,0.00034821073540793035,-0.02303200030545576,0.09774922960030558,44.11764879391193,-84.22370748782159,76.200527287817
2024-09-23 20:33:38.291392,43.39,49.864997,0.00034821073540793035,-0.02303200030545576,0.09715228999426605,40.106058693909645,-92.24360919585227,76.200527287817
2024-09-23 20:33:38.334250,43.39,49.865049,0.0009948937421727254,-0.023778180888911878,0.09705279702197278,36.09446859390736,-92.24360919585227,72.1922225099802
2024-09-23 20:33:38.376959,43.39,49.865099,0.0009948937421727254,-0.023778180888911878,0.09705279702197278,36.09446859390736,-88.23529758782387,76.200527287817
2024-09-23 20:33:38.387959,43.39,49.865099,0.0008954064660419869,-0.023181236725942318,0.09675432418099966,36.09446859390736,-88.23529758782387,76.200527287817
2024-09-23 20:33:38.430442,43.39,49.86515,0.0005969341946851222,-0.022733528983459317,0.09675432418099966,44.11764879391193,-100.26678939585686,76.200527287817
2024-09-23 20:33:38.472984,43.2,49.86515,0.0005969341946851222,-0.022733528983459317,0.09755024973162574,48.12595698684454,-100.26678939585686,76.200527287817
2024-09-23 20:33:38.485001,43.2,49.865201,0.0011441298778511575,-0.022733528983459317,0.09755024973162574,48.12595698684454,-100.26678939585686,76.200527287817
2024-09-23 20:33:38.527380,43.2,49.865201,0.0011441298778511575,-0.023479709566915436,0.0973512698629459,36.09446859390736,-88.23529758782387,72.1922225099802
2024-09-23 20:33:38.539359,43.2,49.865289,0.0011441298778511575,-0.023479709566915436,0.0973512698629459,36.09446859390736,-88.23529758782387,72.1922225099802
2024-09-23 20:33:38.571540,43.2,49.865289,9.948729986474904e-05,-0.023778180888911878,0.0973512698629459,36.09446859390736,-88.23529758782387,72.1922225099802
2024-09-23 20:33:38.583088,43.2,49.865289,9.948729986474904e-05,-0.023778180888911878,0.09740101331113918,40.106058693909645,-96.25519929585457,76.200527287817
2024-09-23 20:33:38.626873,43.2,49.865341,0.0005471957306340564,-0.023778180888911878,0.09740101331113918,40.106058693909645,-96.25519929585457,76.200527287817
2024-09-23 20:33:38.669330,43.2,49.865341,0.0005471957306340564,-0.02313149783467906,0.0973015264147526,36.09446859390736,-96.25519929585457,76.200527287817
2024-09-23 20:33:38.680516,43.2,49.865392,0.0005471957306340564,-0.02313149783467906,0.0973015264147526,36.09446859390736,-88.23529758782387,72.1922225099802
2024-09-23 20:33:38.723295,43.2,49.865392,0.000845657606494293,-0.02362894446842532,0.09740101331113918,40.106058693909645,-88.23529758782387,72.1922225099802
2024-09-23 20:33:38.736057,43.2,49.865392,0.000845657606494293,-0.02362894446842532,0.09740101331113918,40.106058693909645,-88.23529758782387,72.1922225099802
2024-09-23 20:33:38.770223,43.2,49.865442,0.0009451553255896806,-0.023330473146428877,0.0973015264147526,40.106058693909645,-88.23529758782387,72.1922225099802
2024-09-23 20:33:38.782376,43.2,49.865442,0.0009451553255896806,-0.023330473146428877,0.0973015264147526,40.106058693909645,-96.25519929585457,72.1922225099802
2024-09-23 20:33:38.814605,43.2,49.865493,0.0009451553255896806,-0.023330473146428877,0.0973015264147526,40.106058693909645,-96.25519929585457,76.200527287817
2024-09-23 20:33:38.825462,43.2,49.865493,0.0007461703303635545,-0.02362894446842532,0.09740101331113918,44.11764879391193,-96.25519929585457,76.200527287817
2024-09-23 20:33:38.868622,43.2,49.865544,0.0006964318663124887,-0.02308174982955575,0.0973512698629459,44.11764879391193,-92.24360919585227,72.1922225099802
2024-09-23 20:33:38.911269,43.2,49.865544,0.0006964318663124887,-0.02308174982955575,0.0973512698629459,40.106058693909645,-92.24360919585227,72.1922225099802
2024-09-23 20:33:38.922721,43.2,49.865633,0.0007461703303635545,-0.023230986250042305,0.0973512698629459,40.106058693909645,-100.26678939585686,76.200527287817
2024-09-23 20:33:38.965860,43.2,49.865683,0.0007461703303635545,-0.023230986250042305,0.09789846602079214,44.11764879391193,-96.25519929585457,76.200527287817
2024-09-23 20:33:39.009927,43.2,49.865683,0.00034821073540793035,-0.022584292562972758,0.09789846602079214,44.11764879391193,-96.25519929585457,76.200527287817
2024-09-23 20:33:39.021646,43.2,49.865683,0.00034821073540793035,-0.022584292562972758,0.0970030596496862,48.12595698684454,-96.25519929585457,76.200527287817
2024-09-23 20:33:39.065195,43.2,49.865777,0.0009948937421727254,-0.02308174982955575,0.0973512698629459,44.11764879391193,-88.23529758782387,76.200527287817
2024-09-23 20:33:39.108770,43.2,49.865828,0.0009451553255896806,-0.02308174982955575,0.0973512698629459,44.11764879391193,-88.23529758782387,80.21211738781929
2024-09-23 20:33:39.120621,43.2,49.865828,0.0009451553255896806,-0.022982261414192504,0.09695331012558621,44.11764879391193,-88.23529758782387,80.21211738781929
2024-09-23 20:33:39.154562,43.2,49.865828,0.0009451553255896806,-0.022982261414192504,0.09695331012558621,44.11764879391193,-84.22370748782159,80.21211738781929
2024-09-23 20:33:39.165815,43.2,49.865879,0.000845657606494293,-0.023230986250042305,0.09764974270391902,44.11764879391193,-84.22370748782159,80.21211738781929
2024-09-23 20:33:39.207636,43.2,49.86593,0.000845657606494293,-0.023230986250042305,0.09764974270391902,44.11764879391193,-88.23529758782387,80.21211738781929
2024-09-23 20:33:39.219104,43.2,49.86593,0.001044642601720419,-0.02313149783467906,0.09764974270391902,44.11764879391193,-88.23529758782387,80.21211738781929
2024-09-23 20:33:39.252144,43.2,49.86593,0.001044642601720419,-0.02313149783467906,0.09755024973162574,44.11764879391193,-88.23529758782387,80.21211738781929
2024-09-23 20:33:39.263213,43.2,49.86598,0.00034821073540793035,-0.02313149783467906,0.09755024973162574,44.11764879391193,-92.24360919585227,80.21211738781929
2024-09-23 20:33:39.306650,43.2,49.86598,0.00034821073540793035,-0.022833026512682618,0.09750050628343246,44.11764879391193,-88.23529758782387,76.200527287817
2024-09-23 20:33:39.318228,43.2,49.866069,0.00034821073540793035,-0.022833026512682618,0.09750050628343246,44.11764879391193,-88.23529758782387,76.200527287817
2024-09-23 20:33:39.350362,43.2,49.866069,0.0012436275969465451,-0.022833026512682618,0.09750050628343246,44.11764879391193,-88.23529758782387,76.200527287817
2024-09-23 20:33:39.362190,43.2,49.866069,0.0012436275969465451,-0.022833026512682618,0.09740101331113918,44.11764879391193,-96.25519929585457,76.200527287817
2024-09-23 20:33:39.405238,43.2,49.866121,0.0007959191899112484,-0.02293251340906919,0.09715228999426605,36.09446859390736,-96.25519929585457,76.200527287817
2024-09-23 20:33:39.448203,43.2,49.866172,0.0007959191899112484,-0.02293251340906919,0.09715228999426605,36.09446859390736,-96.25519929585457,80.21211738781929
2024-09-23 20:33:39.459328,43.2,49.866172,0.0012436275969465451,-0.023181236725942318,0.09814718933766527,36.09446859390736,-96.25519929585457,80.21211738781929
2024-09-23 20:33:39.502269,43.35,49.866222,0.0010943914612681128,-0.0228827638849692,0.09814718933766527,36.09446859390736,-92.24360919585227,76.200527287817
2024-09-23 20:33:39.514540,43.35,49.866222,0.0010943914612681128,-0.0228827638849692,0.0970030596496862,36.09446859390736,-92.24360919585227,76.200527287817
2024-09-23 20:33:39.546985,43.35,49.866222,0.0010943914612681128,-0.0228827638849692,0.0970030596496862,52.137550501942634,-88.23529758782387,76.200527287817
2024-09-23 20:33:39.557906,43.35,49.866273,0.0011441298778511575,-0.02338022115155219,0.0970030596496862,52.137550501942634,-88.23529758782387,76.200527287817
2024-09-23 20:33:39.600066,43.35,49.866324,0.0007959191899112484,-0.02338022115155219,0.09764974270391902,44.11764879391193,-88.23529758782387,76.200527287817
2024-09-23 20:33:39.645947,43.35,49.866324,0.0007959191899112484,-0.02367869399252531,0.098047696365372,40.106058693909645,-88.23529758782387,76.200527287817
2024-09-23 20:33:39.657136,43.35,49.866411,0.0007959191899112484,-0.02367869399252531,0.098047696365372,40.106058693909645,-96.25519929585457,84.22370748782159
2024-09-23 20:33:39.690632,43.35,49.866411,0.0004974468710863627,-0.02367869399252531,0.098047696365372,40.106058693909645,-96.25519929585457,84.22370748782159
2024-09-23 20:33:39.701903,43.35,49.866411,0.0004974468710863627,-0.022982261414192504,0.09685382322919964,40.106058693909645,-100.26678939585686,72.1922225099802
2024-09-23 20:33:39.745705,43.35,49.866462,0.001044642601720419,-0.023181236725942318,0.0976994861521123,36.09446859390736,-100.26678939585686,72.1922225099802
2024-09-23 20:33:39.757129,43.35,49.866462,0.001044642601720419,-0.023181236725942318,0.0976994861521123,36.09446859390736,-92.24360919585227,72.1922225099802
2024-09-23 20:33:39.790389,43.35,49.866513,0.001044642601720419,-0.023181236725942318,0.0976994861521123,36.09446859390736,-92.24360919585227,76.200527287817
2024-09-23 20:33:39.801876,43.35,49.866513,0.0001989745997294981,-0.02313149783467906,0.09710254654607277,44.11764879391193,-92.24360919585227,76.200527287817
2024-09-23 20:33:39.845004,43.35,49.866563,0.0013431148730772837,-0.023877669304275123,0.09715228999426605,44.11764879391193,-92.24360919585227,72.1922225099802
2024-09-23 20:33:39.888500,43.35,49.866563,0.0013431148730772837,-0.023877669304275123,0.09715228999426605,44.11764879391193,-92.24360919585227,76.200527287817
2024-09-23 20:33:39.900229,43.35,49.866614,0.0006466830067647949,-0.02303200030545576,0.09715228999426605,44.11764879391193,-92.24360919585227,76.200527287817
2024-09-23 20:33:39.943190,43.35,49.866665,0.0009948937421727254,-0.02303200030545576,0.09745075675933246,44.11764879391193,-96.25519929585457,80.21211738781929
2024-09-23 20:33:39.985746,43.35,49.866665,0.0009948937421727254,-0.02308174982955575,0.098047696365372,36.09446859390736,-96.25519929585457,80.21211738781929
2024-09-23 20:33:39.997575,43.35,49.866752,0.0009948937421727254,-0.02308174982955575,0.098047696365372,36.09446859390736,-92.24360919585227,80.21211738781929
2024-09-23 20:33:40.040700,43.35,49.866752,0.00044769805900669,-0.02308174982955575,0.0973015264147526,48.12595698684454,-84.22370748782159,88.23529758782387
2024-09-23 20:33:40.082469,43.35,49.866803,0.0011938787373988514,-0.023181236725942318,0.0973015264147526,48.12595698684454,-84.22370748782159,88.23529758782387
2024-09-23 20:33:40.093468,43.35,49.866803,0.0011938787373988514,-0.023181236725942318,0.09725178296655933,48.12595698684454,-96.25519929585457,88.23529758782387
2024-09-23 20:33:40.137332,43.35,49.866854,0.0007959191899112484,-0.02303200030545576,0.09695331012558621,44.11764879391193,-96.25519929585457,76.200527287817
2024-09-23 20:33:40.179387,43.35,49.866854,0.0007959191899112484,-0.02303200030545576,0.09695331012558621,44.11764879391193,-92.24360919585227,72.1922225099802
2024-09-23 20:33:40.190689,43.35,49.866905,0.0005471957306340564,-0.022982261414192504,0.09809744588947199,44.11764879391193,-92.24360919585227,72.1922225099802
2024-09-23 20:33:40.233703,43.35,49.866956,0.0004974468710863627,-0.022982261414192504,0.09809744588947199,36.09446859390736,-84.22370748782159,76.200527287817
2024-09-23 20:33:40.245818,43.35,49.866956,0.0004974468710863627,-0.0228827638849692,0.09809744588947199,36.09446859390736,-84.22370748782159,76.200527287817
2024-09-23 20:33:40.278668,43.35,49.866956,0.0004974468710863627,-0.0228827638849692,0.0973512698629459,52.137550501942634,-88.23529758782387,76.200527287817
2024-09-23 20:33:40.289899,43.35,49.867006,0.0009451553255896806,-0.0228827638849692,0.0973512698629459,52.137550501942634,-88.23529758782387,80.21211738781929
2024-09-23 20:33:40.332336,43.35,49.867093,0.0009451553255896806,-0.02338022115155219,0.09720203344245934,40.106058693909645,-92.24360919585227,80.21211738781929
2024-09-23 20:33:40.374284,43.35,49.867093,0.0005471957306340564,-0.023429960042815445,0.09720203344245934,40.106058693909645,-92.24360919585227,80.21211738781929
2024-09-23 20:33:40.385716,43.35,49.867093,0.0005471957306340564,-0.023429960042815445,0.09755024973162574,32.08287849390507,-92.24360919585227,76.200527287817
2024-09-23 20:33:40.429149,43.35,49.867145,4.973845218406054e-05,-0.02268379009219606,0.09779897304849887,44.11764879391193,-96.25519929585457,76.200527287817
2024-09-23 20:33:40.471417,43.35,49.867195,4.973845218406054e-05,-0.02268379009219606,0.09779897304849887,44.11764879391193,-96.25519929585457,76.200527287817
2024-09-23 20:33:40.482748,43.35,49.867195,0.00024872343554318134,-0.0228827638849692,0.09720203344245934,40.106058693909645,-96.25519929585457,76.200527287817
2024-09-23 20:33:40.526275,43.36,49.867246,0.000845657606494293,-0.022833026512682618,0.09740101331113918,40.106058693909645,-100.26678939585686,72.1922225099802
2024-09-23 20:33:40.568871,43.36,49.867246,0.000845657606494293,-0.022833026512682618,0.09740101331113918,48.12595698684454,-96.25519929585457,72.1922225099802
2024-09-23 20:33:40.580312,43.36,49.867297,9.948729986474904e-05,-0.023230986250042305,0.09740101331113918,48.12595698684454,-96.25519929585457,76.200527287817
2024-09-23 20:33:40.622442,43.36,49.867347,9.948729986474904e-05,-0.023230986250042305,0.09750050628343246,48.12595698684454,-100.26678939585686,72.1922225099802
2024-09-23 20:33:40.634489,43.36,49.867347,0.000845657606494293,-0.023230986250042305,0.09750050628343246,48.12595698684454,-100.26678939585686,72.1922225099802
2024-09-23 20:33:40.667126,43.36,49.867347,0.000845657606494293,-0.0228827638849692,0.09750050628343246,48.12595698684454,-100.26678939585686,72.1922225099802
2024-09-23 20:33:40.678278,43.36,49.867434,0.000845657606494293,-0.0228827638849692,0.09750050628343246,36.09446859390736,-88.23529758782387,76.200527287817
2024-09-23 20:33:40.720536,43.36,49.867434,0.00014922575204880957,-0.023230986250042305,0.09710254654607277,40.106058693909645,-96.25519929585457,76.200527287817
2024-09-23 20:33:40.732425,43.36,49.867434,0.00014922575204880957,-0.023230986250042305,0.09710254654607277,40.106058693909645,-96.25519929585457,80.21211738781929
2024-09-23 20:33:40.764514,43.36,49.867486,0.00044769805900669,-0.023230986250042305,0.09710254654607277,40.106058693909645,-96.25519929585457,80.21211738781929
2024-09-23 20:33:40.776410,43.36,49.867486,0.00044769805900669,-0.023429960042815445,0.09755024973162574,40.106058693909645,-104.27510100388527,80.21211738781929
2024-09-23 20:33:40.819588,43.36,49.867537,0.0006466830067647949,-0.023927417309398437,0.098047696365372,44.11764879391193,-104.27510100388527,76.200527287817
2024-09-23 20:33:40.861892,43.36,49.867537,0.0006466830067647949,-0.023927417309398437,0.098047696365372,44.11764879391193,-100.26678939585686,76.200527287817
2024-09-23 20:33:40.873913,43.36,49.867587,0.0005969341946851222,-0.02303200030545576,0.09779897304849887,44.11764879391193,-100.26678939585686,76.200527287817
2024-09-23 20:33:40.917718,43.36,49.867638,0.0005471957306340564,-0.023280723622328886,0.09779897304849887,32.08287849390507,-92.24360919585227,80.21211738781929
2024-09-23 20:33:40.959691,43.36,49.867638,0.0005471957306340564,-0.023280723622328886,0.09720203344245934,32.08287849390507,-92.24360919585227,80.21211738781929
2024-09-23 20:33:40.970998,43.36,49.867689,0.0013431148730772837,-0.023280723622328886,0.09720203344245934,32.08287849390507,-100.26678939585686,76.200527287817
2024-09-23 20:33:41.013849,43.36,49.867689,0.0013431148730772837,-0.02367869399252531,0.09794820946898543,32.08287849390507,-100.26678939585686,76.200527287817
2024-09-23 20:33:41.056442,43.36,49.867689,0.0013431148730772837,-0.02367869399252531,0.09794820946898543,40.106058693909645,-100.26678939585686,76.200527287817
2024-09-23 20:33:41.067724,43.36,49.867776,0.0005969341946851222,-0.02308174982955575,0.09794820946898543,40.106058693909645,-100.26678939585686,72.1922225099802
2024-09-23 20:33:41.110363,43.36,49.867827,0.0005969341946851222,-0.02308174982955575,0.0973512698629459,36.09446859390736,-96.25519929585457,80.21211738781929
2024-09-23 20:33:41.122449,43.36,49.867827,0.0005471957306340564,-0.02308174982955575,0.0973512698629459,36.09446859390736,-96.25519929585457,80.21211738781929
2024-09-23 20:33:41.155534,43.36,49.867827,0.0005471957306340564,-0.023181236725942318,0.09779897304849887,36.09446859390736,-96.25519929585457,80.21211738781929
2024-09-23 20:33:41.166979,43.36,49.867878,0.0005471957306340564,-0.023181236725942318,0.09779897304849887,40.106058693909645,-92.24360919585227,80.21211738781929
2024-09-23 20:33:41.209711,43.36,49.867878,0.0007461703303635545,-0.023429960042815445,0.09710254654607277,36.09446859390736,-92.24360919585227,80.21211738781929
2024-09-23 20:33:41.251260,43.36,49.867928,0.0011441298778511575,-0.023429960042815445,0.09710254654607277,36.09446859390736,-92.24360919585227,80.21211738781929
2024-09-23 20:33:41.262743,43.36,49.867928,0.0011441298778511575,-0.02313149783467906,0.0973512698629459,44.11764879391193,-100.26678939585686,80.21211738781929
2024-09-23 20:33:41.305408,43.36,49.86802,0.0006466830067647949,-0.02313149783467906,0.09764974270391902,44.11764879391193,-100.26678939585686,76.200527287817
2024-09-23 20:33:41.317360,43.36,49.86802,0.0006466830067647949,-0.02313149783467906,0.09764974270391902,48.12595698684454,-100.26678939585686,76.200527287817
2024-09-23 20:33:41.349110,43.36,49.86802,0.0006466830067647949,-0.02313149783467906,0.09764974270391902,48.12595698684454,-96.25519929585457,72.1922225099802
2024-09-23 20:33:41.360918,43.36,49.868072,0.0006964318663124887,-0.02338022115155219,0.09705279702197278,48.12595698684454,-96.25519929585457,72.1922225099802
2024-09-23 20:33:41.404136,43.36,49.868122,0.0007461703303635545,-0.022982261414192504,0.09705279702197278,40.106058693909645,-92.24360919585227,76.200527287817
2024-09-23 20:33:41.446457,43.36,49.868122,0.0007461703303635545,-0.022982261414192504,0.09740101331113918,36.09446859390736,-92.24360919585227,76.200527287817
2024-09-23 20:33:41.457593,43.36,49.868173,0.0007461703303635545,-0.022982261414192504,0.09740101331113918,36.09446859390736,-100.26678939585686,72.1922225099802
2024-09-23 20:33:41.499672,43.36,49.868173,0.0007461703303635545,-0.022833026512682618,0.0973512698629459,36.09446859390736,-96.25519929585457,72.1922225099802
2024-09-23 20:33:41.511630,43.36,49.868263,0.0007461703303635545,-0.022833026512682618,0.0973512698629459,36.09446859390736,-96.25519929585457,72.1922225099802
2024-09-23 20:33:41.543480,43.47,49.868263,0.0009451553255896806,-0.02352945757203875,0.0973512698629459,36.09446859390736,-96.25519929585457,72.1922225099802
2024-09-23 20:33:41.554754,43.47,49.868263,0.0009451553255896806,-0.02352945757203875,0.09759999317981902,44.11764879391193,-92.24360919585227,80.21211738781929
2024-09-23 20:33:41.597158,43.47,49.868315,0.0004974468710863627,-0.023330473146428877,0.09764974270391902,36.09446859390736,-92.24360919585227,80.21211738781929
2024-09-23 20:33:41.608875,43.47,49.868315,0.0004974468710863627,-0.023330473146428877,0.09764974270391902,36.09446859390736,-92.24360919585227,80.21211738781929
2024-09-23 20:33:41.641287,43.47,49.868365,0.0004974468710863627,-0.023330473146428877,0.09764974270391902,36.09446859390736,-92.24360919585227,80.21211738781929
2024-09-23 20:33:41.653087,43.47,49.868365,0.0005471957306340564,-0.023330473146428877,0.09764974270391902,36.09446859390736,-92.24360919585227,80.21211738781929
2024-09-23 20:33:41.695321,43.47,49.868365,0.0005471957306340564,-0.02367869399252531,0.098047696365372,36.09446859390736,-92.24360919585227,84.22370748782159
2024-09-23 20:33:41.707482,43.47,49.868416,0.0005471957306340564,-0.02367869399252531,0.098047696365372,36.09446859390736,-92.24360919585227,84.22370748782159
2024-09-23 20:33:41.739340,43.47,49.868416,0.000845657606494293,-0.02303200030545576,0.098047696365372,36.09446859390736,-92.24360919585227,84.22370748782159
2024-09-23 20:33:41.750751,43.47,49.868416,0.000845657606494293,-0.02303200030545576,0.09764974270391902,36.09446859390736,-92.24360919585227,80.21211738781929
2024-09-23 20:33:41.793632,43.47,49.868467,0.001044642601720419,-0.02268379009219606,0.09764974270391902,44.11764879391193,-84.22370748782159,80.21211738781929
2024-09-23 20:33:41.836324,43.47,49.868517,0.001044642601720419,-0.02268379009219606,0.09764974270391902,44.11764879391193,-84.22370748782159,80.21211738781929
2024-09-23 20:33:41.848127,43.47,49.868517,0.0005969341946851222,-0.02308174982955575,0.09740101331113918,44.11764879391193,-84.22370748782159,80.21211738781929
2024-09-23 20:33:41.890710,43.47,49.868604,0.0010943914612681128,-0.02278327698858263,0.09740101331113918,44.11764879391193,-92.24360919585227,88.23529758782387
2024-09-23 20:33:41.902358,43.47,49.868604,0.0010943914612681128,-0.02278327698858263,0.09764974270391902,44.11764879391193,-92.24360919585227,88.23529758782387
2024-09-23 20:33:41.934181,43.47,49.868604,0.0010943914612681128,-0.02278327698858263,0.09764974270391902,40.106058693909645,-92.24360919585227,88.23529758782387
2024-09-23 20:33:41.946043,43.47,49.868656,0.0003979595949556242,-0.02263404056809607,0.09764974270391902,40.106058693909645,-92.24360919585227,80.21211738781929
2024-09-23 20:33:41.989625,43.47,49.868707,0.0011441298778511575,-0.02263404056809607,0.09690356060148622,48.12595698684454,-92.24360919585227,72.1922225099802
2024-09-23 20:33:42.033091,43.47,49.868707,0.0011441298778511575,-0.02362894446842532,0.09725178296655933,48.12595698684454,-92.24360919585227,72.1922225099802
2024-09-23 20:33:42.044415,43.47,49.868799,0.0011441298778511575,-0.02362894446842532,0.09725178296655933,48.12595698684454,-88.23529758782387,76.200527287817
2024-09-23 20:33:42.086913,43.47,49.868799,0.001044642601720419,-0.022982261414192504,0.09675432418099966,40.106058693909645,-92.24360919585227,68.18063240997792
2024-09-23 20:33:42.129161,43.47,49.868851,0.0005471957306340564,-0.022982261414192504,0.09675432418099966,40.106058693909645,-92.24360919585227,68.18063240997792
2024-09-23 20:33:42.141171,43.47,49.868851,0.0005471957306340564,-0.023181236725942318,0.09755024973162574,44.11764879391193,-92.24360919585227,68.18063240997792
2024-09-23 20:33:42.183938,43.47,49.868902,0.0007461703303635545,-0.02263404056809607,0.09774922960030558,44.11764879391193,-92.24360919585227,72.1922225099802
2024-09-23 20:33:42.226430,43.47,49.868902,0.0007461703303635545,-0.02263404056809607,0.09774922960030558,44.11764879391193,-92.24360919585227,76.200527287817
2024-09-23 20:33:42.237379,43.47,49.868952,0.0007461703303635545,-0.023330473146428877,0.09784872257259886,44.11764879391193,-92.24360919585227,76.200527287817
2024-09-23 20:33:42.280768,43.47,49.869003,0.0006466830067647949,-0.023429960042815445,0.09784872257259886,52.137550501942634,-92.24360919585227,76.200527287817
2024-09-23 20:33:42.323130,43.47,49.869003,0.0006466830067647949,-0.023429960042815445,0.09759999317981902,44.11764879391193,-92.24360919585227,76.200527287817
2024-09-23 20:33:42.335036,43.47,49.869054,0.0009451553255896806,-0.023429960042815445,0.09759999317981902,44.11764879391193,-92.24360919585227,80.21211738781929
2024-09-23 20:33:42.376777,43.47,49.869054,0.0009451553255896806,-0.023181236725942318,0.0970030596496862,36.09446859390736,-96.25519929585457,80.21211738781929
2024-09-23 20:33:42.388978,43.47,49.869141,0.0009451553255896806,-0.023181236725942318,0.0970030596496862,36.09446859390736,-96.25519929585457,80.21211738781929
2024-09-23 20:33:42.422255,43.47,49.869141,0.0005471957306340564,-0.023181236725942318,0.0970030596496862,36.09446859390736,-96.25519929585457,80.21211738781929
2024-09-23 20:33:42.434026,43.47,49.869141,0.0005471957306340564,-0.023181236725942318,0.0973015264147526,36.09446859390736,-88.23529758782387,76.200527287817
2024-09-23 20:33:42.476517,43.47,49.869192,0.0009451553255896806,-0.02303200030545576,0.09759999317981902,44.11764879391193,-88.23529758782387,76.200527287817
2024-09-23 20:33:42.488108,43.47,49.869192,0.0009451553255896806,-0.02303200030545576,0.09759999317981902,44.11764879391193,-96.25519929585457,76.200527287817
2024-09-23 20:33:42.520783,43.47,49.869243,0.0006964318663124887,-0.02303200030545576,0.09759999317981902,44.11764879391193,-96.25519929585457,72.1922225099802
2024-09-23 20:33:42.532250,43.47,49.869243,0.0006964318663124887,-0.022982261414192504,0.09755024973162574,32.08287849390507,-96.25519929585457,72.1922225099802
2024-09-23 20:33:42.574648,43.28,49.869294,0.0003979595949556242,-0.022484804147609512,0.09750050628343246,32.08287849390507,-92.24360919585227,80.21211738781929
2024-09-23 20:33:42.617565,43.28,49.869294,0.0003979595949556242,-0.022484804147609512,0.09750050628343246,40.106058693909645,-92.24360919585227,80.21211738781929
2024-09-23 20:33:42.629774,43.28,49.869345,0.0006466830067647949,-0.02313149783467906,0.09750050628343246,40.106058693909645,-92.24360919585227,84.22370748782159
2024-09-23 20:33:42.673012,43.28,49.869395,0.00029846189959424716,-0.02313149783467906,0.09710254654607277,52.137550501942634,-104.27510100388527,68.18063240997792
2024-09-23 20:33:42.715806,43.28,49.869395,0.00029846189959424716,-0.02362894446842532,0.09759999317981902,40.106058693909645,-104.27510100388527,68.18063240997792
2024-09-23 20:33:42.727718,43.28,49.869482,0.00029846189959424716,-0.02362894446842532,0.09759999317981902,40.106058693909645,-88.23529758782387,72.1922225099802
2024-09-23 20:33:42.760700,43.28,49.869482,0.0010943914612681128,-0.02362894446842532,0.09759999317981902,40.106058693909645,-88.23529758782387,72.1922225099802
