Ayaan's Suite
Timestamp,Sample Rate (Hz),Time,Ax,Ay,Az,Gx,Gy,Gz
2024-09-23 15:25:17.318608,0,31.363649,-0.0032831742888682963,-0.02338022115155219,0.09670458680871308,40.106058693909645,-100.26678939585686,80.21211738781929
2024-09-23 15:25:17.351806,0,31.363649,-0.0032831742888682963,-0.02268379009219606,0.0970030596496862,40.106058693909645,-100.26678939585686,80.21211738781929
2024-09-23 15:25:17.363597,0,31.363736,-0.0032831742888682963,-0.02268379009219606,0.0970030596496862,48.12595698684454,-88.23529758782387,80.21211738781929
2024-09-23 15:25:17.407775,0,31.363736,-0.0033329230534799477,-0.02278327698858263,0.0970030596496862,36.09446859390736,-96.25519929585457,80.21211738781929
2024-09-23 15:25:17.450129,0,31.363788,-0.0030841997366068195,-0.02293251340906919,0.0970030596496862,36.09446859390736,-96.25519929585457,80.21211738781929
2024-09-23 15:25:17.461928,0,31.363788,-0.0030841997366068195,-0.02293251340906919,0.0973512698629459,28.07457030097246,-108.28669110388756,80.21211738781929
2024-09-23 15:25:17.504403,0,31.363839,-0.0037308827908396356,-0.0228827638849692,0.09759999317981902,40.106058693909645,-108.28669110388756,76.200527287817
2024-09-23 15:25:17.547487,0,31.363889,-0.0037308827908396356,-0.0228827638849692,0.09759999317981902,40.106058693909645,-116.30987130389214,64.16903547978401
2024-09-23 15:25:17.559032,0,31.363889,-0.002636491424507565,-0.023429960042815445,0.09680407370509965,40.106058693909645,-116.30987130389214,64.16903547978401
2024-09-23 15:25:17.602456,0,31.36394,-0.0032831742888682963,-0.02397715620066169,0.09680407370509965,84.22370748782159,-84.22370748782159,88.23529758782387
2024-09-23 15:25:17.645069,0,31.36394,-0.0032831742888682963,-0.02397715620066169,0.09585891780989371,-24.06297849342227,-116.30987130389214,88.23529758782387
2024-09-23 15:25:17.656377,0,31.363991,-0.003382661564999035,-0.02397715620066169,0.09585891780989371,-24.06297849342227,-116.30987130389214,76.200527287817
2024-09-23 15:25:17.699354,0,31.364078,-0.003382661564999035,-0.023181236725942318,0.09745075675933246,52.137550501942634,-88.23529758782387,88.23529758782387
2024-09-23 15:25:17.741085,0,31.364078,-0.0031339382481259063,-0.02308174982955575,0.09745075675933246,52.137550501942634,-88.23529758782387,88.23529758782387
2024-09-23 15:25:17.753076,0,31.364078,-0.0031339382481259063,-0.02308174982955575,0.09710254654607277,64.16903547978401,-84.22370748782159,84.22370748782159
2024-09-23 15:25:17.797689,0,31.364129,-0.0035816467500972456,-0.023280723622328886,0.09695331012558621,48.12595698684454,-100.26678939585686,84.22370748782159
2024-09-23 15:25:17.839896,0,31.36418,-0.0033329230534799477,-0.023280723622328886,0.09695331012558621,48.12595698684454,-100.26678939585686,72.1922225099802
2024-09-23 15:25:17.850963,0,31.36418,-0.0033329230534799477,-0.022733528983459317,0.09705279702197278,36.09446859390736,-100.26678939585686,72.1922225099802
2024-09-23 15:25:17.892634,0,31.364231,-0.0034324103296106863,-0.023579196463302005,0.09750050628343246,36.09446859390736,-96.25519929585457,76.200527287817
2024-09-23 15:25:17.935615,0,31.364231,-0.0034324103296106863,-0.023579196463302005,0.09750050628343246,48.12595698684454,-84.22370748782159,76.200527287817
2024-09-23 15:25:17.947024,0,31.364281,-0.0033329230534799477,-0.023479709566915436,0.09750050628343246,48.12595698684454,-84.22370748782159,84.22370748782159
2024-09-23 15:25:17.989348,0,31.364332,-0.0033329230534799477,-0.023479709566915436,0.09685382322919964,44.11764879391193,-96.25519929585457,84.22370748782159
2024-09-23 15:25:18.001093,0,31.364332,-0.0029349636958644295,-0.023479709566915436,0.09685382322919964,44.11764879391193,-96.25519929585457,84.22370748782159
2024-09-23 15:25:18.033670,0,31.364332,-0.0029349636958644295,-0.02268379009219606,0.0973512698629459,44.11764879391193,-96.25519929585457,84.22370748782159
2024-09-23 15:25:18.044900,0,31.364419,-0.0029349636958644295,-0.02268379009219606,0.0973512698629459,32.08287849390507,-100.26678939585686,76.200527287817
2024-09-23 15:25:18.086681,0,31.364419,-0.0031339382481259063,-0.023280723622328886,0.09705279702197278,28.07457030097246,-92.24360919585227,76.200527287817
2024-09-23 15:25:18.098525,0,31.364419,-0.0031339382481259063,-0.023280723622328886,0.09705279702197278,28.07457030097246,-92.24360919585227,84.22370748782159
2024-09-23 15:25:18.132301,0,31.36447,-0.0031339382481259063,-0.023429960042815445,0.09705279702197278,28.07457030097246,-92.24360919585227,84.22370748782159
2024-09-23 15:25:18.143446,0,31.36447,-0.0031339382481259063,-0.023429960042815445,0.09774922960030558,56.14914060194492,-96.25519929585457,84.22370748782159
2024-09-23 15:25:18.185896,0,31.364521,-0.003482159473966507,-0.0228827638849692,0.09675432418099966,80.21211738781929,-96.25519929585457,76.200527287817
2024-09-23 15:25:18.227826,0,31.364521,-0.003482159473966507,-0.0228827638849692,0.09675432418099966,80.21211738781929,-76.200527287817,92.24360919585227
2024-09-23 15:25:18.238808,0,31.364572,-0.0032831742888682963,-0.022982261414192504,0.09715228999426605,80.21211738781929,-76.200527287817,92.24360919585227
2024-09-23 15:25:18.282306,0,31.364622,-0.0029847020175114316,-0.022982261414192504,0.09715228999426605,64.16903547978401,-72.1922225099802,100.26678939585686
2024-09-23 15:25:18.294292,0,31.364622,-0.0029847020175114316,-0.023877669304275123,0.09715228999426605,64.16903547978401,-72.1922225099802,100.26678939585686
2024-09-23 15:25:18.325825,42.18,31.364622,-0.0029847020175114316,-0.023877669304275123,0.09710254654607277,40.106058693909645,-72.1922225099802,100.26678939585686
2024-09-23 15:25:18.336965,42.18,31.364673,-0.0029847020175114316,-0.023877669304275123,0.09710254654607277,40.106058693909645,-88.23529758782387,84.22370748782159
2024-09-23 15:25:18.379043,42.18,31.364673,-0.0029847020175114316,-0.023280723622328886,0.09690356060148622,40.106058693909645,-104.27510100388527,80.21211738781929
2024-09-23 15:25:18.391035,42.18,31.36476,-0.0029847020175114316,-0.023280723622328886,0.09690356060148622,40.106058693909645,-104.27510100388527,80.21211738781929
2024-09-23 15:25:18.423154,42.18,31.36476,-0.0036811340262279837,-0.023479709566915436,0.09690356060148622,40.106058693909645,-104.27510100388527,80.21211738781929
2024-09-23 15:25:18.434480,42.18,31.36476,-0.0036811340262279837,-0.023479709566915436,0.09745075675933246,40.106058693909645,-96.25519929585457,72.1922225099802
2024-09-23 15:25:18.476469,42.18,31.364812,-0.003482159473966507,-0.023877669304275123,0.09715228999426605,28.07457030097246,-96.25519929585457,72.1922225099802
2024-09-23 15:25:18.488198,42.18,31.364812,-0.003482159473966507,-0.023877669304275123,0.09715228999426605,28.07457030097246,-96.25519929585457,72.1922225099802
2024-09-23 15:25:18.521240,42.18,31.364863,-0.003482159473966507,-0.023877669304275123,0.09715228999426605,28.07457030097246,-96.25519929585457,84.22370748782159
2024-09-23 15:25:18.532545,42.18,31.364863,-0.002785727465249955,-0.023230986250042305,0.09685382322919964,28.07457030097246,-96.25519929585457,84.22370748782159
2024-09-23 15:25:18.574990,42.18,31.364914,-0.0034324103296106863,-0.02308174982955575,0.09685382322919964,28.07457030097246,-92.24360919585227,80.21211738781929
2024-09-23 15:25:18.586780,42.18,31.364914,-0.0034324103296106863,-0.02308174982955575,0.0966050877605131,28.07457030097246,-92.24360919585227,80.21211738781929
2024-09-23 15:25:18.618719,42.18,31.364914,-0.0034324103296106863,-0.02308174982955575,0.0966050877605131,32.08287849390507,-100.26678939585686,80.21211738781929
2024-09-23 15:25:18.630718,42.18,31.364964,-0.0029349636958644295,-0.022982261414192504,0.0966050877605131,32.08287849390507,-100.26678939585686,80.21211738781929
2024-09-23 15:25:18.673810,42.18,31.364964,-0.0029349636958644295,-0.022982261414192504,0.09680407370509965,40.106058693909645,-100.26678939585686,80.21211738781929
2024-09-23 15:25:18.715953,42.18,31.365015,-0.0029349636958644295,-0.022982261414192504,0.09680407370509965,40.106058693909645,-100.26678939585686,80.21211738781929
2024-09-23 15:25:18.727824,42.18,31.365015,-0.0032831742888682963,-0.023877669304275123,0.0966050877605131,80.21211738781929,-100.26678939585686,80.21211738781929
2024-09-23 15:25:18.771551,42.18,31.365101,-0.0030344509719951677,-0.023877669304275123,0.09630662707135339,80.21211738781929,-96.25519929585457,80.21211738781929
2024-09-23 15:25:18.813442,42.18,31.365101,-0.0030344509719951677,-0.023877669304275123,0.09630662707135339,-36.09446859390736,-152.40433306760787,80.21211738781929
2024-09-23 15:25:18.824527,42.18,31.365153,-0.0033329230534799477,-0.02278327698858263,0.09630662707135339,-36.09446859390736,-152.40433306760787,52.137550501942634
2024-09-23 15:25:18.867224,42.18,31.365204,-0.0033329230534799477,-0.02278327698858263,0.09690356060148622,-32.08287849390507,-132.3529532119274,56.14914060194492
2024-09-23 15:25:18.879363,42.18,31.365204,-0.0029349636958644295,-0.02278327698858263,0.09690356060148622,-32.08287849390507,-132.3529532119274,56.14914060194492
2024-09-23 15:25:18.912377,42.18,31.365204,-0.0029349636958644295,-0.023280723622328886,0.09695331012558621,12.031489246711136,-132.3529532119274,56.14914060194492
2024-09-23 15:25:18.923977,42.18,31.365254,-0.0029349636958644295,-0.023280723622328886,0.09695331012558621,12.031489246711136,-112.29828120388984,76.200527287817
2024-09-23 15:25:18.966706,42.18,31.365254,-0.0031836870127375577,-0.02303200030545576,0.09745075675933246,36.09446859390736,-104.27510100388527,80.21211738781929
2024-09-23 15:25:19.010533,42.18,31.365346,-0.003482159473966507,-0.023230986250042305,0.09774922960030558,36.09446859390736,-104.27510100388527,80.21211738781929
2024-09-23 15:25:19.022746,42.18,31.365346,-0.003482159473966507,-0.023230986250042305,0.09774922960030558,40.106058693909645,-96.25519929585457,80.21211738781929
2024-09-23 15:25:19.056276,42.18,31.365346,-0.003482159473966507,-0.023230986250042305,0.09774922960030558,40.106058693909645,-96.25519929585457,80.21211738781929
2024-09-23 15:25:19.068018,42.18,31.365397,-0.003233425524256645,-0.023330473146428877,0.0976994861521123,40.106058693909645,-96.25519929585457,80.21211738781929
2024-09-23 15:25:19.110771,42.18,31.365448,-0.0029349636958644295,-0.022982261414192504,0.0976994861521123,40.106058693909645,-84.22370748782159,84.22370748782159
2024-09-23 15:25:19.122151,42.18,31.365448,-0.0029349636958644295,-0.022982261414192504,0.0973512698629459,40.106058693909645,-84.22370748782159,84.22370748782159
2024-09-23 15:25:19.155172,42.18,31.365448,-0.0029349636958644295,-0.022982261414192504,0.0973512698629459,44.11764879391193,-92.24360919585227,84.22370748782159
2024-09-23 15:25:19.166225,42.18,31.365498,-0.002785727465249955,-0.023429960042815445,0.0973512698629459,44.11764879391193,-92.24360919585227,76.200527287817
2024-09-23 15:25:19.208669,42.18,31.365549,-0.002785727465249955,-0.023429960042815445,0.09725178296655933,40.106058693909645,-88.23529758782387,76.200527287817
2024-09-23 15:25:19.220301,42.18,31.365549,-0.0035816467500972456,-0.023429960042815445,0.09725178296655933,40.106058693909645,-88.23529758782387,76.200527287817
2024-09-23 15:25:19.252385,42.18,31.365549,-0.0035816467500972456,-0.02263404056809607,0.09740101331113918,40.106058693909645,-88.23529758782387,76.200527287817
2024-09-23 15:25:19.264122,42.18,31.365638,-0.0035816467500972456,-0.02263404056809607,0.09740101331113918,40.106058693909645,-92.24360919585227,80.21211738781929
2024-09-23 15:25:19.307855,42.18,31.365638,-0.0030344509719951677,-0.02338022115155219,0.09710254654607277,40.106058693909645,-100.26678939585686,72.1922225099802
2024-09-23 15:25:19.350198,43.54,31.365689,-0.0037308827908396356,-0.02338022115155219,0.09710254654607277,40.106058693909645,-100.26678939585686,72.1922225099802
2024-09-23 15:25:19.361881,43.54,31.365689,-0.0037308827908396356,-0.02293251340906919,0.09745075675933246,28.07457030097246,-92.24360919585227,72.1922225099802
2024-09-23 15:25:19.405596,43.54,31.36574,-0.002785727465249955,-0.02362894446842532,0.09720203344245934,-108.28669110388756,-92.24360919585227,76.200527287817
2024-09-23 15:25:19.448216,43.54,31.365791,-0.002785727465249955,-0.02362894446842532,0.09720203344245934,-108.28669110388756,-116.30987130389214,68.18063240997792
2024-09-23 15:25:19.459982,43.54,31.365791,-0.0035318979854855937,-0.0224350561424862,0.0970030596496862,-108.28669110388756,-116.30987130389214,68.18063240997792
2024-09-23 15:25:19.502948,43.54,31.365841,-0.0035318979854855937,-0.02308174982955575,0.0970030596496862,-44.11764879391193,-108.28669110388756,84.22370748782159
2024-09-23 15:25:19.546357,43.54,31.365841,-0.0035318979854855937,-0.02308174982955575,0.09695331012558621,36.09446859390736,-84.22370748782159,84.22370748782159
2024-09-23 15:25:19.557848,43.54,31.365892,-0.0031836870127375577,-0.02308174982955575,0.09695331012558621,36.09446859390736,-84.22370748782159,92.24360919585227
2024-09-23 15:25:19.600428,43.54,31.365979,-0.0031836870127375577,-0.023280723622328886,0.09675432418099966,44.11764879391193,-96.25519929585457,80.21211738781929
2024-09-23 15:25:19.643622,43.54,31.365979,-0.0029847020175114316,-0.023280723622328886,0.0973015264147526,44.11764879391193,-96.25519929585457,80.21211738781929
2024-09-23 15:25:19.655076,43.54,31.365979,-0.0029847020175114316,-0.023280723622328886,0.0973015264147526,16.039798293417693,-104.27510100388527,72.1922225099802
2024-09-23 15:25:19.699004,43.54,31.36603,-0.0037308827908396356,-0.023280723622328886,0.09715228999426605,44.11764879391193,-96.25519929585457,72.1922225099802
2024-09-23 15:25:19.741594,43.54,31.366081,-0.0034324103296106863,-0.023280723622328886,0.09715228999426605,44.11764879391193,-96.25519929585457,80.21211738781929
2024-09-23 15:25:19.752811,43.54,31.366081,-0.0034324103296106863,-0.023330473146428877,0.09710254654607277,44.11764879391193,-96.25519929585457,80.21211738781929
2024-09-23 15:25:19.786782,43.54,31.366081,-0.0034324103296106863,-0.023330473146428877,0.09710254654607277,44.11764879391193,-96.25519929585457,80.21211738781929
2024-09-23 15:25:19.798689,43.54,31.366132,-0.0029847020175114316,-0.023280723622328886,0.09675432418099966,44.11764879391193,-96.25519929585457,80.21211738781929
2024-09-23 15:25:19.841572,43.54,31.366182,-0.0034324103296106863,-0.023280723622328886,0.09675432418099966,36.09446859390736,-96.25519929585457,76.200527287817
2024-09-23 15:25:19.853061,43.54,31.366182,-0.0034324103296106863,-0.02352945757203875,0.09675432418099966,36.09446859390736,-96.25519929585457,76.200527287817
2024-09-23 15:25:19.884973,43.54,31.366182,-0.0034324103296106863,-0.02352945757203875,0.0970030596496862,36.09446859390736,-96.25519929585457,76.200527287817
2024-09-23 15:25:19.896809,43.54,31.366233,-0.0032831742888682963,-0.02352945757203875,0.0970030596496862,36.09446859390736,-96.25519929585457,88.23529758782387
2024-09-23 15:25:19.939985,43.54,31.366233,-0.0032831742888682963,-0.02367869399252531,0.09705279702197278,36.09446859390736,-92.24360919585227,80.21211738781929
2024-09-23 15:25:19.952011,43.54,31.36632,-0.0032831742888682963,-0.02367869399252531,0.09705279702197278,36.09446859390736,-92.24360919585227,80.21211738781929
2024-09-23 15:25:19.983597,43.54,31.36632,-0.003233425524256645,-0.02352945757203875,0.09705279702197278,36.09446859390736,-92.24360919585227,80.21211738781929
2024-09-23 15:25:19.995435,43.54,31.36632,-0.003233425524256645,-0.02352945757203875,0.09705279702197278,40.106058693909645,-100.26678939585686,80.21211738781929
2024-09-23 15:25:20.038082,43.54,31.366372,-0.002785727465249955,-0.023579196463302005,0.0973512698629459,-32.08287849390507,-108.28669110388756,80.21211738781929
2024-09-23 15:25:20.080556,43.54,31.366422,-0.002785727465249955,-0.023579196463302005,0.0973512698629459,-32.08287849390507,-108.28669110388756,72.1922225099802
2024-09-23 15:25:20.092175,43.54,31.366422,-0.003382661564999035,-0.0228827638849692,0.09740101331113918,-24.06297849342227,-108.28669110388756,72.1922225099802
2024-09-23 15:25:20.135238,43.54,31.366473,-0.0033329230534799477,-0.02233556924609963,0.09705279702197278,-24.06297849342227,-140.37285491995812,60.15744537978172
2024-09-23 15:25:20.179565,43.54,31.366473,-0.0033329230534799477,-0.02233556924609963,0.09705279702197278,-24.06297849342227,-128.34136311192512,68.18063240997792
2024-09-23 15:25:20.191500,43.54,31.366524,-0.0031836870127375577,-0.02308174982955575,0.09705279702197278,-24.06297849342227,-128.34136311192512,68.18063240997792
2024-09-23 15:25:20.234359,43.54,31.366574,-0.0031339382481259063,-0.02308174982955575,0.0970030596496862,68.18063240997792,-76.200527287817,96.25519929585457
2024-09-23 15:25:20.277446,43.54,31.366574,-0.0031339382481259063,-0.02367869399252531,0.09705279702197278,44.11764879391193,-76.200527287817,96.25519929585457
2024-09-23 15:25:20.289190,43.54,31.366662,-0.0031339382481259063,-0.02367869399252531,0.09705279702197278,44.11764879391193,-100.26678939585686,76.200527287817
2024-09-23 15:25:20.331726,43.54,31.366662,-0.002636491424507565,-0.02362894446842532,0.09725178296655933,28.07457030097246,-104.27510100388527,72.1922225099802
2024-09-23 15:25:20.374006,42.7,31.366713,-0.0035318979854855937,-0.02362894446842532,0.09725178296655933,28.07457030097246,-104.27510100388527,72.1922225099802
2024-09-23 15:25:20.427194,42.7,31.366713,-0.0035318979854855937,-0.023330473146428877,0.09740101331113918,32.08287849390507,-96.25519929585457,76.200527287817
2024-09-23 15:25:20.439429,42.7,31.366764,-0.0035318979854855937,-0.023330473146428877,0.09740101331113918,32.08287849390507,-96.25519929585457,76.200527287817
2024-09-23 15:25:20.471303,42.7,31.366764,-0.0032831742888682963,-0.022982261414192504,0.09740101331113918,32.08287849390507,-96.25519929585457,76.200527287817
2024-09-23 15:25:20.483110,42.7,31.366764,-0.0032831742888682963,-0.022982261414192504,0.09705279702197278,32.08287849390507,-100.26678939585686,76.200527287817
2024-09-23 15:25:20.525214,42.7,31.366814,-0.0033329230534799477,-0.022733528983459317,0.09715228999426605,36.09446859390736,-100.26678939585686,76.200527287817
2024-09-23 15:25:20.536875,42.7,31.366814,-0.0033329230534799477,-0.022733528983459317,0.09715228999426605,36.09446859390736,-104.27510100388527,76.200527287817
2024-09-23 15:25:20.569437,42.7,31.366865,-0.0033329230534799477,-0.022733528983459317,0.09715228999426605,36.09446859390736,-104.27510100388527,76.200527287817
2024-09-23 15:25:20.581322,42.7,31.366865,-0.0029349636958644295,-0.02303200030545576,0.09745075675933246,36.09446859390736,-104.27510100388527,76.200527287817
2024-09-23 15:25:20.623380,42.7,31.366916,-0.0032831742888682963,-0.023280723622328886,0.09670458680871308,36.09446859390736,-96.25519929585457,76.200527287817
2024-09-23 15:25:20.666175,42.7,31.366916,-0.0032831742888682963,-0.023280723622328886,0.09670458680871308,36.09446859390736,-96.25519929585457,76.200527287817
2024-09-23 15:25:20.677458,42.7,31.367005,-0.0033329230534799477,-0.02303200030545576,0.09670458680871308,36.09446859390736,-96.25519929585457,76.200527287817
2024-09-23 15:25:20.720487,42.7,31.367056,-0.0045765506504264935,-0.02303200030545576,0.0976994861521123,36.09446859390736,-100.26678939585686,76.200527287817
2024-09-23 15:25:20.763521,42.7,31.367056,-0.0045765506504264935,-0.022484804147609512,0.09854515515093167,36.09446859390736,-100.26678939585686,76.200527287817
2024-09-23 15:25:20.775201,42.7,31.367149,-0.0045765506504264935,-0.022484804147609512,0.09854515515093167,52.137550501942634,-104.27510100388527,72.1922225099802
2024-09-23 15:25:20.818469,42.7,31.367149,-0.003382661564999035,-0.02303200030545576,0.09779897304849887,136.36126481995584,-48.12595698684454,108.28669110388756
2024-09-23 15:25:20.860173,42.7,31.3672,-0.0028354659767690416,-0.02303200030545576,0.09779897304849887,136.36126481995584,-48.12595698684454,108.28669110388756
2024-09-23 15:25:20.871520,42.7,31.3672,-0.0028354659767690416,-0.023728432883788564,0.09740101331113918,80.21211738781929,-80.21211738781929,108.28669110388756
2024-09-23 15:25:20.913630,42.7,31.367251,-0.0030344509719951677,-0.02338022115155219,0.09720203344245934,80.21211738781929,-80.21211738781929,92.24360919585227
2024-09-23 15:25:20.925855,42.7,31.367251,-0.0030344509719951677,-0.02338022115155219,0.09720203344245934,52.137550501942634,-80.21211738781929,92.24360919585227
2024-09-23 15:25:21.009255,42.7,31.367302,-0.0030344509719951677,-0.02338022115155219,0.09720203344245934,52.137550501942634,-100.26678939585686,76.200527287817
2024-09-23 15:25:21.021333,42.7,31.367302,-0.0033329230534799477,-0.02338022115155219,0.09720203344245934,52.137550501942634,-100.26678939585686,76.200527287817
2024-09-23 15:25:21.053960,42.7,31.367302,-0.0033329230534799477,-0.023230986250042305,0.09720203344245934,52.137550501942634,-100.26678939585686,76.200527287817
2024-09-23 15:25:21.065450,42.7,31.367352,-0.0033329230534799477,-0.023230986250042305,0.09759999317981902,52.137550501942634,-88.23529758782387,80.21211738781929
2024-09-23 15:25:21.107893,42.7,31.367352,-0.0035816467500972456,-0.02338022115155219,0.09690356060148622,40.106058693909645,-88.23529758782387,80.21211738781929
2024-09-23 15:25:21.119716,42.7,31.367352,-0.0035816467500972456,-0.02338022115155219,0.09690356060148622,40.106058693909645,-92.24360919585227,80.21211738781929
2024-09-23 15:25:21.153034,42.7,31.367403,-0.003482159473966507,-0.02338022115155219,0.09690356060148622,40.106058693909645,-92.24360919585227,80.21211738781929
2024-09-23 15:25:21.164576,42.7,31.367403,-0.003482159473966507,-0.0228827638849692,0.09740101331113918,32.08287849390507,-108.28669110388756,80.21211738781929
2024-09-23 15:25:21.207951,42.7,31.36749,-0.0032831742888682963,-0.02293251340906919,0.09715228999426605,32.08287849390507,-108.28669110388756,80.21211738781929
2024-09-23 15:25:21.219590,42.7,31.36749,-0.0032831742888682963,-0.02293251340906919,0.09715228999426605,40.106058693909645,-108.28669110388756,80.21211738781929
2024-09-23 15:25:21.251360,42.7,31.36749,-0.0032831742888682963,-0.02293251340906919,0.09715228999426605,40.106058693909645,-96.25519929585457,80.21211738781929
2024-09-23 15:25:21.262986,42.7,31.367588,-0.0028354659767690416,-0.022833026512682618,0.09690356060148622,40.106058693909645,-96.25519929585457,80.21211738781929
2024-09-23 15:25:21.306890,42.7,31.36764,-0.0030344509719951677,-0.02352945757203875,0.09690356060148622,40.106058693909645,-88.23529758782387,80.21211738781929
2024-09-23 15:25:21.349014,42.7,31.36764,-0.0030344509719951677,-0.02352945757203875,0.0973015264147526,32.08287849390507,-100.26678939585686,80.21211738781929
2024-09-23 15:25:21.361008,42.7,31.36769,-0.0037308827908396356,-0.02352945757203875,0.0973015264147526,32.08287849390507,-100.26678939585686,84.22370748782159
2024-09-23 15:25:21.404326,42.46,31.367783,-0.0037308827908396356,-0.02218633282561307,0.09759999317981902,20.05138839341998,-108.28669110388756,68.18063240997792
2024-09-23 15:25:21.449995,42.46,31.367783,-0.003233425524256645,-0.02238531725122294,0.09784872257259886,20.05138839341998,-108.28669110388756,68.18063240997792
2024-09-23 15:25:21.461758,42.46,31.367783,-0.003233425524256645,-0.02238531725122294,0.09784872257259886,56.14914060194492,-84.22370748782159,80.21211738781929
2024-09-23 15:25:21.494438,42.46,31.367834,-0.0027359787006383035,-0.02238531725122294,0.09784872257259886,56.14914060194492,-84.22370748782159,80.21211738781929
2024-09-23 15:25:21.505698,42.46,31.367834,-0.0027359787006383035,-0.02338022115155219,0.09720203344245934,64.16903547978401,-80.21211738781929,80.21211738781929
2024-09-23 15:25:21.549341,42.46,31.367885,-0.0034324103296106863,-0.024076653729884996,0.09715228999426605,36.09446859390736,-80.21211738781929,92.24360919585227
2024-09-23 15:25:21.591384,42.46,31.367885,-0.0034324103296106863,-0.024076653729884996,0.09715228999426605,36.09446859390736,-92.24360919585227,80.21211738781929
2024-09-23 15:25:21.644604,42.46,31.367936,-0.002139034157924574,-0.022584292562972758,0.09715228999426605,36.09446859390736,-92.24360919585227,80.21211738781929
2024-09-23 15:25:21.655941,42.46,31.367936,-0.002139034157924574,-0.022584292562972758,0.09715228999426605,28.07457030097246,-104.27510100388527,80.21211738781929
2024-09-23 15:25:21.689478,42.46,31.367986,-0.002139034157924574,-0.022584292562972758,0.09715228999426605,28.07457030097246,-104.27510100388527,72.1922225099802
2024-09-23 15:25:21.702891,42.46,31.367986,-0.0030344509719951677,-0.02313149783467906,0.09715228999426605,28.07457030097246,-104.27510100388527,72.1922225099802
2024-09-23 15:25:21.745418,42.46,31.368037,-0.0036811340262279837,-0.02313149783467906,0.09725178296655933,40.106058693909645,-88.23529758782387,84.22370748782159
2024-09-23 15:25:21.789131,42.46,31.368037,-0.0036811340262279837,-0.02313149783467906,0.09789846602079214,24.06297849342227,-88.23529758782387,84.22370748782159
2024-09-23 15:25:21.800366,42.46,31.368124,-0.0036811340262279837,-0.02313149783467906,0.09789846602079214,24.06297849342227,-104.27510100388527,76.200527287817
2024-09-23 15:25:21.844442,42.46,31.368124,-0.0037308827908396356,-0.02308174982955575,0.09759999317981902,32.08287849390507,-104.27510100388527,80.21211738781929
2024-09-23 15:25:21.887298,42.46,31.368175,-0.0038303700669703737,-0.02303200030545576,0.09740101331113918,32.08287849390507,-104.27510100388527,80.21211738781929
2024-09-23 15:25:21.899051,42.46,31.368175,-0.0038303700669703737,-0.02303200030545576,0.09740101331113918,36.09446859390736,-96.25519929585457,80.21211738781929
2024-09-23 15:25:21.931895,42.46,31.368175,-0.0038303700669703737,-0.02303200030545576,0.09740101331113918,36.09446859390736,-96.25519929585457,80.21211738781929
2024-09-23 15:25:21.943772,42.46,31.36827,-0.003482159473966507,-0.02313149783467906,0.0973512698629459,32.08287849390507,-96.25519929585457,80.21211738781929
2024-09-23 15:25:21.986363,42.46,31.368322,-0.0030344509719951677,-0.023728432883788564,0.0973512698629459,32.08287849390507,-92.24360919585227,80.21211738781929
2024-09-23 15:25:21.998429,42.46,31.368322,-0.0030344509719951677,-0.023728432883788564,0.09710254654607277,32.08287849390507,-92.24360919585227,80.21211738781929
2024-09-23 15:25:22.030671,42.46,31.368322,-0.0030344509719951677,-0.023728432883788564,0.09710254654607277,36.09446859390736,-108.28669110388756,80.21211738781929
2024-09-23 15:25:22.042149,42.46,31.368372,-0.0031836870127375577,-0.02352945757203875,0.09710254654607277,36.09446859390736,-108.28669110388756,80.21211738781929
2024-09-23 15:25:22.083864,42.46,31.368423,-0.0031836870127375577,-0.02352945757203875,0.09740101331113918,40.106058693909645,-104.27510100388527,80.21211738781929
2024-09-23 15:25:22.095626,42.46,31.368423,-0.0036811340262279837,-0.02352945757203875,0.09740101331113918,40.106058693909645,-104.27510100388527,80.21211738781929
2024-09-23 15:25:22.128007,42.46,31.368423,-0.0036811340262279837,-0.023330473146428877,0.0973015264147526,40.106058693909645,-104.27510100388527,80.21211738781929
2024-09-23 15:25:22.139578,42.46,31.368514,-0.0036811340262279837,-0.023330473146428877,0.0973015264147526,40.106058693909645,-100.26678939585686,76.200527287817
2024-09-23 15:25:22.182486,42.46,31.368514,-0.0035318979854855937,-0.022982261414192504,0.09740101331113918,36.09446859390736,-96.25519929585457,76.200527287817
2024-09-23 15:25:22.193841,42.46,31.368514,-0.0035318979854855937,-0.022982261414192504,0.09740101331113918,36.09446859390736,-96.25519929585457,76.200527287817
2024-09-23 15:25:22.225112,42.46,31.368566,-0.0035816467500972456,-0.022982261414192504,0.09740101331113918,36.09446859390736,-96.25519929585457,76.200527287817
2024-09-23 15:25:22.236278,42.46,31.368566,-0.0035816467500972456,-0.0228827638849692,0.09685382322919964,36.09446859390736,-96.25519929585457,76.200527287817
2024-09-23 15:25:22.279386,42.46,31.368566,-0.0035816467500972456,-0.0228827638849692,0.09685382322919964,44.11764879391193,-96.25519929585457,76.200527287817
2024-09-23 15:25:22.322338,42.46,31.368566,-0.0035816467500972456,-0.0228827638849692,0.09685382322919964,44.11764879391193,-96.25519929585457,76.200527287817
2024-09-23 15:25:22.334202,42.46,31.368616,-0.003382661564999035,-0.02313149783467906,0.09690356060148622,44.11764879391193,-96.25519929585457,80.21211738781929
2024-09-23 15:25:22.377403,42.46,31.368667,-0.0035816467500972456,-0.02313149783467906,0.09690356060148622,40.106058693909645,-96.25519929585457,76.200527287817
2024-09-23 15:25:22.389709,42.46,31.368667,-0.0035816467500972456,-0.02303200030545576,0.09690356060148622,40.106058693909645,-96.25519929585457,76.200527287817
2024-09-23 15:25:22.422541,42.81,31.368667,-0.0035816467500972456,-0.02303200030545576,0.09670458680871308,32.08287849390507,-100.26678939585686,76.200527287817
2024-09-23 15:25:22.434096,42.81,31.368717,-0.0030841997366068195,-0.02303200030545576,0.09670458680871308,32.08287849390507,-100.26678939585686,80.21211738781929
2024-09-23 15:25:22.476718,42.81,31.368768,-0.0030841997366068195,-0.02313149783467906,0.09685382322919964,36.09446859390736,-100.26678939585686,76.200527287817
2024-09-23 15:25:22.518591,42.81,31.368768,-0.0035816467500972456,-0.02362894446842532,0.09685382322919964,36.09446859390736,-100.26678939585686,76.200527287817
2024-09-23 15:25:22.530691,42.81,31.368768,-0.0035816467500972456,-0.02362894446842532,0.09685382322919964,44.11764879391193,-100.26678939585686,84.22370748782159
2024-09-23 15:25:22.574431,42.81,31.368904,-0.0027359787006383035,-0.023280723622328886,0.09759999317981902,44.11764879391193,-100.26678939585686,84.22370748782159
2024-09-23 15:25:22.616865,42.81,31.368956,-0.0027359787006383035,-0.023280723622328886,0.09759999317981902,44.11764879391193,-100.26678939585686,76.200527287817
2024-09-23 15:25:22.628533,42.81,31.368956,-0.0031836870127375577,-0.02308174982955575,0.09705279702197278,36.09446859390736,-100.26678939585686,76.200527287817
2024-09-23 15:25:22.672727,42.81,31.369007,-0.0029349636958644295,-0.02263404056809607,0.09715228999426605,36.09446859390736,-100.26678939585686,84.22370748782159
2024-09-23 15:25:22.714789,42.81,31.369007,-0.0029349636958644295,-0.02263404056809607,0.09715228999426605,32.08287849390507,-96.25519929585457,84.22370748782159
2024-09-23 15:25:22.726256,42.81,31.369057,-0.003482159473966507,-0.023230986250042305,0.09715228999426605,32.08287849390507,-96.25519929585457,84.22370748782159
2024-09-23 15:25:22.768501,42.81,31.369108,-0.0030841997366068195,-0.023230986250042305,0.09720203344245934,32.08287849390507,-96.25519929585457,84.22370748782159
2024-09-23 15:25:22.811380,42.81,31.369108,-0.0030841997366068195,-0.02313149783467906,0.09745075675933246,32.08287849390507,-96.25519929585457,84.22370748782159
2024-09-23 15:25:22.822486,42.81,31.369196,-0.0030841997366068195,-0.02313149783467906,0.09745075675933246,32.08287849390507,-100.26678939585686,88.23529758782387
2024-09-23 15:25:22.865105,42.81,31.369196,-0.0030841997366068195,-0.02313149783467906,0.09745075675933246,32.08287849390507,-100.26678939585686,88.23529758782387
2024-09-23 15:25:22.908633,42.81,31.369196,-0.0030841997366068195,-0.023330473146428877,0.09655535038822652,32.08287849390507,-100.26678939585686,88.23529758782387
2024-09-23 15:25:22.921383,42.81,31.369248,-0.0030841997366068195,-0.023330473146428877,0.09655535038822652,32.08287849390507,-96.25519929585457,80.21211738781929
2024-09-23 15:25:22.964145,42.81,31.369248,-0.003482159473966507,-0.02303200030545576,0.09705279702197278,32.08287849390507,-100.26678939585686,76.200527287817
2024-09-23 15:25:23.006039,42.81,31.369299,-0.0034324103296106863,-0.02303200030545576,0.09705279702197278,32.08287849390507,-100.26678939585686,76.200527287817
2024-09-23 15:25:23.017905,42.81,31.369299,-0.0034324103296106863,-0.023280723622328886,0.09690356060148622,40.106058693909645,-92.24360919585227,76.200527287817
2024-09-23 15:25:23.060444,42.81,31.369349,-0.003631395514708897,-0.022982261414192504,0.09695331012558621,40.106058693909645,-92.24360919585227,80.21211738781929
2024-09-23 15:25:23.103600,42.81,31.369349,-0.003631395514708897,-0.022982261414192504,0.09695331012558621,40.106058693909645,-100.26678939585686,80.21211738781929
2024-09-23 15:25:23.114645,42.81,31.3694,-0.0030344509719951677,-0.02352945757203875,0.09725178296655933,40.106058693909645,-100.26678939585686,80.21211738781929
2024-09-23 15:25:23.157112,42.81,31.369491,-0.0029847020175114316,-0.02352945757203875,0.09725178296655933,40.106058693909645,-100.26678939585686,84.22370748782159
2024-09-23 15:25:23.169622,42.81,31.369491,-0.0029847020175114316,-0.022982261414192504,0.09725178296655933,40.106058693909645,-100.26678939585686,84.22370748782159
2024-09-23 15:25:23.202014,42.81,31.369491,-0.0029847020175114316,-0.022982261414192504,0.09695331012558621,48.12595698684454,-92.24360919585227,84.22370748782159
2024-09-23 15:25:23.213314,42.81,31.369542,-0.0029847020175114316,-0.022982261414192504,0.09695331012558621,48.12595698684454,-92.24360919585227,80.21211738781929
2024-09-23 15:25:23.256773,42.81,31.369635,-0.0029847020175114316,-0.023330473146428877,0.0970030596496862,28.07457030097246,-108.28669110388756,80.21211738781929
2024-09-23 15:25:23.299995,42.81,31.369635,-0.0028852147413806935,-0.023429960042815445,0.09675432418099966,28.07457030097246,-108.28669110388756,80.21211738781929
2024-09-23 15:25:23.311775,42.81,31.369635,-0.0028852147413806935,-0.023429960042815445,0.09675432418099966,36.09446859390736,-104.27510100388527,76.200527287817
2024-09-23 15:25:23.355186,42.81,31.369687,-0.0031339382481259063,-0.02313149783467906,0.09710254654607277,36.09446859390736,-100.26678939585686,76.200527287817
2024-09-23 15:25:23.397356,42.81,31.369737,-0.003482159473966507,-0.02313149783467906,0.09710254654607277,36.09446859390736,-100.26678939585686,80.21211738781929
2024-09-23 15:25:23.409060,42.81,31.369737,-0.003482159473966507,-0.023181236725942318,0.09799795899308542,32.08287849390507,-100.26678939585686,80.21211738781929
2024-09-23 15:25:23.454368,42.3,31.369788,-0.002636491424507565,-0.023230986250042305,0.09764974270391902,32.08287849390507,-96.25519929585457,76.200527287817
2024-09-23 15:25:23.496943,42.3,31.369788,-0.002636491424507565,-0.023230986250042305,0.09764974270391902,32.08287849390507,-96.25519929585457,80.21211738781929
2024-09-23 15:25:23.549785,42.3,31.369839,-0.0033329230534799477,-0.023230986250042305,0.09764974270391902,44.11764879391193,-100.26678939585686,80.21211738781929
2024-09-23 15:25:23.592382,42.3,31.369889,-0.0031339382481259063,-0.023230986250042305,0.09764974270391902,44.11764879391193,-100.26678939585686,76.200527287817
2024-09-23 15:25:23.604108,42.3,31.369889,-0.0031339382481259063,-0.02303200030545576,0.09680407370509965,40.106058693909645,-100.26678939585686,76.200527287817
2024-09-23 15:25:23.647709,42.3,31.369977,-0.0028852147413806935,-0.02293251340906919,0.09680407370509965,40.106058693909645,-92.24360919585227,80.21211738781929
2024-09-23 15:25:23.690291,42.3,31.369977,-0.0028852147413806935,-0.02293251340906919,0.09680407370509965,40.106058693909645,-96.25519929585457,80.21211738781929
2024-09-23 15:25:23.701797,42.3,31.370028,-0.0030841997366068195,-0.02313149783467906,0.09680407370509965,40.106058693909645,-96.25519929585457,80.21211738781929
2024-09-23 15:25:23.744512,42.3,31.370079,-0.003482159473966507,-0.02313149783467906,0.09725178296655933,40.106058693909645,-96.25519929585457,80.21211738781929
2024-09-23 15:25:23.786687,42.3,31.370079,-0.003482159473966507,-0.022833026512682618,0.09705279702197278,24.06297849342227,-96.25519929585457,80.21211738781929
2024-09-23 15:25:23.797814,42.3,31.370171,-0.003482159473966507,-0.022833026512682618,0.09705279702197278,24.06297849342227,-100.26678939585686,88.23529758782387
2024-09-23 15:25:23.840517,42.3,31.370171,-0.0033329230534799477,-0.023230986250042305,0.09680407370509965,32.08287849390507,-100.26678939585686,84.22370748782159
2024-09-23 15:25:23.883591,42.3,31.370223,-0.0030841997366068195,-0.023230986250042305,0.09680407370509965,32.08287849390507,-100.26678939585686,84.22370748782159
2024-09-23 15:25:23.894926,42.3,31.370223,-0.0030841997366068195,-0.023280723622328886,0.0976994861521123,36.09446859390736,-96.25519929585457,84.22370748782159
2024-09-23 15:25:23.937964,42.3,31.370274,-0.0033329230534799477,-0.023479709566915436,0.09715228999426605,36.09446859390736,-96.25519929585457,76.200527287817
2024-09-23 15:25:23.949928,42.3,31.370274,-0.0033329230534799477,-0.023479709566915436,0.09715228999426605,32.08287849390507,-96.25519929585457,76.200527287817
2024-09-23 15:25:23.981884,42.3,31.370324,-0.0033329230534799477,-0.023479709566915436,0.09715228999426605,32.08287849390507,-96.25519929585457,76.200527287817
2024-09-23 15:25:23.992872,42.3,31.370324,-0.0034324103296106863,-0.02303200030545576,0.09665483728461309,32.08287849390507,-96.25519929585457,76.200527287817
2024-09-23 15:25:24.035573,42.3,31.370375,-0.0029847020175114316,-0.023181236725942318,0.09665483728461309,40.106058693909645,-96.25519929585457,76.200527287817
2024-09-23 15:25:24.077752,42.3,31.370375,-0.0029847020175114316,-0.023181236725942318,0.09720203344245934,36.09446859390736,-96.25519929585457,76.200527287817
2024-09-23 15:25:24.090010,42.3,31.370426,-0.002785727465249955,-0.023181236725942318,0.09720203344245934,36.09446859390736,-104.27510100388527,72.1922225099802
2024-09-23 15:25:24.132582,42.3,31.370426,-0.002785727465249955,-0.023280723622328886,0.09740101331113918,32.08287849390507,-92.24360919585227,80.21211738781929
2024-09-23 15:25:24.144338,42.3,31.370513,-0.002785727465249955,-0.023280723622328886,0.09740101331113918,32.08287849390507,-92.24360919585227,80.21211738781929
2024-09-23 15:25:24.176325,42.3,31.370513,-0.0031339382481259063,-0.023429960042815445,0.09740101331113918,32.08287849390507,-92.24360919585227,80.21211738781929
2024-09-23 15:25:24.187334,42.3,31.370513,-0.0031339382481259063,-0.023429960042815445,0.09710254654607277,36.09446859390736,-92.24360919585227,80.21211738781929
2024-09-23 15:25:24.229901,42.3,31.370564,-0.0035816467500972456,-0.023181236725942318,0.09690356060148622,40.106058693909645,-92.24360919585227,80.21211738781929
2024-09-23 15:25:24.242036,42.3,31.370564,-0.0035816467500972456,-0.023181236725942318,0.09690356060148622,40.106058693909645,-96.25519929585457,80.21211738781929
2024-09-23 15:25:24.275122,42.3,31.370615,-0.002387757474797703,-0.023181236725942318,0.09690356060148622,40.106058693909645,-96.25519929585457,84.22370748782159
2024-09-23 15:25:24.286503,42.3,31.370615,-0.002387757474797703,-0.023778180888911878,0.09561019449302058,76.200527287817,-96.25519929585457,84.22370748782159
2024-09-23 15:25:24.328967,42.3,31.370666,-0.0027359787006383035,-0.024275627522658133,0.09675432418099966,76.200527287817,-64.16903547978401,104.27510100388527
2024-09-23 15:25:24.372882,42.3,31.370666,-0.0027359787006383035,-0.024275627522658133,0.09675432418099966,12.031489246711136,-100.26678939585686,84.22370748782159
2024-09-23 15:25:24.384024,42.3,31.370716,-0.0031836870127375577,-0.02338022115155219,0.09675432418099966,12.031489246711136,-100.26678939585686,84.22370748782159
2024-09-23 15:25:24.426649,42.3,31.370767,-0.0030841997366068195,-0.02338022115155219,0.09759999317981902,-40.106058693909645,-140.37285491995812,52.137550501942634
2024-09-23 15:25:24.468950,41.88,31.370767,-0.0030841997366068195,-0.023827930413011865,0.09705279702197278,-40.106058693909645,-140.37285491995812,52.137550501942634
2024-09-23 15:25:24.481602,41.88,31.370854,-0.0030841997366068195,-0.023827930413011865,0.09705279702197278,48.12595698684454,-88.23529758782387,88.23529758782387
2024-09-23 15:25:24.523990,41.88,31.370854,-0.0031339382481259063,-0.02293251340906919,0.09764974270391902,40.106058693909645,-92.24360919585227,84.22370748782159
2024-09-23 15:25:24.565937,41.88,31.370906,-0.0031339382481259063,-0.02293251340906919,0.09764974270391902,40.106058693909645,-92.24360919585227,84.22370748782159
2024-09-23 15:25:24.577122,41.88,31.370906,-0.0031339382481259063,-0.023280723622328886,0.09670458680871308,44.11764879391193,-96.25519929585457,84.22370748782159
2024-09-23 15:25:24.620916,41.88,31.370956,-0.0031836870127375577,-0.02338022115155219,0.09715228999426605,36.09446859390736,-96.25519929585457,80.21211738781929
2024-09-23 15:25:24.663597,41.88,31.370956,-0.0031836870127375577,-0.02338022115155219,0.09715228999426605,36.09446859390736,-96.25519929585457,80.21211738781929
2024-09-23 15:25:24.675032,41.88,31.371007,-0.0034324103296106863,-0.023181236725942318,0.0970030596496862,36.09446859390736,-96.25519929585457,80.21211738781929
2024-09-23 15:25:24.718067,41.88,31.371057,-0.0034324103296106863,-0.023479709566915436,0.0970030596496862,44.11764879391193,-96.25519929585457,76.200527287817
2024-09-23 15:25:24.760678,41.88,31.371057,-0.0034324103296106863,-0.023479709566915436,0.09655535038822652,32.08287849390507,-96.25519929585457,76.200527287817
2024-09-23 15:25:24.771936,41.88,31.371108,-0.0031836870127375577,-0.023479709566915436,0.09655535038822652,32.08287849390507,-104.27510100388527,80.21211738781929
2024-09-23 15:25:24.814675,41.88,31.371108,-0.0031836870127375577,-0.023479709566915436,0.0970030596496862,32.08287849390507,-96.25519929585457,76.200527287817
2024-09-23 15:25:24.826484,41.88,31.371195,-0.0031836870127375577,-0.023479709566915436,0.0970030596496862,32.08287849390507,-96.25519929585457,76.200527287817
2024-09-23 15:25:24.859178,41.88,31.371195,-0.003780631555451287,-0.023230986250042305,0.09670458680871308,32.08287849390507,-96.25519929585457,76.200527287817
2024-09-23 15:25:24.870540,41.88,31.371195,-0.003780631555451287,-0.023230986250042305,0.09670458680871308,40.106058693909645,-100.26678939585686,84.22370748782159
2024-09-23 15:25:24.912982,41.88,31.371247,-0.0028852147413806935,-0.023181236725942318,0.09570968138940715,120.31818291192054,-76.200527287817,84.22370748782159
2024-09-23 15:25:24.956025,41.88,31.371297,-0.0028852147413806935,-0.023181236725942318,0.09570968138940715,120.31818291192054,-76.200527287817,96.25519929585457
2024-09-23 15:25:24.967313,41.88,31.371297,-0.002636491424507565,-0.024176140626271565,0.09745075675933246,92.24360919585227,-76.200527287817,96.25519929585457
2024-09-23 15:25:25.010328,41.88,31.371348,-0.0031339382481259063,-0.023479709566915436,0.09715228999426605,92.24360919585227,-84.22370748782159,88.23529758782387
2024-09-23 15:25:25.053017,41.88,31.371348,-0.0031339382481259063,-0.023479709566915436,0.09715228999426605,-36.09446859390736,-84.22370748782159,88.23529758782387
2024-09-23 15:25:25.064643,41.88,31.371399,-0.003482159473966507,-0.022982261414192504,0.09715228999426605,-36.09446859390736,-148.3960351199627,44.11764879391193
2024-09-23 15:25:25.108649,41.88,31.371449,-0.0028852147413806935,-0.022982261414192504,0.09740101331113918,-16.039798293417693,-120.31818291192054,64.16903547978401
2024-09-23 15:25:25.151677,41.88,31.371449,-0.0028852147413806935,-0.02338022115155219,0.0973512698629459,48.12595698684454,-120.31818291192054,64.16903547978401
2024-09-23 15:25:25.162868,41.88,31.371536,-0.0028852147413806935,-0.02338022115155219,0.0973512698629459,48.12595698684454,-96.25519929585457,88.23529758782387
2024-09-23 15:25:25.205400,41.88,31.371536,-0.003233425524256645,-0.023280723622328886,0.09779897304849887,40.106058693909645,-100.26678939585686,72.1922225099802
2024-09-23 15:25:25.248459,41.88,31.371588,-0.003382661564999035,-0.023280723622328886,0.09779897304849887,40.106058693909645,-100.26678939585686,72.1922225099802
2024-09-23 15:25:25.259575,41.88,31.371588,-0.003382661564999035,-0.023330473146428877,0.09720203344245934,40.106058693909645,-100.26678939585686,72.1922225099802
2024-09-23 15:25:25.302041,41.88,31.371639,-0.0028354659767690416,-0.023280723622328886,0.09725178296655933,40.106058693909645,-100.26678939585686,72.1922225099802
2024-09-23 15:25:25.314154,41.88,31.371639,-0.0028354659767690416,-0.023280723622328886,0.09725178296655933,40.106058693909645,-100.26678939585686,72.1922225099802
2024-09-23 15:25:25.347546,41.88,31.371689,-0.0028354659767690416,-0.023280723622328886,0.09725178296655933,40.106058693909645,-92.24360919585227,80.21211738781929
2024-09-23 15:25:25.358779,41.88,31.371689,-0.0033329230534799477,-0.02278327698858263,0.09690356060148622,40.106058693909645,-92.24360919585227,80.21211738781929
2024-09-23 15:25:25.401354,41.88,31.37174,-0.0029847020175114316,-0.022982261414192504,0.09690356060148622,48.12595698684454,-92.24360919585227,84.22370748782159
2024-09-23 15:25:25.444878,41.88,31.37174,-0.0029847020175114316,-0.022982261414192504,0.09685382322919964,36.09446859390736,-92.24360919585227,84.22370748782159
2024-09-23 15:25:25.456542,41.88,31.371791,-0.0031339382481259063,-0.022982261414192504,0.09685382322919964,36.09446859390736,-92.24360919585227,76.200527287817
2024-09-23 15:25:25.499845,41.86,31.371878,-0.0031339382481259063,-0.022584292562972758,0.0970030596496862,36.09446859390736,-104.27510100388527,88.23529758782387
2024-09-23 15:25:25.541931,41.86,31.371878,-0.0035318979854855937,-0.02268379009219606,0.09685382322919964,36.09446859390736,-104.27510100388527,88.23529758782387
2024-09-23 15:25:25.552798,41.86,31.371878,-0.0035318979854855937,-0.02268379009219606,0.09685382322919964,36.09446859390736,-88.23529758782387,92.24360919585227
2024-09-23 15:25:25.596393,41.86,31.371929,-0.002785727465249955,-0.02412639262114825,0.09670458680871308,12.031489246711136,-104.27510100388527,92.24360919585227
2024-09-23 15:25:25.638018,41.86,31.37198,-0.002785727465249955,-0.02412639262114825,0.09670458680871308,12.031489246711136,-104.27510100388527,76.200527287817
2024-09-23 15:25:25.649127,41.86,31.37198,-0.0030344509719951677,-0.02352945757203875,0.0966050877605131,-64.16903547978401,-104.27510100388527,76.200527287817
2024-09-23 15:25:25.692290,41.86,31.372031,-0.002785727465249955,-0.0228827638849692,0.0966050877605131,-64.16903547978401,-144.3844450199604,48.12595698684454
2024-09-23 15:25:25.704490,41.86,31.372031,-0.002785727465249955,-0.0228827638849692,0.09675432418099966,-64.16903547978401,-144.3844450199604,48.12595698684454
2024-09-23 15:25:25.737423,41.86,31.372031,-0.002785727465249955,-0.0228827638849692,0.09675432418099966,-60.15744537978172,-152.40433306760787,44.11764879391193
2024-09-23 15:25:25.748520,41.86,31.372082,-0.0033329230534799477,-0.023330473146428877,0.09675432418099966,-60.15744537978172,-152.40433306760787,44.11764879391193
2024-09-23 15:25:25.790642,41.86,31.372132,-0.003631395514708897,-0.023330473146428877,0.09665483728461309,48.12595698684454,-104.27510100388527,80.21211738781929
2024-09-23 15:25:25.833651,41.86,31.372132,-0.003631395514708897,-0.023280723622328886,0.09655535038822652,48.12595698684454,-104.27510100388527,80.21211738781929
2024-09-23 15:25:25.846955,41.86,31.372219,-0.003631395514708897,-0.023280723622328886,0.09655535038822652,44.11764879391193,-96.25519929585457,76.200527287817
2024-09-23 15:25:25.889966,41.86,31.372219,-0.0035816467500972456,-0.022833026512682618,0.09695331012558621,36.09446859390736,-100.26678939585686,80.21211738781929
2024-09-23 15:25:25.931808,41.86,31.37227,-0.002785727465249955,-0.02293251340906919,0.09695331012558621,36.09446859390736,-100.26678939585686,80.21211738781929
2024-09-23 15:25:25.943043,41.86,31.37227,-0.002785727465249955,-0.02293251340906919,0.09740101331113918,40.106058693909645,-92.24360919585227,80.21211738781929
2024-09-23 15:25:25.987826,41.86,31.372321,-0.0031836870127375577,-0.023181236725942318,0.09680407370509965,44.11764879391193,-92.24360919585227,80.21211738781929
2024-09-23 15:25:26.030947,41.86,31.372372,-0.0031836870127375577,-0.023181236725942318,0.09680407370509965,44.11764879391193,-88.23529758782387,88.23529758782387
2024-09-23 15:25:26.042849,41.86,31.372372,-0.0028852147413806935,-0.02313149783467906,0.09755024973162574,44.11764879391193,-88.23529758782387,88.23529758782387
2024-09-23 15:25:26.074589,41.86,31.372372,-0.0028852147413806935,-0.02313149783467906,0.09755024973162574,44.11764879391193,-88.23529758782387,88.23529758782387
2024-09-23 15:25:26.085990,41.86,31.372372,-0.0028852147413806935,-0.02313149783467906,0.09755024973162574,44.11764879391193,-92.24360919585227,84.22370748782159
2024-09-23 15:25:26.128402,41.86,31.372422,-0.0028852147413806935,-0.023280723622328886,0.0970030596496862,44.11764879391193,-92.24360919585227,84.22370748782159
2024-09-23 15:25:26.139943,41.86,31.372422,-0.0028852147413806935,-0.023280723622328886,0.0970030596496862,36.09446859390736,-92.24360919585227,84.22370748782159
2024-09-23 15:25:26.182897,41.86,31.372473,-0.0028852147413806935,-0.02308174982955575,0.0976994861521123,32.08287849390507,-92.24360919585227,80.21211738781929
2024-09-23 15:25:26.226425,41.86,31.37256,-0.0026862297461545674,-0.02308174982955575,0.0976994861521123,32.08287849390507,-100.26678939585686,80.21211738781929
2024-09-23 15:25:26.237704,41.86,31.37256,-0.0026862297461545674,-0.0224350561424862,0.09814718933766527,32.08287849390507,-100.26678939585686,80.21211738781929
2024-09-23 15:25:26.269397,41.86,31.37256,-0.0026862297461545674,-0.0224350561424862,0.09814718933766527,36.09446859390736,-100.26678939585686,80.21211738781929
2024-09-23 15:25:26.281158,41.86,31.372612,-0.002387757474797703,-0.023479709566915436,0.09814718933766527,36.09446859390736,-92.24360919585227,80.21211738781929
2024-09-23 15:25:26.323500,41.86,31.372612,-0.002387757474797703,-0.023479709566915436,0.09640611396773996,160.42752692799567,-64.16903547978401,96.25519929585457
2024-09-23 15:25:26.335097,41.86,31.372663,-0.0034324103296106863,-0.023479709566915436,0.09640611396773996,160.42752692799567,-64.16903547978401,96.25519929585457
2024-09-23 15:25:26.367297,41.86,31.372663,-0.0034324103296106863,-0.02362894446842532,0.09640611396773996,160.42752692799567,-64.16903547978401,96.25519929585457
2024-09-23 15:25:26.378388,41.86,31.372755,-0.0034324103296106863,-0.02362894446842532,0.09645586349183995,-32.08287849390507,-156.4159368279934,36.09446859390736
2024-09-23 15:25:26.421836,41.86,31.372755,-0.0028354659767690416,-0.02313149783467906,0.09764974270391902,-32.08287849390507,-156.4159368279934,36.09446859390736
2024-09-23 15:25:26.433592,41.86,31.372755,-0.0028354659767690416,-0.02313149783467906,0.09764974270391902,-32.08287849390507,-144.3844450199604,44.11764879391193
2024-09-23 15:25:26.466208,41.86,31.372807,-0.0028354659767690416,-0.02313149783467906,0.09764974270391902,-32.08287849390507,-144.3844450199604,44.11764879391193
2024-09-23 15:25:26.477583,41.86,31.372807,-0.0030344509719951677,-0.02303200030545576,0.09665483728461309,60.15744537978172,-88.23529758782387,44.11764879391193
2024-09-23 15:25:26.520865,42.0,31.372857,-0.003382661564999035,-0.02303200030545576,0.09705279702197278,60.15744537978172,-88.23529758782387,96.25519929585457
2024-09-23 15:25:26.532983,42.0,31.372857,-0.003382661564999035,-0.02303200030545576,0.09705279702197278,44.11764879391193,-88.23529758782387,96.25519929585457
2024-09-23 15:25:26.566074,42.0,31.372908,-0.003382661564999035,-0.02303200030545576,0.09705279702197278,44.11764879391193,-104.27510100388527,80.21211738781929
2024-09-23 15:25:26.578033,42.0,31.372908,-0.003382661564999035,-0.023280723622328886,0.09690356060148622,44.11764879391193,-104.27510100388527,80.21211738781929
2024-09-23 15:25:26.622381,42.0,31.372908,-0.003382661564999035,-0.023280723622328886,0.09690356060148622,28.07457030097246,-108.28669110388756,80.21211738781929
2024-09-23 15:25:26.665319,42.0,31.372959,-0.0035816467500972456,-0.02293251340906919,0.09690356060148622,28.07457030097246,-108.28669110388756,72.1922225099802
2024-09-23 15:25:26.677154,42.0,31.372959,-0.0035816467500972456,-0.02293251340906919,0.09750050628343246,64.16903547978401,-108.28669110388756,72.1922225099802
2024-09-23 15:25:26.710134,42.0,31.372959,-0.0035816467500972456,-0.02293251340906919,0.09750050628343246,64.16903547978401,-92.24360919585227,72.1922225099802
2024-09-23 15:25:26.722040,42.0,31.373009,-0.0031339382481259063,-0.02308174982955575,0.09665483728461309,64.16903547978401,-92.24360919585227,80.21211738781929
2024-09-23 15:25:26.764809,42.0,31.373096,-0.0031339382481259063,-0.02308174982955575,0.09665483728461309,36.09446859390736,-96.25519929585457,80.21211738781929
2024-09-23 15:25:26.777392,42.0,31.373096,-0.0033329230534799477,-0.02308174982955575,0.09665483728461309,36.09446859390736,-96.25519929585457,80.21211738781929
2024-09-23 15:25:26.810104,42.0,31.373096,-0.0033329230534799477,-0.02308174982955575,0.09680407370509965,40.106058693909645,-96.25519929585457,80.21211738781929
2024-09-23 15:25:26.821913,42.0,31.373148,-0.002586742470023829,-0.02308174982955575,0.09680407370509965,40.106058693909645,-96.25519929585457,80.21211738781929
2024-09-23 15:25:26.864914,42.0,31.373199,-0.002586742470023829,-0.023280723622328886,0.09705279702197278,32.08287849390507,-96.25519929585457,80.21211738781929
2024-09-23 15:25:26.907203,42.0,31.373199,-0.0024872551938930902,-0.022733528983459317,0.09705279702197278,32.08287849390507,-96.25519929585457,80.21211738781929
2024-09-23 15:25:26.918891,42.0,31.373199,-0.0024872551938930902,-0.022733528983459317,0.09650560086412653,60.15744537978172,-76.200527287817,96.25519929585457
2024-09-23 15:25:26.961698,42.0,31.373292,-0.0028852147413806935,-0.023429960042815445,0.09630662707135339,56.14914060194492,-80.21211738781929,96.25519929585457
2024-09-23 15:25:27.003801,42.0,31.373343,-0.0028852147413806935,-0.023429960042815445,0.09630662707135339,56.14914060194492,-80.21211738781929,88.23529758782387
2024-09-23 15:25:27.015479,42.0,31.373343,-0.0036811340262279837,-0.023330473146428877,0.09745075675933246,24.06297849342227,-80.21211738781929,88.23529758782387
2024-09-23 15:25:27.058203,42.0,31.373394,-0.0028354659767690416,-0.023230986250042305,0.09745075675933246,24.06297849342227,-100.26678939585686,84.22370748782159
2024-09-23 15:25:27.101062,42.0,31.373394,-0.0028354659767690416,-0.023230986250042305,0.09745075675933246,28.07457030097246,-100.26678939585686,84.22370748782159
2024-09-23 15:25:27.112629,42.0,31.373445,-0.0033329230534799477,-0.023280723622328886,0.09745075675933246,28.07457030097246,-92.24360919585227,80.21211738781929
2024-09-23 15:25:27.154901,42.0,31.373496,-0.0033329230534799477,-0.023280723622328886,0.0970030596496862,36.09446859390736,-92.24360919585227,84.22370748782159
2024-09-23 15:25:27.166930,42.0,31.373496,-0.0033329230534799477,-0.023280723622328886,0.0970030596496862,36.09446859390736,-92.24360919585227,84.22370748782159
2024-09-23 15:25:27.199813,42.0,31.373496,-0.0033329230534799477,-0.023479709566915436,0.0970030596496862,36.09446859390736,-92.24360919585227,84.22370748782159
2024-09-23 15:25:27.252190,42.0,31.373584,-0.0033329230534799477,-0.023479709566915436,0.09745075675933246,32.08287849390507,-96.25519929585457,72.1922225099802
2024-09-23 15:25:27.263665,42.0,31.373584,-0.0028852147413806935,-0.023479709566915436,0.09745075675933246,32.08287849390507,-96.25519929585457,72.1922225099802
2024-09-23 15:25:27.295735,42.0,31.373584,-0.0028852147413806935,-0.022982261414192504,0.09774922960030558,32.08287849390507,-96.25519929585457,72.1922225099802
2024-09-23 15:25:27.307491,42.0,31.373636,-0.0028852147413806935,-0.022982261414192504,0.09774922960030558,32.08287849390507,-104.27510100388527,72.1922225099802
2024-09-23 15:25:27.349745,42.0,31.373636,-0.0032831742888682963,-0.023230986250042305,0.0973512698629459,40.106058693909645,-96.25519929585457,72.1922225099802
2024-09-23 15:25:27.361700,42.0,31.373636,-0.0032831742888682963,-0.023230986250042305,0.0973512698629459,40.106058693909645,-96.25519929585457,76.200527287817
2024-09-23 15:25:27.393831,42.0,31.373686,-0.0032831742888682963,-0.023230986250042305,0.0973512698629459,40.106058693909645,-96.25519929585457,76.200527287817
2024-09-23 15:25:27.445808,42.0,31.373686,-0.0032831742888682963,-0.02303200030545576,0.09750050628343246,40.106058693909645,-96.25519929585457,76.200527287817
2024-09-23 15:25:27.458212,42.0,31.373686,-0.0032831742888682963,-0.02303200030545576,0.09750050628343246,40.106058693909645,-96.25519929585457,76.200527287817
2024-09-23 15:25:27.490773,42.0,31.373737,-0.0030841997366068195,-0.02303200030545576,0.09750050628343246,40.106058693909645,-96.25519929585457,76.200527287817
2024-09-23 15:25:27.502062,42.0,31.373737,-0.0030841997366068195,-0.023330473146428877,0.09740101331113918,36.09446859390736,-100.26678939585686,76.200527287817
2024-09-23 15:25:27.544845,42.1,31.37383,-0.0032831742888682963,-0.023479709566915436,0.09764974270391902,36.09446859390736,-100.26678939585686,80.21211738781929
2024-09-23 15:25:27.556981,42.1,31.37383,-0.0032831742888682963,-0.023479709566915436,0.09764974270391902,44.11764879391193,-100.26678939585686,80.21211738781929
2024-09-23 15:25:27.589604,42.1,31.37388,-0.0032831742888682963,-0.023479709566915436,0.09764974270391902,44.11764879391193,-100.26678939585686,84.22370748782159
2024-09-23 15:25:27.600625,42.1,31.37388,-0.0029847020175114316,-0.02308174982955575,0.09710254654607277,44.11764879391193,-100.26678939585686,84.22370748782159
2024-09-23 15:25:27.643826,42.1,31.373931,-0.0029349636958644295,-0.022733528983459317,0.09710254654607277,20.05138839341998,-108.28669110388756,68.18063240997792
2024-09-23 15:25:27.686422,42.1,31.373931,-0.0029349636958644295,-0.022733528983459317,0.0973512698629459,40.106058693909645,-108.28669110388756,68.18063240997792
2024-09-23 15:25:27.701968,42.1,31.374025,-0.0028354659767690416,-0.022733528983459317,0.0973512698629459,40.106058693909645,-96.25519929585457,76.200527287817
2024-09-23 15:25:27.734763,42.1,31.374025,-0.0028354659767690416,-0.023280723622328886,0.09665483728461309,40.106058693909645,-96.25519929585457,76.200527287817
2024-09-23 15:25:27.745883,42.1,31.37412,-0.0028354659767690416,-0.023280723622328886,0.09665483728461309,48.12595698684454,-88.23529758782387,80.21211738781929
2024-09-23 15:25:27.788104,42.1,31.37412,-0.0031836870127375577,-0.023429960042815445,0.09685382322919964,36.09446859390736,-96.25519929585457,80.21211738781929
2024-09-23 15:25:27.800585,42.1,31.37412,-0.0031836870127375577,-0.023429960042815445,0.09685382322919964,36.09446859390736,-96.25519929585457,80.21211738781929
2024-09-23 15:25:27.833306,42.1,31.374172,-0.0037308827908396356,-0.023181236725942318,0.09685382322919964,36.09446859390736,-96.25519929585457,80.21211738781929
2024-09-23 15:25:27.886814,42.1,31.374222,-0.0037308827908396356,-0.023181236725942318,0.09710254654607277,40.106058693909645,-96.25519929585457,84.22370748782159
2024-09-23 15:25:27.898278,42.1,31.374222,-0.0034324103296106863,-0.023181236725942318,0.09710254654607277,40.106058693909645,-96.25519929585457,84.22370748782159
2024-09-23 15:25:27.932814,42.1,31.374222,-0.0034324103296106863,-0.023280723622328886,0.09675432418099966,36.09446859390736,-96.25519929585457,84.22370748782159
2024-09-23 15:25:27.944477,42.1,31.374273,-0.0034324103296106863,-0.023280723622328886,0.09675432418099966,36.09446859390736,-96.25519929585457,76.200527287817
2024-09-23 15:25:27.977213,42.1,31.374273,-0.0025369937054121774,-0.023280723622328886,0.09675432418099966,36.09446859390736,-96.25519929585457,76.200527287817
2024-09-23 15:25:27.988620,42.1,31.374273,-0.0025369937054121774,-0.02278327698858263,0.09640611396773996,32.08287849390507,-92.24360919585227,88.23529758782387
2024-09-23 15:25:28.031054,42.1,31.374324,-0.0021887829225362256,-0.02581772758083363,0.09750050628343246,12.031489246711136,-92.24360919585227,88.23529758782387
2024-09-23 15:25:28.042963,42.1,31.374324,-0.0021887829225362256,-0.02581772758083363,0.09750050628343246,12.031489246711136,-92.24360919585227,88.23529758782387
2024-09-23 15:25:28.075800,42.1,31.374374,-0.0021887829225362256,-0.02581772758083363,0.09750050628343246,12.031489246711136,-92.24360919585227,64.16903547978401
2024-09-23 15:25:28.086866,42.1,31.374374,-0.0038303700669703737,-0.02303200030545576,0.09556044496892059,164.43582487564086,-92.24360919585227,64.16903547978401
2024-09-23 15:25:28.122462,42.1,31.374374,-0.0038303700669703737,-0.02303200030545576,0.09556044496892059,164.43582487564086,-84.22370748782159,64.16903547978401
2024-09-23 15:25:28.133891,42.1,31.374463,-0.0012933660135295898,-0.023728432883788564,0.10157960878113602,164.43582487564086,-84.22370748782159,60.15744537978172
2024-09-23 15:25:28.176523,42.1,31.374514,-0.0012933660135295898,-0.023728432883788564,0.10157960878113602,48.12595698684454,-140.37285491995812,76.200527287817
2024-09-23 15:25:28.188368,42.1,31.374514,-0.0028354659767690416,-0.023479709566915436,0.10157960878113602,48.12595698684454,-140.37285491995812,76.200527287817
2024-09-23 15:25:28.221138,42.1,31.374514,-0.0028354659767690416,-0.023479709566915436,0.09546095807253402,48.12595698684454,-140.37285491995812,76.200527287817
2024-09-23 15:25:28.232376,42.1,31.374565,-0.002636491424507565,-0.023479709566915436,0.09546095807253402,-20.05138839341998,-120.31818291192054,80.21211738781929
2024-09-23 15:25:28.275171,42.1,31.374565,-0.002636491424507565,-0.02278327698858263,0.09695331012558621,72.1922225099802,-76.200527287817,88.23529758782387
2024-09-23 15:25:28.287158,42.1,31.374656,-0.002636491424507565,-0.02278327698858263,0.09695331012558621,72.1922225099802,-76.200527287817,88.23529758782387
2024-09-23 15:25:28.319702,42.1,31.374656,-0.002437506429281439,-0.02303200030545576,0.09695331012558621,72.1922225099802,-76.200527287817,88.23529758782387
2024-09-23 15:25:28.330809,42.1,31.374656,-0.002437506429281439,-0.02303200030545576,0.09740101331113918,60.15744537978172,-88.23529758782387,76.200527287817
2024-09-23 15:25:28.373224,42.1,31.374708,-0.003233425524256645,-0.023330473146428877,0.09720203344245934,52.137550501942634,-88.23529758782387,76.200527287817
2024-09-23 15:25:28.385317,42.1,31.374708,-0.003233425524256645,-0.023330473146428877,0.09720203344245934,52.137550501942634,-92.24360919585227,76.200527287817
2024-09-23 15:25:28.418659,42.1,31.374759,-0.003382661564999035,-0.023330473146428877,0.09720203344245934,52.137550501942634,-92.24360919585227,80.21211738781929
2024-09-23 15:25:28.430404,42.1,31.374759,-0.003382661564999035,-0.023230986250042305,0.09740101331113918,56.14914060194492,-92.24360919585227,80.21211738781929
2024-09-23 15:25:28.473006,42.1,31.374809,-0.0028852147413806935,-0.023181236725942318,0.0976994861521123,56.14914060194492,-88.23529758782387,80.21211738781929
2024-09-23 15:25:28.514861,42.1,31.374809,-0.0028852147413806935,-0.023181236725942318,0.0976994861521123,28.07457030097246,-96.25519929585457,80.21211738781929
2024-09-23 15:25:28.526736,42.1,31.37486,-0.0029349636958644295,-0.02338022115155219,0.0976994861521123,28.07457030097246,-96.25519929585457,64.16903547978401
2024-09-23 15:25:28.570212,42.56,31.374911,-0.003482159473966507,-0.02338022115155219,0.0962568775472534,16.039798293417693,-104.27510100388527,80.21211738781929
2024-09-23 15:25:28.612415,42.56,31.374911,-0.003482159473966507,-0.022733528983459317,0.09665483728461309,16.039798293417693,-104.27510100388527,80.21211738781929
2024-09-23 15:25:28.623550,42.56,31.374998,-0.003482159473966507,-0.022733528983459317,0.09665483728461309,24.06297849342227,-112.29828120388984,80.21211738781929
2024-09-23 15:25:28.666341,42.56,31.374998,-0.0031836870127375577,-0.023230986250042305,0.09665483728461309,24.06297849342227,-108.28669110388756,80.21211738781929
2024-09-23 15:25:28.709024,42.56,31.375049,-0.0026862297461545674,-0.023230986250042305,0.09665483728461309,24.06297849342227,-108.28669110388756,80.21211738781929
2024-09-23 15:25:28.720287,42.56,31.375049,-0.0026862297461545674,-0.023181236725942318,0.09680407370509965,40.106058693909645,-96.25519929585457,80.21211738781929
2024-09-23 15:25:28.763722,42.56,31.3751,-0.0030344509719951677,-0.023778180888911878,0.09720203344245934,40.106058693909645,-96.25519929585457,80.21211738781929
2024-09-23 15:25:28.775805,42.56,31.3751,-0.0030344509719951677,-0.023778180888911878,0.09720203344245934,24.06297849342227,-96.25519929585457,80.21211738781929
2024-09-23 15:25:28.807676,42.56,31.3751,-0.0030344509719951677,-0.023778180888911878,0.09720203344245934,24.06297849342227,-100.26678939585686,84.22370748782159
2024-09-23 15:25:28.819024,42.56,31.375151,-0.0032831742888682963,-0.02303200030545576,0.09715228999426605,24.06297849342227,-100.26678939585686,84.22370748782159
2024-09-23 15:25:28.861473,42.56,31.375201,-0.0030841997366068195,-0.022833026512682618,0.09715228999426605,4.008308192932605,-108.28669110388756,84.22370748782159
2024-09-23 15:25:28.904687,42.56,31.375201,-0.0030841997366068195,-0.022833026512682618,0.09755024973162574,44.11764879391193,-108.28669110388756,84.22370748782159
2024-09-23 15:25:28.916235,42.56,31.375252,-0.0033329230534799477,-0.022833026512682618,0.09755024973162574,44.11764879391193,-96.25519929585457,76.200527287817
2024-09-23 15:25:28.960223,42.56,31.375339,-0.0033329230534799477,-0.02308174982955575,0.09690356060148622,44.11764879391193,-96.25519929585457,76.200527287817
2024-09-23 15:25:29.002340,42.56,31.375339,-0.0028852147413806935,-0.0228827638849692,0.09690356060148622,44.11764879391193,-96.25519929585457,76.200527287817
2024-09-23 15:25:29.014227,42.56,31.375339,-0.0028852147413806935,-0.0228827638849692,0.09685382322919964,44.11764879391193,-100.26678939585686,80.21211738781929
2024-09-23 15:25:29.056801,42.56,31.375391,-0.0026862297461545674,-0.02367869399252531,0.09740101331113918,52.137550501942634,-88.23529758782387,80.21211738781929
2024-09-23 15:25:29.099080,42.56,31.375441,-0.0026862297461545674,-0.02367869399252531,0.09740101331113918,52.137550501942634,-88.23529758782387,84.22370748782159
2024-09-23 15:25:29.110342,42.56,31.375441,-0.003631395514708897,-0.02338022115155219,0.09720203344245934,44.11764879391193,-88.23529758782387,84.22370748782159
2024-09-23 15:25:29.154738,42.56,31.375492,-0.0024872551938930902,-0.02338022115155219,0.09720203344245934,44.11764879391193,-100.26678939585686,80.21211738781929
2024-09-23 15:25:29.166884,42.56,31.375492,-0.0024872551938930902,-0.023181236725942318,0.0973015264147526,44.11764879391193,-100.26678939585686,80.21211738781929
2024-09-23 15:25:29.199180,42.56,31.375542,-0.0024872551938930902,-0.023181236725942318,0.0973015264147526,44.11764879391193,-96.25519929585457,80.21211738781929
2024-09-23 15:25:29.210719,42.56,31.375542,-0.0030841997366068195,-0.023429960042815445,0.0973015264147526,44.11764879391193,-96.25519929585457,80.21211738781929
2024-09-23 15:25:29.254133,42.56,31.375593,-0.0029349636958644295,-0.023429960042815445,0.09685382322919964,36.09446859390736,-100.26678939585686,80.21211738781929
2024-09-23 15:25:29.295804,42.56,31.375593,-0.0029349636958644295,-0.02367869399252531,0.09740101331113918,36.09446859390736,-100.26678939585686,80.21211738781929
2024-09-23 15:25:29.307215,42.56,31.375681,-0.0029349636958644295,-0.02367869399252531,0.09740101331113918,36.09446859390736,-100.26678939585686,84.22370748782159
2024-09-23 15:25:29.350279,42.56,31.375681,-0.003382661564999035,-0.022833026512682618,0.09720203344245934,40.106058693909645,-88.23529758782387,76.200527287817
2024-09-23 15:25:29.394129,42.56,31.375732,-0.003382661564999035,-0.023579196463302005,0.09720203344245934,40.106058693909645,-88.23529758782387,76.200527287817
2024-09-23 15:25:29.405313,42.56,31.375732,-0.003382661564999035,-0.023579196463302005,0.09675432418099966,36.09446859390736,-88.23529758782387,76.200527287817
2024-09-23 15:25:29.448973,42.56,31.375783,-0.0029847020175114316,-0.023280723622328886,0.09720203344245934,32.08287849390507,-88.23529758782387,80.21211738781929
2024-09-23 15:25:29.491348,42.56,31.375834,-0.0029847020175114316,-0.023280723622328886,0.09720203344245934,32.08287849390507,-96.25519929585457,80.21211738781929
2024-09-23 15:25:29.502632,42.56,31.375834,-0.0034324103296106863,-0.023181236725942318,0.0970030596496862,32.08287849390507,-96.25519929585457,80.21211738781929
2024-09-23 15:25:29.545002,42.56,31.375884,-0.002636491424507565,-0.02313149783467906,0.0970030596496862,40.106058693909645,-92.24360919585227,84.22370748782159
2024-09-23 15:25:29.587784,42.1,31.375884,-0.002636491424507565,-0.02313149783467906,0.09740101331113918,36.09446859390736,-96.25519929585457,84.22370748782159
2024-09-23 15:25:29.599671,42.1,31.375935,-0.0031836870127375577,-0.02313149783467906,0.09740101331113918,36.09446859390736,-96.25519929585457,88.23529758782387
2024-09-23 15:25:29.642864,42.1,31.376021,-0.0031836870127375577,-0.023230986250042305,0.09705279702197278,40.106058693909645,-92.24360919585227,80.21211738781929
2024-09-23 15:25:29.684709,42.1,31.376021,-0.0028852147413806935,-0.023181236725942318,0.09705279702197278,40.106058693909645,-92.24360919585227,80.21211738781929
2024-09-23 15:25:29.696702,42.1,31.376021,-0.0028852147413806935,-0.023181236725942318,0.09605789160266685,44.11764879391193,-92.24360919585227,80.21211738781929
2024-09-23 15:25:29.740144,42.1,31.376073,-0.0030841997366068195,-0.0228827638849692,0.09740101331113918,36.09446859390736,-92.24360919585227,80.21211738781929
2024-09-23 15:25:29.783319,42.1,31.376124,-0.0037308827908396356,-0.0228827638849692,0.09740101331113918,36.09446859390736,-92.24360919585227,76.200527287817
2024-09-23 15:25:29.877606,42.1,31.376124,-0.0037308827908396356,-0.02303200030545576,0.09740101331113918,36.09446859390736,-92.24360919585227,76.200527287817
2024-09-23 15:25:29.889696,42.1,31.376174,-0.0037308827908396356,-0.02303200030545576,0.09725178296655933,36.09446859390736,-92.24360919585227,92.24360919585227
2024-09-23 15:25:29.933260,42.1,31.376174,-0.0029349636958644295,-0.023181236725942318,0.09710254654607277,40.106058693909645,-96.25519929585457,92.24360919585227
2024-09-23 15:25:29.945209,42.1,31.376174,-0.0029349636958644295,-0.023181236725942318,0.09710254654607277,40.106058693909645,-96.25519929585457,84.22370748782159
2024-09-23 15:25:29.977617,42.1,31.376225,-0.003631395514708897,-0.023181236725942318,0.09710254654607277,40.106058693909645,-96.25519929585457,84.22370748782159
2024-09-23 15:25:29.989249,42.1,31.376225,-0.003631395514708897,-0.02313149783467906,0.09814718933766527,44.11764879391193,-96.25519929585457,84.22370748782159
2024-09-23 15:25:30.032556,42.1,31.376276,-0.0028354659767690416,-0.022833026512682618,0.09720203344245934,36.09446859390736,-96.25519929585457,84.22370748782159
2024-09-23 15:25:30.075231,42.1,31.376363,-0.0028354659767690416,-0.022833026512682618,0.09720203344245934,36.09446859390736,-96.25519929585457,76.200527287817
2024-09-23 15:25:30.086527,42.1,31.376363,-0.0032831742888682963,-0.023181236725942318,0.09750050628343246,36.09446859390736,-96.25519929585457,76.200527287817
2024-09-23 15:25:30.128759,42.1,31.376462,-0.003382661564999035,-0.02352945757203875,0.09750050628343246,44.11764879391193,-100.26678939585686,76.200527287817
2024-09-23 15:25:30.172289,42.1,31.376462,-0.003382661564999035,-0.02352945757203875,0.09685382322919964,36.09446859390736,-100.26678939585686,76.200527287817
2024-09-23 15:25:30.183368,42.1,31.376513,-0.0031339382481259063,-0.02352945757203875,0.09685382322919964,36.09446859390736,-100.26678939585686,84.22370748782159
2024-09-23 15:25:30.225714,42.1,31.376513,-0.0031339382481259063,-0.02313149783467906,0.0973512698629459,36.09446859390736,-100.26678939585686,80.21211738781929
2024-09-23 15:25:30.237925,42.1,31.376606,-0.0031339382481259063,-0.02313149783467906,0.0973512698629459,36.09446859390736,-100.26678939585686,80.21211738781929
2024-09-23 15:25:30.271331,42.1,31.376606,-0.0036811340262279837,-0.023181236725942318,0.0973512698629459,36.09446859390736,-100.26678939585686,80.21211738781929
2024-09-23 15:25:30.282811,42.1,31.376606,-0.0036811340262279837,-0.023181236725942318,0.0973512698629459,36.09446859390736,-100.26678939585686,80.21211738781929
2024-09-23 15:25:30.325475,42.1,31.376658,-0.0033329230534799477,-0.02293251340906919,0.09725178296655933,40.106058693909645,-96.25519929585457,80.21211738781929
2024-09-23 15:25:30.370360,42.1,31.376709,-0.003382661564999035,-0.02293251340906919,0.09725178296655933,40.106058693909645,-96.25519929585457,84.22370748782159
2024-09-23 15:25:30.382366,42.1,31.376709,-0.003382661564999035,-0.023230986250042305,0.09715228999426605,44.11764879391193,-96.25519929585457,84.22370748782159
2024-09-23 15:25:30.414632,42.1,31.376709,-0.003382661564999035,-0.023230986250042305,0.09715228999426605,44.11764879391193,-100.26678939585686,84.22370748782159
2024-09-23 15:25:30.425751,42.1,31.37676,-0.0031339382481259063,-0.02313149783467906,0.09715228999426605,44.11764879391193,-100.26678939585686,84.22370748782159
2024-09-23 15:25:30.467935,42.1,31.37676,-0.0031339382481259063,-0.02313149783467906,0.09740101331113918,44.11764879391193,-100.26678939585686,84.22370748782159
2024-09-23 15:25:30.520265,42.1,31.37681,-0.0029847020175114316,-0.02313149783467906,0.09740101331113918,32.08287849390507,-104.27510100388527,84.22370748782159
2024-09-23 15:25:30.564083,42.1,31.37681,-0.0029847020175114316,-0.0228827638849692,0.0973512698629459,40.106058693909645,-104.27510100388527,84.22370748782159
2024-09-23 15:25:30.575845,42.1,31.376861,-0.0029847020175114316,-0.0228827638849692,0.0973512698629459,40.106058693909645,-100.26678939585686,88.23529758782387
2024-09-23 15:25:30.618847,41.78,31.376861,-0.0034324103296106863,-0.023429960042815445,0.09750050628343246,36.09446859390736,-100.26678939585686,76.200527287817
2024-09-23 15:25:30.661825,41.78,31.376948,-0.003382661564999035,-0.023181236725942318,0.09750050628343246,36.09446859390736,-100.26678939585686,76.200527287817
2024-09-23 15:25:30.673225,41.78,31.376948,-0.003382661564999035,-0.023181236725942318,0.09715228999426605,44.11764879391193,-96.25519929585457,76.200527287817
2024-09-23 15:25:30.715901,41.78,31.376999,-0.0031339382481259063,-0.022733528983459317,0.09680407370509965,36.09446859390736,-96.25519929585457,80.21211738781929
2024-09-23 15:25:30.758553,41.78,31.377095,-0.0031339382481259063,-0.022733528983459317,0.09680407370509965,36.09446859390736,-100.26678939585686,72.1922225099802
2024-09-23 15:25:30.769568,41.78,31.377095,-0.003382661564999035,-0.022733528983459317,0.0973015264147526,36.09446859390736,-100.26678939585686,72.1922225099802
2024-09-23 15:25:30.813187,41.78,31.377146,-0.0032831742888682963,-0.023230986250042305,0.0973015264147526,40.106058693909645,-96.25519929585457,80.21211738781929
2024-09-23 15:25:30.855732,41.78,31.377146,-0.0032831742888682963,-0.023230986250042305,0.0973512698629459,40.106058693909645,-92.24360919585227,80.21211738781929
2024-09-23 15:25:30.867606,41.78,31.377197,-0.0036811340262279837,-0.023230986250042305,0.0973512698629459,40.106058693909645,-92.24360919585227,80.21211738781929
2024-09-23 15:25:30.909842,41.78,31.377289,-0.0036811340262279837,-0.02338022115155219,0.09715228999426605,36.09446859390736,-100.26678939585686,76.200527287817
2024-09-23 15:25:30.953168,41.78,31.377289,-0.0027359787006383035,-0.023230986250042305,0.09725178296655933,36.09446859390736,-100.26678939585686,76.200527287817
2024-09-23 15:25:30.964315,41.78,31.377289,-0.0027359787006383035,-0.023230986250042305,0.09725178296655933,40.106058693909645,-92.24360919585227,80.21211738781929
2024-09-23 15:25:31.006525,41.78,31.377341,-0.003979606107712764,-0.02303200030545576,0.0970030596496862,40.106058693909645,-100.26678939585686,80.21211738781929
2024-09-23 15:25:31.049114,41.78,31.377391,-0.003979606107712764,-0.02303200030545576,0.0970030596496862,40.106058693909645,-100.26678939585686,80.21211738781929
2024-09-23 15:25:31.060923,41.78,31.377391,-0.0030344509719951677,-0.0228827638849692,0.09690356060148622,36.09446859390736,-100.26678939585686,80.21211738781929
2024-09-23 15:25:31.103656,41.78,31.377442,-0.0030344509719951677,-0.0228827638849692,0.09690356060148622,36.09446859390736,-100.26678939585686,76.200527287817
2024-09-23 15:25:31.145856,41.78,31.377442,-0.003233425524256645,-0.0228827638849692,0.09690356060148622,36.09446859390736,-100.26678939585686,76.200527287817
2024-09-23 15:25:31.157107,41.78,31.377442,-0.003233425524256645,-0.02278327698858263,0.09690356060148622,44.11764879391193,-96.25519929585457,84.22370748782159
2024-09-23 15:25:31.200631,41.78,31.377493,-0.0030344509719951677,-0.022982261414192504,0.09740101331113918,44.11764879391193,-96.25519929585457,84.22370748782159
2024-09-23 15:25:31.212830,41.78,31.377493,-0.0030344509719951677,-0.022982261414192504,0.09740101331113918,44.11764879391193,-100.26678939585686,84.22370748782159
2024-09-23 15:25:31.244391,41.78,31.377543,-0.0030344509719951677,-0.022982261414192504,0.09740101331113918,44.11764879391193,-100.26678939585686,76.200527287817
2024-09-23 15:25:31.255460,41.78,31.377543,-0.003233425524256645,-0.02352945757203875,0.09774922960030558,36.09446859390736,-100.26678939585686,76.200527287817
2024-09-23 15:25:31.298290,41.78,31.37763,-0.0027359787006383035,-0.02352945757203875,0.09774922960030558,36.09446859390736,-96.25519929585457,80.21211738781929
2024-09-23 15:25:31.311825,41.78,31.37763,-0.0027359787006383035,-0.023728432883788564,0.09635636444363997,36.09446859390736,-96.25519929585457,80.21211738781929
2024-09-23 15:25:31.344617,41.78,31.37763,-0.0027359787006383035,-0.023728432883788564,0.09635636444363997,36.09446859390736,-96.25519929585457,80.21211738781929
2024-09-23 15:25:31.356498,41.78,31.377681,-0.0031836870127375577,-0.023280723622328886,0.09635636444363997,36.09446859390736,-96.25519929585457,80.21211738781929
2024-09-23 15:25:31.388447,41.78,31.377681,-0.0031836870127375577,-0.023280723622328886,0.09695331012558621,36.09446859390736,-96.25519929585457,80.21211738781929
2024-09-23 15:25:31.399790,41.78,31.377732,-0.002636491424507565,-0.023280723622328886,0.09695331012558621,32.08287849390507,-92.24360919585227,80.21211738781929
2024-09-23 15:25:31.443587,41.78,31.377732,-0.002636491424507565,-0.02362894446842532,0.09685382322919964,40.106058693909645,-96.25519929585457,84.22370748782159
2024-09-23 15:25:31.456101,41.78,31.377825,-0.002636491424507565,-0.02362894446842532,0.09685382322919964,40.106058693909645,-96.25519929585457,84.22370748782159
2024-09-23 15:25:31.488371,41.78,31.377825,-0.002636491424507565,-0.022833026512682618,0.09685382322919964,40.106058693909645,-96.25519929585457,84.22370748782159
2024-09-23 15:25:31.500371,41.78,31.377825,-0.002636491424507565,-0.022833026512682618,0.09725178296655933,40.106058693909645,-96.25519929585457,80.21211738781929
2024-09-23 15:25:31.543931,41.78,31.377878,-0.0032831742888682963,-0.02338022115155219,0.0970030596496862,44.11764879391193,-96.25519929585457,80.21211738781929
2024-09-23 15:25:31.587692,41.78,31.377928,-0.0027359787006383035,-0.02338022115155219,0.0970030596496862,44.11764879391193,-96.25519929585457,76.200527287817
2024-09-23 15:25:31.598944,41.78,31.377928,-0.0027359787006383035,-0.02303200030545576,0.0973015264147526,36.09446859390736,-96.25519929585457,76.200527287817
2024-09-23 15:25:31.641790,41.81,31.377979,-0.0022385316871478774,-0.02397715620066169,0.09600815423038027,36.09446859390736,-104.27510100388527,80.21211738781929
2024-09-23 15:25:31.685141,41.81,31.377979,-0.0022385316871478774,-0.02397715620066169,0.09600815423038027,52.137550501942634,-84.22370748782159,88.23529758782387
2024-09-23 15:25:31.696602,41.81,31.37803,-0.003929857343101113,-0.023330473146428877,0.09600815423038027,52.137550501942634,-84.22370748782159,88.23529758782387
2024-09-23 15:25:31.739579,41.81,31.37808,-0.0033329230534799477,-0.023330473146428877,0.0973015264147526,8.019899146708847,-120.31818291192054,68.18063240997792
2024-09-23 15:25:31.834297,41.81,31.37808,-0.0033329230534799477,-0.0228827638849692,0.09745075675933246,4.008308192932605,-116.30987130389214,76.200527287817
2024-09-23 15:25:31.847099,41.81,31.378167,-0.0033329230534799477,-0.0228827638849692,0.09745075675933246,4.008308192932605,-116.30987130389214,76.200527287817
2024-09-23 15:25:31.879742,41.81,31.378167,-0.0035318979854855937,-0.023280723622328886,0.09695331012558621,4.008308192932605,-116.30987130389214,76.200527287817
2024-09-23 15:25:31.891404,41.81,31.378167,-0.0035318979854855937,-0.023280723622328886,0.09695331012558621,64.16903547978401,-88.23529758782387,84.22370748782159
2024-09-23 15:25:31.934072,41.81,31.378218,-0.0032831742888682963,-0.02303200030545576,0.09670458680871308,44.11764879391193,-100.26678939585686,84.22370748782159
2024-09-23 15:25:31.977109,41.81,31.378269,-0.0026862297461545674,-0.02303200030545576,0.09670458680871308,44.11764879391193,-100.26678939585686,72.1922225099802
2024-09-23 15:25:31.988766,41.81,31.378269,-0.0026862297461545674,-0.02313149783467906,0.09725178296655933,40.106058693909645,-100.26678939585686,72.1922225099802
2024-09-23 15:25:32.031421,41.81,31.378319,-0.0030841997366068195,-0.02303200030545576,0.09695331012558621,40.106058693909645,-96.25519929585457,84.22370748782159
2024-09-23 15:25:32.073338,41.81,31.378319,-0.0030841997366068195,-0.02303200030545576,0.09695331012558621,40.106058693909645,-96.25519929585457,84.22370748782159
2024-09-23 15:25:32.085150,41.81,31.378413,-0.0028852147413806935,-0.023280723622328886,0.09695331012558621,40.106058693909645,-96.25519929585457,84.22370748782159
2024-09-23 15:25:32.129092,41.81,31.378463,-0.0038801188315820256,-0.023280723622328886,0.09715228999426605,32.08287849390507,-100.26678939585686,80.21211738781929
2024-09-23 15:25:32.172072,41.81,31.378463,-0.0038801188315820256,-0.023479709566915436,0.09710254654607277,40.106058693909645,-100.26678939585686,80.21211738781929
2024-09-23 15:25:32.183075,41.81,31.378557,-0.0038801188315820256,-0.023479709566915436,0.09710254654607277,40.106058693909645,-96.25519929585457,80.21211738781929
2024-09-23 15:25:32.225189,41.81,31.378557,-0.0030344509719951677,-0.02268379009219606,0.09740101331113918,40.106058693909645,-92.24360919585227,80.21211738781929
2024-09-23 15:25:32.269145,41.81,31.378608,-0.003233425524256645,-0.023280723622328886,0.09740101331113918,40.106058693909645,-92.24360919585227,80.21211738781929
2024-09-23 15:25:32.280415,41.81,31.378608,-0.003233425524256645,-0.023280723622328886,0.09750050628343246,44.11764879391193,-92.24360919585227,80.21211738781929
2024-09-23 15:25:32.323784,41.81,31.378659,-0.0033329230534799477,-0.02362894446842532,0.09690356060148622,40.106058693909645,-92.24360919585227,76.200527287817
2024-09-23 15:25:32.365867,41.81,31.378659,-0.0033329230534799477,-0.02362894446842532,0.09690356060148622,40.106058693909645,-104.27510100388527,80.21211738781929
2024-09-23 15:25:32.377388,41.81,31.378709,-0.0028852147413806935,-0.024026904205785005,0.09536145902433404,40.106058693909645,-104.27510100388527,80.21211738781929
2024-09-23 15:25:32.419902,41.81,31.378709,-0.0028852147413806935,-0.024026904205785005,0.09536145902433404,16.039798293417693,-104.27510100388527,80.21211738781929
2024-09-23 15:25:32.463457,41.81,31.378709,-0.0028852147413806935,-0.024026904205785005,0.09536145902433404,16.039798293417693,-100.26678939585686,80.21211738781929
2024-09-23 15:25:32.475028,41.81,31.37876,-0.004079093383843503,-0.023181236725942318,0.09496349928697435,16.039798293417693,-100.26678939585686,80.21211738781929
2024-09-23 15:25:32.518922,41.81,31.378811,-0.0037308827908396356,-0.022733528983459317,0.09496349928697435,-44.11764879391193,-108.28669110388756,76.200527287817
2024-09-23 15:25:32.562231,41.81,31.378811,-0.0037308827908396356,-0.022733528983459317,0.09759999317981902,4.008308192932605,-96.25519929585457,76.200527287817
2024-09-23 15:25:32.573775,41.81,31.378898,-0.0032831742888682963,-0.022733528983459317,0.09759999317981902,4.008308192932605,-96.25519929585457,88.23529758782387
2024-09-23 15:25:32.617670,41.81,31.378949,-0.0032831742888682963,-0.023230986250042305,0.09720203344245934,20.05138839341998,-108.28669110388756,76.200527287817
2024-09-23 15:25:32.661750,41.12,31.378949,-0.002586742470023829,-0.02293251340906919,0.09680407370509965,36.09446859390736,-108.28669110388756,76.200527287817
2024-09-23 15:25:32.673676,41.12,31.378949,-0.002586742470023829,-0.02293251340906919,0.09680407370509965,36.09446859390736,-100.26678939585686,76.200527287817
2024-09-23 15:25:32.705604,41.12,31.379045,-0.002586742470023829,-0.02293251340906919,0.09680407370509965,36.09446859390736,-100.26678939585686,76.200527287817
2024-09-23 15:25:32.717113,41.12,31.379045,-0.0030344509719951677,-0.023778180888911878,0.0970030596496862,44.11764879391193,-100.26678939585686,76.200527287817
2024-09-23 15:25:32.759476,41.12,31.379096,-0.003382661564999035,-0.022833026512682618,0.09745075675933246,44.11764879391193,-100.26678939585686,80.21211738781929
2024-09-23 15:25:32.771465,41.12,31.379096,-0.003382661564999035,-0.022833026512682618,0.09745075675933246,28.07457030097246,-100.26678939585686,80.21211738781929
2024-09-23 15:25:32.803449,41.12,31.379096,-0.003382661564999035,-0.022833026512682618,0.09745075675933246,28.07457030097246,-100.26678939585686,80.21211738781929
2024-09-23 15:25:32.814569,41.12,31.379147,-0.0033329230534799477,-0.023778180888911878,0.09680407370509965,28.07457030097246,-100.26678939585686,80.21211738781929
2024-09-23 15:25:32.856403,41.12,31.379197,-0.0033329230534799477,-0.023778180888911878,0.09680407370509965,36.09446859390736,-92.24360919585227,80.21211738781929
2024-09-23 15:25:32.868860,41.12,31.379197,-0.0027359787006383035,-0.0228827638849692,0.09680407370509965,36.09446859390736,-92.24360919585227,80.21211738781929
2024-09-23 15:25:32.901807,41.12,31.379197,-0.0027359787006383035,-0.0228827638849692,0.09650560086412653,44.11764879391193,-92.24360919585227,80.21211738781929
2024-09-23 15:25:32.913830,41.12,31.379248,-0.0029847020175114316,-0.0228827638849692,0.09650560086412653,44.11764879391193,-96.25519929585457,84.22370748782159
2024-09-23 15:25:32.997270,41.12,31.379248,-0.0029847020175114316,-0.02308174982955575,0.09650560086412653,44.11764879391193,-96.25519929585457,84.22370748782159
2024-09-23 15:25:33.008775,41.12,31.379337,-0.0029847020175114316,-0.02308174982955575,0.09685382322919964,36.09446859390736,-96.25519929585457,76.200527287817
2024-09-23 15:25:33.051452,41.12,31.379337,-0.003482159473966507,-0.02352945757203875,0.0973015264147526,40.106058693909645,-96.25519929585457,76.200527287817
2024-09-23 15:25:33.063197,41.12,31.379337,-0.003482159473966507,-0.02352945757203875,0.0973015264147526,40.106058693909645,-92.24360919585227,80.21211738781929
2024-09-23 15:25:33.094610,41.12,31.379388,-0.003482159473966507,-0.02352945757203875,0.0973015264147526,40.106058693909645,-92.24360919585227,80.21211738781929
2024-09-23 15:25:33.106210,41.12,31.379388,-0.0029349636958644295,-0.02303200030545576,0.09690356060148622,40.106058693909645,-100.26678939585686,80.21211738781929
2024-09-23 15:25:33.150170,41.12,31.379439,-0.0029847020175114316,-0.023280723622328886,0.09720203344245934,40.106058693909645,-100.26678939585686,76.200527287817
2024-09-23 15:25:33.161771,41.12,31.379439,-0.0029847020175114316,-0.023280723622328886,0.09720203344245934,36.09446859390736,-100.26678939585686,76.200527287817
2024-09-23 15:25:33.194070,41.12,31.379439,-0.0029847020175114316,-0.023280723622328886,0.09720203344245934,36.09446859390736,-100.26678939585686,80.21211738781929
2024-09-23 15:25:33.205578,41.12,31.379489,-0.0032831742888682963,-0.023330473146428877,0.09685382322919964,36.09446859390736,-100.26678939585686,80.21211738781929
2024-09-23 15:25:33.248422,41.12,31.379582,-0.0028354659767690416,-0.023330473146428877,0.09685382322919964,44.11764879391193,-100.26678939585686,80.21211738781929
2024-09-23 15:25:33.260577,41.12,31.379582,-0.0028354659767690416,-0.023778180888911878,0.09685382322919964,44.11764879391193,-100.26678939585686,80.21211738781929
2024-09-23 15:25:33.293482,41.12,31.379582,-0.0028354659767690416,-0.023778180888911878,0.09720203344245934,32.08287849390507,-88.23529758782387,80.21211738781929
2024-09-23 15:25:33.304872,41.12,31.379633,-0.002139034157924574,-0.023778180888911878,0.09720203344245934,32.08287849390507,-88.23529758782387,88.23529758782387
2024-09-23 15:25:33.347711,41.12,31.379727,-0.002139034157924574,-0.02362894446842532,0.09580916828579372,44.11764879391193,-96.25519929585457,80.21211738781929
2024-09-23 15:25:33.390938,41.12,31.379727,-0.003929857343101113,-0.02338022115155219,0.09665483728461309,44.11764879391193,-96.25519929585457,80.21211738781929
2024-09-23 15:25:33.405359,41.12,31.379727,-0.003929857343101113,-0.02338022115155219,0.09665483728461309,-20.05138839341998,-128.34136311192512,72.1922225099802
2024-09-23 15:25:33.438368,41.12,31.379778,-0.0026862297461545674,-0.02338022115155219,0.09665483728461309,-20.05138839341998,-128.34136311192512,72.1922225099802
2024-09-23 15:25:33.450215,41.12,31.379778,-0.0026862297461545674,-0.023330473146428877,0.09600815423038027,8.019899146708847,-120.31818291192054,72.1922225099802
2024-09-23 15:25:33.493783,41.12,31.379829,-0.0036811340262279837,-0.023330473146428877,0.09705279702197278,28.07457030097246,-120.31818291192054,68.18063240997792
2024-09-23 15:25:33.537207,41.12,31.379879,-0.0036811340262279837,-0.023330473146428877,0.09705279702197278,28.07457030097246,-104.27510100388527,80.21211738781929
2024-09-23 15:25:33.548746,41.12,31.379879,-0.0028354659767690416,-0.02338022115155219,0.09750050628343246,28.07457030097246,-104.27510100388527,80.21211738781929
2024-09-23 15:25:33.591637,41.12,31.37993,-0.003233425524256645,-0.02293251340906919,0.09750050628343246,28.07457030097246,-104.27510100388527,80.21211738781929
2024-09-23 15:25:33.635630,41.12,31.37993,-0.003233425524256645,-0.02293251340906919,0.09720203344245934,24.06297849342227,-100.26678939585686,80.21211738781929
2024-09-23 15:25:33.647270,41.12,31.379981,-0.0032831742888682963,-0.02293251340906919,0.09720203344245934,24.06297849342227,-100.26678939585686,80.21211738781929
2024-09-23 15:25:33.679696,41.56,31.379981,-0.0032831742888682963,-0.023479709566915436,0.09720203344245934,24.06297849342227,-100.26678939585686,80.21211738781929
2024-09-23 15:25:33.691176,41.56,31.380068,-0.0032831742888682963,-0.023479709566915436,0.0973512698629459,40.106058693909645,-96.25519929585457,84.22370748782159
2024-09-23 15:25:33.733959,41.56,31.380068,-0.003382661564999035,-0.023230986250042305,0.09715228999426605,40.106058693909645,-96.25519929585457,84.22370748782159
2024-09-23 15:25:33.745832,41.56,31.380068,-0.003382661564999035,-0.023230986250042305,0.09715228999426605,40.106058693909645,-100.26678939585686,76.200527287817
2024-09-23 15:25:33.778469,41.56,31.380119,-0.003382661564999035,-0.023230986250042305,0.09715228999426605,40.106058693909645,-100.26678939585686,76.200527287817
2024-09-23 15:25:33.789955,41.56,31.380119,-0.0031339382481259063,-0.02308174982955575,0.09695331012558621,36.09446859390736,-96.25519929585457,76.200527287817
2024-09-23 15:25:33.832133,41.56,31.38017,-0.0030841997366068195,-0.02313149783467906,0.09695331012558621,36.09446859390736,-96.25519929585457,80.21211738781929
2024-09-23 15:25:33.843615,41.56,31.38017,-0.0030841997366068195,-0.02313149783467906,0.09720203344245934,52.137550501942634,-96.25519929585457,80.21211738781929
2024-09-23 15:25:33.877374,41.56,31.38017,-0.0030841997366068195,-0.02313149783467906,0.09720203344245934,52.137550501942634,-92.24360919585227,84.22370748782159
2024-09-23 15:25:33.889083,41.56,31.380221,-0.0029349636958644295,-0.02338022115155219,0.09740101331113918,52.137550501942634,-92.24360919585227,84.22370748782159
2024-09-23 15:25:33.931591,41.56,31.380271,-0.003979606107712764,-0.02303200030545576,0.09740101331113918,40.106058693909645,-96.25519929585457,80.21211738781929
2024-09-23 15:25:33.974118,41.56,31.380271,-0.003979606107712764,-0.02303200030545576,0.09720203344245934,36.09446859390736,-96.25519929585457,80.21211738781929
2024-09-23 15:25:33.985410,41.56,31.380322,-0.003233425524256645,-0.02303200030545576,0.09720203344245934,36.09446859390736,-104.27510100388527,76.200527287817
2024-09-23 15:25:34.029804,41.56,31.380322,-0.003233425524256645,-0.023479709566915436,0.09690356060148622,40.106058693909645,-92.24360919585227,80.21211738781929
2024-09-23 15:25:34.041115,41.56,31.380409,-0.003233425524256645,-0.023479709566915436,0.09690356060148622,40.106058693909645,-92.24360919585227,80.21211738781929
2024-09-23 15:25:34.073315,41.56,31.380409,-0.0028852147413806935,-0.023330473146428877,0.09670458680871308,40.106058693909645,-92.24360919585227,80.21211738781929
2024-09-23 15:25:34.084919,41.56,31.380409,-0.0028852147413806935,-0.023330473146428877,0.09670458680871308,32.08287849390507,-92.24360919585227,72.1922225099802
2024-09-23 15:25:34.121022,41.56,31.380461,-0.0035816467500972456,-0.023330473146428877,0.09670458680871308,32.08287849390507,-92.24360919585227,72.1922225099802
2024-09-23 15:25:34.132697,41.56,31.380461,-0.0035816467500972456,-0.022982261414192504,0.0973015264147526,28.07457030097246,-96.25519929585457,72.1922225099802
2024-09-23 15:25:34.176059,41.56,31.380512,-0.0030841997366068195,-0.02293251340906919,0.09759999317981902,40.106058693909645,-96.25519929585457,76.200527287817
2024-09-23 15:25:34.218217,41.56,31.380512,-0.0030841997366068195,-0.02293251340906919,0.09759999317981902,40.106058693909645,-92.24360919585227,76.200527287817
2024-09-23 15:25:34.229597,41.56,31.380562,-0.0033329230534799477,-0.023330473146428877,0.09670458680871308,40.106058693909645,-92.24360919585227,76.200527287817
2024-09-23 15:25:34.273010,41.56,31.380614,-0.0034324103296106863,-0.023827930413011865,0.09670458680871308,44.11764879391193,-96.25519929585457,76.200527287817
2024-09-23 15:25:34.315711,41.56,31.380614,-0.0034324103296106863,-0.023827930413011865,0.09690356060148622,40.106058693909645,-96.25519929585457,76.200527287817
2024-09-23 15:25:34.327329,41.56,31.380664,-0.003382661564999035,-0.023827930413011865,0.09690356060148622,40.106058693909645,-100.26678939585686,76.200527287817
2024-09-23 15:25:34.369628,41.56,31.380664,-0.003382661564999035,-0.023280723622328886,0.09755024973162574,40.106058693909645,-96.25519929585457,76.200527287817
2024-09-23 15:25:34.381895,41.56,31.38075,-0.003382661564999035,-0.023280723622328886,0.09755024973162574,40.106058693909645,-96.25519929585457,76.200527287817
2024-09-23 15:25:34.415049,41.56,31.38075,-0.0030841997366068195,-0.022982261414192504,0.09750050628343246,40.106058693909645,-96.25519929585457,76.200527287817
2024-09-23 15:25:34.468735,41.56,31.380802,-0.0035318979854855937,-0.023330473146428877,0.09750050628343246,44.11764879391193,-96.25519929585457,80.21211738781929
2024-09-23 15:25:34.512100,41.56,31.380802,-0.0035318979854855937,-0.023330473146428877,0.09670458680871308,44.11764879391193,-92.24360919585227,80.21211738781929
2024-09-23 15:25:34.523684,41.56,31.380853,-0.003482159473966507,-0.023330473146428877,0.09670458680871308,44.11764879391193,-92.24360919585227,76.200527287817
2024-09-23 15:25:34.566430,41.56,31.380903,-0.003482159473966507,-0.023230986250042305,0.09705279702197278,40.106058693909645,-96.25519929585457,76.200527287817
2024-09-23 15:25:34.609731,41.56,31.380903,-0.0029349636958644295,-0.02338022115155219,0.0973512698629459,40.106058693909645,-96.25519929585457,76.200527287817
2024-09-23 15:25:34.621354,41.56,31.380903,-0.0029349636958644295,-0.02338022115155219,0.0973512698629459,40.106058693909645,-96.25519929585457,80.21211738781929
2024-09-23 15:25:34.665020,41.56,31.380954,-0.003780631555451287,-0.02367869399252531,0.09745075675933246,48.12595698684454,-96.25519929585457,80.21211738781929
2024-09-23 15:25:34.707312,41.81,31.381044,-0.0033329230534799477,-0.02367869399252531,0.09745075675933246,48.12595698684454,-96.25519929585457,80.21211738781929
2024-09-23 15:25:34.718781,41.81,31.381044,-0.0033329230534799477,-0.023429960042815445,0.0970030596496862,48.12595698684454,-96.25519929585457,80.21211738781929
2024-09-23 15:25:34.761729,41.81,31.381095,-0.0037308827908396356,-0.023579196463302005,0.09720203344245934,48.12595698684454,-96.25519929585457,80.21211738781929
2024-09-23 15:25:34.806261,41.81,31.381095,-0.0037308827908396356,-0.023579196463302005,0.09720203344245934,52.137550501942634,-100.26678939585686,72.1922225099802
2024-09-23 15:25:34.817798,41.81,31.381146,-0.0033329230534799477,-0.022982261414192504,0.09720203344245934,52.137550501942634,-100.26678939585686,72.1922225099802
2024-09-23 15:25:34.849872,41.81,31.381146,-0.0033329230534799477,-0.022982261414192504,0.09690356060148622,52.137550501942634,-100.26678939585686,72.1922225099802
2024-09-23 15:25:34.861265,41.81,31.381196,-0.0034324103296106863,-0.022982261414192504,0.09690356060148622,40.106058693909645,-92.24360919585227,72.1922225099802
2024-09-23 15:25:34.903840,41.81,31.381196,-0.0034324103296106863,-0.0228827638849692,0.09640611396773996,28.07457030097246,-100.26678939585686,72.1922225099802
2024-09-23 15:25:34.915120,41.81,31.381287,-0.0034324103296106863,-0.0228827638849692,0.09640611396773996,28.07457030097246,-100.26678939585686,80.21211738781929
2024-09-23 15:25:34.949607,41.81,31.381287,-0.003631395514708897,-0.023181236725942318,0.09640611396773996,28.07457030097246,-100.26678939585686,80.21211738781929
2024-09-23 15:25:34.960850,41.81,31.381287,-0.003631395514708897,-0.023181236725942318,0.09635636444363997,36.09446859390736,-92.24360919585227,80.21211738781929
2024-09-23 15:25:35.004001,41.81,31.381338,-0.0026862297461545674,-0.023330473146428877,0.09680407370509965,28.07457030097246,-96.25519929585457,80.21211738781929
2024-09-23 15:25:35.046286,41.81,31.381389,-0.0026862297461545674,-0.023330473146428877,0.09680407370509965,28.07457030097246,-96.25519929585457,84.22370748782159
2024-09-23 15:25:35.059043,41.81,31.381389,-0.0029349636958644295,-0.023330473146428877,0.09705279702197278,44.11764879391193,-96.25519929585457,84.22370748782159
2024-09-23 15:25:35.101428,41.81,31.381439,-0.003929857343101113,-0.023230986250042305,0.09690356060148622,44.11764879391193,-96.25519929585457,80.21211738781929
2024-09-23 15:25:35.143928,41.81,31.381439,-0.003929857343101113,-0.023230986250042305,0.09690356060148622,40.106058693909645,-88.23529758782387,80.21211738781929
2024-09-23 15:25:35.155352,41.81,31.38149,-0.0038801188315820256,-0.02268379009219606,0.09690356060148622,40.106058693909645,-88.23529758782387,88.23529758782387
2024-09-23 15:25:35.199029,41.81,31.381541,-0.003929857343101113,-0.02268379009219606,0.09675432418099966,36.09446859390736,-92.24360919585227,84.22370748782159
2024-09-23 15:25:35.241779,41.81,31.381541,-0.003929857343101113,-0.02308174982955575,0.09685382322919964,36.09446859390736,-92.24360919585227,84.22370748782159
2024-09-23 15:25:35.253146,41.81,31.381628,-0.003929857343101113,-0.02308174982955575,0.09685382322919964,36.09446859390736,-100.26678939585686,76.200527287817
2024-09-23 15:25:35.296312,41.81,31.381628,-0.0031339382481259063,-0.02367869399252531,0.09710254654607277,40.106058693909645,-100.26678939585686,76.200527287817
2024-09-23 15:25:35.309908,41.81,31.381628,-0.0031339382481259063,-0.02367869399252531,0.09710254654607277,40.106058693909645,-100.26678939585686,76.200527287817
2024-09-23 15:25:35.342170,41.81,31.381679,-0.0036811340262279837,-0.02293251340906919,0.09745075675933246,40.106058693909645,-100.26678939585686,76.200527287817
2024-09-23 15:25:35.354057,41.81,31.381679,-0.0036811340262279837,-0.02293251340906919,0.09745075675933246,44.11764879391193,-96.25519929585457,76.200527287817
2024-09-23 15:25:35.386812,41.81,31.381679,-0.0036811340262279837,-0.02293251340906919,0.09745075675933246,44.11764879391193,-96.25519929585457,80.21211738781929
2024-09-23 15:25:35.398400,41.81,31.38173,-0.0029847020175114316,-0.023181236725942318,0.09665483728461309,44.11764879391193,-96.25519929585457,80.21211738781929
2024-09-23 15:25:35.441778,41.81,31.381781,-0.0030841997366068195,-0.02313149783467906,0.09665483728461309,44.11764879391193,-96.25519929585457,84.22370748782159
2024-09-23 15:25:35.453897,41.81,31.381781,-0.0030841997366068195,-0.02313149783467906,0.09715228999426605,44.11764879391193,-96.25519929585457,84.22370748782159
2024-09-23 15:25:35.486339,41.81,31.381781,-0.0030841997366068195,-0.02313149783467906,0.09715228999426605,40.106058693909645,-104.27510100388527,84.22370748782159
2024-09-23 15:25:35.497466,41.81,31.381831,-0.0034324103296106863,-0.023429960042815445,0.09715228999426605,40.106058693909645,-104.27510100388527,84.22370748782159
2024-09-23 15:25:35.539452,41.81,31.381882,-0.0034324103296106863,-0.023429960042815445,0.09740101331113918,48.12595698684454,-92.24360919585227,84.22370748782159
2024-09-23 15:25:35.551642,41.81,31.381882,-0.0032831742888682963,-0.023429960042815445,0.09740101331113918,48.12595698684454,-92.24360919585227,84.22370748782159
2024-09-23 15:25:35.584312,41.81,31.381882,-0.0032831742888682963,-0.02313149783467906,0.09690356060148622,56.14914060194492,-92.24360919585227,84.22370748782159
2024-09-23 15:25:35.596117,41.81,31.381969,-0.0032831742888682963,-0.02313149783467906,0.09690356060148622,56.14914060194492,-92.24360919585227,88.23529758782387
2024-09-23 15:25:35.638772,41.81,31.381969,-0.003233425524256645,-0.023728432883788564,0.09650560086412653,40.106058693909645,-104.27510100388527,88.23529758782387
2024-09-23 15:25:35.680764,41.81,31.382021,-0.003233425524256645,-0.023728432883788564,0.09650560086412653,40.106058693909645,-104.27510100388527,76.200527287817
2024-09-23 15:25:35.692834,41.81,31.382021,-0.003382661564999035,-0.023280723622328886,0.0970030596496862,44.11764879391193,-104.27510100388527,76.200527287817
2024-09-23 15:25:35.735745,42.01,31.382071,-0.0036811340262279837,-0.02308174982955575,0.0970030596496862,44.11764879391193,-92.24360919585227,80.21211738781929
2024-09-23 15:25:35.747334,42.01,31.382071,-0.0036811340262279837,-0.02308174982955575,0.09720203344245934,44.11764879391193,-92.24360919585227,80.21211738781929
2024-09-23 15:25:35.779612,42.01,31.382071,-0.0036811340262279837,-0.02308174982955575,0.09720203344245934,56.14914060194492,-80.21211738781929,80.21211738781929
2024-09-23 15:25:35.791432,42.01,31.382122,-0.003233425524256645,-0.022833026512682618,0.09720203344245934,56.14914060194492,-80.21211738781929,80.21211738781929
2024-09-23 15:25:35.834799,42.01,31.382173,-0.0023380189632786156,-0.022833026512682618,0.09725178296655933,48.12595698684454,-88.23529758782387,80.21211738781929
2024-09-23 15:25:35.876966,42.01,31.382173,-0.0023380189632786156,-0.023181236725942318,0.09600815423038027,-60.15744537978172,-88.23529758782387,80.21211738781929
2024-09-23 15:25:35.888216,42.01,31.382223,-0.0023380189632786156,-0.023181236725942318,0.09600815423038027,-60.15744537978172,-100.26678939585686,96.25519929585457
2024-09-23 15:25:35.931324,42.01,31.382223,-0.002586742470023829,-0.02303200030545576,0.09759999317981902,12.031489246711136,-88.23529758782387,92.24360919585227
2024-09-23 15:25:35.974156,42.01,31.382311,-0.0048252743470437905,-0.02308174982955575,0.09759999317981902,12.031489246711136,-88.23529758782387,92.24360919585227
2024-09-23 15:25:35.985908,42.01,31.382311,-0.0048252743470437905,-0.02308174982955575,0.09675432418099966,8.019899146708847,-96.25519929585457,92.24360919585227
2024-09-23 15:25:36.027802,42.01,31.382362,-0.0020892956464054874,-0.023181236725942318,0.09665483728461309,8.019899146708847,-96.25519929585457,84.22370748782159
2024-09-23 15:25:36.070490,42.01,31.382362,-0.0020892956464054874,-0.023181236725942318,0.09665483728461309,8.019899146708847,-112.29828120388984,64.16903547978401
2024-09-23 15:25:36.081921,42.01,31.382413,-0.0029847020175114316,-0.023429960042815445,0.09640611396773996,8.019899146708847,-112.29828120388984,64.16903547978401
2024-09-23 15:25:36.124770,42.01,31.382464,-0.003233425524256645,-0.023429960042815445,0.09640611396773996,12.031489246711136,-108.28669110388756,68.18063240997792
2024-09-23 15:25:36.137561,42.01,31.382464,-0.003233425524256645,-0.02313149783467906,0.09640611396773996,12.031489246711136,-108.28669110388756,68.18063240997792
2024-09-23 15:25:36.170706,42.01,31.382464,-0.003233425524256645,-0.02313149783467906,0.09779897304849887,36.09446859390736,-92.24360919585227,68.18063240997792
2024-09-23 15:25:36.181945,42.01,31.382514,-0.0028354659767690416,-0.02313149783467906,0.09779897304849887,36.09446859390736,-92.24360919585227,80.21211738781929
2024-09-23 15:25:36.224888,42.01,31.382514,-0.0028354659767690416,-0.023579196463302005,0.09710254654607277,28.07457030097246,-96.25519929585457,80.21211738781929
2024-09-23 15:25:36.267158,42.01,31.382603,-0.0028354659767690416,-0.023579196463302005,0.09710254654607277,28.07457030097246,-96.25519929585457,76.200527287817
2024-09-23 15:25:36.278977,42.01,31.382603,-0.003233425524256645,-0.023230986250042305,0.09750050628343246,36.09446859390736,-96.25519929585457,76.200527287817
2024-09-23 15:25:36.321650,42.01,31.382654,-0.0033329230534799477,-0.023330473146428877,0.09695331012558621,36.09446859390736,-100.26678939585686,76.200527287817
2024-09-23 15:25:36.364126,42.01,31.382654,-0.0033329230534799477,-0.023330473146428877,0.09695331012558621,40.106058693909645,-96.25519929585457,76.200527287817
2024-09-23 15:25:36.375129,42.01,31.382705,-0.0031836870127375577,-0.023728432883788564,0.09695331012558621,40.106058693909645,-96.25519929585457,76.200527287817
2024-09-23 15:25:36.417689,42.01,31.382756,-0.0035816467500972456,-0.023728432883788564,0.09740101331113918,40.106058693909645,-92.24360919585227,76.200527287817
2024-09-23 15:25:36.460462,42.01,31.382756,-0.0035816467500972456,-0.023778180888911878,0.09680407370509965,40.106058693909645,-92.24360919585227,76.200527287817
2024-09-23 15:25:36.472584,42.01,31.382806,-0.0035816467500972456,-0.023778180888911878,0.09680407370509965,40.106058693909645,-96.25519929585457,76.200527287817
2024-09-23 15:25:36.516212,42.01,31.382806,-0.0029847020175114316,-0.023479709566915436,0.09680407370509965,40.106058693909645,-88.23529758782387,80.21211738781929
2024-09-23 15:25:36.558186,42.01,31.382896,-0.003382661564999035,-0.023479709566915436,0.09680407370509965,40.106058693909645,-88.23529758782387,80.21211738781929
2024-09-23 15:25:36.569225,42.01,31.382896,-0.003382661564999035,-0.023230986250042305,0.09725178296655933,32.08287849390507,-96.25519929585457,80.21211738781929
2024-09-23 15:25:36.612252,42.01,31.382947,-0.0033329230534799477,-0.023330473146428877,0.09794820946898543,32.08287849390507,-96.25519929585457,80.21211738781929
2024-09-23 15:25:36.624008,42.01,31.382947,-0.0033329230534799477,-0.023330473146428877,0.09794820946898543,32.08287849390507,-96.25519929585457,80.21211738781929
2024-09-23 15:25:36.655847,42.01,31.382947,-0.0033329230534799477,-0.023330473146428877,0.09794820946898543,32.08287849390507,-100.26678939585686,80.21211738781929
2024-09-23 15:25:36.667736,42.01,31.382998,-0.0031836870127375577,-0.02362894446842532,0.0970030596496862,32.08287849390507,-100.26678939585686,80.21211738781929
2024-09-23 15:25:36.710537,42.01,31.383049,-0.0033329230534799477,-0.02233556924609963,0.0970030596496862,36.09446859390736,-96.25519929585457,80.21211738781929
2024-09-23 15:25:36.753375,41.83,31.383049,-0.0033329230534799477,-0.02233556924609963,0.09705279702197278,-128.34136311192512,-96.25519929585457,80.21211738781929
2024-09-23 15:25:36.765265,41.83,31.383099,-0.0035318979854855937,-0.02233556924609963,0.09705279702197278,-128.34136311192512,-140.37285491995812,76.200527287817
2024-09-23 15:25:36.807638,41.83,31.383188,-0.0035318979854855937,-0.02338022115155219,0.09794820946898543,152.40433306760787,-44.11764879391193,104.27510100388527
2024-09-23 15:25:36.850295,41.83,31.383188,-0.0028852147413806935,-0.02313149783467906,0.09794820946898543,152.40433306760787,-44.11764879391193,104.27510100388527
2024-09-23 15:25:36.861889,41.83,31.383188,-0.0028852147413806935,-0.02313149783467906,0.09779897304849887,96.25519929585457,-72.1922225099802,92.24360919585227
2024-09-23 15:25:36.904988,41.83,31.383239,-0.0029349636958644295,-0.02313149783467906,0.09779897304849887,96.25519929585457,-72.1922225099802,92.24360919585227
2024-09-23 15:25:36.948347,41.83,31.383239,-0.0029349636958644295,-0.022833026512682618,0.09690356060148622,96.25519929585457,-72.1922225099802,92.24360919585227
2024-09-23 15:25:36.959416,41.83,31.38329,-0.0029349636958644295,-0.022833026512682618,0.09690356060148622,56.14914060194492,-88.23529758782387,84.22370748782159
2024-09-23 15:25:37.002040,41.83,31.38329,-0.0029349636958644295,-0.0228827638849692,0.0973015264147526,44.11764879391193,-92.24360919585227,84.22370748782159
2024-09-23 15:25:37.014053,41.83,31.38329,-0.0029349636958644295,-0.0228827638849692,0.0973015264147526,44.11764879391193,-92.24360919585227,76.200527287817
2024-09-23 15:25:37.046955,41.83,31.383341,-0.0030344509719951677,-0.02308174982955575,0.0973015264147526,44.11764879391193,-92.24360919585227,76.200527287817
2024-09-23 15:25:37.058507,41.83,31.383341,-0.0030344509719951677,-0.02308174982955575,0.09750050628343246,52.137550501942634,-100.26678939585686,76.200527287817
2024-09-23 15:25:37.101155,41.83,31.383391,-0.0027359787006383035,-0.023479709566915436,0.09675432418099966,32.08287849390507,-100.26678939585686,80.21211738781929
2024-09-23 15:25:37.144618,41.83,31.383442,-0.0027359787006383035,-0.023479709566915436,0.09675432418099966,32.08287849390507,-96.25519929585457,88.23529758782387
2024-09-23 15:25:37.155963,41.83,31.383442,-0.0033329230534799477,-0.023479709566915436,0.0966050877605131,32.08287849390507,-96.25519929585457,88.23529758782387
2024-09-23 15:25:37.199047,41.83,31.383531,-0.0032831742888682963,-0.023330473146428877,0.0966050877605131,24.06297849342227,-108.28669110388756,68.18063240997792
2024-09-23 15:25:37.241403,41.83,31.383531,-0.0032831742888682963,-0.023330473146428877,0.09779897304849887,40.106058693909645,-92.24360919585227,68.18063240997792
2024-09-23 15:25:37.253281,41.83,31.383531,-0.0032831742888682963,-0.023330473146428877,0.09779897304849887,40.106058693909645,-92.24360919585227,80.21211738781929
2024-09-23 15:25:37.295817,41.83,31.383582,-0.0034324103296106863,-0.023230986250042305,0.09695331012558621,32.08287849390507,-96.25519929585457,80.21211738781929
2024-09-23 15:25:37.338144,41.83,31.383675,-0.0034324103296106863,-0.023230986250042305,0.09695331012558621,32.08287849390507,-96.25519929585457,76.200527287817
2024-09-23 15:25:37.349429,41.83,31.383675,-0.0036811340262279837,-0.02367869399252531,0.09685382322919964,32.08287849390507,-96.25519929585457,76.200527287817
2024-09-23 15:25:37.391950,41.83,31.383727,-0.003482159473966507,-0.02303200030545576,0.09685382322919964,32.08287849390507,-100.26678939585686,80.21211738781929
2024-09-23 15:25:37.403793,41.83,31.383727,-0.003482159473966507,-0.02303200030545576,0.09720203344245934,32.08287849390507,-100.26678939585686,80.21211738781929
2024-09-23 15:25:37.435988,41.83,31.383727,-0.003482159473966507,-0.02303200030545576,0.09720203344245934,48.12595698684454,-92.24360919585227,80.21211738781929
2024-09-23 15:25:37.447618,41.83,31.383778,-0.0027359787006383035,-0.023330473146428877,0.09720203344245934,48.12595698684454,-92.24360919585227,76.200527287817
2024-09-23 15:25:37.490087,41.83,31.383828,-0.0025369937054121774,-0.023330473146428877,0.09715228999426605,36.09446859390736,-92.24360919585227,76.200527287817
2024-09-23 15:25:37.533037,41.83,31.383828,-0.0025369937054121774,-0.02313149783467906,0.09685382322919964,36.09446859390736,-92.24360919585227,76.200527287817
2024-09-23 15:25:37.544212,41.83,31.383919,-0.0025369937054121774,-0.02313149783467906,0.09685382322919964,48.12595698684454,-96.25519929585457,80.21211738781929
2024-09-23 15:25:37.587043,41.83,31.383919,-0.0031339382481259063,-0.023479709566915436,0.09670458680871308,36.09446859390736,-92.24360919585227,80.21211738781929
2024-09-23 15:25:37.598895,41.83,31.383919,-0.0031339382481259063,-0.023479709566915436,0.09670458680871308,36.09446859390736,-92.24360919585227,80.21211738781929
2024-09-23 15:25:37.632620,41.83,31.383971,-0.0027359787006383035,-0.023479709566915436,0.09670458680871308,36.09446859390736,-92.24360919585227,80.21211738781929
2024-09-23 15:25:37.644213,41.83,31.383971,-0.0027359787006383035,-0.023479709566915436,0.09695331012558621,36.09446859390736,-100.26678939585686,80.21211738781929
2024-09-23 15:25:37.687528,41.83,31.384021,-0.0028852147413806935,-0.02268379009219606,0.09750050628343246,32.08287849390507,-100.26678939585686,76.200527287817
2024-09-23 15:25:37.730037,41.83,31.384021,-0.0028852147413806935,-0.02268379009219606,0.09750050628343246,32.08287849390507,-104.27510100388527,84.22370748782159
2024-09-23 15:25:37.742889,41.83,31.384072,-0.0033329230534799477,-0.022833026512682618,0.0970030596496862,32.08287849390507,-104.27510100388527,84.22370748782159
2024-09-23 15:25:37.774792,41.74,31.384072,-0.0033329230534799477,-0.022833026512682618,0.0970030596496862,48.12595698684454,-104.27510100388527,84.22370748782159
2024-09-23 15:25:37.786206,41.74,31.384123,-0.0033329230534799477,-0.022833026512682618,0.0970030596496862,48.12595698684454,-96.25519929585457,80.21211738781929
2024-09-23 15:25:37.829714,41.74,31.384123,-0.0035318979854855937,-0.02352945757203875,0.09695331012558621,40.106058693909645,-96.25519929585457,80.21211738781929
2024-09-23 15:25:37.840947,41.74,31.384123,-0.0035318979854855937,-0.02352945757203875,0.09695331012558621,40.106058693909645,-96.25519929585457,72.1922225099802
2024-09-23 15:25:37.874107,41.74,31.384173,-0.0035318979854855937,-0.02352945757203875,0.09695331012558621,40.106058693909645,-96.25519929585457,72.1922225099802
2024-09-23 15:25:37.885417,41.74,31.384173,-0.0030841997366068195,-0.02303200030545576,0.0973015264147526,32.08287849390507,-100.26678939585686,72.1922225099802
2024-09-23 15:25:37.927301,41.74,31.38426,-0.003233425524256645,-0.023181236725942318,0.09670458680871308,32.08287849390507,-100.26678939585686,84.22370748782159
2024-09-23 15:25:37.938989,41.74,31.38426,-0.003233425524256645,-0.023181236725942318,0.09670458680871308,36.09446859390736,-100.26678939585686,84.22370748782159
2024-09-23 15:25:37.972010,41.74,31.38426,-0.003233425524256645,-0.023181236725942318,0.09670458680871308,36.09446859390736,-100.26678939585686,76.200527287817
2024-09-23 15:25:37.983277,41.74,31.384312,-0.0031339382481259063,-0.02303200030545576,0.09695331012558621,36.09446859390736,-100.26678939585686,76.200527287817
2024-09-23 15:25:38.025698,41.74,31.384363,-0.0030344509719951677,-0.02303200030545576,0.09695331012558621,36.09446859390736,-96.25519929585457,80.21211738781929
2024-09-23 15:25:38.037569,41.74,31.384363,-0.0030344509719951677,-0.02352945757203875,0.09695331012558621,36.09446859390736,-96.25519929585457,80.21211738781929
2024-09-23 15:25:38.069392,41.74,31.384363,-0.0030344509719951677,-0.02352945757203875,0.09725178296655933,40.106058693909645,-96.25519929585457,80.21211738781929
2024-09-23 15:25:38.081347,41.74,31.384413,-0.0034324103296106863,-0.02352945757203875,0.09725178296655933,40.106058693909645,-96.25519929585457,76.200527287817
2024-09-23 15:25:38.166355,41.74,31.384413,-0.0034324103296106863,-0.023330473146428877,0.09670458680871308,40.106058693909645,-96.25519929585457,76.200527287817
2024-09-23 15:25:38.177919,41.74,31.384504,-0.0034324103296106863,-0.023330473146428877,0.09670458680871308,36.09446859390736,-96.25519929585457,80.21211738781929
2024-09-23 15:25:38.220533,41.74,31.384504,-0.0036811340262279837,-0.023181236725942318,0.09799795899308542,40.106058693909645,-100.26678939585686,80.21211738781929
2024-09-23 15:25:38.232814,41.74,31.384504,-0.0036811340262279837,-0.023181236725942318,0.09799795899308542,40.106058693909645,-100.26678939585686,80.21211738781929
2024-09-23 15:25:38.265874,41.74,31.384556,-0.002785727465249955,-0.023280723622328886,0.09799795899308542,40.106058693909645,-100.26678939585686,80.21211738781929
2024-09-23 15:25:38.277371,41.74,31.384556,-0.002785727465249955,-0.023280723622328886,0.0973512698629459,40.106058693909645,-96.25519929585457,80.21211738781929
2024-09-23 15:25:38.319361,41.74,31.384606,-0.0030841997366068195,-0.023728432883788564,0.09650560086412653,28.07457030097246,-96.25519929585457,84.22370748782159
2024-09-23 15:25:38.361265,41.74,31.384606,-0.0030841997366068195,-0.023728432883788564,0.09650560086412653,28.07457030097246,-100.26678939585686,88.23529758782387
2024-09-23 15:25:38.372806,41.74,31.384657,-0.0035816467500972456,-0.022982261414192504,0.09809744588947199,28.07457030097246,-100.26678939585686,88.23529758782387
2024-09-23 15:25:38.415485,41.74,31.38475,-0.002387757474797703,-0.02338022115155219,0.09809744588947199,32.08287849390507,-112.29828120388984,64.16903547978401
2024-09-23 15:25:38.458618,41.74,31.38475,-0.002387757474797703,-0.02338022115155219,0.09630662707135339,56.14914060194492,-112.29828120388984,64.16903547978401
2024-09-23 15:25:38.470194,41.74,31.384801,-0.003382661564999035,-0.02338022115155219,0.09630662707135339,56.14914060194492,-80.21211738781929,92.24360919585227
2024-09-23 15:25:38.513393,41.74,31.384801,-0.003382661564999035,-0.0228827638849692,0.09715228999426605,48.12595698684454,-92.24360919585227,88.23529758782387
2024-09-23 15:25:38.525586,41.74,31.384894,-0.003382661564999035,-0.0228827638849692,0.09715228999426605,48.12595698684454,-92.24360919585227,88.23529758782387
2024-09-23 15:25:38.558371,41.74,31.384894,-0.0031836870127375577,-0.02338022115155219,0.0970030596496862,48.12595698684454,-92.24360919585227,88.23529758782387
2024-09-23 15:25:38.569793,41.74,31.384894,-0.0031836870127375577,-0.02338022115155219,0.0970030596496862,60.15744537978172,-84.22370748782159,84.22370748782159
2024-09-23 15:25:38.612093,41.74,31.384946,-0.0031836870127375577,-0.02293251340906919,0.09675432418099966,36.09446859390736,-100.26678939585686,84.22370748782159
2024-09-23 15:25:38.656333,41.74,31.384996,-0.0032831742888682963,-0.02293251340906919,0.09675432418099966,36.09446859390736,-100.26678939585686,76.200527287817
2024-09-23 15:25:38.667990,41.74,31.384996,-0.0032831742888682963,-0.023230986250042305,0.09695331012558621,48.12595698684454,-100.26678939585686,76.200527287817
2024-09-23 15:25:38.710979,41.74,31.385047,-0.0029847020175114316,-0.023429960042815445,0.0973015264147526,48.12595698684454,-92.24360919585227,80.21211738781929
2024-09-23 15:25:38.753605,41.74,31.385047,-0.0029847020175114316,-0.023429960042815445,0.0973015264147526,44.11764879391193,-96.25519929585457,80.21211738781929
2024-09-23 15:25:38.765672,41.74,31.385098,-0.0029847020175114316,-0.023429960042815445,0.0973015264147526,44.11764879391193,-96.25519929585457,80.21211738781929
2024-09-23 15:25:38.808635,41.31,31.385098,-0.0030344509719951677,-0.023280723622328886,0.09759999317981902,48.12595698684454,-92.24360919585227,80.21211738781929
2024-09-23 15:25:38.850858,41.31,31.385148,-0.0033329230534799477,-0.023330473146428877,0.09759999317981902,48.12595698684454,-92.24360919585227,80.21211738781929
2024-09-23 15:25:38.862713,41.31,31.385148,-0.0033329230534799477,-0.023330473146428877,0.09755024973162574,44.11764879391193,-96.25519929585457,80.21211738781929
2024-09-23 15:25:38.906159,41.31,31.385235,-0.0033329230534799477,-0.023230986250042305,0.0973015264147526,40.106058693909645,-96.25519929585457,76.200527287817
