Ayaan's Suite
Timestamp,Sample Rate (Hz),Time,Ax,Ay,Az,Gx,Gy,Gz
2024-09-23 11:57:14.597295,0,18.880659,-0.0031339382481259063,-0.02313149783467906,0.09680407370509965,32.08287849390507,-96.25519929585457,84.22370748782159
2024-09-23 11:57:14.640260,0,18.880747,-0.0031339382481259063,-0.02362894446842532,0.0970030596496862,40.106058693909645,-104.27510100388527,72.1922225099802
2024-09-23 11:57:14.682624,0,18.880747,-0.0029349636958644295,-0.023429960042815445,0.09680407370509965,40.106058693909645,-104.27510100388527,72.1922225099802
2024-09-23 11:57:14.693864,0,18.880747,-0.0029349636958644295,-0.023429960042815445,0.09680407370509965,32.08287849390507,-96.25519929585457,80.21211738781929
2024-09-23 11:57:14.736041,0,18.8808,-0.003780631555451287,-0.023181236725942318,0.09690356060148622,24.06297849342227,-96.25519929585457,80.21211738781929
2024-09-23 11:57:14.748340,0,18.8808,-0.003780631555451287,-0.023181236725942318,0.09690356060148622,24.06297849342227,-92.24360919585227,80.21211738781929
2024-09-23 11:57:14.781140,0,18.88085,-0.003482159473966507,-0.023181236725942318,0.09690356060148622,24.06297849342227,-92.24360919585227,84.22370748782159
2024-09-23 11:57:14.792666,0,18.88085,-0.003482159473966507,-0.023579196463302005,0.0966050877605131,40.106058693909645,-92.24360919585227,84.22370748782159
2024-09-23 11:57:14.836025,0,18.880901,-0.0031339382481259063,-0.023728432883788564,0.09715228999426605,40.106058693909645,-100.26678939585686,80.21211738781929
2024-09-23 11:57:14.877910,0,18.880901,-0.0031339382481259063,-0.023728432883788564,0.09715228999426605,36.09446859390736,-96.25519929585457,76.200527287817
2024-09-23 11:57:14.890154,0,18.880951,-0.0037308827908396356,-0.02362894446842532,0.09715228999426605,36.09446859390736,-96.25519929585457,76.200527287817
2024-09-23 11:57:14.932650,0,18.881002,-0.0035318979854855937,-0.02362894446842532,0.09725178296655933,40.106058693909645,-96.25519929585457,72.1922225099802
2024-09-23 11:57:14.974513,0,18.881002,-0.0035318979854855937,-0.023230986250042305,0.0966050877605131,40.106058693909645,-96.25519929585457,72.1922225099802
2024-09-23 11:57:14.985802,0,18.881089,-0.0035318979854855937,-0.023230986250042305,0.0966050877605131,32.08287849390507,-100.26678939585686,80.21211738781929
2024-09-23 11:57:15.028999,0,18.881089,-0.0032831742888682963,-0.02362894446842532,0.0973015264147526,28.07457030097246,-100.26678939585686,80.21211738781929
2024-09-23 11:57:15.040723,0,18.881089,-0.0032831742888682963,-0.02362894446842532,0.0973015264147526,28.07457030097246,-100.26678939585686,84.22370748782159
2024-09-23 11:57:15.072974,0,18.88114,-0.0035816467500972456,-0.02352945757203875,0.0973015264147526,28.07457030097246,-100.26678939585686,84.22370748782159
2024-09-23 11:57:15.084128,0,18.88114,-0.0035816467500972456,-0.02352945757203875,0.0973015264147526,32.08287849390507,-104.27510100388527,84.22370748782159
2024-09-23 11:57:15.126580,0,18.881191,-0.0034324103296106863,-0.023330473146428877,0.0970030596496862,36.09446859390736,-104.27510100388527,80.21211738781929
2024-09-23 11:57:15.169218,0,18.881191,-0.0034324103296106863,-0.023330473146428877,0.0970030596496862,36.09446859390736,-96.25519929585457,72.1922225099802
2024-09-23 11:57:15.180590,0,18.881241,-0.0027359787006383035,-0.02308174982955575,0.09690356060148622,36.09446859390736,-96.25519929585457,72.1922225099802
2024-09-23 11:57:15.222573,0,18.881292,-0.0037308827908396356,-0.02308174982955575,0.09690356060148622,36.09446859390736,-96.25519929585457,76.200527287817
2024-09-23 11:57:15.234345,0,18.881292,-0.0037308827908396356,-0.023728432883788564,0.09690356060148622,36.09446859390736,-96.25519929585457,76.200527287817
2024-09-23 11:57:15.267450,0,18.881292,-0.0037308827908396356,-0.023728432883788564,0.09695331012558621,36.09446859390736,-96.25519929585457,76.200527287817
2024-09-23 11:57:15.278827,0,18.881343,-0.003482159473966507,-0.023728432883788564,0.09695331012558621,36.09446859390736,-96.25519929585457,80.21211738781929
2024-09-23 11:57:15.322160,0,18.881343,-0.003482159473966507,-0.02313149783467906,0.0976994861521123,32.08287849390507,-92.24360919585227,76.200527287817
2024-09-23 11:57:15.333811,0,18.88143,-0.003482159473966507,-0.02313149783467906,0.0976994861521123,32.08287849390507,-92.24360919585227,76.200527287817
2024-09-23 11:57:15.365976,0,18.88143,-0.0029847020175114316,-0.023827930413011865,0.09759999317981902,32.08287849390507,-92.24360919585227,76.200527287817
2024-09-23 11:57:15.377698,0,18.88143,-0.0029847020175114316,-0.023827930413011865,0.09759999317981902,48.12595698684454,-100.26678939585686,76.200527287817
2024-09-23 11:57:15.421274,0,18.881481,-0.003482159473966507,-0.023728432883788564,0.09720203344245934,48.12595698684454,-96.25519929585457,76.200527287817
2024-09-23 11:57:15.464692,0,18.881532,-0.0031339382481259063,-0.023579196463302005,0.09720203344245934,48.12595698684454,-96.25519929585457,80.21211738781929
2024-09-23 11:57:15.476074,0,18.881532,-0.0031339382481259063,-0.023579196463302005,0.09685382322919964,40.106058693909645,-96.25519929585457,80.21211738781929
2024-09-23 11:57:15.510761,0,18.881532,-0.0031339382481259063,-0.023579196463302005,0.09685382322919964,40.106058693909645,-100.26678939585686,80.21211738781929
2024-09-23 11:57:15.522415,0,18.881583,-0.0028852147413806935,-0.022982261414192504,0.0973015264147526,40.106058693909645,-100.26678939585686,80.21211738781929
2024-09-23 11:57:15.565115,0,18.881633,-0.0034324103296106863,-0.02352945757203875,0.0973015264147526,40.106058693909645,-100.26678939585686,84.22370748782159
2024-09-23 11:57:15.607718,43.08,18.881633,-0.0034324103296106863,-0.02352945757203875,0.09705279702197278,36.09446859390736,-100.26678939585686,84.22370748782159
2024-09-23 11:57:15.619487,43.08,18.881684,-0.003382661564999035,-0.02352945757203875,0.09705279702197278,36.09446859390736,-96.25519929585457,80.21211738781929
2024-09-23 11:57:15.662837,43.08,18.881771,-0.003382661564999035,-0.023330473146428877,0.0966050877605131,40.106058693909645,-100.26678939585686,84.22370748782159
2024-09-23 11:57:15.705466,43.08,18.881771,-0.003382661564999035,-0.02303200030545576,0.0966050877605131,40.106058693909645,-100.26678939585686,84.22370748782159
2024-09-23 11:57:15.717109,43.08,18.881771,-0.003382661564999035,-0.02303200030545576,0.0973015264147526,40.106058693909645,-100.26678939585686,76.200527287817
2024-09-23 11:57:15.759942,43.08,18.881823,-0.003382661564999035,-0.02303200030545576,0.0973015264147526,40.106058693909645,-100.26678939585686,76.200527287817
2024-09-23 11:57:15.802051,43.08,18.881823,-0.0033329230534799477,-0.02303200030545576,0.0973015264147526,40.106058693909645,-100.26678939585686,76.200527287817
2024-09-23 11:57:15.813796,43.08,18.881823,-0.0033329230534799477,-0.023429960042815445,0.09705279702197278,28.07457030097246,-100.26678939585686,80.21211738781929
2024-09-23 11:57:15.857124,43.08,18.881873,-0.0031339382481259063,-0.023280723622328886,0.0973015264147526,36.09446859390736,-100.26678939585686,80.21211738781929
2024-09-23 11:57:15.869419,43.08,18.881873,-0.0031339382481259063,-0.023280723622328886,0.0973015264147526,36.09446859390736,-100.26678939585686,80.21211738781929
2024-09-23 11:57:15.903380,43.08,18.881924,-0.0033329230534799477,-0.023280723622328886,0.0973015264147526,36.09446859390736,-100.26678939585686,84.22370748782159
2024-09-23 11:57:15.915692,43.08,18.881924,-0.0033329230534799477,-0.023230986250042305,0.09705279702197278,44.11764879391193,-100.26678939585686,84.22370748782159
2024-09-23 11:57:15.947576,43.08,18.881924,-0.0033329230534799477,-0.023230986250042305,0.09705279702197278,44.11764879391193,-100.26678939585686,84.22370748782159
2024-09-23 11:57:15.958701,43.08,18.881975,-0.0029349636958644295,-0.023429960042815445,0.0970030596496862,44.11764879391193,-100.26678939585686,80.21211738781929
2024-09-23 11:57:16.002302,43.08,18.882025,-0.0034324103296106863,-0.023429960042815445,0.0970030596496862,44.11764879391193,-100.26678939585686,80.21211738781929
2024-09-23 11:57:16.015006,43.08,18.882025,-0.0034324103296106863,-0.022982261414192504,0.0970030596496862,44.11764879391193,-100.26678939585686,80.21211738781929
2024-09-23 11:57:16.047530,43.08,18.882025,-0.0034324103296106863,-0.022982261414192504,0.0970030596496862,44.11764879391193,-104.27510100388527,80.21211738781929
2024-09-23 11:57:16.058800,43.08,18.882115,-0.0033329230534799477,-0.022982261414192504,0.0970030596496862,44.11764879391193,-104.27510100388527,72.1922225099802
2024-09-23 11:57:16.102626,43.08,18.882115,-0.0033329230534799477,-0.023429960042815445,0.09725178296655933,36.09446859390736,-96.25519929585457,84.22370748782159
2024-09-23 11:57:16.115116,43.08,18.88221,-0.0033329230534799477,-0.023429960042815445,0.09725178296655933,36.09446859390736,-96.25519929585457,84.22370748782159
2024-09-23 11:57:16.147487,43.08,18.88221,-0.0037308827908396356,-0.024076653729884996,0.09759999317981902,44.11764879391193,-96.25519929585457,84.22370748782159
2024-09-23 11:57:16.159351,43.08,18.88221,-0.0037308827908396356,-0.024076653729884996,0.09759999317981902,44.11764879391193,-92.24360919585227,76.200527287817
2024-09-23 11:57:16.192431,43.08,18.882261,-0.0035318979854855937,-0.024076653729884996,0.09759999317981902,44.11764879391193,-92.24360919585227,76.200527287817
2024-09-23 11:57:16.203836,43.08,18.882261,-0.0035318979854855937,-0.023927417309398437,0.09784872257259886,44.11764879391193,-92.24360919585227,76.200527287817
2024-09-23 11:57:16.246095,43.08,18.882312,-0.0032831742888682963,-0.023927417309398437,0.09784872257259886,40.106058693909645,-100.26678939585686,80.21211738781929
2024-09-23 11:57:16.257762,43.08,18.882312,-0.0032831742888682963,-0.023827930413011865,0.09784872257259886,40.106058693909645,-100.26678939585686,80.21211738781929
2024-09-23 11:57:16.289771,43.08,18.882312,-0.0032831742888682963,-0.023827930413011865,0.09675432418099966,40.106058693909645,-100.26678939585686,80.21211738781929
2024-09-23 11:57:16.301792,43.08,18.882363,-0.0038303700669703737,-0.023827930413011865,0.09675432418099966,40.106058693909645,-96.25519929585457,80.21211738781929
2024-09-23 11:57:16.344590,43.08,18.882363,-0.0038303700669703737,-0.02308174982955575,0.0973015264147526,40.106058693909645,-88.23529758782387,88.23529758782387
2024-09-23 11:57:16.356645,43.08,18.882413,-0.0038303700669703737,-0.02308174982955575,0.0973015264147526,40.106058693909645,-88.23529758782387,88.23529758782387
2024-09-23 11:57:16.388437,43.08,18.882413,-0.0035318979854855937,-0.023479709566915436,0.0973015264147526,40.106058693909645,-88.23529758782387,88.23529758782387
2024-09-23 11:57:16.400052,43.08,18.882413,-0.0035318979854855937,-0.023479709566915436,0.09675432418099966,40.106058693909645,-100.26678939585686,76.200527287817
2024-09-23 11:57:16.442886,43.08,18.882464,-0.0029847020175114316,-0.023181236725942318,0.09774922960030558,36.09446859390736,-100.26678939585686,76.200527287817
2024-09-23 11:57:16.485062,43.08,18.882552,-0.0029847020175114316,-0.023181236725942318,0.09774922960030558,36.09446859390736,-100.26678939585686,76.200527287817
2024-09-23 11:57:16.496504,43.08,18.882552,-0.0036811340262279837,-0.023230986250042305,0.09640611396773996,40.106058693909645,-100.26678939585686,76.200527287817
2024-09-23 11:57:16.539573,43.08,18.882603,-0.002437506429281439,-0.023230986250042305,0.09640611396773996,40.106058693909645,-88.23529758782387,80.21211738781929
2024-09-23 11:57:16.551595,43.08,18.882603,-0.002437506429281439,-0.023230986250042305,0.09720203344245934,40.106058693909645,-88.23529758782387,80.21211738781929
2024-09-23 11:57:16.584776,43.08,18.882603,-0.002437506429281439,-0.023230986250042305,0.09720203344245934,40.106058693909645,-104.27510100388527,80.21211738781929
2024-09-23 11:57:16.595828,43.08,18.882654,-0.003631395514708897,-0.023429960042815445,0.09720203344245934,40.106058693909645,-104.27510100388527,80.21211738781929
2024-09-23 11:57:16.638467,44.83,18.882705,-0.0035318979854855937,-0.023429960042815445,0.09675432418099966,36.09446859390736,-104.27510100388527,80.21211738781929
2024-09-23 11:57:16.682055,44.83,18.882705,-0.0035318979854855937,-0.023579196463302005,0.09745075675933246,36.09446859390736,-104.27510100388527,80.21211738781929
2024-09-23 11:57:16.694963,44.83,18.882795,-0.0035318979854855937,-0.023579196463302005,0.09745075675933246,36.09446859390736,-100.26678939585686,76.200527287817
2024-09-23 11:57:16.726807,44.83,18.882795,-0.0038303700669703737,-0.023579196463302005,0.09745075675933246,36.09446859390736,-100.26678939585686,76.200527287817
2024-09-23 11:57:16.738511,44.83,18.882795,-0.0038303700669703737,-0.023429960042815445,0.09745075675933246,36.09446859390736,-96.25519929585457,76.200527287817
2024-09-23 11:57:16.780957,44.83,18.882846,-0.003482159473966507,-0.023280723622328886,0.09745075675933246,36.09446859390736,-96.25519929585457,76.200527287817
2024-09-23 11:57:16.792346,44.83,18.882846,-0.003482159473966507,-0.023280723622328886,0.09725178296655933,28.07457030097246,-96.25519929585457,76.200527287817
2024-09-23 11:57:16.875745,44.83,18.882897,-0.003482159473966507,-0.023280723622328886,0.09725178296655933,28.07457030097246,-96.25519929585457,84.22370748782159
2024-09-23 11:57:16.887915,44.83,18.882897,-0.0032831742888682963,-0.023181236725942318,0.0970030596496862,36.09446859390736,-96.25519929585457,84.22370748782159
2024-09-23 11:57:16.931382,44.83,18.882948,-0.0032831742888682963,-0.023181236725942318,0.0970030596496862,36.09446859390736,-104.27510100388527,80.21211738781929
2024-09-23 11:57:16.973475,44.83,18.882948,-0.0030841997366068195,-0.02313149783467906,0.0970030596496862,36.09446859390736,-104.27510100388527,80.21211738781929
2024-09-23 11:57:16.985325,44.83,18.882948,-0.0030841997366068195,-0.02313149783467906,0.09725178296655933,36.09446859390736,-100.26678939585686,80.21211738781929
2024-09-23 11:57:17.029767,44.83,18.882998,-0.0032831742888682963,-0.02303200030545576,0.09690356060148622,36.09446859390736,-96.25519929585457,80.21211738781929
2024-09-23 11:57:17.072246,44.83,18.883049,-0.0035816467500972456,-0.02303200030545576,0.09690356060148622,36.09446859390736,-96.25519929585457,80.21211738781929
2024-09-23 11:57:17.083981,44.83,18.883049,-0.0035816467500972456,-0.023280723622328886,0.09690356060148622,36.09446859390736,-96.25519929585457,80.21211738781929
2024-09-23 11:57:17.126398,44.83,18.883185,-0.0030841997366068195,-0.023479709566915436,0.0966050877605131,36.09446859390736,-88.23529758782387,80.21211738781929
2024-09-23 11:57:17.169732,44.83,18.883185,-0.0030841997366068195,-0.023479709566915436,0.0966050877605131,32.08287849390507,-100.26678939585686,76.200527287817
2024-09-23 11:57:17.181283,44.83,18.883236,-0.0033329230534799477,-0.02367869399252531,0.0966050877605131,32.08287849390507,-100.26678939585686,76.200527287817
2024-09-23 11:57:17.224051,44.83,18.883287,-0.0036811340262279837,-0.02367869399252531,0.09655535038822652,40.106058693909645,-96.25519929585457,80.21211738781929
2024-09-23 11:57:17.267358,44.83,18.883287,-0.0036811340262279837,-0.0228827638849692,0.09695331012558621,36.09446859390736,-96.25519929585457,80.21211738781929
2024-09-23 11:57:17.278959,44.83,18.88338,-0.0036811340262279837,-0.0228827638849692,0.09695331012558621,36.09446859390736,-100.26678939585686,76.200527287817
2024-09-23 11:57:17.321695,44.83,18.88338,-0.003631395514708897,-0.02303200030545576,0.0970030596496862,24.06297849342227,-92.24360919585227,80.21211738781929
2024-09-23 11:57:17.366328,44.83,18.883431,-0.0035816467500972456,-0.023230986250042305,0.0970030596496862,24.06297849342227,-92.24360919585227,80.21211738781929
2024-09-23 11:57:17.377439,44.83,18.883431,-0.0035816467500972456,-0.023230986250042305,0.09774922960030558,36.09446859390736,-100.26678939585686,80.21211738781929
2024-09-23 11:57:17.410490,44.83,18.883431,-0.0035816467500972456,-0.023230986250042305,0.09774922960030558,36.09446859390736,-100.26678939585686,84.22370748782159
2024-09-23 11:57:17.422074,44.83,18.883482,-0.0030344509719951677,-0.023579196463302005,0.0970030596496862,32.08287849390507,-100.26678939585686,84.22370748782159
2024-09-23 11:57:17.464721,44.83,18.883533,-0.0032831742888682963,-0.02313149783467906,0.0970030596496862,32.08287849390507,-100.26678939585686,84.22370748782159
2024-09-23 11:57:17.476757,44.83,18.883533,-0.0032831742888682963,-0.02313149783467906,0.09759999317981902,32.08287849390507,-100.26678939585686,84.22370748782159
2024-09-23 11:57:17.509215,44.83,18.883533,-0.0032831742888682963,-0.02313149783467906,0.09759999317981902,40.106058693909645,-100.26678939585686,84.22370748782159
2024-09-23 11:57:17.521778,44.83,18.883583,-0.0037308827908396356,-0.022982261414192504,0.09759999317981902,40.106058693909645,-100.26678939585686,84.22370748782159
2024-09-23 11:57:17.565119,44.83,18.883634,-0.0031836870127375577,-0.022982261414192504,0.09685382322919964,36.09446859390736,-100.26678939585686,84.22370748782159
2024-09-23 11:57:17.607932,44.83,18.883634,-0.0031836870127375577,-0.023280723622328886,0.09690356060148622,36.09446859390736,-100.26678939585686,84.22370748782159
2024-09-23 11:57:17.619082,44.83,18.883721,-0.0031836870127375577,-0.023280723622328886,0.09690356060148622,36.09446859390736,-92.24360919585227,80.21211738781929
2024-09-23 11:57:17.662477,43.23,18.883721,-0.0036811340262279837,-0.023479709566915436,0.09725178296655933,32.08287849390507,-96.25519929585457,84.22370748782159
2024-09-23 11:57:17.705465,43.23,18.883773,-0.003233425524256645,-0.023181236725942318,0.09725178296655933,32.08287849390507,-96.25519929585457,84.22370748782159
2024-09-23 11:57:17.716572,43.23,18.883773,-0.003233425524256645,-0.023181236725942318,0.09685382322919964,28.07457030097246,-96.25519929585457,84.22370748782159
2024-09-23 11:57:17.758373,43.23,18.883823,-0.0032831742888682963,-0.023429960042815445,0.09745075675933246,28.07457030097246,-96.25519929585457,84.22370748782159
2024-09-23 11:57:17.770489,43.23,18.883823,-0.0032831742888682963,-0.023429960042815445,0.09745075675933246,36.09446859390736,-96.25519929585457,84.22370748782159
2024-09-23 11:57:17.803191,43.23,18.883874,-0.0032831742888682963,-0.023429960042815445,0.09745075675933246,36.09446859390736,-88.23529758782387,80.21211738781929
2024-09-23 11:57:17.814953,43.23,18.883874,-0.0035318979854855937,-0.023330473146428877,0.0966050877605131,36.09446859390736,-88.23529758782387,80.21211738781929
2024-09-23 11:57:17.857812,43.23,18.883925,-0.004029355252068585,-0.023230986250042305,0.0966050877605131,28.07457030097246,-96.25519929585457,80.21211738781929
2024-09-23 11:57:17.899525,43.23,18.883925,-0.004029355252068585,-0.023230986250042305,0.0970030596496862,32.08287849390507,-96.25519929585457,80.21211738781929
2024-09-23 11:57:17.911656,43.23,18.883975,-0.0033329230534799477,-0.023230986250042305,0.0970030596496862,32.08287849390507,-100.26678939585686,80.21211738781929
2024-09-23 11:57:17.954861,43.23,18.884063,-0.0033329230534799477,-0.023330473146428877,0.09784872257259886,36.09446859390736,-88.23529758782387,88.23529758782387
2024-09-23 11:57:17.998318,43.23,18.884063,-0.0030344509719951677,-0.023330473146428877,0.09710254654607277,36.09446859390736,-88.23529758782387,88.23529758782387
2024-09-23 11:57:18.009994,43.23,18.884063,-0.0030344509719951677,-0.023330473146428877,0.09710254654607277,40.106058693909645,-96.25519929585457,88.23529758782387
2024-09-23 11:57:18.053365,43.23,18.884114,-0.004128842528199323,-0.023579196463302005,0.09720203344245934,32.08287849390507,-96.25519929585457,80.21211738781929
2024-09-23 11:57:18.095389,43.23,18.884165,-0.004128842528199323,-0.023579196463302005,0.09720203344245934,32.08287849390507,-104.27510100388527,80.21211738781929
2024-09-23 11:57:18.107227,43.23,18.884165,-0.0032831742888682963,-0.023181236725942318,0.09685382322919964,32.08287849390507,-104.27510100388527,80.21211738781929
2024-09-23 11:57:18.150347,43.23,18.884216,-0.0035318979854855937,-0.023330473146428877,0.09685382322919964,44.11764879391193,-104.27510100388527,80.21211738781929
2024-09-23 11:57:18.194011,43.23,18.884216,-0.0035318979854855937,-0.023330473146428877,0.09705279702197278,32.08287849390507,-100.26678939585686,80.21211738781929
2024-09-23 11:57:18.205093,43.23,18.884266,-0.0030344509719951677,-0.023330473146428877,0.09705279702197278,32.08287849390507,-100.26678939585686,76.200527287817
2024-09-23 11:57:18.247832,43.23,18.884266,-0.0030344509719951677,-0.02313149783467906,0.09725178296655933,32.08287849390507,-100.26678939585686,76.200527287817
2024-09-23 11:57:18.290968,43.23,18.884266,-0.0030344509719951677,-0.02313149783467906,0.09725178296655933,36.09446859390736,-96.25519929585457,80.21211738781929
2024-09-23 11:57:18.303109,43.23,18.884317,-0.0030841997366068195,-0.023479709566915436,0.09725178296655933,36.09446859390736,-96.25519929585457,80.21211738781929
2024-09-23 11:57:18.346472,43.23,18.884404,-0.0031836870127375577,-0.023479709566915436,0.09720203344245934,40.106058693909645,-100.26678939585686,76.200527287817
2024-09-23 11:57:18.388930,43.23,18.884404,-0.0031836870127375577,-0.023579196463302005,0.09685382322919964,36.09446859390736,-100.26678939585686,76.200527287817
2024-09-23 11:57:18.400339,43.23,18.884455,-0.0031836870127375577,-0.023579196463302005,0.09685382322919964,36.09446859390736,-108.28669110388756,80.21211738781929
2024-09-23 11:57:18.443799,43.23,18.884455,-0.003233425524256645,-0.023479709566915436,0.09750050628343246,40.106058693909645,-108.28669110388756,84.22370748782159
2024-09-23 11:57:18.486500,43.23,18.884506,-0.0036811340262279837,-0.023230986250042305,0.0966050877605131,40.106058693909645,-108.28669110388756,84.22370748782159
2024-09-23 11:57:18.498163,43.23,18.884506,-0.0036811340262279837,-0.023230986250042305,0.0966050877605131,36.09446859390736,-100.26678939585686,84.22370748782159
2024-09-23 11:57:18.540087,43.23,18.8846,-0.0032831742888682963,-0.023330473146428877,0.09745075675933246,36.09446859390736,-100.26678939585686,72.1922225099802
2024-09-23 11:57:18.583519,43.23,18.884651,-0.0032831742888682963,-0.023330473146428877,0.09745075675933246,36.09446859390736,-96.25519929585457,80.21211738781929
2024-09-23 11:57:18.595083,43.23,18.884651,-0.003382661564999035,-0.023579196463302005,0.09720203344245934,36.09446859390736,-96.25519929585457,80.21211738781929
2024-09-23 11:57:18.638679,43.23,18.884701,-0.0030344509719951677,-0.023479709566915436,0.09720203344245934,44.11764879391193,-96.25519929585457,76.200527287817
2024-09-23 11:57:18.680637,42.0,18.884701,-0.0030344509719951677,-0.023479709566915436,0.09710254654607277,36.09446859390736,-104.27510100388527,76.200527287817
2024-09-23 11:57:18.692774,42.0,18.884752,-0.0028354659767690416,-0.023479709566915436,0.09710254654607277,36.09446859390736,-104.27510100388527,80.21211738781929
2024-09-23 11:57:18.735454,42.0,18.884842,-0.0028354659767690416,-0.02303200030545576,0.0973015264147526,36.09446859390736,-96.25519929585457,84.22370748782159
2024-09-23 11:57:18.777895,42.0,18.884842,-0.0033329230534799477,-0.023230986250042305,0.09710254654607277,36.09446859390736,-96.25519929585457,84.22370748782159
2024-09-23 11:57:18.789802,42.0,18.884842,-0.0033329230534799477,-0.023230986250042305,0.09710254654607277,32.08287849390507,-104.27510100388527,80.21211738781929
2024-09-23 11:57:18.832509,42.0,18.884894,-0.0035318979854855937,-0.02352945757203875,0.09750050628343246,36.09446859390736,-100.26678939585686,80.21211738781929
2024-09-23 11:57:18.875023,42.0,18.884945,-0.0032831742888682963,-0.02352945757203875,0.09750050628343246,36.09446859390736,-100.26678939585686,80.21211738781929
2024-09-23 11:57:18.927194,42.0,18.884945,-0.0032831742888682963,-0.023728432883788564,0.09720203344245934,40.106058693909645,-104.27510100388527,80.21211738781929
2024-09-23 11:57:18.938899,42.0,18.884995,-0.0032831742888682963,-0.023728432883788564,0.09720203344245934,40.106058693909645,-104.27510100388527,84.22370748782159
2024-09-23 11:57:18.972248,42.0,18.884995,-0.0031339382481259063,-0.023429960042815445,0.09720203344245934,40.106058693909645,-104.27510100388527,84.22370748782159
2024-09-23 11:57:18.983459,42.0,18.884995,-0.0031339382481259063,-0.023429960042815445,0.09725178296655933,32.08287849390507,-92.24360919585227,84.22370748782159
2024-09-23 11:57:19.026051,42.0,18.885046,-0.0026862297461545674,-0.0228827638849692,0.09715228999426605,32.08287849390507,-92.24360919585227,84.22370748782159
2024-09-23 11:57:19.038124,42.0,18.885046,-0.0026862297461545674,-0.0228827638849692,0.09715228999426605,32.08287849390507,-92.24360919585227,84.22370748782159
2024-09-23 11:57:19.071993,42.0,18.885096,-0.0030344509719951677,-0.0228827638849692,0.09715228999426605,32.08287849390507,-92.24360919585227,84.22370748782159
2024-09-23 11:57:19.083505,42.0,18.885096,-0.0030344509719951677,-0.02367869399252531,0.09680407370509965,40.106058693909645,-92.24360919585227,84.22370748782159
2024-09-23 11:57:19.126114,42.0,18.885184,-0.0034324103296106863,-0.023181236725942318,0.09720203344245934,40.106058693909645,-96.25519929585457,88.23529758782387
2024-09-23 11:57:19.168492,42.0,18.885184,-0.0034324103296106863,-0.023181236725942318,0.09720203344245934,36.09446859390736,-104.27510100388527,80.21211738781929
2024-09-23 11:57:19.180151,42.0,18.885235,-0.003929857343101113,-0.023579196463302005,0.09720203344245934,36.09446859390736,-104.27510100388527,80.21211738781929
2024-09-23 11:57:19.223542,42.0,18.885286,-0.0033329230534799477,-0.023579196463302005,0.0966050877605131,28.07457030097246,-96.25519929585457,76.200527287817
2024-09-23 11:57:19.265843,42.0,18.885286,-0.0033329230534799477,-0.02303200030545576,0.09670458680871308,28.07457030097246,-96.25519929585457,76.200527287817
2024-09-23 11:57:19.318241,42.0,18.885379,-0.0033329230534799477,-0.02303200030545576,0.09670458680871308,40.106058693909645,-100.26678939585686,80.21211738781929
2024-09-23 11:57:19.330307,42.0,18.885379,-0.0033329230534799477,-0.023728432883788564,0.09670458680871308,40.106058693909645,-100.26678939585686,80.21211738781929
2024-09-23 11:57:19.362104,42.0,18.885379,-0.0033329230534799477,-0.023728432883788564,0.09779897304849887,36.09446859390736,-100.26678939585686,80.21211738781929
2024-09-23 11:57:19.373145,42.0,18.88543,-0.0029847020175114316,-0.023728432883788564,0.09779897304849887,36.09446859390736,-100.26678939585686,80.21211738781929
2024-09-23 11:57:19.415602,42.0,18.88543,-0.0029847020175114316,-0.02367869399252531,0.09665483728461309,32.08287849390507,-100.26678939585686,80.21211738781929
2024-09-23 11:57:19.427591,42.0,18.885481,-0.0029847020175114316,-0.02367869399252531,0.09665483728461309,32.08287849390507,-100.26678939585686,80.21211738781929
2024-09-23 11:57:19.460565,42.0,18.885481,-0.003382661564999035,-0.02293251340906919,0.09650560086412653,32.08287849390507,-100.26678939585686,80.21211738781929
2024-09-23 11:57:19.472158,42.0,18.885481,-0.003382661564999035,-0.02293251340906919,0.09650560086412653,40.106058693909645,-104.27510100388527,76.200527287817
2024-09-23 11:57:19.514185,42.0,18.885531,-0.0035816467500972456,-0.023181236725942318,0.0973512698629459,40.106058693909645,-104.27510100388527,76.200527287817
2024-09-23 11:57:19.556365,42.0,18.885623,-0.0035816467500972456,-0.023181236725942318,0.0973512698629459,40.106058693909645,-104.27510100388527,76.200527287817
2024-09-23 11:57:19.567869,42.0,18.885623,-0.003482159473966507,-0.02308174982955575,0.09665483728461309,36.09446859390736,-104.27510100388527,76.200527287817
2024-09-23 11:57:19.610809,42.0,18.885674,-0.0031836870127375577,-0.02293251340906919,0.09665483728461309,36.09446859390736,-100.26678939585686,80.21211738781929
2024-09-23 11:57:19.622860,42.0,18.885674,-0.0031836870127375577,-0.02293251340906919,0.09715228999426605,36.09446859390736,-100.26678939585686,80.21211738781929
2024-09-23 11:57:19.654957,42.0,18.885674,-0.0031836870127375577,-0.02293251340906919,0.09715228999426605,44.11764879391193,-96.25519929585457,80.21211738781929
2024-09-23 11:57:19.666534,42.0,18.885725,-0.003780631555451287,-0.023479709566915436,0.09715228999426605,44.11764879391193,-96.25519929585457,84.22370748782159
2024-09-23 11:57:19.710324,42.15,18.885776,-0.0028354659767690416,-0.023479709566915436,0.0970030596496862,36.09446859390736,-96.25519929585457,84.22370748782159
2024-09-23 11:57:19.753184,42.15,18.885776,-0.0028354659767690416,-0.02338022115155219,0.09740101331113918,36.09446859390736,-96.25519929585457,84.22370748782159
2024-09-23 11:57:19.764536,42.15,18.885866,-0.0028354659767690416,-0.02338022115155219,0.09740101331113918,44.11764879391193,-100.26678939585686,72.1922225099802
2024-09-23 11:57:19.808044,42.15,18.885866,-0.0029349636958644295,-0.023479709566915436,0.09799795899308542,32.08287849390507,-96.25519929585457,72.1922225099802
2024-09-23 11:57:19.850420,42.15,18.885918,-0.0035816467500972456,-0.023728432883788564,0.09799795899308542,32.08287849390507,-96.25519929585457,72.1922225099802
2024-09-23 11:57:19.861608,42.15,18.885918,-0.0035816467500972456,-0.023728432883788564,0.09740101331113918,32.08287849390507,-96.25519929585457,72.1922225099802
2024-09-23 11:57:19.904951,42.15,18.885968,-0.003780631555451287,-0.023230986250042305,0.09750050628343246,32.08287849390507,-96.25519929585457,76.200527287817
2024-09-23 11:57:19.948434,42.15,18.886019,-0.003780631555451287,-0.023230986250042305,0.09750050628343246,32.08287849390507,-100.26678939585686,80.21211738781929
2024-09-23 11:57:19.960212,42.15,18.886019,-0.003482159473966507,-0.023778180888911878,0.0973015264147526,32.08287849390507,-100.26678939585686,80.21211738781929
2024-09-23 11:57:20.003812,42.15,18.88607,-0.0032831742888682963,-0.023230986250042305,0.0973015264147526,36.09446859390736,-104.27510100388527,72.1922225099802
2024-09-23 11:57:20.046288,42.15,18.88607,-0.0032831742888682963,-0.023230986250042305,0.09725178296655933,40.106058693909645,-104.27510100388527,72.1922225099802
2024-09-23 11:57:20.057635,42.15,18.88612,-0.0030841997366068195,-0.023230986250042305,0.09725178296655933,40.106058693909645,-104.27510100388527,76.200527287817
2024-09-23 11:57:20.101263,42.15,18.886207,-0.0030841997366068195,-0.02303200030545576,0.09695331012558621,40.106058693909645,-96.25519929585457,80.21211738781929
2024-09-23 11:57:20.143962,42.15,18.886207,-0.003382661564999035,-0.02308174982955575,0.0970030596496862,40.106058693909645,-96.25519929585457,80.21211738781929
2024-09-23 11:57:20.155950,42.15,18.886207,-0.003382661564999035,-0.02308174982955575,0.0970030596496862,32.08287849390507,-92.24360919585227,84.22370748782159
2024-09-23 11:57:20.198515,42.15,18.886259,-0.003482159473966507,-0.023579196463302005,0.09725178296655933,40.106058693909645,-92.24360919585227,84.22370748782159
2024-09-23 11:57:20.241020,42.15,18.88631,-0.003631395514708897,-0.023579196463302005,0.09725178296655933,40.106058693909645,-92.24360919585227,84.22370748782159
2024-09-23 11:57:20.252429,42.15,18.88631,-0.003631395514708897,-0.023728432883788564,0.0970030596496862,44.11764879391193,-92.24360919585227,84.22370748782159
2024-09-23 11:57:20.295418,42.15,18.88631,-0.003631395514708897,-0.023728432883788564,0.0970030596496862,44.11764879391193,-88.23529758782387,84.22370748782159
2024-09-23 11:57:20.338315,42.15,18.886361,-0.0033329230534799477,-0.023728432883788564,0.0970030596496862,44.11764879391193,-88.23529758782387,80.21211738781929
2024-09-23 11:57:20.350012,42.15,18.886361,-0.0033329230534799477,-0.02352945757203875,0.09725178296655933,40.106058693909645,-88.23529758782387,80.21211738781929
2024-09-23 11:57:20.392315,42.15,18.886411,-0.0035318979854855937,-0.02303200030545576,0.09750050628343246,40.106058693909645,-96.25519929585457,80.21211738781929
2024-09-23 11:57:20.434424,42.15,18.886411,-0.0035318979854855937,-0.02303200030545576,0.09750050628343246,36.09446859390736,-92.24360919585227,80.21211738781929
2024-09-23 11:57:20.445597,42.15,18.886462,-0.0035816467500972456,-0.02293251340906919,0.09750050628343246,36.09446859390736,-92.24360919585227,84.22370748782159
2024-09-23 11:57:20.489243,42.15,18.886549,-0.0031339382481259063,-0.02293251340906919,0.09690356060148622,40.106058693909645,-92.24360919585227,76.200527287817
2024-09-23 11:57:20.531409,42.15,18.886549,-0.0031339382481259063,-0.023479709566915436,0.0973015264147526,40.106058693909645,-92.24360919585227,76.200527287817
2024-09-23 11:57:20.542986,42.15,18.886646,-0.0031339382481259063,-0.023479709566915436,0.0973015264147526,36.09446859390736,-100.26678939585686,76.200527287817
2024-09-23 11:57:20.586308,42.15,18.886646,-0.0035816467500972456,-0.023579196463302005,0.09655535038822652,32.08287849390507,-100.26678939585686,80.21211738781929
2024-09-23 11:57:20.629063,42.15,18.886698,-0.0031339382481259063,-0.023579196463302005,0.09655535038822652,32.08287849390507,-100.26678939585686,80.21211738781929
2024-09-23 11:57:20.640293,42.15,18.886698,-0.0031339382481259063,-0.023230986250042305,0.09725178296655933,36.09446859390736,-104.27510100388527,80.21211738781929
2024-09-23 11:57:20.682421,42.15,18.886748,-0.0029847020175114316,-0.023877669304275123,0.09725178296655933,36.09446859390736,-104.27510100388527,76.200527287817
2024-09-23 11:57:20.694140,42.15,18.886748,-0.0029847020175114316,-0.023877669304275123,0.09725178296655933,36.09446859390736,-104.27510100388527,76.200527287817
2024-09-23 11:57:20.726910,41.68,18.886748,-0.0029847020175114316,-0.023877669304275123,0.09725178296655933,36.09446859390736,-100.26678939585686,84.22370748782159
2024-09-23 11:57:20.738056,41.68,18.886799,-0.0030344509719951677,-0.023579196463302005,0.09635636444363997,36.09446859390736,-100.26678939585686,84.22370748782159
2024-09-23 11:57:20.780540,41.68,18.88685,-0.0036811340262279837,-0.023579196463302005,0.09635636444363997,40.106058693909645,-92.24360919585227,84.22370748782159
2024-09-23 11:57:20.792676,41.68,18.88685,-0.0036811340262279837,-0.02338022115155219,0.09635636444363997,40.106058693909645,-92.24360919585227,84.22370748782159
2024-09-23 11:57:20.824558,41.68,18.88685,-0.0036811340262279837,-0.02338022115155219,0.0966050877605131,40.106058693909645,-92.24360919585227,84.22370748782159
2024-09-23 11:57:20.835964,41.68,18.886901,-0.0031836870127375577,-0.02338022115155219,0.0966050877605131,40.106058693909645,-96.25519929585457,84.22370748782159
2024-09-23 11:57:20.878462,41.68,18.886901,-0.0031836870127375577,-0.023579196463302005,0.09705279702197278,32.08287849390507,-104.27510100388527,84.22370748782159
2024-09-23 11:57:20.889864,41.68,18.886987,-0.0031836870127375577,-0.023579196463302005,0.09705279702197278,32.08287849390507,-104.27510100388527,84.22370748782159
2024-09-23 11:57:20.922584,41.68,18.886987,-0.0029847020175114316,-0.023429960042815445,0.09705279702197278,32.08287849390507,-104.27510100388527,84.22370748782159
2024-09-23 11:57:20.933778,41.68,18.886987,-0.0029847020175114316,-0.023429960042815445,0.09759999317981902,40.106058693909645,-104.27510100388527,84.22370748782159
2024-09-23 11:57:20.977800,41.68,18.887039,-0.0028354659767690416,-0.02338022115155219,0.09725178296655933,40.106058693909645,-100.26678939585686,84.22370748782159
2024-09-23 11:57:21.020186,41.68,18.887089,-0.003482159473966507,-0.02338022115155219,0.09725178296655933,40.106058693909645,-100.26678939585686,80.21211738781929
2024-09-23 11:57:21.031560,41.68,18.887089,-0.003482159473966507,-0.02338022115155219,0.09745075675933246,36.09446859390736,-100.26678939585686,80.21211738781929
2024-09-23 11:57:21.073962,41.68,18.88714,-0.003482159473966507,-0.023230986250042305,0.09745075675933246,36.09446859390736,-100.26678939585686,84.22370748782159
2024-09-23 11:57:21.085923,41.68,18.88714,-0.003482159473966507,-0.023230986250042305,0.09725178296655933,36.09446859390736,-100.26678939585686,84.22370748782159
2024-09-23 11:57:21.117608,41.68,18.88714,-0.003482159473966507,-0.023230986250042305,0.09725178296655933,40.106058693909645,-100.26678939585686,72.1922225099802
2024-09-23 11:57:21.128526,41.68,18.887191,-0.0034324103296106863,-0.023181236725942318,0.09725178296655933,40.106058693909645,-100.26678939585686,72.1922225099802
2024-09-23 11:57:21.171391,41.68,18.887242,-0.004029355252068585,-0.023181236725942318,0.09665483728461309,40.106058693909645,-104.27510100388527,76.200527287817
2024-09-23 11:57:21.215743,41.68,18.887242,-0.004029355252068585,-0.02338022115155219,0.09740101331113918,32.08287849390507,-104.27510100388527,76.200527287817
2024-09-23 11:57:21.227428,41.68,18.887329,-0.004029355252068585,-0.02338022115155219,0.09740101331113918,32.08287849390507,-96.25519929585457,80.21211738781929
2024-09-23 11:57:21.270194,41.68,18.887329,-0.003233425524256645,-0.023330473146428877,0.0970030596496862,44.11764879391193,-104.27510100388527,84.22370748782159
2024-09-23 11:57:21.312900,41.68,18.88738,-0.0029847020175114316,-0.02338022115155219,0.0970030596496862,44.11764879391193,-104.27510100388527,84.22370748782159
2024-09-23 11:57:21.324752,41.68,18.88738,-0.0029847020175114316,-0.02338022115155219,0.09764974270391902,32.08287849390507,-104.27510100388527,84.22370748782159
2024-09-23 11:57:21.368258,41.68,18.887431,-0.0029847020175114316,-0.02362894446842532,0.0973512698629459,32.08287849390507,-104.27510100388527,72.1922225099802
2024-09-23 11:57:21.410756,41.68,18.887431,-0.0029847020175114316,-0.02362894446842532,0.0973512698629459,36.09446859390736,-96.25519929585457,76.200527287817
2024-09-23 11:57:21.422156,41.68,18.887481,-0.0029349636958644295,-0.02313149783467906,0.0973512698629459,36.09446859390736,-96.25519929585457,76.200527287817
2024-09-23 11:57:21.464661,41.68,18.887532,-0.003482159473966507,-0.02313149783467906,0.09670458680871308,48.12595698684454,-104.27510100388527,84.22370748782159
2024-09-23 11:57:21.507607,41.68,18.887532,-0.003482159473966507,-0.023330473146428877,0.09695331012558621,48.12595698684454,-104.27510100388527,84.22370748782159
2024-09-23 11:57:21.518669,41.68,18.887583,-0.003482159473966507,-0.023330473146428877,0.09695331012558621,36.09446859390736,-100.26678939585686,84.22370748782159
2024-09-23 11:57:21.561637,41.68,18.887583,-0.003233425524256645,-0.02303200030545576,0.09725178296655933,36.09446859390736,-100.26678939585686,84.22370748782159
2024-09-23 11:57:21.573935,41.68,18.887583,-0.003233425524256645,-0.02303200030545576,0.09725178296655933,36.09446859390736,-96.25519929585457,76.200527287817
2024-09-23 11:57:21.606257,41.68,18.88767,-0.003382661564999035,-0.023181236725942318,0.09725178296655933,36.09446859390736,-96.25519929585457,76.200527287817
2024-09-23 11:57:21.617206,41.68,18.88767,-0.003382661564999035,-0.023181236725942318,0.09705279702197278,40.106058693909645,-96.25519929585457,76.200527287817
2024-09-23 11:57:21.659164,41.68,18.887721,-0.003382661564999035,-0.02352945757203875,0.09774922960030558,32.08287849390507,-96.25519929585457,84.22370748782159
2024-09-23 11:57:21.701660,41.68,18.887721,-0.003382661564999035,-0.02352945757203875,0.09774922960030558,32.08287849390507,-92.24360919585227,84.22370748782159
2024-09-23 11:57:21.713020,41.68,18.887772,-0.0035318979854855937,-0.02293251340906919,0.09755024973162574,32.08287849390507,-92.24360919585227,84.22370748782159
2024-09-23 11:57:21.755717,41.83,18.887823,-0.0033329230534799477,-0.02293251340906919,0.09755024973162574,36.09446859390736,-104.27510100388527,80.21211738781929
2024-09-23 11:57:21.767820,41.83,18.887823,-0.0033329230534799477,-0.02338022115155219,0.09755024973162574,36.09446859390736,-104.27510100388527,80.21211738781929
2024-09-23 11:57:21.799823,41.83,18.887823,-0.0033329230534799477,-0.02338022115155219,0.09759999317981902,40.106058693909645,-104.27510100388527,80.21211738781929
2024-09-23 11:57:21.810872,41.83,18.887873,-0.0034324103296106863,-0.02338022115155219,0.09759999317981902,40.106058693909645,-96.25519929585457,80.21211738781929
2024-09-23 11:57:21.853994,41.83,18.887962,-0.0034324103296106863,-0.02367869399252531,0.09715228999426605,32.08287849390507,-88.23529758782387,80.21211738781929
2024-09-23 11:57:21.896109,41.83,18.887962,-0.002636491424507565,-0.023330473146428877,0.09715228999426605,32.08287849390507,-88.23529758782387,80.21211738781929
2024-09-23 11:57:21.907860,41.83,18.887962,-0.002636491424507565,-0.023330473146428877,0.09720203344245934,40.106058693909645,-96.25519929585457,80.21211738781929
2024-09-23 11:57:21.949881,41.83,18.888014,-0.003233425524256645,-0.02362894446842532,0.09710254654607277,40.106058693909645,-96.25519929585457,80.21211738781929
2024-09-23 11:57:21.961835,41.83,18.888014,-0.003233425524256645,-0.02362894446842532,0.09710254654607277,40.106058693909645,-92.24360919585227,80.21211738781929
2024-09-23 11:57:21.994079,41.83,18.888065,-0.003233425524256645,-0.02362894446842532,0.09710254654607277,40.106058693909645,-92.24360919585227,88.23529758782387
2024-09-23 11:57:22.005574,41.83,18.888065,-0.0031836870127375577,-0.02263404056809607,0.0973512698629459,36.09446859390736,-92.24360919585227,88.23529758782387
2024-09-23 11:57:22.048198,41.83,18.888115,-0.003482159473966507,-0.022982261414192504,0.0973512698629459,36.09446859390736,-88.23529758782387,84.22370748782159
2024-09-23 11:57:22.060314,41.83,18.888115,-0.003482159473966507,-0.022982261414192504,0.0970030596496862,36.09446859390736,-88.23529758782387,84.22370748782159
2024-09-23 11:57:22.094145,41.83,18.888115,-0.003482159473966507,-0.022982261414192504,0.0970030596496862,32.08287849390507,-96.25519929585457,84.22370748782159
2024-09-23 11:57:22.105796,41.83,18.888166,-0.0031836870127375577,-0.023330473146428877,0.0970030596496862,32.08287849390507,-96.25519929585457,84.22370748782159
2024-09-23 11:57:22.138463,41.83,18.888166,-0.0031836870127375577,-0.023330473146428877,0.09725178296655933,32.08287849390507,-96.25519929585457,84.22370748782159
2024-09-23 11:57:22.149900,41.83,18.888217,-0.0034324103296106863,-0.023330473146428877,0.09725178296655933,28.07457030097246,-108.28669110388756,80.21211738781929
2024-09-23 11:57:22.192544,41.83,18.888217,-0.0034324103296106863,-0.022833026512682618,0.09675432418099966,40.106058693909645,-104.27510100388527,80.21211738781929
2024-09-23 11:57:22.204447,41.83,18.888304,-0.0034324103296106863,-0.022833026512682618,0.09675432418099966,40.106058693909645,-104.27510100388527,84.22370748782159
2024-09-23 11:57:22.236956,41.83,18.888304,-0.0031836870127375577,-0.022833026512682618,0.09675432418099966,40.106058693909645,-104.27510100388527,84.22370748782159
2024-09-23 11:57:22.248080,41.83,18.888304,-0.0031836870127375577,-0.02313149783467906,0.09725178296655933,40.106058693909645,-104.27510100388527,76.200527287817
2024-09-23 11:57:22.289746,41.83,18.888355,-0.0033329230534799477,-0.023579196463302005,0.09680407370509965,40.106058693909645,-104.27510100388527,76.200527287817
2024-09-23 11:57:22.302676,41.83,18.888355,-0.0033329230534799477,-0.023579196463302005,0.09680407370509965,44.11764879391193,-100.26678939585686,76.200527287817
2024-09-23 11:57:22.336168,41.83,18.888406,-0.0033329230534799477,-0.023579196463302005,0.09680407370509965,44.11764879391193,-100.26678939585686,76.200527287817
2024-09-23 11:57:22.347686,41.83,18.888406,-0.0031836870127375577,-0.023579196463302005,0.09750050628343246,36.09446859390736,-100.26678939585686,76.200527287817
2024-09-23 11:57:22.389743,41.83,18.888457,-0.0035318979854855937,-0.023579196463302005,0.09750050628343246,36.09446859390736,-100.26678939585686,80.21211738781929
2024-09-23 11:57:22.431928,41.83,18.888457,-0.0035318979854855937,-0.023181236725942318,0.09750050628343246,36.09446859390736,-100.26678939585686,80.21211738781929
2024-09-23 11:57:22.443377,41.83,18.888507,-0.0035318979854855937,-0.023181236725942318,0.09695331012558621,40.106058693909645,-96.25519929585457,76.200527287817
2024-09-23 11:57:22.486231,41.83,18.888507,-0.0035816467500972456,-0.02397715620066169,0.09715228999426605,36.09446859390736,-96.25519929585457,76.200527287817
2024-09-23 11:57:22.497887,41.83,18.888507,-0.0035816467500972456,-0.02397715620066169,0.09715228999426605,36.09446859390736,-96.25519929585457,76.200527287817
2024-09-23 11:57:22.529867,41.83,18.888558,-0.0035816467500972456,-0.02397715620066169,0.09715228999426605,36.09446859390736,-96.25519929585457,76.200527287817
2024-09-23 11:57:22.541430,41.83,18.888558,-0.0027359787006383035,-0.023429960042815445,0.09705279702197278,40.106058693909645,-100.26678939585686,76.200527287817
2024-09-23 11:57:22.584519,41.83,18.888645,-0.0028354659767690416,-0.0228827638849692,0.09715228999426605,40.106058693909645,-100.26678939585686,80.21211738781929
2024-09-23 11:57:22.596443,41.83,18.888645,-0.0028354659767690416,-0.0228827638849692,0.09715228999426605,36.09446859390736,-100.26678939585686,80.21211738781929
2024-09-23 11:57:22.627988,41.83,18.888645,-0.0028354659767690416,-0.0228827638849692,0.09715228999426605,36.09446859390736,-104.27510100388527,72.1922225099802
2024-09-23 11:57:22.639330,41.83,18.888696,-0.0038303700669703737,-0.0228827638849692,0.0976994861521123,36.09446859390736,-104.27510100388527,72.1922225099802
2024-09-23 11:57:22.681212,41.83,18.888747,-0.0037308827908396356,-0.0228827638849692,0.0976994861521123,32.08287849390507,-100.26678939585686,80.21211738781929
2024-09-23 11:57:22.693239,41.83,18.888747,-0.0037308827908396356,-0.023429960042815445,0.0976994861521123,32.08287849390507,-100.26678939585686,80.21211738781929
2024-09-23 11:57:22.726328,41.83,18.888747,-0.0037308827908396356,-0.023429960042815445,0.09705279702197278,24.06297849342227,-100.26678939585686,80.21211738781929
2024-09-23 11:57:22.737412,41.83,18.888798,-0.003631395514708897,-0.023429960042815445,0.09705279702197278,24.06297849342227,-100.26678939585686,80.21211738781929
2024-09-23 11:57:22.779997,42.46,18.888798,-0.003631395514708897,-0.023330473146428877,0.09745075675933246,32.08287849390507,-100.26678939585686,80.21211738781929
2024-09-23 11:57:22.791727,42.46,18.888889,-0.003631395514708897,-0.023330473146428877,0.09745075675933246,32.08287849390507,-100.26678939585686,80.21211738781929
2024-09-23 11:57:22.876515,42.46,18.888889,-0.0030841997366068195,-0.02308174982955575,0.0970030596496862,36.09446859390736,-100.26678939585686,80.21211738781929
2024-09-23 11:57:22.888958,42.46,18.888889,-0.0030841997366068195,-0.02308174982955575,0.0970030596496862,36.09446859390736,-104.27510100388527,80.21211738781929
2024-09-23 11:57:22.920764,42.46,18.88894,-0.0034324103296106863,-0.02308174982955575,0.0970030596496862,36.09446859390736,-104.27510100388527,80.21211738781929
2024-09-23 11:57:22.933014,42.46,18.88894,-0.0034324103296106863,-0.02362894446842532,0.09715228999426605,40.106058693909645,-96.25519929585457,80.21211738781929
2024-09-23 11:57:22.977164,42.46,18.88894,-0.0034324103296106863,-0.02362894446842532,0.09715228999426605,40.106058693909645,-96.25519929585457,84.22370748782159
2024-09-23 11:57:23.020152,42.46,18.888991,-0.0028852147413806935,-0.023429960042815445,0.09715228999426605,40.106058693909645,-96.25519929585457,84.22370748782159
2024-09-23 11:57:23.031340,42.46,18.888991,-0.0028852147413806935,-0.023429960042815445,0.0962568775472534,36.09446859390736,-100.26678939585686,84.22370748782159
2024-09-23 11:57:23.074137,42.46,18.889042,-0.0034324103296106863,-0.023181236725942318,0.09715228999426605,36.09446859390736,-100.26678939585686,80.21211738781929
2024-09-23 11:57:23.117462,42.46,18.889092,-0.0034324103296106863,-0.023181236725942318,0.09715228999426605,36.09446859390736,-104.27510100388527,80.21211738781929
2024-09-23 11:57:23.128716,42.46,18.889092,-0.0037308827908396356,-0.02367869399252531,0.09680407370509965,36.09446859390736,-104.27510100388527,80.21211738781929
2024-09-23 11:57:23.170693,42.46,18.889184,-0.0030344509719951677,-0.02352945757203875,0.09680407370509965,36.09446859390736,-100.26678939585686,84.22370748782159
2024-09-23 11:57:23.214065,42.46,18.889184,-0.0030344509719951677,-0.02352945757203875,0.0976994861521123,36.09446859390736,-96.25519929585457,84.22370748782159
2024-09-23 11:57:23.225402,42.46,18.889279,-0.0029847020175114316,-0.02352945757203875,0.0976994861521123,36.09446859390736,-96.25519929585457,76.200527287817
2024-09-23 11:57:23.268669,42.46,18.889376,-0.0029847020175114316,-0.023579196463302005,0.09710254654607277,36.09446859390736,-96.25519929585457,76.200527287817
2024-09-23 11:57:23.310950,42.46,18.889376,-0.0034324103296106863,-0.02362894446842532,0.09710254654607277,36.09446859390736,-96.25519929585457,76.200527287817
2024-09-23 11:57:23.322960,42.46,18.889376,-0.0034324103296106863,-0.02362894446842532,0.0973015264147526,40.106058693909645,-96.25519929585457,80.21211738781929
2024-09-23 11:57:23.407251,42.46,18.889428,-0.0034324103296106863,-0.02362894446842532,0.0973015264147526,40.106058693909645,-96.25519929585457,80.21211738781929
2024-09-23 11:57:23.418689,42.46,18.889428,-0.0033329230534799477,-0.02313149783467906,0.09695331012558621,40.106058693909645,-96.25519929585457,80.21211738781929
2024-09-23 11:57:23.461977,42.46,18.889478,-0.0035816467500972456,-0.02313149783467906,0.09695331012558621,36.09446859390736,-100.26678939585686,84.22370748782159
2024-09-23 11:57:23.473851,42.46,18.889478,-0.0035816467500972456,-0.02362894446842532,0.09695331012558621,36.09446859390736,-100.26678939585686,84.22370748782159
2024-09-23 11:57:23.505889,42.46,18.889478,-0.0035816467500972456,-0.02362894446842532,0.09779897304849887,36.09446859390736,-100.26678939585686,84.22370748782159
2024-09-23 11:57:23.517815,42.46,18.889529,-0.0028852147413806935,-0.02362894446842532,0.09779897304849887,36.09446859390736,-100.26678939585686,80.21211738781929
2024-09-23 11:57:23.559780,42.46,18.889529,-0.0028852147413806935,-0.02362894446842532,0.09784872257259886,36.09446859390736,-108.28669110388756,84.22370748782159
2024-09-23 11:57:23.572126,42.46,18.88958,-0.0028852147413806935,-0.02362894446842532,0.09784872257259886,36.09446859390736,-108.28669110388756,84.22370748782159
2024-09-23 11:57:23.604830,42.46,18.88958,-0.003382661564999035,-0.02367869399252531,0.09720203344245934,36.09446859390736,-108.28669110388756,84.22370748782159
2024-09-23 11:57:23.616540,42.46,18.88958,-0.003382661564999035,-0.02367869399252531,0.09720203344245934,36.09446859390736,-96.25519929585457,76.200527287817
2024-09-23 11:57:23.660021,42.46,18.88963,-0.0036811340262279837,-0.023579196463302005,0.09725178296655933,40.106058693909645,-104.27510100388527,76.200527287817
2024-09-23 11:57:23.702107,42.46,18.889768,-0.003929857343101113,-0.023579196463302005,0.09725178296655933,40.106058693909645,-104.27510100388527,72.1922225099802
2024-09-23 11:57:23.713966,42.46,18.889768,-0.003929857343101113,-0.023330473146428877,0.09725178296655933,36.09446859390736,-104.27510100388527,72.1922225099802
2024-09-23 11:57:23.797563,42.0,18.889768,-0.003929857343101113,-0.023330473146428877,0.09725178296655933,36.09446859390736,-104.27510100388527,80.21211738781929
2024-09-23 11:57:23.809013,42.0,18.889819,-0.0030344509719951677,-0.023230986250042305,0.09715228999426605,36.09446859390736,-104.27510100388527,80.21211738781929
2024-09-23 11:57:23.851891,42.0,18.889869,-0.003382661564999035,-0.023230986250042305,0.09715228999426605,36.09446859390736,-96.25519929585457,84.22370748782159
2024-09-23 11:57:23.863661,42.0,18.889869,-0.003382661564999035,-0.02367869399252531,0.09715228999426605,36.09446859390736,-96.25519929585457,84.22370748782159
2024-09-23 11:57:23.896322,42.0,18.889869,-0.003382661564999035,-0.02367869399252531,0.09705279702197278,32.08287849390507,-96.25519929585457,84.22370748782159
2024-09-23 11:57:23.907857,42.0,18.88992,-0.003233425524256645,-0.02367869399252531,0.09705279702197278,32.08287849390507,-96.25519929585457,76.200527287817
2024-09-23 11:57:23.949829,42.0,18.88992,-0.003233425524256645,-0.023429960042815445,0.09725178296655933,44.11764879391193,-104.27510100388527,80.21211738781929
2024-09-23 11:57:23.961917,42.0,18.890011,-0.003233425524256645,-0.023429960042815445,0.09725178296655933,44.11764879391193,-104.27510100388527,80.21211738781929
2024-09-23 11:57:23.995326,42.0,18.890011,-0.003482159473966507,-0.023479709566915436,0.09774922960030558,44.11764879391193,-104.27510100388527,80.21211738781929
2024-09-23 11:57:24.006374,42.0,18.890011,-0.003482159473966507,-0.023479709566915436,0.09774922960030558,40.106058693909645,-96.25519929585457,76.200527287817
2024-09-23 11:57:24.049843,42.0,18.890108,-0.003780631555451287,-0.022982261414192504,0.0970030596496862,44.11764879391193,-96.25519929585457,76.200527287817
2024-09-23 11:57:24.092124,42.0,18.890159,-0.0027359787006383035,-0.022982261414192504,0.0970030596496862,44.11764879391193,-96.25519929585457,80.21211738781929
2024-09-23 11:57:24.104103,42.0,18.890159,-0.0027359787006383035,-0.023479709566915436,0.09745075675933246,32.08287849390507,-96.25519929585457,80.21211738781929
2024-09-23 11:57:24.146676,42.0,18.89021,-0.003233425524256645,-0.02362894446842532,0.09740101331113918,32.08287849390507,-96.25519929585457,80.21211738781929
2024-09-23 11:57:24.189883,42.0,18.89021,-0.003233425524256645,-0.02362894446842532,0.09740101331113918,44.11764879391193,-104.27510100388527,76.200527287817
2024-09-23 11:57:24.201565,42.0,18.890261,-0.003382661564999035,-0.023330473146428877,0.09740101331113918,44.11764879391193,-104.27510100388527,76.200527287817
2024-09-23 11:57:24.244561,42.0,18.890311,-0.0036811340262279837,-0.023330473146428877,0.09665483728461309,40.106058693909645,-104.27510100388527,72.1922225099802
2024-09-23 11:57:24.287506,42.0,18.890311,-0.0036811340262279837,-0.023280723622328886,0.09715228999426605,32.08287849390507,-104.27510100388527,72.1922225099802
2024-09-23 11:57:24.299035,42.0,18.8904,-0.0036811340262279837,-0.023280723622328886,0.09715228999426605,32.08287849390507,-96.25519929585457,80.21211738781929
2024-09-23 11:57:24.341461,42.0,18.8904,-0.0031339382481259063,-0.023429960042815445,0.09695331012558621,32.08287849390507,-92.24360919585227,84.22370748782159
2024-09-23 11:57:24.437689,42.0,18.890452,-0.0032831742888682963,-0.023728432883788564,0.0970030596496862,40.106058693909645,-92.24360919585227,84.22370748782159
2024-09-23 11:57:24.450074,42.0,18.890452,-0.0032831742888682963,-0.023728432883788564,0.0970030596496862,40.106058693909645,-104.27510100388527,84.22370748782159
2024-09-23 11:57:24.482171,42.0,18.890502,-0.003780631555451287,-0.023728432883788564,0.0970030596496862,40.106058693909645,-104.27510100388527,72.1922225099802
2024-09-23 11:57:24.493880,42.0,18.890502,-0.003780631555451287,-0.023280723622328886,0.0973015264147526,36.09446859390736,-104.27510100388527,72.1922225099802
2024-09-23 11:57:24.537344,42.0,18.890553,-0.003631395514708897,-0.023330473146428877,0.09710254654607277,36.09446859390736,-100.26678939585686,80.21211738781929
2024-09-23 11:57:24.579736,42.0,18.890553,-0.003631395514708897,-0.023330473146428877,0.09710254654607277,36.09446859390736,-104.27510100388527,80.21211738781929
2024-09-23 11:57:24.591595,42.0,18.890604,-0.0026862297461545674,-0.02308174982955575,0.09710254654607277,36.09446859390736,-104.27510100388527,80.21211738781929
2024-09-23 11:57:24.635481,42.0,18.890654,-0.0030344509719951677,-0.02308174982955575,0.09675432418099966,32.08287849390507,-96.25519929585457,80.21211738781929
2024-09-23 11:57:24.678422,42.0,18.890654,-0.0030344509719951677,-0.02338022115155219,0.09740101331113918,44.11764879391193,-96.25519929585457,80.21211738781929
2024-09-23 11:57:24.689688,42.0,18.89079,-0.0030344509719951677,-0.02338022115155219,0.09740101331113918,44.11764879391193,-96.25519929585457,80.21211738781929
2024-09-23 11:57:24.722709,42.0,18.89079,-0.0028852147413806935,-0.02338022115155219,0.09740101331113918,44.11764879391193,-96.25519929585457,80.21211738781929
2024-09-23 11:57:24.734498,42.0,18.89079,-0.0028852147413806935,-0.023280723622328886,0.09695331012558621,40.106058693909645,-100.26678939585686,76.200527287817
2024-09-23 11:57:24.777172,42.0,18.890842,-0.0031836870127375577,-0.023429960042815445,0.09695331012558621,48.12595698684454,-100.26678939585686,76.200527287817
2024-09-23 11:57:24.789147,42.0,18.890842,-0.0031836870127375577,-0.023429960042815445,0.09695331012558621,48.12595698684454,-100.26678939585686,76.200527287817
2024-09-23 11:57:24.821416,41.9,18.890892,-0.0031836870127375577,-0.023429960042815445,0.09695331012558621,48.12595698684454,-100.26678939585686,76.200527287817
2024-09-23 11:57:24.833289,41.9,18.890892,-0.0036811340262279837,-0.02338022115155219,0.09710254654607277,36.09446859390736,-100.26678939585686,76.200527287817
2024-09-23 11:57:24.876443,41.9,18.890943,-0.0035816467500972456,-0.023230986250042305,0.09710254654607277,36.09446859390736,-92.24360919585227,80.21211738781929
2024-09-23 11:57:24.918925,41.9,18.890943,-0.0035816467500972456,-0.023230986250042305,0.09710254654607277,40.106058693909645,-92.24360919585227,80.21211738781929
2024-09-23 11:57:24.971634,41.9,18.890943,-0.0035816467500972456,-0.023230986250042305,0.09710254654607277,40.106058693909645,-96.25519929585457,80.21211738781929
2024-09-23 11:57:25.014678,41.9,18.890943,-0.0035816467500972456,-0.023230986250042305,0.09710254654607277,40.106058693909645,-96.25519929585457,76.200527287817
2024-09-23 11:57:25.025755,41.9,18.890994,-0.0026862297461545674,-0.023230986250042305,0.09675432418099966,36.09446859390736,-96.25519929585457,76.200527287817
2024-09-23 11:57:25.069893,41.9,18.891044,-0.0026862297461545674,-0.023230986250042305,0.09675432418099966,36.09446859390736,-104.27510100388527,72.1922225099802
2024-09-23 11:57:25.081354,41.9,18.891044,-0.0035318979854855937,-0.023280723622328886,0.09670458680871308,36.09446859390736,-104.27510100388527,72.1922225099802
2024-09-23 11:57:25.113806,41.9,18.891044,-0.0035318979854855937,-0.023280723622328886,0.09670458680871308,44.11764879391193,-104.27510100388527,72.1922225099802
2024-09-23 11:57:25.125743,41.9,18.891131,-0.0031836870127375577,-0.02352945757203875,0.09670458680871308,44.11764879391193,-88.23529758782387,76.200527287817
2024-09-23 11:57:25.167982,41.9,18.891183,-0.0031836870127375577,-0.02352945757203875,0.09720203344245934,48.12595698684454,-96.25519929585457,76.200527287817
2024-09-23 11:57:25.180372,41.9,18.891183,-0.0030344509719951677,-0.02352945757203875,0.09720203344245934,48.12595698684454,-96.25519929585457,76.200527287817
2024-09-23 11:57:25.212511,41.9,18.891183,-0.0030344509719951677,-0.02308174982955575,0.09710254654607277,32.08287849390507,-96.25519929585457,76.200527287817
2024-09-23 11:57:25.224040,41.9,18.891326,-0.0030344509719951677,-0.02308174982955575,0.09710254654607277,32.08287849390507,-96.25519929585457,88.23529758782387
2024-09-23 11:57:25.266823,41.9,18.891326,-0.0030344509719951677,-0.02303200030545576,0.09705279702197278,36.09446859390736,-104.27510100388527,80.21211738781929
2024-09-23 11:57:25.310198,41.9,18.891378,-0.0037308827908396356,-0.02303200030545576,0.09705279702197278,36.09446859390736,-104.27510100388527,80.21211738781929
2024-09-23 11:57:25.321803,41.9,18.891378,-0.0037308827908396356,-0.02352945757203875,0.09690356060148622,32.08287849390507,-96.25519929585457,80.21211738781929
2024-09-23 11:57:25.365305,41.9,18.891428,-0.003631395514708897,-0.023330473146428877,0.09725178296655933,40.106058693909645,-96.25519929585457,76.200527287817
2024-09-23 11:57:25.409369,41.9,18.891479,-0.003631395514708897,-0.023330473146428877,0.09725178296655933,40.106058693909645,-96.25519929585457,76.200527287817
2024-09-23 11:57:25.421385,41.9,18.891479,-0.0033329230534799477,-0.023778180888911878,0.09725178296655933,40.106058693909645,-96.25519929585457,76.200527287817
2024-09-23 11:57:25.453220,41.9,18.891479,-0.0033329230534799477,-0.023778180888911878,0.09725178296655933,40.106058693909645,-96.25519929585457,76.200527287817
2024-09-23 11:57:25.464674,41.9,18.891479,-0.0033329230534799477,-0.023778180888911878,0.09725178296655933,40.106058693909645,-104.27510100388527,76.200527287817
2024-09-23 11:57:25.507058,41.9,18.89153,-0.0030841997366068195,-0.023778180888911878,0.09725178296655933,40.106058693909645,-104.27510100388527,76.200527287817
2024-09-23 11:57:25.518359,41.9,18.89153,-0.0030841997366068195,-0.02352945757203875,0.09715228999426605,40.106058693909645,-104.27510100388527,76.200527287817
2024-09-23 11:57:25.561047,41.9,18.89158,-0.0035318979854855937,-0.02352945757203875,0.0970030596496862,40.106058693909645,-96.25519929585457,76.200527287817
2024-09-23 11:57:25.603791,41.9,18.89158,-0.0035318979854855937,-0.02352945757203875,0.0970030596496862,36.09446859390736,-100.26678939585686,84.22370748782159
2024-09-23 11:57:25.615362,41.9,18.891668,-0.0028354659767690416,-0.023181236725942318,0.0970030596496862,36.09446859390736,-100.26678939585686,84.22370748782159
2024-09-23 11:57:25.699402,41.9,18.891668,-0.0028354659767690416,-0.023181236725942318,0.09710254654607277,40.106058693909645,-100.26678939585686,84.22370748782159
2024-09-23 11:57:25.710795,41.9,18.891719,-0.003233425524256645,-0.023181236725942318,0.09710254654607277,40.106058693909645,-96.25519929585457,84.22370748782159
2024-09-23 11:57:25.753214,41.9,18.891719,-0.003233425524256645,-0.02313149783467906,0.09645586349183995,44.11764879391193,-100.26678939585686,80.21211738781929
2024-09-23 11:57:25.765574,41.9,18.89177,-0.003233425524256645,-0.02313149783467906,0.09645586349183995,44.11764879391193,-100.26678939585686,80.21211738781929
2024-09-23 11:57:25.798048,41.9,18.89177,-0.0035318979854855937,-0.023579196463302005,0.09705279702197278,44.11764879391193,-100.26678939585686,80.21211738781929
2024-09-23 11:57:25.850880,41.58,18.891863,-0.0031836870127375577,-0.023579196463302005,0.09705279702197278,40.106058693909645,-96.25519929585457,80.21211738781929
2024-09-23 11:57:25.862960,41.58,18.891863,-0.0031836870127375577,-0.023181236725942318,0.09705279702197278,40.106058693909645,-96.25519929585457,80.21211738781929
2024-09-23 11:57:25.896299,41.58,18.891863,-0.0031836870127375577,-0.023181236725942318,0.09695331012558621,36.09446859390736,-100.26678939585686,80.21211738781929
2024-09-23 11:57:25.907355,41.58,18.891914,-0.003482159473966507,-0.023181236725942318,0.09695331012558621,36.09446859390736,-100.26678939585686,80.21211738781929
2024-09-23 11:57:25.951007,41.58,18.89201,-0.003482159473966507,-0.023330473146428877,0.09710254654607277,36.09446859390736,-92.24360919585227,80.21211738781929
2024-09-23 11:57:25.992985,41.58,18.89201,-0.0034324103296106863,-0.02352945757203875,0.09710254654607277,36.09446859390736,-92.24360919585227,80.21211738781929
2024-09-23 11:57:26.004725,41.58,18.89201,-0.0034324103296106863,-0.02352945757203875,0.09675432418099966,36.09446859390736,-96.25519929585457,76.200527287817
2024-09-23 11:57:26.047839,41.58,18.892061,-0.0035816467500972456,-0.023728432883788564,0.0970030596496862,36.09446859390736,-92.24360919585227,76.200527287817
2024-09-23 11:57:26.091524,41.58,18.892156,-0.003233425524256645,-0.023728432883788564,0.0970030596496862,36.09446859390736,-92.24360919585227,84.22370748782159
2024-09-23 11:57:26.103497,41.58,18.892156,-0.003233425524256645,-0.02338022115155219,0.09720203344245934,36.09446859390736,-92.24360919585227,84.22370748782159
2024-09-23 11:57:26.136292,41.58,18.892156,-0.003233425524256645,-0.02338022115155219,0.09720203344245934,36.09446859390736,-96.25519929585457,84.22370748782159
2024-09-23 11:57:26.147587,41.58,18.892208,-0.0034324103296106863,-0.023330473146428877,0.09740101331113918,36.09446859390736,-96.25519929585457,76.200527287817
2024-09-23 11:57:26.189453,41.58,18.892208,-0.0034324103296106863,-0.023330473146428877,0.09740101331113918,40.106058693909645,-104.27510100388527,72.1922225099802
2024-09-23 11:57:26.200578,41.58,18.892258,-0.0037308827908396356,-0.02352945757203875,0.09740101331113918,40.106058693909645,-104.27510100388527,72.1922225099802
2024-09-23 11:57:26.243380,41.58,18.892258,-0.0037308827908396356,-0.02352945757203875,0.09690356060148622,40.106058693909645,-104.27510100388527,72.1922225099802
2024-09-23 11:57:26.286234,41.58,18.892258,-0.0037308827908396356,-0.02352945757203875,0.09690356060148622,36.09446859390736,-100.26678939585686,80.21211738781929
2024-09-23 11:57:26.297915,41.58,18.892309,-0.0031339382481259063,-0.02338022115155219,0.09690356060148622,36.09446859390736,-100.26678939585686,80.21211738781929
2024-09-23 11:57:26.340327,41.58,18.892399,-0.0031836870127375577,-0.02338022115155219,0.09745075675933246,36.09446859390736,-92.24360919585227,80.21211738781929
2024-09-23 11:57:26.384024,41.58,18.892399,-0.0031836870127375577,-0.023429960042815445,0.0970030596496862,36.09446859390736,-92.24360919585227,80.21211738781929
2024-09-23 11:57:26.396179,41.58,18.89245,-0.0031836870127375577,-0.023429960042815445,0.0970030596496862,36.09446859390736,-100.26678939585686,76.200527287817
2024-09-23 11:57:26.480813,41.58,18.89245,-0.0033329230534799477,-0.023429960042815445,0.0970030596496862,36.09446859390736,-100.26678939585686,76.200527287817
2024-09-23 11:57:26.534502,41.58,18.892501,-0.0033329230534799477,-0.02338022115155219,0.09745075675933246,32.08287849390507,-100.26678939585686,76.200527287817
2024-09-23 11:57:26.577335,41.58,18.892501,-0.0028354659767690416,-0.02338022115155219,0.09745075675933246,32.08287849390507,-100.26678939585686,76.200527287817
2024-09-23 11:57:26.588981,41.58,18.892501,-0.0028354659767690416,-0.02338022115155219,0.0966050877605131,32.08287849390507,-100.26678939585686,76.200527287817
2024-09-23 11:57:26.631866,41.58,18.892595,-0.0028354659767690416,-0.023429960042815445,0.09690356060148622,32.08287849390507,-100.26678939585686,76.200527287817
2024-09-23 11:57:26.674600,41.58,18.892595,-0.0028354659767690416,-0.023429960042815445,0.09690356060148622,40.106058693909645,-104.27510100388527,76.200527287817
2024-09-23 11:57:26.686171,41.58,18.892646,-0.0029349636958644295,-0.02293251340906919,0.09690356060148622,40.106058693909645,-104.27510100388527,76.200527287817
2024-09-23 11:57:26.728752,41.58,18.892697,-0.0028852147413806935,-0.02293251340906919,0.09764974270391902,36.09446859390736,-96.25519929585457,80.21211738781929
2024-09-23 11:57:26.771549,41.58,18.892697,-0.0028852147413806935,-0.023579196463302005,0.09685382322919964,36.09446859390736,-96.25519929585457,80.21211738781929
2024-09-23 11:57:26.783423,41.58,18.89284,-0.0028852147413806935,-0.023579196463302005,0.09685382322919964,32.08287849390507,-104.27510100388527,80.21211738781929
2024-09-23 11:57:26.826215,41.58,18.89284,-0.0038303700669703737,-0.023280723622328886,0.09650560086412653,36.09446859390736,-104.27510100388527,80.21211738781929
2024-09-23 11:57:26.837750,41.58,18.89284,-0.0038303700669703737,-0.023280723622328886,0.09650560086412653,36.09446859390736,-104.27510100388527,80.21211738781929
2024-09-23 11:57:26.869727,40.85,18.89289,-0.0031339382481259063,-0.023280723622328886,0.09650560086412653,36.09446859390736,-104.27510100388527,80.21211738781929
2024-09-23 11:57:26.880913,40.85,18.89289,-0.0031339382481259063,-0.02303200030545576,0.09774922960030558,44.11764879391193,-96.25519929585457,80.21211738781929
2024-09-23 11:57:26.922799,40.85,18.892985,-0.0031339382481259063,-0.02303200030545576,0.09774922960030558,44.11764879391193,-96.25519929585457,80.21211738781929
2024-09-23 11:57:26.966161,40.85,18.892985,-0.003233425524256645,-0.02303200030545576,0.09774922960030558,44.11764879391193,-96.25519929585457,80.21211738781929
2024-09-23 11:57:26.977739,40.85,18.892985,-0.003233425524256645,-0.022982261414192504,0.09725178296655933,32.08287849390507,-96.25519929585457,80.21211738781929
2024-09-23 11:57:27.020290,40.85,18.893036,-0.003382661564999035,-0.02278327698858263,0.09675432418099966,32.08287849390507,-96.25519929585457,80.21211738781929
2024-09-23 11:57:27.031359,40.85,18.893036,-0.003382661564999035,-0.02278327698858263,0.09675432418099966,40.106058693909645,-100.26678939585686,80.21211738781929
2024-09-23 11:57:27.064541,40.85,18.893087,-0.003382661564999035,-0.02278327698858263,0.09675432418099966,40.106058693909645,-100.26678939585686,76.200527287817
2024-09-23 11:57:27.076051,40.85,18.893087,-0.0035318979854855937,-0.02313149783467906,0.09685382322919964,32.08287849390507,-100.26678939585686,76.200527287817
2024-09-23 11:57:27.117890,40.85,18.893087,-0.0035318979854855937,-0.02313149783467906,0.09685382322919964,32.08287849390507,-100.26678939585686,80.21211738781929
2024-09-23 11:57:27.159855,40.85,18.893137,-0.0035318979854855937,-0.02313149783467906,0.09685382322919964,32.08287849390507,-100.26678939585686,80.21211738781929
2024-09-23 11:57:27.172315,40.85,18.893137,-0.003382661564999035,-0.023429960042815445,0.09725178296655933,40.106058693909645,-100.26678939585686,80.21211738781929
2024-09-23 11:57:27.214626,40.85,18.893228,-0.0033329230534799477,-0.023429960042815445,0.09725178296655933,40.106058693909645,-100.26678939585686,80.21211738781929
2024-09-23 11:57:27.227994,40.85,18.893228,-0.0033329230534799477,-0.023429960042815445,0.09725178296655933,40.106058693909645,-100.26678939585686,80.21211738781929
2024-09-23 11:57:27.259577,40.85,18.893228,-0.0033329230534799477,-0.023429960042815445,0.09725178296655933,40.106058693909645,-104.27510100388527,76.200527287817
2024-09-23 11:57:27.271446,40.85,18.893279,-0.0030841997366068195,-0.023280723622328886,0.09640611396773996,40.106058693909645,-104.27510100388527,76.200527287817
2024-09-23 11:57:27.315231,40.85,18.893374,-0.0030841997366068195,-0.02293251340906919,0.09640611396773996,36.09446859390736,-104.27510100388527,80.21211738781929
2024-09-23 11:57:27.358275,40.85,18.893374,-0.0030841997366068195,-0.02293251340906919,0.09715228999426605,40.106058693909645,-100.26678939585686,80.21211738781929
2024-09-23 11:57:27.369872,40.85,18.893425,-0.0031836870127375577,-0.02293251340906919,0.09715228999426605,40.106058693909645,-100.26678939585686,80.21211738781929
2024-09-23 11:57:27.412641,40.85,18.89352,-0.0031836870127375577,-0.02362894446842532,0.0973015264147526,40.106058693909645,-96.25519929585457,80.21211738781929
2024-09-23 11:57:27.456114,40.85,18.89352,-0.0030841997366068195,-0.023181236725942318,0.09715228999426605,40.106058693909645,-96.25519929585457,80.21211738781929
2024-09-23 11:57:27.467966,40.85,18.89352,-0.0030841997366068195,-0.023181236725942318,0.09715228999426605,44.11764879391193,-104.27510100388527,80.21211738781929
2024-09-23 11:57:27.511412,40.85,18.893572,-0.0033329230534799477,-0.023877669304275123,0.0973512698629459,36.09446859390736,-104.27510100388527,80.21211738781929
2024-09-23 11:57:27.553268,40.85,18.893622,-0.0033329230534799477,-0.023877669304275123,0.0973512698629459,36.09446859390736,-104.27510100388527,76.200527287817
2024-09-23 11:57:27.565734,40.85,18.893622,-0.0033329230534799477,-0.023230986250042305,0.09740101331113918,32.08287849390507,-104.27510100388527,76.200527287817
2024-09-23 11:57:27.598118,40.85,18.893622,-0.0033329230534799477,-0.023230986250042305,0.09740101331113918,32.08287849390507,-96.25519929585457,76.200527287817
2024-09-23 11:57:27.609963,40.85,18.893673,-0.0028852147413806935,-0.023927417309398437,0.09710254654607277,32.08287849390507,-96.25519929585457,80.21211738781929
2024-09-23 11:57:27.652074,40.85,18.893724,-0.0028852147413806935,-0.023927417309398437,0.09710254654607277,32.08287849390507,-96.25519929585457,84.22370748782159
2024-09-23 11:57:27.663111,40.85,18.893724,-0.0031339382481259063,-0.023280723622328886,0.09710254654607277,32.08287849390507,-96.25519929585457,84.22370748782159
2024-09-23 11:57:27.706047,40.85,18.893774,-0.0034324103296106863,-0.023280723622328886,0.09645586349183995,36.09446859390736,-92.24360919585227,80.21211738781929
2024-09-23 11:57:27.750211,40.85,18.893774,-0.0034324103296106863,-0.023429960042815445,0.0970030596496862,32.08287849390507,-92.24360919585227,80.21211738781929
2024-09-23 11:57:27.761973,40.85,18.893861,-0.0034324103296106863,-0.023429960042815445,0.0970030596496862,32.08287849390507,-100.26678939585686,80.21211738781929
2024-09-23 11:57:27.794585,40.85,18.893861,-0.0030344509719951677,-0.023429960042815445,0.0970030596496862,32.08287849390507,-100.26678939585686,80.21211738781929
2024-09-23 11:57:27.805721,40.85,18.893861,-0.0030344509719951677,-0.02367869399252531,0.09725178296655933,40.106058693909645,-96.25519929585457,84.22370748782159
2024-09-23 11:57:27.848551,40.85,18.893913,-0.002586742470023829,-0.023479709566915436,0.09715228999426605,40.106058693909645,-96.25519929585457,84.22370748782159
2024-09-23 11:57:27.860550,40.85,18.893913,-0.002586742470023829,-0.023479709566915436,0.09715228999426605,40.106058693909645,-100.26678939585686,84.22370748782159
2024-09-23 11:57:27.893399,41.14,18.893964,-0.002586742470023829,-0.023479709566915436,0.09715228999426605,40.106058693909645,-100.26678939585686,76.200527287817
2024-09-23 11:57:27.905391,41.14,18.893964,-0.0033329230534799477,-0.023280723622328886,0.09690356060148622,36.09446859390736,-100.26678939585686,76.200527287817
2024-09-23 11:57:27.949261,41.14,18.894014,-0.0035318979854855937,-0.02338022115155219,0.0973015264147526,36.09446859390736,-100.26678939585686,72.1922225099802
2024-09-23 11:57:27.992275,41.14,18.894014,-0.0035318979854855937,-0.02338022115155219,0.0973015264147526,40.106058693909645,-100.26678939585686,72.1922225099802
2024-09-23 11:57:28.004057,41.14,18.894065,-0.003780631555451287,-0.02308174982955575,0.0973015264147526,40.106058693909645,-100.26678939585686,72.1922225099802
2024-09-23 11:57:28.047737,41.14,18.894116,-0.004029355252068585,-0.02308174982955575,0.09690356060148622,40.106058693909645,-96.25519929585457,80.21211738781929
2024-09-23 11:57:28.090640,41.14,18.894116,-0.004029355252068585,-0.02367869399252531,0.09720203344245934,36.09446859390736,-96.25519929585457,80.21211738781929
2024-09-23 11:57:28.101825,41.14,18.894203,-0.004029355252068585,-0.02367869399252531,0.09720203344245934,36.09446859390736,-100.26678939585686,84.22370748782159
2024-09-23 11:57:28.144887,41.14,18.894203,-0.0037308827908396356,-0.023330473146428877,0.0973015264147526,36.09446859390736,-96.25519929585457,84.22370748782159
2024-09-23 11:57:28.186919,41.14,18.894254,-0.002636491424507565,-0.02313149783467906,0.0973015264147526,36.09446859390736,-96.25519929585457,84.22370748782159
2024-09-23 11:57:28.199069,41.14,18.894254,-0.002636491424507565,-0.02313149783467906,0.09759999317981902,40.106058693909645,-104.27510100388527,84.22370748782159
2024-09-23 11:57:28.241824,41.14,18.894305,-0.0035816467500972456,-0.023429960042815445,0.09675432418099966,40.106058693909645,-104.27510100388527,80.21211738781929
2024-09-23 11:57:28.284636,41.14,18.894356,-0.0035816467500972456,-0.023429960042815445,0.09675432418099966,40.106058693909645,-96.25519929585457,84.22370748782159
2024-09-23 11:57:28.296250,41.14,18.894356,-0.0030841997366068195,-0.02303200030545576,0.09665483728461309,40.106058693909645,-96.25519929585457,84.22370748782159
2024-09-23 11:57:28.329894,41.14,18.894356,-0.0030841997366068195,-0.02303200030545576,0.09665483728461309,48.12595698684454,-96.25519929585457,84.22370748782159
2024-09-23 11:57:28.341630,41.14,18.894406,-0.0033329230534799477,-0.023778180888911878,0.09665483728461309,48.12595698684454,-100.26678939585686,84.22370748782159
2024-09-23 11:57:28.384878,41.14,18.894457,-0.0033329230534799477,-0.023778180888911878,0.0973015264147526,40.106058693909645,-96.25519929585457,76.200527287817
2024-09-23 11:57:28.396595,41.14,18.894457,-0.0035318979854855937,-0.023778180888911878,0.0973015264147526,40.106058693909645,-96.25519929585457,76.200527287817
2024-09-23 11:57:28.429193,41.14,18.894457,-0.0035318979854855937,-0.023927417309398437,0.09705279702197278,40.106058693909645,-96.25519929585457,76.200527287817
2024-09-23 11:57:28.440634,41.14,18.894544,-0.0035318979854855937,-0.023927417309398437,0.09705279702197278,32.08287849390507,-108.28669110388756,76.200527287817
2024-09-23 11:57:28.482655,41.14,18.894544,-0.0034324103296106863,-0.023778180888911878,0.09705279702197278,28.07457030097246,-108.28669110388756,76.200527287817
2024-09-23 11:57:28.494965,41.14,18.894544,-0.0034324103296106863,-0.023778180888911878,0.09705279702197278,28.07457030097246,-100.26678939585686,76.200527287817
2024-09-23 11:57:28.527046,41.14,18.894596,-0.003382661564999035,-0.023778180888911878,0.09705279702197278,28.07457030097246,-100.26678939585686,76.200527287817
2024-09-23 11:57:28.539208,41.14,18.894596,-0.003382661564999035,-0.022833026512682618,0.09720203344245934,32.08287849390507,-100.26678939585686,76.200527287817
2024-09-23 11:57:28.581882,41.14,18.894646,-0.0032831742888682963,-0.02338022115155219,0.09750050628343246,28.07457030097246,-100.26678939585686,84.22370748782159
2024-09-23 11:57:28.675943,41.14,18.894697,-0.0031836870127375577,-0.02338022115155219,0.09750050628343246,28.07457030097246,-100.26678939585686,76.200527287817
2024-09-23 11:57:28.687760,41.14,18.894697,-0.0031836870127375577,-0.022982261414192504,0.09640611396773996,28.07457030097246,-100.26678939585686,76.200527287817
2024-09-23 11:57:28.719942,41.14,18.894697,-0.0031836870127375577,-0.022982261414192504,0.09640611396773996,36.09446859390736,-100.26678939585686,76.200527287817
2024-09-23 11:57:28.731852,41.14,18.894748,-0.002636491424507565,-0.02303200030545576,0.09640611396773996,36.09446859390736,-96.25519929585457,80.21211738781929
2024-09-23 11:57:28.774214,41.14,18.894748,-0.002636491424507565,-0.02303200030545576,0.09750050628343246,36.09446859390736,-92.24360919585227,84.22370748782159
2024-09-23 11:57:28.785235,41.14,18.894798,-0.0033329230534799477,-0.02303200030545576,0.09750050628343246,36.09446859390736,-92.24360919585227,84.22370748782159
2024-09-23 11:57:28.817192,41.14,18.894798,-0.0033329230534799477,-0.023280723622328886,0.09750050628343246,36.09446859390736,-92.24360919585227,84.22370748782159
2024-09-23 11:57:28.828402,41.14,18.894885,-0.0033329230534799477,-0.023280723622328886,0.09695331012558621,32.08287849390507,-100.26678939585686,84.22370748782159
2024-09-23 11:57:28.870741,41.14,18.894885,-0.0034324103296106863,-0.02278327698858263,0.09725178296655933,36.09446859390736,-100.26678939585686,84.22370748782159
2024-09-23 11:57:28.882323,41.14,18.894885,-0.0034324103296106863,-0.02278327698858263,0.09725178296655933,36.09446859390736,-108.28669110388756,80.21211738781929
2024-09-23 11:57:28.914475,41.52,18.894983,-0.0034324103296106863,-0.02278327698858263,0.09725178296655933,36.09446859390736,-108.28669110388756,80.21211738781929
2024-09-23 11:57:28.926590,41.52,18.894983,-0.003929857343101113,-0.023230986250042305,0.09794820946898543,36.09446859390736,-104.27510100388527,80.21211738781929
2024-09-23 11:57:28.968918,41.52,18.895035,-0.003233425524256645,-0.023479709566915436,0.09794820946898543,36.09446859390736,-104.27510100388527,80.21211738781929
2024-09-23 11:57:28.980619,41.52,18.895035,-0.003233425524256645,-0.023479709566915436,0.0973015264147526,36.09446859390736,-104.27510100388527,80.21211738781929
2024-09-23 11:57:29.012238,41.52,18.895035,-0.003233425524256645,-0.023479709566915436,0.0973015264147526,36.09446859390736,-92.24360919585227,80.21211738781929
2024-09-23 11:57:29.024012,41.52,18.895085,-0.0035318979854855937,-0.02352945757203875,0.0970030596496862,36.09446859390736,-92.24360919585227,80.21211738781929
2024-09-23 11:57:29.066539,41.52,18.895136,-0.0035318979854855937,-0.02352945757203875,0.0970030596496862,36.09446859390736,-100.26678939585686,80.21211738781929
2024-09-23 11:57:29.078442,41.52,18.895136,-0.0028852147413806935,-0.0228827638849692,0.0970030596496862,36.09446859390736,-100.26678939585686,80.21211738781929
2024-09-23 11:57:29.112278,41.52,18.895136,-0.0028852147413806935,-0.0228827638849692,0.09680407370509965,44.11764879391193,-100.26678939585686,80.21211738781929
2024-09-23 11:57:29.123165,41.52,18.895187,-0.003382661564999035,-0.0228827638849692,0.09680407370509965,44.11764879391193,-92.24360919585227,84.22370748782159
2024-09-23 11:57:29.164776,41.52,18.895187,-0.003382661564999035,-0.023330473146428877,0.09715228999426605,24.06297849342227,-100.26678939585686,76.200527287817
2024-09-23 11:57:29.176806,41.52,18.895275,-0.003382661564999035,-0.023330473146428877,0.09715228999426605,24.06297849342227,-100.26678939585686,76.200527287817
2024-09-23 11:57:29.209961,41.52,18.895275,-0.0028354659767690416,-0.023230986250042305,0.09715228999426605,24.06297849342227,-100.26678939585686,76.200527287817
2024-09-23 11:57:29.221598,41.52,18.895275,-0.0028354659767690416,-0.023230986250042305,0.09710254654607277,40.106058693909645,-104.27510100388527,76.200527287817
2024-09-23 11:57:29.263812,41.52,18.895327,-0.0034324103296106863,-0.023230986250042305,0.09710254654607277,40.106058693909645,-104.27510100388527,76.200527287817
2024-09-23 11:57:29.306268,41.52,18.895327,-0.0034324103296106863,-0.02338022115155219,0.09710254654607277,40.106058693909645,-104.27510100388527,76.200527287817
2024-09-23 11:57:29.318909,41.52,18.895377,-0.0034324103296106863,-0.02338022115155219,0.0966050877605131,48.12595698684454,-96.25519929585457,80.21211738781929
2024-09-23 11:57:29.362596,41.52,18.895377,-0.0031836870127375577,-0.023429960042815445,0.0973015264147526,36.09446859390736,-96.25519929585457,76.200527287817
2024-09-23 11:57:29.405396,41.52,18.895428,-0.003382661564999035,-0.0228827638849692,0.0973015264147526,36.09446859390736,-96.25519929585457,76.200527287817
2024-09-23 11:57:29.416527,41.52,18.895428,-0.003382661564999035,-0.0228827638849692,0.09690356060148622,36.09446859390736,-96.25519929585457,76.200527287817
2024-09-23 11:57:29.459197,41.52,18.895479,-0.0030344509719951677,-0.022982261414192504,0.09764974270391902,44.11764879391193,-96.25519929585457,84.22370748782159
2024-09-23 11:57:29.501744,41.52,18.895479,-0.0030344509719951677,-0.022982261414192504,0.09764974270391902,44.11764879391193,-100.26678939585686,76.200527287817
2024-09-23 11:57:29.513654,41.52,18.895529,-0.003482159473966507,-0.02338022115155219,0.09685382322919964,44.11764879391193,-100.26678939585686,76.200527287817
2024-09-23 11:57:29.555858,41.52,18.895619,-0.0037308827908396356,-0.02338022115155219,0.09685382322919964,40.106058693909645,-100.26678939585686,76.200527287817
2024-09-23 11:57:29.568167,41.52,18.895619,-0.0037308827908396356,-0.023827930413011865,0.09685382322919964,40.106058693909645,-100.26678939585686,76.200527287817
2024-09-23 11:57:29.600622,41.52,18.895619,-0.0037308827908396356,-0.023827930413011865,0.09725178296655933,32.08287849390507,-100.26678939585686,76.200527287817
2024-09-23 11:57:29.654210,41.52,18.895669,-0.0037308827908396356,-0.023280723622328886,0.09725178296655933,32.08287849390507,-100.26678939585686,76.200527287817
2024-09-23 11:57:29.665801,41.52,18.895669,-0.0037308827908396356,-0.023280723622328886,0.09725178296655933,32.08287849390507,-100.26678939585686,76.200527287817
2024-09-23 11:57:29.698478,41.52,18.895763,-0.0037308827908396356,-0.023280723622328886,0.09725178296655933,32.08287849390507,-96.25519929585457,76.200527287817
2024-09-23 11:57:29.750716,41.52,18.895763,-0.003382661564999035,-0.023579196463302005,0.09740101331113918,36.09446859390736,-96.25519929585457,76.200527287817
2024-09-23 11:57:29.762433,41.52,18.895763,-0.003382661564999035,-0.023579196463302005,0.09740101331113918,36.09446859390736,-100.26678939585686,80.21211738781929
2024-09-23 11:57:29.794897,41.52,18.895814,-0.0033329230534799477,-0.023579196463302005,0.09740101331113918,36.09446859390736,-100.26678939585686,80.21211738781929
2024-09-23 11:57:29.806460,41.52,18.895814,-0.0033329230534799477,-0.023230986250042305,0.09690356060148622,36.09446859390736,-96.25519929585457,80.21211738781929
2024-09-23 11:57:29.850066,41.52,18.895865,-0.0030841997366068195,-0.023728432883788564,0.09750050628343246,40.106058693909645,-96.25519929585457,76.200527287817
2024-09-23 11:57:29.892161,41.52,18.895865,-0.0030841997366068195,-0.023728432883788564,0.09750050628343246,40.106058693909645,-96.25519929585457,80.21211738781929
2024-09-23 11:57:29.904051,41.52,18.895916,-0.0033329230534799477,-0.02338022115155219,0.09695331012558621,40.106058693909645,-96.25519929585457,80.21211738781929
2024-09-23 11:57:29.947540,41.61,18.896007,-0.0031339382481259063,-0.023728432883788564,0.09695331012558621,28.07457030097246,-100.26678939585686,80.21211738781929
2024-09-23 11:57:29.990452,41.61,18.896007,-0.0031339382481259063,-0.023728432883788564,0.09635636444363997,44.11764879391193,-96.25519929585457,80.21211738781929
2024-09-23 11:57:30.001985,41.61,18.896058,-0.0031339382481259063,-0.023728432883788564,0.09635636444363997,44.11764879391193,-96.25519929585457,80.21211738781929
2024-09-23 11:57:30.043999,41.61,18.896058,-0.0033329230534799477,-0.02338022115155219,0.09750050628343246,36.09446859390736,-96.25519929585457,80.21211738781929
2024-09-23 11:57:30.056258,41.61,18.896058,-0.0033329230534799477,-0.02338022115155219,0.09750050628343246,36.09446859390736,-96.25519929585457,80.21211738781929
2024-09-23 11:57:30.088608,41.61,18.896153,-0.003382661564999035,-0.023429960042815445,0.09750050628343246,36.09446859390736,-96.25519929585457,80.21211738781929
2024-09-23 11:57:30.100310,41.61,18.896153,-0.003382661564999035,-0.023429960042815445,0.0970030596496862,40.106058693909645,-92.24360919585227,80.21211738781929
2024-09-23 11:57:30.142415,41.61,18.896204,-0.0029349636958644295,-0.0228827638849692,0.09755024973162574,36.09446859390736,-92.24360919585227,80.21211738781929
2024-09-23 11:57:30.236330,41.61,18.896255,-0.0029349636958644295,-0.0228827638849692,0.09755024973162574,36.09446859390736,-92.24360919585227,84.22370748782159
2024-09-23 11:57:30.247811,41.61,18.896255,-0.0033329230534799477,-0.023230986250042305,0.09720203344245934,36.09446859390736,-92.24360919585227,84.22370748782159
2024-09-23 11:57:30.280153,41.61,18.896255,-0.0033329230534799477,-0.023230986250042305,0.09720203344245934,36.09446859390736,-92.24360919585227,84.22370748782159
2024-09-23 11:57:30.292162,41.61,18.896306,-0.003382661564999035,-0.023280723622328886,0.09720203344245934,36.09446859390736,-104.27510100388527,80.21211738781929
2024-09-23 11:57:30.334680,41.61,18.896306,-0.003382661564999035,-0.023280723622328886,0.09759999317981902,36.09446859390736,-100.26678939585686,76.200527287817
2024-09-23 11:57:30.346506,41.61,18.896356,-0.003482159473966507,-0.023280723622328886,0.09759999317981902,36.09446859390736,-100.26678939585686,76.200527287817
2024-09-23 11:57:30.378604,41.61,18.896356,-0.003482159473966507,-0.02338022115155219,0.09759999317981902,36.09446859390736,-100.26678939585686,76.200527287817
2024-09-23 11:57:30.390009,41.61,18.896445,-0.003482159473966507,-0.02338022115155219,0.0973512698629459,36.09446859390736,-96.25519929585457,84.22370748782159
2024-09-23 11:57:30.432974,41.61,18.896445,-0.0031339382481259063,-0.023181236725942318,0.09670458680871308,36.09446859390736,-96.25519929585457,84.22370748782159
2024-09-23 11:57:30.445009,41.61,18.896445,-0.0031339382481259063,-0.023181236725942318,0.09670458680871308,36.09446859390736,-96.25519929585457,80.21211738781929
2024-09-23 11:57:30.478366,41.61,18.896543,-0.0035318979854855937,-0.02362894446842532,0.09670458680871308,36.09446859390736,-96.25519929585457,80.21211738781929
2024-09-23 11:57:30.490216,41.61,18.896543,-0.0035318979854855937,-0.02362894446842532,0.09670458680871308,32.08287849390507,-96.25519929585457,80.21211738781929
2024-09-23 11:57:30.532934,41.61,18.896595,-0.003233425524256645,-0.02308174982955575,0.09715228999426605,40.106058693909645,-96.25519929585457,80.21211738781929
2024-09-23 11:57:30.575624,41.61,18.896645,-0.003233425524256645,-0.02308174982955575,0.09715228999426605,40.106058693909645,-100.26678939585686,84.22370748782159
2024-09-23 11:57:30.586892,41.61,18.896645,-0.0033329230534799477,-0.02338022115155219,0.09665483728461309,40.106058693909645,-100.26678939585686,84.22370748782159
2024-09-23 11:57:30.630249,41.61,18.896696,-0.0031836870127375577,-0.023579196463302005,0.09665483728461309,32.08287849390507,-100.26678939585686,80.21211738781929
2024-09-23 11:57:30.672917,41.61,18.896696,-0.0031836870127375577,-0.023579196463302005,0.09705279702197278,28.07457030097246,-104.27510100388527,80.21211738781929
2024-09-23 11:57:30.684380,41.61,18.896747,-0.003233425524256645,-0.023579196463302005,0.09705279702197278,28.07457030097246,-104.27510100388527,80.21211738781929
2024-09-23 11:57:30.726654,41.61,18.896835,-0.003233425524256645,-0.023181236725942318,0.09710254654607277,36.09446859390736,-100.26678939585686,76.200527287817
2024-09-23 11:57:30.770619,41.61,18.896835,-0.0029349636958644295,-0.023479709566915436,0.09710254654607277,36.09446859390736,-100.26678939585686,76.200527287817
2024-09-23 11:57:30.782069,41.61,18.896835,-0.0029349636958644295,-0.023479709566915436,0.09745075675933246,32.08287849390507,-92.24360919585227,76.200527287817
2024-09-23 11:57:30.824173,41.61,18.896887,-0.0034324103296106863,-0.023579196463302005,0.09720203344245934,36.09446859390736,-88.23529758782387,76.200527287817
2024-09-23 11:57:30.918052,41.61,18.896887,-0.0034324103296106863,-0.023579196463302005,0.09720203344245934,36.09446859390736,-88.23529758782387,88.23529758782387
2024-09-23 11:57:30.972347,41.38,18.896938,-0.0035816467500972456,-0.023230986250042305,0.09665483728461309,40.106058693909645,-88.23529758782387,88.23529758782387
2024-09-23 11:57:30.984435,41.38,18.896938,-0.0035816467500972456,-0.023230986250042305,0.09665483728461309,40.106058693909645,-96.25519929585457,88.23529758782387
2024-09-23 11:57:31.017452,41.38,18.896988,-0.0035318979854855937,-0.023230986250042305,0.09665483728461309,40.106058693909645,-96.25519929585457,84.22370748782159
2024-09-23 11:57:31.028681,41.38,18.896988,-0.0035318979854855937,-0.02338022115155219,0.0970030596496862,36.09446859390736,-96.25519929585457,84.22370748782159
2024-09-23 11:57:31.061072,41.38,18.896988,-0.0035318979854855937,-0.02338022115155219,0.0970030596496862,36.09446859390736,-96.25519929585457,84.22370748782159
2024-09-23 11:57:31.072279,41.38,18.897039,-0.003482159473966507,-0.023429960042815445,0.09715228999426605,36.09446859390736,-96.25519929585457,80.21211738781929
2024-09-23 11:57:31.115104,41.38,18.89709,-0.0032831742888682963,-0.023429960042815445,0.09715228999426605,32.08287849390507,-100.26678939585686,84.22370748782159
2024-09-23 11:57:31.126769,41.38,18.89709,-0.0032831742888682963,-0.02362894446842532,0.09715228999426605,32.08287849390507,-100.26678939585686,84.22370748782159
2024-09-23 11:57:31.159569,41.38,18.89709,-0.0032831742888682963,-0.02362894446842532,0.0973015264147526,32.08287849390507,-100.26678939585686,84.22370748782159
2024-09-23 11:57:31.171251,41.38,18.897177,-0.003233425524256645,-0.02362894446842532,0.0973015264147526,36.09446859390736,-100.26678939585686,76.200527287817
2024-09-23 11:57:31.254794,41.38,18.897177,-0.003233425524256645,-0.02338022115155219,0.0973015264147526,36.09446859390736,-100.26678939585686,76.200527287817
2024-09-23 11:57:31.266042,41.38,18.897323,-0.003233425524256645,-0.02338022115155219,0.09750050628343246,36.09446859390736,-96.25519929585457,80.21211738781929
2024-09-23 11:57:31.309051,41.38,18.897323,-0.003482159473966507,-0.023479709566915436,0.09680407370509965,32.08287849390507,-96.25519929585457,80.21211738781929
2024-09-23 11:57:31.320778,41.38,18.897323,-0.003482159473966507,-0.023479709566915436,0.09680407370509965,32.08287849390507,-96.25519929585457,72.1922225099802
2024-09-23 11:57:31.353788,41.38,18.897374,-0.003482159473966507,-0.023479709566915436,0.09680407370509965,32.08287849390507,-96.25519929585457,72.1922225099802
2024-09-23 11:57:31.365596,41.38,18.897374,-0.003482159473966507,-0.02367869399252531,0.09755024973162574,36.09446859390736,-100.26678939585686,72.1922225099802
2024-09-23 11:57:31.407712,41.38,18.897425,-0.0032831742888682963,-0.0228827638849692,0.09690356060148622,36.09446859390736,-100.26678939585686,80.21211738781929
2024-09-23 11:57:31.419671,41.38,18.897425,-0.0032831742888682963,-0.0228827638849692,0.09690356060148622,32.08287849390507,-100.26678939585686,80.21211738781929
2024-09-23 11:57:31.452080,41.38,18.897425,-0.0032831742888682963,-0.0228827638849692,0.09690356060148622,32.08287849390507,-92.24360919585227,76.200527287817
2024-09-23 11:57:31.463206,41.38,18.897476,-0.002785727465249955,-0.023429960042815445,0.09745075675933246,32.08287849390507,-92.24360919585227,76.200527287817
2024-09-23 11:57:31.505651,41.38,18.897569,-0.002785727465249955,-0.023429960042815445,0.09745075675933246,40.106058693909645,-92.24360919585227,88.23529758782387
2024-09-23 11:57:31.517883,41.38,18.897569,-0.002785727465249955,-0.023827930413011865,0.09745075675933246,40.106058693909645,-92.24360919585227,88.23529758782387
2024-09-23 11:57:31.550616,41.38,18.897569,-0.002785727465249955,-0.023827930413011865,0.098047696365372,32.08287849390507,-92.24360919585227,88.23529758782387
2024-09-23 11:57:31.561578,41.38,18.897619,-0.0029349636958644295,-0.023827930413011865,0.098047696365372,32.08287849390507,-96.25519929585457,80.21211738781929
2024-09-23 11:57:31.603877,41.38,18.897713,-0.0029349636958644295,-0.023330473146428877,0.09745075675933246,44.11764879391193,-104.27510100388527,80.21211738781929
2024-09-23 11:57:31.646288,41.38,18.897713,-0.0036811340262279837,-0.023181236725942318,0.09745075675933246,44.11764879391193,-104.27510100388527,80.21211738781929
2024-09-23 11:57:31.657984,41.38,18.897713,-0.0036811340262279837,-0.023181236725942318,0.09705279702197278,32.08287849390507,-92.24360919585227,76.200527287817
2024-09-23 11:57:31.701313,41.38,18.897764,-0.0031836870127375577,-0.023230986250042305,0.0966050877605131,40.106058693909645,-92.24360919585227,76.200527287817
2024-09-23 11:57:31.744376,41.38,18.897815,-0.0031836870127375577,-0.023230986250042305,0.0966050877605131,40.106058693909645,-92.24360919585227,76.200527287817
2024-09-23 11:57:31.755808,41.38,18.897815,-0.003233425524256645,-0.023479709566915436,0.09630662707135339,32.08287849390507,-92.24360919585227,76.200527287817
2024-09-23 11:57:31.798540,41.38,18.897866,-0.0031339382481259063,-0.023181236725942318,0.09630662707135339,32.08287849390507,-104.27510100388527,76.200527287817
2024-09-23 11:57:31.810318,41.38,18.897866,-0.0031339382481259063,-0.023181236725942318,0.09680407370509965,32.08287849390507,-104.27510100388527,76.200527287817
2024-09-23 11:57:31.842133,41.38,18.897866,-0.0031339382481259063,-0.023181236725942318,0.09680407370509965,36.09446859390736,-104.27510100388527,76.200527287817
2024-09-23 11:57:31.853675,41.38,18.897916,-0.002586742470023829,-0.023827930413011865,0.09680407370509965,36.09446859390736,-100.26678939585686,84.22370748782159
2024-09-23 11:57:31.895321,41.38,18.897916,-0.002586742470023829,-0.023827930413011865,0.09690356060148622,48.12595698684454,-92.24360919585227,84.22370748782159
2024-09-23 11:57:31.907312,41.38,18.897967,-0.0030841997366068195,-0.023827930413011865,0.09690356060148622,48.12595698684454,-92.24360919585227,84.22370748782159
2024-09-23 11:57:31.939665,41.38,18.897967,-0.0030841997366068195,-0.02278327698858263,0.09750050628343246,48.12595698684454,-92.24360919585227,84.22370748782159
2024-09-23 11:57:31.950782,41.38,18.898054,-0.0030841997366068195,-0.02278327698858263,0.09750050628343246,48.12595698684454,-92.24360919585227,80.21211738781929
2024-09-23 11:57:31.992906,41.61,18.898054,-0.0032831742888682963,-0.02352945757203875,0.0973015264147526,36.09446859390736,-96.25519929585457,80.21211738781929
2024-09-23 11:57:32.004596,41.61,18.898054,-0.0032831742888682963,-0.02352945757203875,0.0973015264147526,36.09446859390736,-96.25519929585457,80.21211738781929
2024-09-23 11:57:32.036648,41.61,18.898106,-0.0034324103296106863,-0.02352945757203875,0.0973015264147526,36.09446859390736,-96.25519929585457,80.21211738781929
2024-09-23 11:57:32.047553,41.61,18.898106,-0.0034324103296106863,-0.023230986250042305,0.09745075675933246,36.09446859390736,-100.26678939585686,80.21211738781929
2024-09-23 11:57:32.090229,41.61,18.898156,-0.0037308827908396356,-0.023230986250042305,0.09685382322919964,36.09446859390736,-100.26678939585686,80.21211738781929
2024-09-23 11:57:32.101944,41.61,18.898156,-0.0037308827908396356,-0.023230986250042305,0.09685382322919964,36.09446859390736,-100.26678939585686,80.21211738781929
2024-09-23 11:57:32.134625,41.61,18.898156,-0.0037308827908396356,-0.023230986250042305,0.09685382322919964,36.09446859390736,-96.25519929585457,80.21211738781929
2024-09-23 11:57:32.146002,41.61,18.898207,-0.003482159473966507,-0.02362894446842532,0.0973512698629459,36.09446859390736,-96.25519929585457,80.21211738781929
2024-09-23 11:57:32.188672,41.61,18.898258,-0.003631395514708897,-0.02362894446842532,0.0973512698629459,44.11764879391193,-100.26678939585686,80.21211738781929
2024-09-23 11:57:32.200567,41.61,18.898258,-0.003631395514708897,-0.022982261414192504,0.0973512698629459,44.11764879391193,-100.26678939585686,80.21211738781929
2024-09-23 11:57:32.233790,41.61,18.898258,-0.003631395514708897,-0.022982261414192504,0.09710254654607277,44.11764879391193,-96.25519929585457,80.21211738781929
2024-09-23 11:57:32.245054,41.61,18.898309,-0.003382661564999035,-0.022982261414192504,0.09710254654607277,44.11764879391193,-96.25519929585457,76.200527287817
2024-09-23 11:57:32.288285,41.61,18.898395,-0.003382661564999035,-0.023230986250042305,0.09725178296655933,32.08287849390507,-96.25519929585457,80.21211738781929
2024-09-23 11:57:32.330474,41.61,18.898395,-0.003780631555451287,-0.023579196463302005,0.0970030596496862,32.08287849390507,-96.25519929585457,80.21211738781929
2024-09-23 11:57:32.341587,41.61,18.898395,-0.003780631555451287,-0.023579196463302005,0.0970030596496862,32.08287849390507,-104.27510100388527,76.200527287817
2024-09-23 11:57:32.383549,41.61,18.898447,-0.003482159473966507,-0.024026904205785005,0.09665483728461309,36.09446859390736,-104.27510100388527,76.200527287817
2024-09-23 11:57:32.395673,41.61,18.898447,-0.003482159473966507,-0.024026904205785005,0.09665483728461309,36.09446859390736,-96.25519929585457,76.200527287817
2024-09-23 11:57:32.428538,41.61,18.898497,-0.0030841997366068195,-0.024026904205785005,0.09665483728461309,36.09446859390736,-96.25519929585457,80.21211738781929
2024-09-23 11:57:32.440131,41.61,18.898497,-0.0030841997366068195,-0.02308174982955575,0.09680407370509965,36.09446859390736,-96.25519929585457,80.21211738781929
2024-09-23 11:57:32.483224,41.61,18.898548,-0.003929857343101113,-0.024076653729884996,0.0970030596496862,36.09446859390736,-104.27510100388527,80.21211738781929
2024-09-23 11:57:32.526118,41.61,18.898548,-0.003929857343101113,-0.024076653729884996,0.0970030596496862,20.05138839341998,-100.26678939585686,84.22370748782159
2024-09-23 11:57:32.537862,41.61,18.898599,-0.003233425524256645,-0.023579196463302005,0.0970030596496862,20.05138839341998,-100.26678939585686,84.22370748782159
2024-09-23 11:57:32.581192,41.61,18.898649,-0.0033329230534799477,-0.023579196463302005,0.09685382322919964,32.08287849390507,-92.24360919585227,84.22370748782159
2024-09-23 11:57:32.624611,41.61,18.898649,-0.0033329230534799477,-0.023280723622328886,0.09720203344245934,40.106058693909645,-92.24360919585227,84.22370748782159
2024-09-23 11:57:32.635926,41.61,18.898736,-0.0033329230534799477,-0.023280723622328886,0.09720203344245934,40.106058693909645,-96.25519929585457,80.21211738781929
2024-09-23 11:57:32.668313,41.61,18.898736,-0.0031339382481259063,-0.023280723622328886,0.09720203344245934,40.106058693909645,-96.25519929585457,80.21211738781929
2024-09-23 11:57:32.680368,41.61,18.898736,-0.0031339382481259063,-0.022982261414192504,0.09720203344245934,40.106058693909645,-96.25519929585457,80.21211738781929
2024-09-23 11:57:32.722931,41.61,18.898736,-0.0031339382481259063,-0.022982261414192504,0.09650560086412653,36.09446859390736,-100.26678939585686,80.21211738781929
2024-09-23 11:57:32.775623,41.61,18.898788,-0.003233425524256645,-0.023827930413011865,0.09725178296655933,44.11764879391193,-100.26678939585686,80.21211738781929
2024-09-23 11:57:32.818878,41.61,18.898839,-0.003233425524256645,-0.023827930413011865,0.09725178296655933,44.11764879391193,-100.26678939585686,76.200527287817
2024-09-23 11:57:32.830097,41.61,18.898839,-0.0031836870127375577,-0.02338022115155219,0.09655535038822652,44.11764879391193,-100.26678939585686,76.200527287817
2024-09-23 11:57:32.913748,41.61,18.898839,-0.0031836870127375577,-0.02338022115155219,0.09655535038822652,44.11764879391193,-100.26678939585686,76.200527287817
2024-09-23 11:57:32.929945,41.61,18.898889,-0.0029847020175114316,-0.023280723622328886,0.09655535038822652,44.11764879391193,-100.26678939585686,72.1922225099802
2024-09-23 11:57:32.962350,41.61,18.898889,-0.0029847020175114316,-0.023280723622328886,0.09764974270391902,44.11764879391193,-100.26678939585686,72.1922225099802
2024-09-23 11:57:32.973645,41.61,18.89894,-0.002785727465249955,-0.023280723622328886,0.09764974270391902,36.09446859390736,-92.24360919585227,76.200527287817
2024-09-23 11:57:33.015776,41.13,18.89894,-0.002785727465249955,-0.02313149783467906,0.09655535038822652,32.08287849390507,-100.26678939585686,76.200527287817
2024-09-23 11:57:33.027785,41.13,18.899031,-0.002785727465249955,-0.02313149783467906,0.09655535038822652,32.08287849390507,-100.26678939585686,88.23529758782387
2024-09-23 11:57:33.059916,41.13,18.899031,-0.003233425524256645,-0.02313149783467906,0.09655535038822652,32.08287849390507,-100.26678939585686,88.23529758782387
2024-09-23 11:57:33.071985,41.13,18.899031,-0.003233425524256645,-0.023429960042815445,0.0973015264147526,32.08287849390507,-92.24360919585227,76.200527287817
2024-09-23 11:57:33.115118,41.13,18.899127,-0.0030841997366068195,-0.024225890150371555,0.09675432418099966,40.106058693909645,-100.26678939585686,76.200527287817
2024-09-23 11:57:33.158487,41.13,18.899225,-0.0030841997366068195,-0.024225890150371555,0.09675432418099966,40.106058693909645,-100.26678939585686,76.200527287817
2024-09-23 11:57:33.170666,41.13,18.899225,-0.003482159473966507,-0.023429960042815445,0.0970030596496862,40.106058693909645,-100.26678939585686,76.200527287817
2024-09-23 11:57:33.213891,41.13,18.899276,-0.0034324103296106863,-0.023230986250042305,0.09680407370509965,40.106058693909645,-96.25519929585457,80.21211738781929
2024-09-23 11:57:33.257401,41.13,18.899276,-0.0034324103296106863,-0.023230986250042305,0.09680407370509965,40.106058693909645,-104.27510100388527,68.18063240997792
2024-09-23 11:57:33.268572,41.13,18.899327,-0.003382661564999035,-0.023579196463302005,0.09680407370509965,40.106058693909645,-104.27510100388527,68.18063240997792
2024-09-23 11:57:33.311644,41.13,18.899378,-0.0029847020175114316,-0.023579196463302005,0.09745075675933246,36.09446859390736,-100.26678939585686,76.200527287817
2024-09-23 11:57:33.354808,41.13,18.899378,-0.0029847020175114316,-0.02303200030545576,0.09720203344245934,36.09446859390736,-100.26678939585686,76.200527287817
2024-09-23 11:57:33.366393,41.13,18.899468,-0.0029847020175114316,-0.02303200030545576,0.09720203344245934,36.09446859390736,-92.24360919585227,84.22370748782159
2024-09-23 11:57:33.409104,41.13,18.899468,-0.0030841997366068195,-0.023181236725942318,0.0973015264147526,36.09446859390736,-104.27510100388527,68.18063240997792
2024-09-23 11:57:33.452299,41.13,18.899519,-0.002785727465249955,-0.023181236725942318,0.0973015264147526,36.09446859390736,-104.27510100388527,68.18063240997792
2024-09-23 11:57:33.464074,41.13,18.899519,-0.002785727465249955,-0.023181236725942318,0.09665483728461309,24.06297849342227,-108.28669110388756,68.18063240997792
2024-09-23 11:57:33.506609,41.13,18.89957,-0.0033329230534799477,-0.02352945757203875,0.09705279702197278,36.09446859390736,-108.28669110388756,72.1922225099802
2024-09-23 11:57:33.548277,41.13,18.89957,-0.0033329230534799477,-0.02352945757203875,0.09705279702197278,36.09446859390736,-108.28669110388756,84.22370748782159
2024-09-23 11:57:33.559808,41.13,18.899621,-0.0034324103296106863,-0.02338022115155219,0.09740101331113918,36.09446859390736,-108.28669110388756,84.22370748782159
2024-09-23 11:57:33.602818,41.13,18.899671,-0.0032831742888682963,-0.023827930413011865,0.09740101331113918,44.11764879391193,-100.26678939585686,76.200527287817
2024-09-23 11:57:33.645712,41.13,18.899671,-0.0032831742888682963,-0.023827930413011865,0.09705279702197278,32.08287849390507,-100.26678939585686,76.200527287817
2024-09-23 11:57:33.657221,41.13,18.899722,-0.0029847020175114316,-0.023827930413011865,0.09705279702197278,32.08287849390507,-100.26678939585686,80.21211738781929
2024-09-23 11:57:33.700431,41.13,18.899722,-0.0029847020175114316,-0.023579196463302005,0.09705279702197278,32.08287849390507,-100.26678939585686,80.21211738781929
2024-09-23 11:57:33.743748,41.13,18.899722,-0.0029847020175114316,-0.023579196463302005,0.09740101331113918,44.11764879391193,-100.26678939585686,80.21211738781929
2024-09-23 11:57:33.755203,41.13,18.899809,-0.0029847020175114316,-0.023579196463302005,0.09740101331113918,44.11764879391193,-88.23529758782387,84.22370748782159
2024-09-23 11:57:33.798122,41.13,18.899809,-0.0029349636958644295,-0.023230986250042305,0.09710254654607277,36.09446859390736,-92.24360919585227,84.22370748782159
2024-09-23 11:57:33.809983,41.13,18.899809,-0.0029349636958644295,-0.023230986250042305,0.09710254654607277,36.09446859390736,-92.24360919585227,88.23529758782387
2024-09-23 11:57:33.842255,41.13,18.899861,-0.002785727465249955,-0.023429960042815445,0.09710254654607277,36.09446859390736,-92.24360919585227,88.23529758782387
2024-09-23 11:57:33.853965,41.13,18.899861,-0.002785727465249955,-0.023429960042815445,0.09715228999426605,32.08287849390507,-88.23529758782387,88.23529758782387
2024-09-23 11:57:33.896472,41.13,18.899911,-0.003631395514708897,-0.023330473146428877,0.09745075675933246,32.08287849390507,-88.23529758782387,84.22370748782159
2024-09-23 11:57:33.939213,41.13,18.899962,-0.003631395514708897,-0.023330473146428877,0.09745075675933246,32.08287849390507,-96.25519929585457,76.200527287817
2024-09-23 11:57:33.951145,41.13,18.899962,-0.0038303700669703737,-0.02338022115155219,0.09705279702197278,32.08287849390507,-96.25519929585457,76.200527287817
2024-09-23 11:57:33.993619,41.13,18.900054,-0.0034324103296106863,-0.02362894446842532,0.09705279702197278,36.09446859390736,-92.24360919585227,80.21211738781929
2024-09-23 11:57:34.036769,41.31,18.900054,-0.0034324103296106863,-0.02362894446842532,0.09814718933766527,36.09446859390736,-96.25519929585457,80.21211738781929
2024-09-23 11:57:34.047972,41.31,18.900105,-0.0031836870127375577,-0.02362894446842532,0.09814718933766527,36.09446859390736,-96.25519929585457,84.22370748782159
2024-09-23 11:57:34.090489,41.31,18.900199,-0.0031836870127375577,-0.02338022115155219,0.09675432418099966,32.08287849390507,-96.25519929585457,76.200527287817
2024-09-23 11:57:34.184529,41.31,18.900199,-0.0030344509719951677,-0.023330473146428877,0.09695331012558621,32.08287849390507,-96.25519929585457,76.200527287817
2024-09-23 11:57:34.196228,41.31,18.900199,-0.0030344509719951677,-0.023330473146428877,0.09695331012558621,32.08287849390507,-92.24360919585227,84.22370748782159
2024-09-23 11:57:34.228581,41.31,18.900251,-0.0030344509719951677,-0.023330473146428877,0.09695331012558621,32.08287849390507,-92.24360919585227,84.22370748782159
2024-09-23 11:57:34.240010,41.31,18.900251,-0.003233425524256645,-0.023280723622328886,0.0973015264147526,40.106058693909645,-96.25519929585457,84.22370748782159
2024-09-23 11:57:34.283799,41.31,18.900301,-0.0031339382481259063,-0.023230986250042305,0.0973015264147526,40.106058693909645,-96.25519929585457,84.22370748782159
2024-09-23 11:57:34.294963,41.31,18.900301,-0.0031339382481259063,-0.023230986250042305,0.09759999317981902,44.11764879391193,-96.25519929585457,84.22370748782159
2024-09-23 11:57:34.327304,41.31,18.900301,-0.0031339382481259063,-0.023230986250042305,0.09759999317981902,44.11764879391193,-96.25519929585457,84.22370748782159
2024-09-23 11:57:34.379691,41.31,18.900352,-0.003631395514708897,-0.023579196463302005,0.0970030596496862,44.11764879391193,-96.25519929585457,84.22370748782159
2024-09-23 11:57:34.391063,41.31,18.900352,-0.003631395514708897,-0.023579196463302005,0.0970030596496862,40.106058693909645,-96.25519929585457,84.22370748782159
2024-09-23 11:57:34.433924,41.31,18.900403,-0.0029349636958644295,-0.02313149783467906,0.09695331012558621,40.106058693909645,-96.25519929585457,80.21211738781929
2024-09-23 11:57:34.476296,41.31,18.900494,-0.0029349636958644295,-0.02313149783467906,0.09695331012558621,40.106058693909645,-96.25519929585457,80.21211738781929
2024-09-23 11:57:34.487736,41.31,18.900494,-0.0036811340262279837,-0.023280723622328886,0.0973015264147526,40.106058693909645,-96.25519929585457,80.21211738781929
2024-09-23 11:57:34.530740,41.31,18.900589,-0.0029349636958644295,-0.02352945757203875,0.0973015264147526,40.106058693909645,-96.25519929585457,76.200527287817
2024-09-23 11:57:34.573289,41.31,18.900589,-0.0029349636958644295,-0.02352945757203875,0.0973015264147526,24.06297849342227,-100.26678939585686,76.200527287817
2024-09-23 11:57:34.585218,41.31,18.90064,-0.0035318979854855937,-0.02352945757203875,0.0973015264147526,24.06297849342227,-100.26678939585686,84.22370748782159
2024-09-23 11:57:34.628033,41.31,18.900735,-0.0035318979854855937,-0.02338022115155219,0.0973512698629459,44.11764879391193,-96.25519929585457,80.21211738781929
2024-09-23 11:57:34.671095,41.31,18.900735,-0.0031339382481259063,-0.02338022115155219,0.0973015264147526,44.11764879391193,-96.25519929585457,80.21211738781929
2024-09-23 11:57:34.682709,41.31,18.900735,-0.0031339382481259063,-0.02338022115155219,0.0973015264147526,32.08287849390507,-96.25519929585457,84.22370748782159
2024-09-23 11:57:34.766734,41.31,18.900787,-0.0031339382481259063,-0.02338022115155219,0.0973015264147526,32.08287849390507,-96.25519929585457,84.22370748782159
2024-09-23 11:57:34.778129,41.31,18.900787,-0.0031339382481259063,-0.02313149783467906,0.0973015264147526,28.07457030097246,-100.26678939585686,84.22370748782159
2024-09-23 11:57:34.820285,41.31,18.900837,-0.0031339382481259063,-0.023230986250042305,0.0973015264147526,28.07457030097246,-100.26678939585686,84.22370748782159
2024-09-23 11:57:34.833045,41.31,18.900837,-0.0031339382481259063,-0.023230986250042305,0.09695331012558621,28.07457030097246,-100.26678939585686,84.22370748782159
2024-09-23 11:57:34.866021,41.31,18.900888,-0.0031339382481259063,-0.023230986250042305,0.09695331012558621,28.07457030097246,-104.27510100388527,84.22370748782159
2024-09-23 11:57:34.877831,41.31,18.900888,-0.0032831742888682963,-0.023429960042815445,0.09715228999426605,28.07457030097246,-104.27510100388527,84.22370748782159
2024-09-23 11:57:34.921184,41.31,18.900939,-0.0029847020175114316,-0.023181236725942318,0.09715228999426605,32.08287849390507,-104.27510100388527,80.21211738781929
2024-09-23 11:57:34.964345,41.31,18.900939,-0.0029847020175114316,-0.023181236725942318,0.09705279702197278,40.106058693909645,-104.27510100388527,76.200527287817
2024-09-23 11:57:34.975828,41.31,18.900989,-0.0035318979854855937,-0.023181236725942318,0.09705279702197278,40.106058693909645,-104.27510100388527,76.200527287817
2024-09-23 11:57:35.018333,41.31,18.901125,-0.0035318979854855937,-0.023429960042815445,0.09725178296655933,32.08287849390507,-100.26678939585686,80.21211738781929
2024-09-23 11:57:35.061037,41.02,18.901125,-0.0035318979854855937,-0.02338022115155219,0.09685382322919964,32.08287849390507,-100.26678939585686,80.21211738781929
2024-09-23 11:57:35.072540,41.02,18.901125,-0.0035318979854855937,-0.02338022115155219,0.09685382322919964,32.08287849390507,-108.28669110388756,76.200527287817
2024-09-23 11:57:35.115045,41.02,18.901177,-0.0036811340262279837,-0.023181236725942318,0.09764974270391902,40.106058693909645,-100.26678939585686,76.200527287817
2024-09-23 11:57:35.158018,41.02,18.901227,-0.0035318979854855937,-0.023181236725942318,0.09764974270391902,40.106058693909645,-100.26678939585686,72.1922225099802
2024-09-23 11:57:35.169888,41.02,18.901227,-0.0035318979854855937,-0.023181236725942318,0.0970030596496862,40.106058693909645,-100.26678939585686,72.1922225099802
2024-09-23 11:57:35.213084,41.02,18.901278,-0.0031339382481259063,-0.02352945757203875,0.09725178296655933,40.106058693909645,-100.26678939585686,76.200527287817
2024-09-23 11:57:35.256139,41.02,18.901278,-0.0031339382481259063,-0.02352945757203875,0.09725178296655933,32.08287849390507,-96.25519929585457,80.21211738781929
2024-09-23 11:57:35.267665,41.02,18.901329,-0.0027359787006383035,-0.02303200030545576,0.09725178296655933,32.08287849390507,-96.25519929585457,80.21211738781929
2024-09-23 11:57:35.310305,41.02,18.90138,-0.003631395514708897,-0.02303200030545576,0.09740101331113918,36.09446859390736,-100.26678939585686,80.21211738781929
2024-09-23 11:57:35.353676,41.02,18.90138,-0.003631395514708897,-0.023479709566915436,0.09710254654607277,36.09446859390736,-100.26678939585686,80.21211738781929
2024-09-23 11:57:35.406010,41.02,18.901467,-0.0030344509719951677,-0.023479709566915436,0.09710254654607277,40.106058693909645,-92.24360919585227,76.200527287817
2024-09-23 11:57:35.417927,41.02,18.901467,-0.0030344509719951677,-0.02338022115155219,0.09710254654607277,40.106058693909645,-92.24360919585227,76.200527287817
2024-09-23 11:57:35.503372,41.02,18.901518,-0.0030344509719951677,-0.02338022115155219,0.0970030596496862,36.09446859390736,-96.25519929585457,84.22370748782159
2024-09-23 11:57:35.515062,41.02,18.901518,-0.0030841997366068195,-0.02338022115155219,0.0970030596496862,36.09446859390736,-96.25519929585457,84.22370748782159
2024-09-23 11:57:35.546908,41.02,18.901518,-0.0030841997366068195,-0.023479709566915436,0.09725178296655933,36.09446859390736,-96.25519929585457,84.22370748782159
2024-09-23 11:57:35.559147,41.02,18.901569,-0.0030841997366068195,-0.023479709566915436,0.09725178296655933,32.08287849390507,-100.26678939585686,80.21211738781929
2024-09-23 11:57:35.602226,41.02,18.901569,-0.0030344509719951677,-0.023280723622328886,0.09720203344245934,32.08287849390507,-100.26678939585686,84.22370748782159
2024-09-23 11:57:35.644888,41.02,18.901619,-0.0035318979854855937,-0.023280723622328886,0.09720203344245934,32.08287849390507,-100.26678939585686,84.22370748782159
2024-09-23 11:57:35.656000,41.02,18.901619,-0.0035318979854855937,-0.023280723622328886,0.09695331012558621,44.11764879391193,-100.26678939585686,84.22370748782159
2024-09-23 11:57:35.700104,41.02,18.901711,-0.0035318979854855937,-0.02352945757203875,0.09645586349183995,36.09446859390736,-100.26678939585686,80.21211738781929
2024-09-23 11:57:35.741860,41.02,18.901711,-0.0035318979854855937,-0.02352945757203875,0.09645586349183995,36.09446859390736,-96.25519929585457,80.21211738781929
2024-09-23 11:57:35.753172,41.02,18.901809,-0.003631395514708897,-0.023230986250042305,0.09705279702197278,36.09446859390736,-96.25519929585457,80.21211738781929
2024-09-23 11:57:35.795266,41.02,18.90186,-0.003631395514708897,-0.023230986250042305,0.09705279702197278,44.11764879391193,-100.26678939585686,76.200527287817
2024-09-23 11:57:35.839189,41.02,18.90186,-0.0031836870127375577,-0.02367869399252531,0.09705279702197278,44.11764879391193,-100.26678939585686,76.200527287817
2024-09-23 11:57:35.850805,41.02,18.90186,-0.0031836870127375577,-0.02367869399252531,0.09755024973162574,36.09446859390736,-88.23529758782387,88.23529758782387
2024-09-23 11:57:35.893440,41.02,18.901911,-0.0031339382481259063,-0.023280723622328886,0.09720203344245934,32.08287849390507,-88.23529758782387,88.23529758782387
2024-09-23 11:57:35.905353,41.02,18.901911,-0.0031339382481259063,-0.023280723622328886,0.09720203344245934,32.08287849390507,-96.25519929585457,88.23529758782387
2024-09-23 11:57:35.939326,41.02,18.902003,-0.003631395514708897,-0.023280723622328886,0.09720203344245934,32.08287849390507,-96.25519929585457,80.21211738781929
2024-09-23 11:57:35.950655,41.02,18.902003,-0.003631395514708897,-0.023280723622328886,0.09665483728461309,32.08287849390507,-96.25519929585457,80.21211738781929
2024-09-23 11:57:35.994027,41.02,18.902054,-0.0026862297461545674,-0.023778180888911878,0.09690356060148622,32.08287849390507,-100.26678939585686,76.200527287817
2024-09-23 11:57:36.037069,41.02,18.902105,-0.0026862297461545674,-0.023778180888911878,0.09690356060148622,28.07457030097246,-100.26678939585686,76.200527287817
2024-09-23 11:57:36.048858,41.02,18.902105,-0.003780631555451287,-0.023330473146428877,0.09690356060148622,28.07457030097246,-100.26678939585686,76.200527287817
2024-09-23 11:57:36.080889,41.05,18.902105,-0.003780631555451287,-0.023330473146428877,0.09705279702197278,28.07457030097246,-100.26678939585686,76.200527287817
2024-09-23 11:57:36.092804,41.05,18.902156,-0.0033329230534799477,-0.023330473146428877,0.09705279702197278,32.08287849390507,-104.27510100388527,80.21211738781929
2024-09-23 11:57:36.135168,41.05,18.902156,-0.0033329230534799477,-0.023429960042815445,0.09720203344245934,36.09446859390736,-104.27510100388527,80.21211738781929
2024-09-23 11:57:36.146085,41.05,18.902247,-0.0033329230534799477,-0.023429960042815445,0.09720203344245934,36.09446859390736,-104.27510100388527,76.200527287817
2024-09-23 11:57:36.178634,41.05,18.902247,-0.0028852147413806935,-0.023429960042815445,0.09720203344245934,36.09446859390736,-104.27510100388527,76.200527287817
2024-09-23 11:57:36.189763,41.05,18.902247,-0.0028852147413806935,-0.023479709566915436,0.09745075675933246,32.08287849390507,-100.26678939585686,80.21211738781929
2024-09-23 11:57:36.232007,41.05,18.902298,-0.003233425524256645,-0.02338022115155219,0.09715228999426605,32.08287849390507,-100.26678939585686,80.21211738781929
2024-09-23 11:57:36.243665,41.05,18.902298,-0.003233425524256645,-0.02338022115155219,0.09715228999426605,32.08287849390507,-96.25519929585457,80.21211738781929
2024-09-23 11:57:36.275674,41.05,18.902298,-0.003233425524256645,-0.02338022115155219,0.09715228999426605,32.08287849390507,-96.25519929585457,80.21211738781929
2024-09-23 11:57:36.289921,41.05,18.902349,-0.0031836870127375577,-0.023330473146428877,0.09725178296655933,40.106058693909645,-96.25519929585457,80.21211738781929
2024-09-23 11:57:36.332691,41.05,18.902399,-0.003780631555451287,-0.023579196463302005,0.09705279702197278,40.106058693909645,-96.25519929585457,80.21211738781929
2024-09-23 11:57:36.375941,41.05,18.902399,-0.003780631555451287,-0.023579196463302005,0.09705279702197278,44.11764879391193,-104.27510100388527,80.21211738781929
2024-09-23 11:57:36.387528,41.05,18.90245,-0.0035816467500972456,-0.023429960042815445,0.09705279702197278,44.11764879391193,-104.27510100388527,80.21211738781929
2024-09-23 11:57:36.430370,41.05,18.902501,-0.0031836870127375577,-0.023429960042815445,0.09705279702197278,36.09446859390736,-96.25519929585457,80.21211738781929
2024-09-23 11:57:36.472548,41.05,18.902501,-0.0031836870127375577,-0.02367869399252531,0.09685382322919964,36.09446859390736,-96.25519929585457,80.21211738781929
2024-09-23 11:57:36.484254,41.05,18.902588,-0.0031836870127375577,-0.02367869399252531,0.09685382322919964,36.09446859390736,-96.25519929585457,76.200527287817
2024-09-23 11:57:36.527555,41.05,18.902588,-0.0028354659767690416,-0.022982261414192504,0.09705279702197278,32.08287849390507,-88.23529758782387,76.200527287817
