Ayaan's Suite
Timestamp,Sample Rate (Hz),Time,Ax,Ay,Az,Gx,Gy,Gz
2024-09-22 23:56:51.107737,0,1.233937,-0.015183792627064338,0.020610907938137694,1.012620041251304,0.35872900059493257,-1.0368247942864894,-1.491868061034009
2024-09-22 23:56:51.150957,0,1.234027,-0.015183792627064338,0.021830479121718566,1.0160958487445546,0.29306802074806765,-1.1068402347296475,-1.43932777255252
2024-09-22 23:56:51.193076,0,1.234027,-0.012805606793919833,0.017622936513202757,1.0144494238492787,0.29306802074806765,-1.1068402347296475,-1.43932777255252
2024-09-22 23:56:51.205225,0,1.234027,-0.012805606793919833,0.017622936513202757,1.0144494238492787,0.3018342781975865,-1.028115873093903,-1.3212411233771593
2024-09-22 23:56:51.247622,0,1.234079,-0.013476350438704184,0.017805912443621806,1.0165227176460165,0.3193667930966243,-1.0193495356030762,-1.3212411233771593
2024-09-22 23:56:51.290641,0,1.23413,-0.01219582044264106,0.017805912443621806,1.0165227176460165,0.3193667930966243,-1.0193495356030762,-1.3430708426568656
2024-09-22 23:56:51.301949,0,1.23413,-0.01219582044264106,0.020306014382754138,1.0150592504534395,0.3280757409696467,-1.0193495356030762,-1.3430708426568656
2024-09-22 23:56:51.344632,0,1.23418,-0.009451681989170117,0.021159735476934217,1.0143274196426437,0.3280757409696467,-0.9886962759777903,-1.483101830264926
2024-09-22 23:56:51.387385,0,1.23418,-0.009451681989170117,0.021159735476934217,1.0143274196426437,0.31060053564710544,-1.0762442846808582,-1.483101830264926
2024-09-22 23:56:51.399081,0,1.234231,-0.01341539238571027,0.02152558556633501,1.0143274196426437,0.31060053564710544,-1.0762442846808582,-1.5005769822265953
2024-09-22 23:56:51.441133,0,1.234282,-0.012866564846913748,0.02152558556633501,1.0170715907541132,0.29747979092085736,-1.0543573625463993,-1.43932777255252
2024-09-22 23:56:51.483948,0,1.234282,-0.012866564846913748,0.02189143717471248,1.0180472355491645,0.29747979092085736,-1.0543573625463993,-1.43932777255252
2024-09-22 23:56:51.495443,0,1.234368,-0.012866564846913748,0.02189143717471248,1.0180472355491645,0.40244569536997005,-1.1374934943549335,-1.3474826128296553
2024-09-22 23:56:51.537010,0,1.234368,-0.009207849017706122,0.02134260963591596,1.0157299333391567,0.29306802074806765,-1.1243154934130608,-1.3474826128296553
2024-09-22 23:56:51.548998,0,1.234368,-0.009207849017706122,0.02134260963591596,1.0157299333391567,0.29306802074806765,-1.1243154934130608,-1.5136977803137153
2024-09-22 23:56:51.581623,0,1.23442,-0.013232416455291218,0.02134260963591596,1.0157299333391567,0.29306802074806765,-1.1243154934130608,-1.5136977803137153
2024-09-22 23:56:51.592953,0,1.23442,-0.013232416455291218,0.017805912443621806,1.01542506864433,0.2668265312955715,-1.1330817241821438,-1.5136977803137153
2024-09-22 23:56:51.635234,0,1.234471,-0.014695923141261731,0.020366972435748053,1.015668979843093,0.2668265312955715,-1.1330817241821438,-1.496222521630302
2024-09-22 23:56:51.647338,0,1.234471,-0.014695923141261731,0.020366972435748053,1.015668979843093,0.39373674749694765,-1.1330817241821438,-1.496222521630302
2024-09-22 23:56:51.679185,0,1.234471,-0.014695923141261731,0.020366972435748053,1.015668979843093,0.39373674749694765,-1.0980740039605648,-1.504988752399385
2024-09-22 23:56:51.690677,0,1.234521,-0.014574005516297226,0.02067186599113161,1.015973941752427,0.39373674749694765,-1.0980740039605648,-1.504988752399385
2024-09-22 23:56:51.732736,0,1.234572,-0.014574005516297226,0.02067186599113161,1.015973941752427,0.4155664400962181,-1.0412365644592791,-1.4655692620050162
2024-09-22 23:56:51.744520,0,1.234572,-0.013537308491698099,0.02280611632188647,1.015973941752427,0.4155664400962181,-1.0412365644592791,-1.4655692620050162
2024-09-22 23:56:51.776579,0,1.234572,-0.013537308491698099,0.02280611632188647,1.0143883731387076,0.3149550229238346,-1.0412365644592791,-1.4655692620050162
2024-09-22 23:56:51.788254,0,1.234623,-0.012500713238536278,0.02280611632188647,1.0143883731387076,0.3149550229238346,-1.0499454856518655,-1.413086283100024
2024-09-22 23:56:51.832592,0,1.23471,-0.012500713238536278,0.01695219134944173,1.0121322188537785,0.3543172304221429,-1.1111946953259408,-1.474335492774099
2024-09-22 23:56:51.875591,0,1.23471,-0.009085831140280984,0.016891131525010507,1.016705578134208,0.3543172304221429,-1.1111946953259408,-1.474335492774099
2024-09-22 23:56:51.887214,0,1.23471,-0.009085831140280984,0.016891131525010507,1.016705578134208,0.3674952580444515,-0.936213403794542,-1.3474826128296553
2024-09-22 23:56:51.930049,0,1.234761,-0.015183792627064338,0.020732824044125523,1.0129859566567019,0.31060053564710544,-1.0455910250555724,-1.3474826128296553
2024-09-22 23:56:51.974022,0,1.234812,-0.014939857124674697,0.020732824044125523,1.0129859566567019,0.31060053564710544,-1.0455910250555724,-1.3737241022821516
2024-09-22 23:56:51.985318,0,1.234812,-0.014939857124674697,0.021830479121718566,1.0131078636488298,0.39373674749694765,-1.0455910250555724,-1.3737241022821516
2024-09-22 23:56:52.027407,0,1.234863,-0.01433007153288426,0.021708563015730736,1.0146933350480416,0.39373674749694765,-1.0237041029211134,-1.4568603408124299
2024-09-22 23:56:52.071065,0,1.234863,-0.01433007153288426,0.021708563015730736,1.0146933350480416,0.3368419984191656,-1.203097164625302,-1.426207081187144
2024-09-22 23:56:52.083179,0,1.234913,-0.011890927646745842,0.02012303845233509,1.0146933350480416,0.3368419984191656,-1.203097164625302,-1.426207081187144
2024-09-22 23:56:52.115683,42.2,1.234913,-0.011890927646745842,0.02012303845233509,1.0160958487445546,0.3368419984191656,-1.203097164625302,-1.426207081187144
2024-09-22 23:56:52.127231,42.2,1.234964,-0.014208053655459124,0.02012303845233509,1.0160958487445546,0.38061600277069957,-1.0980740039605648,-1.448094003321603
2024-09-22 23:56:52.169185,42.2,1.234964,-0.014208053655459124,0.018964423802771455,1.0148152420401695,0.37620423259790986,-1.0762442846808582,-1.448094003321603
2024-09-22 23:56:52.180942,42.2,1.235051,-0.014208053655459124,0.018964423802771455,1.0148152420401695,0.37620423259790986,-1.0762442846808582,-1.4218526205908506
2024-09-22 23:56:52.212930,42.2,1.235051,-0.01341539238571027,0.018964423802771455,1.0148152420401695,0.37620423259790986,-1.0762442846808582,-1.4218526205908506
2024-09-22 23:56:52.224584,42.2,1.235051,-0.01341539238571027,0.020306014382754138,1.0136566395424191,0.3237212803733535,-1.1418479549512268,-1.4087318225037306
2024-09-22 23:56:52.267678,42.2,1.235103,-0.011951885699739756,0.02140366946034718,1.0112784810508548,0.3237212803733535,-1.1418479549512268,-1.4087318225037306
2024-09-22 23:56:52.279077,42.2,1.235103,-0.011951885699739756,0.02140366946034718,1.0112784810508548,0.37620423259790986,-1.0805987452771515,-1.4087318225037306
2024-09-22 23:56:52.310537,42.2,1.235103,-0.011951885699739756,0.02140366946034718,1.0112784810508548,0.37620423259790986,-1.0805987452771515,-1.434973311956227
2024-09-22 23:56:52.322183,42.2,1.235154,-0.015183792627064338,0.022440264713509,1.017254451242305,0.3674952580444515,-1.0805987452771515,-1.434973311956227
2024-09-22 23:56:52.364901,42.2,1.235204,-0.01396421992450679,0.022440264713509,1.017254451242305,0.3674952580444515,-1.0412365644592791,-1.4524485706396402
2024-09-22 23:56:52.376749,42.2,1.235204,-0.01396421992450679,0.020610907938137694,1.0126809947473678,0.3674952580444515,-1.0412365644592791,-1.4524485706396402
2024-09-22 23:56:52.408158,42.2,1.235204,-0.01396421992450679,0.020610907938137694,1.0126809947473678,0.27559278874509036,-1.0412365644592791,-1.4524485706396402
2024-09-22 23:56:52.419204,42.2,1.235255,-0.012622630104012445,0.020245056329760223,1.0126809947473678,0.27559278874509036,-1.0368247942864894,-1.509343212995678
2024-09-22 23:56:52.462298,42.2,1.235255,-0.012622630104012445,0.020245056329760223,1.015973941752427,0.3324875378228724,-0.9843418153814971,-1.4174980532728136
2024-09-22 23:56:52.474615,42.2,1.235306,-0.01536666678604608,0.020245056329760223,1.015973941752427,0.3324875378228724,-0.9843418153814971,-1.4174980532728136
2024-09-22 23:56:52.507218,42.2,1.235306,-0.01536666678604608,0.022196330730096036,1.0157299333391567,0.3324875378228724,-0.9843418153814971,-1.4174980532728136
2024-09-22 23:56:52.518987,42.2,1.235392,-0.01536666678604608,0.022196330730096036,1.0157299333391567,0.2186980663477443,-1.0718325145080685,-1.5224640110827983
2024-09-22 23:56:52.561652,42.2,1.235392,-0.015976452377836518,0.017744852619190586,1.01542506864433,0.3630834878716618,-1.0018170740649104,-1.5224640110827983
2024-09-22 23:56:52.573653,42.2,1.235392,-0.015976452377836518,0.017744852619190586,1.01542506864433,0.3630834878716618,-1.0018170740649104,-1.509343212995678
2024-09-22 23:56:52.605581,42.2,1.235444,-0.012622630104012445,0.017744852619190586,1.01542506864433,0.3630834878716618,-1.0018170740649104,-1.509343212995678
2024-09-22 23:56:52.617085,42.2,1.235444,-0.012622630104012445,0.020062078880364497,1.0135347325502915,0.3280757409696467,-1.0543573625463993,-1.509343212995678
2024-09-22 23:56:52.659251,42.2,1.235495,-0.014512945691866003,0.021037716080532405,1.0139006479556893,0.3280757409696467,-1.0543573625463993,-1.518109550486505
2024-09-22 23:56:52.671060,42.2,1.235495,-0.014512945691866003,0.021037716080532405,1.0139006479556893,0.31060053564710544,-1.0543573625463993,-1.518109550486505
2024-09-22 23:56:52.754843,42.2,1.235545,-0.014512945691866003,0.021037716080532405,1.0139006479556893,0.31060053564710544,-1.0893650827679784,-1.4306188513599336
2024-09-22 23:56:52.765963,42.2,1.235545,-0.011951885699739756,0.018049744655597465,1.0137175930384832,0.31060053564710544,-1.0893650827679784,-1.4306188513599336
2024-09-22 23:56:52.798584,42.2,1.235545,-0.011951885699739756,0.018049744655597465,1.0137175930384832,0.3324875378228724,-1.0893650827679784,-1.4306188513599336
2024-09-22 23:56:52.810760,42.2,1.235596,-0.011281142054955407,0.020245056329760223,1.0137175930384832,0.3324875378228724,-1.1068402347296475,-1.4874562908612192
2024-09-22 23:56:52.854132,42.2,1.235647,-0.011281142054955407,0.020245056329760223,1.0160958487445546,0.35872900059493257,-1.1199610328167677,-1.4437395427253097
2024-09-22 23:56:52.866272,42.2,1.235647,-0.013049540777332799,0.020245056329760223,1.0160958487445546,0.35872900059493257,-1.1199610328167677,-1.4437395427253097
2024-09-22 23:56:52.897910,42.2,1.235647,-0.013049540777332799,0.018842507696783625,1.0123761300525411,0.35872900059493257,-1.1199610328167677,-1.4437395427253097
2024-09-22 23:56:52.909152,42.2,1.235733,-0.013049540777332799,0.018842507696783625,1.0123761300525411,0.3237212803733535,-1.0018170740649104,-1.4568603408124299
2024-09-22 23:56:52.952582,42.2,1.235733,-0.012622630104012445,0.022562284109910815,1.017254451242305,0.3630834878716618,-1.0062288442377,-1.3911993609655648
2024-09-22 23:56:52.994894,42.2,1.235832,-0.011524974266931064,0.022562284109910815,1.017254451242305,0.3630834878716618,-1.0062288442377,-1.3911993609655648
2024-09-22 23:56:53.006518,42.2,1.235832,-0.011524974266931064,0.02085484192155066,1.0148762927507406,0.40244569536997005,-1.1855647030871361,-1.3911993609655648
2024-09-22 23:56:53.049084,42.2,1.235883,-0.013537308491698099,0.020549948366167105,1.0176202694331955,0.40244569536997005,-1.1855647030871361,-1.4437395427253097
2024-09-22 23:56:53.061380,42.2,1.235883,-0.013537308491698099,0.020549948366167105,1.0176202694331955,0.29306802074806765,-1.1855647030871361,-1.4437395427253097
2024-09-22 23:56:53.094019,42.2,1.235934,-0.013537308491698099,0.020549948366167105,1.0176202694331955,0.29306802074806765,-1.0368247942864894,-1.426207081187144
2024-09-22 23:56:53.105868,42.2,1.235934,-0.012988480952901577,0.020306014382754138,1.0160958487445546,0.29306802074806765,-1.0368247942864894,-1.426207081187144
2024-09-22 23:56:53.148123,43.86,1.235984,-0.008719979531903514,0.020427930488741967,1.0160958487445546,0.3368419984191656,-1.0237041029211134,-1.4437395427253097
2024-09-22 23:56:53.191199,43.86,1.235984,-0.008719979531903514,0.020427930488741967,1.0139006479556893,0.3280757409696467,-1.0237041029211134,-1.4437395427253097
2024-09-22 23:56:53.202489,43.86,1.236035,-0.010183486217874026,0.020427930488741967,1.0139006479556893,0.3280757409696467,-0.993108152872324,-1.461214801408723
2024-09-22 23:56:53.245780,43.86,1.236123,-0.010183486217874026,0.021708563015730736,1.0171934977462411,0.28871353347133843,-1.0937195433642715,-1.43932777255252
2024-09-22 23:56:53.288033,43.86,1.236123,-0.01396421992450679,0.017196025080394063,1.0171934977462411,0.28871353347133843,-1.0937195433642715,-1.43932777255252
2024-09-22 23:56:53.299076,43.86,1.236123,-0.01396421992450679,0.017196025080394063,1.0180472355491645,0.42433269754573705,-0.9974626134686172,-1.404320052330941
2024-09-22 23:56:53.342155,43.86,1.236175,-0.01408613603049462,0.019513251341567978,1.0153641151482662,0.4418652124447748,-1.0193495356030762,-1.404320052330941
2024-09-22 23:56:53.384941,43.86,1.236226,-0.01408613603049462,0.019513251341567978,1.0153641151482662,0.4418652124447748,-1.0193495356030762,-1.5268184716790913
2024-09-22 23:56:53.396549,43.86,1.236226,-0.01365932788809991,0.019452293288574063,1.016705578134208,0.3324875378228724,-1.0193495356030762,-1.5268184716790913
2024-09-22 23:56:53.438675,43.86,1.236277,-0.011890927646745842,0.019452293288574063,1.016705578134208,0.3324875378228724,-1.0018170740649104,-1.461214801408723
2024-09-22 23:56:53.450480,43.86,1.236277,-0.011890927646745842,0.019086441680196593,1.0159129882563631,0.3324875378228724,-1.0018170740649104,-1.461214801408723
2024-09-22 23:56:53.482871,43.86,1.236277,-0.011890927646745842,0.019086441680196593,1.0159129882563631,0.3674952580444515,-1.1024857741333545,-1.461214801408723
2024-09-22 23:56:53.494310,43.86,1.236327,-0.013537308491698099,0.01811080599900536,1.0159129882563631,0.3674952580444515,-1.1024857741333545,-1.3606034109167755
2024-09-22 23:56:53.536674,43.86,1.236378,-0.013537308491698099,0.01811080599900536,1.0146933350480416,0.37620423259790986,-1.0412365644592791,-1.474335492774099
2024-09-22 23:56:53.548730,43.86,1.236378,-0.011768909009832369,0.01811080599900536,1.0146933350480416,0.37620423259790986,-1.0412365644592791,-1.474335492774099
2024-09-22 23:56:53.581386,43.86,1.236378,-0.011768909009832369,0.021098777423940302,1.0147542885441054,0.3149550229238346,-1.0412365644592791,-1.474335492774099
2024-09-22 23:56:53.592514,43.86,1.236465,-0.011768909009832369,0.021098777423940302,1.0147542885441054,0.3149550229238346,-1.0324703336901964,-1.3693696416858583
2024-09-22 23:56:53.634621,43.86,1.236465,-0.01768389456619667,0.020610907938137694,1.015668979843093,0.3674952580444515,-0.9056174537457525,-1.4174980532728136
2024-09-22 23:56:53.677877,43.86,1.236516,-0.010000509527966639,0.020610907938137694,1.015668979843093,0.3674952580444515,-0.9056174537457525,-1.4174980532728136
2024-09-22 23:56:53.689898,43.86,1.236516,-0.010000509527966639,0.020427930488741967,1.012925003160638,0.3543172304221429,-1.0324703336901964,-1.4174980532728136
2024-09-22 23:56:53.733627,43.86,1.236567,-0.013354434332716355,0.02201345505213762,1.0164007134393813,0.27994727602181957,-1.0324703336901964,-1.4655692620050162
2024-09-22 23:56:53.776678,43.86,1.236618,-0.013354434332716355,0.02201345505213762,1.0164007134393813,0.27994727602181957,-1.0587118231426924,-1.4218526205908506
2024-09-22 23:56:53.788454,43.86,1.236618,-0.013476350438704184,0.021037716080532405,1.0176202694331955,0.27994727602181957,-1.0587118231426924,-1.4218526205908506
2024-09-22 23:56:53.831902,43.86,1.236668,-0.010183486217874026,0.02189143717471248,1.0176202694331955,0.39809120809324083,-1.0980740039605648,-1.4306188513599336
2024-09-22 23:56:53.874346,43.86,1.236668,-0.010183486217874026,0.02189143717471248,1.0123761300525411,0.3018342781975865,-1.1374934943549335,-1.4306188513599336
2024-09-22 23:56:53.886097,43.86,1.236719,-0.016830173472016593,0.02189143717471248,1.0123761300525411,0.3018342781975865,-1.1374934943549335,-1.43932777255252
2024-09-22 23:56:53.928375,43.86,1.236806,-0.016830173472016593,0.018842507696783625,1.0148762927507406,0.38932495064372197,-1.0455910250555724,-1.5224640110827983
2024-09-22 23:56:53.971807,43.86,1.236806,-0.01365932788809991,0.019696228790963704,1.016705578134208,0.38932495064372197,-1.0455910250555724,-1.5224640110827983
2024-09-22 23:56:53.983974,43.86,1.236806,-0.01365932788809991,0.019696228790963704,1.016705578134208,0.3411964856958948,-1.028115873093903,-1.4655692620050162
2024-09-22 23:56:54.026933,43.86,1.236858,-0.009939551474972724,0.02164760496273682,1.0160958487445546,0.3411964856958948,-1.028115873093903,-1.4655692620050162
2024-09-22 23:56:54.069723,43.86,1.236858,-0.009939551474972724,0.02164760496273682,1.0160958487445546,0.3280757409696467,-1.014995075006783,-1.5487055005352943
2024-09-22 23:56:54.081304,43.86,1.236908,-0.012134760618209839,0.01975718684395762,1.0160958487445546,0.3280757409696467,-1.014995075006783,-1.5487055005352943
2024-09-22 23:56:54.124832,43.86,1.236959,-0.016891131525010507,0.01975718684395762,1.0111565740587272,0.3543172304221429,-1.0805987452771515,-1.4655692620050162
2024-09-22 23:56:54.166623,42.66,1.236959,-0.016891131525010507,0.022989092252305523,1.0135956860463553,0.3018342781975865,-1.0805987452771515,-1.4655692620050162
2024-09-22 23:56:54.177707,42.66,1.23701,-0.016891131525010507,0.022989092252305523,1.0135956860463553,0.3018342781975865,-1.1418479549512268,-1.531230241851881
2024-09-22 23:56:54.220183,42.66,1.23701,-0.012317737308117227,0.020610907938137694,1.0159129882563631,0.3149550229238346,-1.0105833048339934,-1.504988752399385
2024-09-22 23:56:54.262212,42.66,1.23706,-0.016281345933220073,0.020610907938137694,1.0159129882563631,0.3149550229238346,-1.0105833048339934,-1.504988752399385
2024-09-22 23:56:54.273813,42.66,1.23706,-0.016281345933220073,0.021159735476934217,1.017010540043542,0.27994727602181957,-1.1243154934130608,-1.504988752399385
2024-09-22 23:56:54.315835,42.66,1.237148,-0.012866564846913748,0.019330377182586234,1.0138396944596255,0.27994727602181957,-1.1243154934130608,-1.413086283100024
2024-09-22 23:56:54.328008,42.66,1.237148,-0.012866564846913748,0.019330377182586234,1.0138396944596255,0.3324875378228724,-1.1243154934130608,-1.413086283100024
2024-09-22 23:56:54.361188,42.66,1.237199,-0.012866564846913748,0.019330377182586234,1.0138396944596255,0.3324875378228724,-1.028115873093903,-1.5005769822265953
2024-09-22 23:56:54.373442,42.66,1.237199,-0.015610600769459046,0.021037716080532405,1.015608026347029,0.3324875378228724,-1.028115873093903,-1.5005769822265953
2024-09-22 23:56:54.416030,42.66,1.23725,-0.014939857124674697,0.018964423802771455,1.015608026347029,0.29306802074806765,-1.0105833048339934,-1.4087318225037306
2024-09-22 23:56:54.457947,42.66,1.23725,-0.014939857124674697,0.018964423802771455,1.01426646614658,0.29306802074806765,-1.0105833048339934,-1.4087318225037306
2024-09-22 23:56:54.469968,42.66,1.237301,-0.011586034850850625,0.018964423802771455,1.01426646614658,0.29306802074806765,-1.028115873093903,-1.4174980532728136
2024-09-22 23:56:54.512097,42.66,1.237301,-0.011586034850850625,0.019940162774376668,1.015668979843093,0.3456082558686845,-1.1199610328167677,-1.4874562908612192
2024-09-22 23:56:54.523779,42.66,1.237391,-0.011586034850850625,0.019940162774376668,1.015668979843093,0.3456082558686845,-1.1199610328167677,-1.4874562908612192
2024-09-22 23:56:54.555569,42.66,1.237391,-0.01042742096077533,0.018598572194393984,1.015668979843093,0.3456082558686845,-1.1199610328167677,-1.4874562908612192
2024-09-22 23:56:54.566722,42.66,1.237391,-0.01042742096077533,0.018598572194393984,1.0138396944596255,0.29306802074806765,-1.014995075006783,-1.483101830264926
2024-09-22 23:56:54.610359,42.66,1.237443,-0.014634963569291141,0.02201345505213762,1.0162178529511898,0.3324875378228724,-1.0849533125951887,-1.483101830264926
2024-09-22 23:56:54.652490,42.66,1.237493,-0.014634963569291141,0.02201345505213762,1.0162178529511898,0.3324875378228724,-1.0849533125951887,-1.461214801408723
2024-09-22 23:56:54.664065,42.66,1.237493,-0.013110498830326714,0.02097675802753849,1.0149982969573756,0.27994727602181957,-1.0849533125951887,-1.461214801408723
2024-09-22 23:56:54.706149,42.66,1.237493,-0.013110498830326714,0.02097675802753849,1.0149982969573756,0.27994727602181957,-1.216217962712422,-1.461214801408723
2024-09-22 23:56:54.749127,42.66,1.237544,-0.013110498830326714,0.02097675802753849,1.0149982969573756,0.27994727602181957,-1.216217962712422,-1.461214801408723
2024-09-22 23:56:54.802263,42.66,1.237544,-0.014634963569291141,0.020732824044125523,1.017010540043542,0.29306802074806765,-1.216217962712422,-1.461214801408723
2024-09-22 23:56:54.813271,42.66,1.237544,-0.014634963569291141,0.020732824044125523,1.017010540043542,0.29306802074806765,-1.1506142924420535,-1.413086283100024
2024-09-22 23:56:54.845859,42.66,1.237595,-0.014634963569291141,0.020732824044125523,1.017010540043542,0.29306802074806765,-1.1506142924420535,-1.413086283100024
2024-09-22 23:56:54.857257,42.66,1.237595,-0.015549642716465131,0.018415698035412244,1.0157299333391567,0.3543172304221429,-1.1330817241821438,-1.413086283100024
2024-09-22 23:56:54.899677,42.66,1.237645,-0.015183792627064338,0.01786687049661572,1.0157299333391567,0.3543172304221429,-1.1330817241821438,-1.496222521630302
2024-09-22 23:56:54.910821,42.66,1.237645,-0.015183792627064338,0.01786687049661572,1.0182300960373563,0.31060053564710544,-1.1330817241821438,-1.496222521630302
2024-09-22 23:56:54.943039,42.66,1.237645,-0.015183792627064338,0.01786687049661572,1.0182300960373563,0.31060053564710544,-1.1287272635858505,-1.496222521630302
2024-09-22 23:56:54.954634,42.66,1.237732,-0.012500713238536278,0.02201345505213762,1.0162178529511898,0.31060053564710544,-1.1287272635858505,-1.426207081187144
2024-09-22 23:56:54.997904,42.66,1.237783,-0.012500713238536278,0.02201345505213762,1.0162178529511898,0.3237212803733535,-1.1637349838074296,-1.491868061034009
2024-09-22 23:56:55.009308,42.66,1.237783,-0.013171458402297304,0.01890346574977754,1.0162178529511898,0.3237212803733535,-1.1637349838074296,-1.491868061034009
2024-09-22 23:56:55.040899,42.66,1.237783,-0.013171458402297304,0.01890346574977754,1.0164007134393813,0.3237212803733535,-1.1637349838074296,-1.491868061034009
2024-09-22 23:56:55.052127,42.66,1.237881,-0.012744546969488612,0.01890346574977754,1.0164007134393813,0.3237212803733535,-1.1330817241821438,-1.413086283100024
2024-09-22 23:56:55.096208,42.66,1.237881,-0.012744546969488612,0.018781549643789714,1.0160958487445546,0.3149550229238346,-1.1024857741333545,-1.413086283100024
2024-09-22 23:56:55.107756,42.66,1.237976,-0.012744546969488612,0.018781549643789714,1.0160958487445546,0.3149550229238346,-1.1024857741333545,-1.3956111311383546
2024-09-22 23:56:55.139701,42.66,1.237976,-0.016464321863639123,0.018781549643789714,1.0160958487445546,0.3149550229238346,-1.1024857741333545,-1.3956111311383546
2024-09-22 23:56:55.151512,42.66,1.237976,-0.016464321863639123,0.02262324216290473,1.0131078636488298,0.28871353347133843,-1.0718325145080685,-1.518109550486505
2024-09-22 23:56:55.193841,42.95,1.238028,-0.01445198763887209,0.02280611632188647,1.0112784810508548,0.29306802074806765,-1.0718325145080685,-1.518109550486505
2024-09-22 23:56:55.209193,42.95,1.238028,-0.01445198763887209,0.02280611632188647,1.0112784810508548,0.29306802074806765,-1.1330817241821438,-1.518109550486505
2024-09-22 23:56:55.241028,42.95,1.238078,-0.010854230622146716,0.02152558556633501,1.0112784810508548,0.29306802074806765,-1.1330817241821438,-1.504988752399385
2024-09-22 23:56:55.252853,42.95,1.238078,-0.010854230622146716,0.02152558556633501,1.0181691425412924,0.39373674749694765,-1.1330817241821438,-1.504988752399385
2024-09-22 23:56:55.284547,42.95,1.238078,-0.010854230622146716,0.02152558556633501,1.0181691425412924,0.39373674749694765,-1.0674780539117754,-1.504988752399385
2024-09-22 23:56:55.296141,42.95,1.238129,-0.013232416455291218,0.02262324216290473,1.0104247432479314,0.39373674749694765,-1.0674780539117754,-1.469981032177806
2024-09-22 23:56:55.338859,42.95,1.23818,-0.013232416455291218,0.02262324216290473,1.0104247432479314,0.39373674749694765,-1.0893650827679784,-1.518109550486505
2024-09-22 23:56:55.350015,42.95,1.23818,-0.011951885699739756,0.020915799974544576,1.0104247432479314,0.39373674749694765,-1.0893650827679784,-1.518109550486505
2024-09-22 23:56:55.382777,42.95,1.23818,-0.011951885699739756,0.020915799974544576,1.014205512650516,0.39373674749694765,-1.0893650827679784,-1.518109550486505
2024-09-22 23:56:55.394417,42.95,1.23823,-0.01378124399408774,0.020915799974544576,1.014205512650516,0.27994727602181957,-1.0543573625463993,-1.509343212995678
2024-09-22 23:56:55.436297,42.95,1.23823,-0.01378124399408774,0.021159735476934217,1.0143883731387076,0.3324875378228724,-1.1068402347296475,-1.509343212995678
2024-09-22 23:56:55.448254,42.95,1.238317,-0.01378124399408774,0.021159735476934217,1.0143883731387076,0.3324875378228724,-1.1068402347296475,-1.413086283100024
2024-09-22 23:56:55.480864,42.95,1.238317,-0.009268807070700035,0.021159735476934217,1.0143883731387076,0.3324875378228724,-1.1068402347296475,-1.413086283100024
2024-09-22 23:56:55.492685,42.95,1.238317,-0.009268807070700035,0.02176952106872465,1.0125589905407328,0.38061600277069957,-1.1068402347296475,-1.43932777255252
2024-09-22 23:56:55.534643,42.95,1.238369,-0.01164699290384454,0.019818144896951533,1.0160348952484908,0.3674952580444515,-1.1068402347296475,-1.43932777255252
2024-09-22 23:56:55.546351,42.95,1.238369,-0.01164699290384454,0.019818144896951533,1.0160348952484908,0.3674952580444515,-1.238104991568625,-1.43932777255252
2024-09-22 23:56:55.578941,42.95,1.23842,-0.01164699290384454,0.019818144896951533,1.0160348952484908,0.3674952580444515,-1.238104991568625,-1.518109550486505
2024-09-22 23:56:55.590608,42.95,1.23842,-0.008963914274804818,0.02085484192155066,1.0121931723498423,0.3674952580444515,-1.238104991568625,-1.518109550486505
2024-09-22 23:56:55.632794,42.95,1.23847,-0.012988480952901577,0.01939133523558015,1.0121931723498423,0.3674952580444515,-1.1111946953259408,-1.4787472629468887
2024-09-22 23:56:55.644949,42.95,1.23847,-0.012988480952901577,0.01939133523558015,1.0160958487445546,0.3674952580444515,-1.1111946953259408,-1.4787472629468887
2024-09-22 23:56:55.676637,42.95,1.23847,-0.012988480952901577,0.01939133523558015,1.0160958487445546,0.3062460483703762,-1.0237041029211134,-1.4787472629468887
2024-09-22 23:56:55.688891,42.95,1.238521,-0.01536666678604608,0.02262324216290473,1.0160958487445546,0.3062460483703762,-1.0237041029211134,-1.461214801408723
2024-09-22 23:56:55.732143,42.95,1.238572,-0.012439653414105056,0.02262324216290473,1.0144494238492787,0.40244569536997005,-0.9668666634198279,-1.5749469899877906
2024-09-22 23:56:55.775085,42.95,1.238572,-0.012439653414105056,0.01975718684395762,1.0159129882563631,0.4155664400962181,-0.9668666634198279,-1.5749469899877906
2024-09-22 23:56:55.787003,42.95,1.238659,-0.012439653414105056,0.01975718684395762,1.0159129882563631,0.4155664400962181,-1.1111946953259408,-1.461214801408723
2024-09-22 23:56:55.829997,42.95,1.238659,-0.014574005516297226,0.01823272210499319,1.0131078636488298,0.3062460483703762,-1.1330817241821438,-1.474335492774099
2024-09-22 23:56:55.873241,42.95,1.23871,-0.013476350438704184,0.01798878660260355,1.0131078636488298,0.3062460483703762,-1.1330817241821438,-1.474335492774099
2024-09-22 23:56:55.884766,42.95,1.23871,-0.013476350438704184,0.01798878660260355,1.0145103773453428,0.2843590461946093,-1.1156065722204744,-1.474335492774099
2024-09-22 23:56:55.927964,42.95,1.238761,-0.015671560341429636,0.01786687049661572,1.0145103773453428,0.41997821026900783,-1.1156065722204744,-1.5136977803137153
2024-09-22 23:56:55.971077,42.95,1.238761,-0.015671560341429636,0.01786687049661572,1.0145103773453428,0.41997821026900783,-1.0543573625463993,-1.4787472629468887
2024-09-22 23:56:55.982796,42.95,1.238812,-0.01396421992450679,0.022318348607521174,1.0192058380469147,0.41997821026900783,-1.0543573625463993,-1.4787472629468887
2024-09-22 23:56:56.025837,42.95,1.238862,-0.011159123418041933,0.023354943860682993,1.0192058380469147,0.38932495064372197,-1.0193495356030762,-1.3606034109167755
2024-09-22 23:56:56.068147,42.95,1.238862,-0.011159123418041933,0.023354943860682993,1.0174374089450038,0.24935132597303017,-1.028115873093903,-1.3606034109167755
2024-09-22 23:56:56.079804,42.95,1.238913,-0.011159123418041933,0.023354943860682993,1.0174374089450038,0.24935132597303017,-1.028115873093903,-1.3693696416858583
2024-09-22 23:56:56.122235,42.95,1.239,-0.011159123418041933,0.01939133523558015,1.013778546534547,0.2537058132497594,-1.0893650827679784,-1.4437395427253097
2024-09-22 23:56:56.164154,42.95,1.239,-0.011159123418041933,0.019940162774376668,1.013778546534547,0.2537058132497594,-1.0893650827679784,-1.4437395427253097
2024-09-22 23:56:56.175404,42.95,1.239,-0.011159123418041933,0.019940162774376668,1.015546975636458,0.3018342781975865,-1.014995075006783,-1.434973311956227
2024-09-22 23:56:56.219182,43.33,1.239051,-0.012988480952901577,0.021708563015730736,1.0150592504534395,0.2843590461946093,-1.0762442846808582,-1.434973311956227
2024-09-22 23:56:56.262292,43.33,1.239102,-0.014025177977500705,0.021708563015730736,1.0150592504534395,0.2843590461946093,-1.0762442846808582,-1.3824903330512346
2024-09-22 23:56:56.273469,43.33,1.239102,-0.014025177977500705,0.021159735476934217,1.0134127283436565,0.37184974532118065,-1.0762442846808582,-1.3824903330512346
2024-09-22 23:56:56.316092,43.33,1.239153,-0.015183792627064338,0.019086441680196593,1.0134127283436565,0.37184974532118065,-1.0062288442377,-1.4874562908612192
2024-09-22 23:56:56.327919,43.33,1.239153,-0.015183792627064338,0.019086441680196593,1.015668979843093,0.37184974532118065,-1.0062288442377,-1.4874562908612192
2024-09-22 23:56:56.360556,43.33,1.239153,-0.015183792627064338,0.019086441680196593,1.015668979843093,0.31060053564710544,-0.9537458653327078,-1.3737241022821516
2024-09-22 23:56:56.372150,43.33,1.239204,-0.013049540777332799,0.023598879363072634,1.015668979843093,0.31060053564710544,-0.9537458653327078,-1.3737241022821516
2024-09-22 23:56:56.414489,43.33,1.239254,-0.01433007153288426,0.023598879363072634,1.0132908213515286,0.3237212803733535,-1.0718325145080685,-1.5355847024481744
2024-09-22 23:56:56.457929,43.33,1.239254,-0.01433007153288426,0.021098777423940302,1.0125589905407328,0.42433269754573705,-1.0718325145080685,-1.5355847024481744
2024-09-22 23:56:56.469847,43.33,1.239341,-0.01433007153288426,0.021098777423940302,1.0125589905407328,0.42433269754573705,-1.0543573625463993,-1.4524485706396402
2024-09-22 23:56:56.513731,43.33,1.239341,-0.015000815177668611,0.022440264713509,1.0134127283436565,0.38932495064372197,-1.028115873093903,-1.5005769822265953
2024-09-22 23:56:56.557011,43.33,1.239393,-0.01445198763887209,0.018842507696783625,1.015973941752427,0.38932495064372197,-1.028115873093903,-1.5005769822265953
2024-09-22 23:56:56.568211,43.33,1.239393,-0.01445198763887209,0.018842507696783625,1.015973941752427,0.3193667930966243,-1.0587118231426924,-1.5005769822265953
2024-09-22 23:56:56.600334,43.33,1.239393,-0.01445198763887209,0.018842507696783625,1.015973941752427,0.3193667930966243,-1.0587118231426924,-1.448094003321603
2024-09-22 23:56:56.611604,43.33,1.239443,-0.012073802565215924,0.02164760496273682,1.0165836711420804,0.37184974532118065,-1.0587118231426924,-1.448094003321603
2024-09-22 23:56:56.654365,43.33,1.239494,-0.012073802565215924,0.02164760496273682,1.0165836711420804,0.37184974532118065,-1.1068402347296475,-1.461214801408723
2024-09-22 23:56:56.665867,43.33,1.239494,-0.014147094083488534,0.02134260963591596,1.0145713308414066,0.37184974532118065,-1.1068402347296475,-1.461214801408723
2024-09-22 23:56:56.698166,43.33,1.239494,-0.014147094083488534,0.02134260963591596,1.0145713308414066,0.4418652124447748,-1.1068402347296475,-1.461214801408723
2024-09-22 23:56:56.709913,43.33,1.239545,-0.010610295879245411,0.020245056329760223,1.0145713308414066,0.4418652124447748,-1.0630662837389857,-1.531230241851881
2024-09-22 23:56:56.752307,43.33,1.239545,-0.010610295879245411,0.020245056329760223,1.0162178529511898,0.3674952580444515,-1.0980740039605648,-1.469981032177806
2024-09-22 23:56:56.796607,43.33,1.239595,-0.010610295879245411,0.020245056329760223,1.0162178529511898,0.3674952580444515,-1.0980740039605648,-1.469981032177806
2024-09-22 23:56:56.808429,43.33,1.239595,-0.012378695361111141,0.020245056329760223,1.0162178529511898,0.3674952580444515,-1.0980740039605648,-1.469981032177806
2024-09-22 23:56:56.851462,43.33,1.239595,-0.012378695361111141,0.02317206970170125,1.0153641151482662,0.3062460483703762,-1.1374934943549335,-1.469981032177806
2024-09-22 23:56:56.862640,43.33,1.239683,-0.012378695361111141,0.02317206970170125,1.0153641151482662,0.3062460483703762,-1.1374934943549335,-1.426207081187144
2024-09-22 23:56:56.895320,43.33,1.239683,-0.014269113479890346,0.02164760496273682,1.0153641151482662,0.3062460483703762,-1.1374934943549335,-1.426207081187144
2024-09-22 23:56:56.906398,43.33,1.239683,-0.014269113479890346,0.02164760496273682,1.0145103773453428,0.3499627431454137,-0.993108152872324,-1.4524485706396402
2024-09-22 23:56:56.949135,43.33,1.239734,-0.01219582044264106,0.0187205915907958,1.015546975636458,0.3149550229238346,-0.993108152872324,-1.4524485706396402
2024-09-22 23:56:56.961372,43.33,1.239734,-0.01219582044264106,0.0187205915907958,1.015546975636458,0.3149550229238346,-1.0455910250555724,-1.4524485706396402
2024-09-22 23:56:56.994336,43.33,1.239785,-0.010915188675140628,0.0187205915907958,1.015546975636458,0.3149550229238346,-1.0455910250555724,-1.4787472629468887
2024-09-22 23:56:57.006015,43.33,1.239785,-0.010915188675140628,0.019696228790963704,1.0145713308414066,0.2318188110739924,-1.0455910250555724,-1.4787472629468887
2024-09-22 23:56:57.048448,43.33,1.239835,-0.013903160100075569,0.02012303845233509,1.0160348952484908,0.2318188110739924,-1.0543573625463993,-1.4306188513599336
2024-09-22 23:56:57.090810,43.33,1.239835,-0.013903160100075569,0.02012303845233509,1.0160348952484908,0.4155664400962181,-1.0455910250555724,-1.4306188513599336
2024-09-22 23:56:57.103082,43.33,1.239928,-0.014878899071680782,0.020427930488741967,1.0160348952484908,0.4155664400962181,-1.0455910250555724,-1.3693696416858583
2024-09-22 23:56:57.145656,43.33,1.239979,-0.01219582044264106,0.020427930488741967,1.014144559154452,0.39373674749694765,-1.0193495356030762,-1.434973311956227
2024-09-22 23:56:57.187411,43.33,1.239979,-0.01219582044264106,0.021159735476934217,1.0148152420401695,0.39373674749694765,-1.0193495356030762,-1.434973311956227
2024-09-22 23:56:57.198977,43.33,1.240072,-0.01219582044264106,0.021159735476934217,1.0148152420401695,0.35872900059493257,-1.1724439050000162,-1.5443510399390012
2024-09-22 23:56:57.242554,43.27,1.240072,-0.012866564846913748,0.01798878660260355,1.0133517748475924,0.3193667930966243,-1.0980740039605648,-1.5005769822265953
2024-09-22 23:56:57.284887,43.27,1.240124,-0.013049540777332799,0.01798878660260355,1.0133517748475924,0.3193667930966243,-1.0980740039605648,-1.5005769822265953
2024-09-22 23:56:57.296499,43.27,1.240124,-0.013049540777332799,0.020732824044125523,1.0144494238492787,0.4724611624935642,-1.0587118231426924,-1.5005769822265953
2024-09-22 23:56:57.338429,43.27,1.240175,-0.01146401621393715,0.02085484192155066,1.0151811574455674,0.4724611624935642,-1.0587118231426924,-1.483101830264926
2024-09-22 23:56:57.350539,43.27,1.240175,-0.01146401621393715,0.02085484192155066,1.0151811574455674,0.3849704900474288,-1.0587118231426924,-1.483101830264926
2024-09-22 23:56:57.383174,43.27,1.240175,-0.01146401621393715,0.02085484192155066,1.0151811574455674,0.3849704900474288,-1.1812102424908428,-1.461214801408723
2024-09-22 23:56:57.394443,43.27,1.240225,-0.01365932788809991,0.020366972435748053,1.0132298678554648,0.3849704900474288,-1.1812102424908428,-1.461214801408723
2024-09-22 23:56:57.437185,43.27,1.240276,-0.012866564846913748,0.020366972435748053,1.0132298678554648,0.3324875378228724,-1.1462025222692638,-1.404320052330941
2024-09-22 23:56:57.449589,43.27,1.240276,-0.012866564846913748,0.022867176146317694,1.0132298678554648,0.3324875378228724,-1.1462025222692638,-1.404320052330941
2024-09-22 23:56:57.483544,43.27,1.240276,-0.012866564846913748,0.022867176146317694,1.012742045457939,0.3849704900474288,-1.0805987452771515,-1.4568603408124299
2024-09-22 23:56:57.494565,43.27,1.240327,-0.01396421992450679,0.022867176146317694,1.012742045457939,0.3849704900474288,-1.0805987452771515,-1.4568603408124299
2024-09-22 23:56:57.526546,43.27,1.240327,-0.01396421992450679,0.022440264713509,1.012742045457939,0.3849704900474288,-1.0805987452771515,-1.4568603408124299
2024-09-22 23:56:57.537745,43.27,1.240414,-0.01396421992450679,0.022440264713509,1.0162178529511898,0.3674952580444515,-1.0849533125951887,-1.4218526205908506
2024-09-22 23:56:57.580793,43.27,1.240414,-0.014695923141261731,0.01926931735815501,1.01542506864433,0.3674952580444515,-1.0849533125951887,-1.4218526205908506
2024-09-22 23:56:57.596450,43.27,1.240414,-0.014695923141261731,0.01926931735815501,1.01542506864433,0.3674952580444515,-1.0193495356030762,-1.4524485706396402
2024-09-22 23:56:57.627958,43.27,1.240465,-0.013293374508285133,0.021830479121718566,1.01542506864433,0.3674952580444515,-1.0193495356030762,-1.4524485706396402
2024-09-22 23:56:57.638987,43.27,1.240465,-0.013293374508285133,0.021830479121718566,1.0150592504534395,0.3630834878716618,-1.0893650827679784,-1.4524485706396402
2024-09-22 23:56:57.680866,43.27,1.240516,-0.013232416455291218,0.022440264713509,1.0117053499523165,0.3630834878716618,-1.0893650827679784,-1.3999655917346479
2024-09-22 23:56:57.692997,43.27,1.240516,-0.013232416455291218,0.022440264713509,1.0117053499523165,0.38932495064372197,-1.0893650827679784,-1.3999655917346479
2024-09-22 23:56:57.725640,43.27,1.240567,-0.013232416455291218,0.022440264713509,1.0117053499523165,0.38932495064372197,-1.1330817241821438,-1.4218526205908506
2024-09-22 23:56:57.737290,43.27,1.240567,-0.011342100107949322,0.02048899031317319,1.0136566395424191,0.38932495064372197,-1.1330817241821438,-1.4218526205908506
2024-09-22 23:56:57.779779,43.27,1.240617,-0.012866564846913748,0.017196025080394063,1.0136566395424191,0.2143435924112331,-1.0893650827679784,-1.496222521630302
2024-09-22 23:56:57.822468,43.27,1.240617,-0.012866564846913748,0.017196025080394063,1.0136566395424191,0.3674952580444515,-1.0893650827679784,-1.496222521630302
2024-09-22 23:56:57.834446,43.27,1.240668,-0.013171458402297304,0.017196025080394063,1.0136566395424191,0.3674952580444515,-1.0455910250555724,-1.4655692620050162
2024-09-22 23:56:57.877172,43.27,1.240755,-0.013171458402297304,0.01939133523558015,1.0163397599433175,0.26247207069927825,-1.1111946953259408,-1.4524485706396402
2024-09-22 23:56:57.920684,43.27,1.240755,-0.014208053655459124,0.020549948366167105,1.0159129882563631,0.26247207069927825,-1.1111946953259408,-1.4524485706396402
2024-09-22 23:56:57.932121,43.27,1.240755,-0.014208053655459124,0.020549948366167105,1.0159129882563631,0.3368419984191656,-1.0543573625463993,-1.461214801408723
2024-09-22 23:56:57.974833,43.27,1.240806,-0.01433007153288426,0.02085484192155066,1.0132298678554648,0.2668265312955715,-1.0237041029211134,-1.461214801408723
2024-09-22 23:56:58.016919,43.27,1.240857,-0.01433007153288426,0.02085484192155066,1.0132298678554648,0.2668265312955715,-1.0237041029211134,-1.3037086618389935
2024-09-22 23:56:58.028081,43.27,1.240857,-0.010610295879245411,0.01750101888823825,1.015486022140394,0.41121195281948897,-1.0237041029211134,-1.3037086618389935
2024-09-22 23:56:58.070612,43.27,1.240908,-0.01256167205101853,0.01975718684395762,1.015486022140394,0.41121195281948897,-1.0762442846808582,-1.4306188513599336
2024-09-22 23:56:58.082871,43.27,1.240908,-0.01256167205101853,0.01975718684395762,1.0153031616522024,0.41121195281948897,-1.0762442846808582,-1.4306188513599336
2024-09-22 23:56:58.116246,43.27,1.240908,-0.01256167205101853,0.01975718684395762,1.0153031616522024,0.3499627431454137,-1.0762442846808582,-1.3956111311383546
2024-09-22 23:56:58.127505,43.27,1.240959,-0.012622630104012445,0.0187205915907958,1.0153031616522024,0.3499627431454137,-1.0762442846808582,-1.3956111311383546
2024-09-22 23:56:58.170133,43.27,1.241009,-0.010732313756670548,0.0187205915907958,1.0120102146471432,0.3674952580444515,-1.0543573625463993,-1.469981032177806
2024-09-22 23:56:58.212699,43.27,1.241009,-0.010732313756670548,0.018415698035412244,1.015608026347029,0.27559278874509036,-1.0543573625463993,-1.469981032177806
2024-09-22 23:56:58.224285,43.27,1.241096,-0.010732313756670548,0.018415698035412244,1.015608026347029,0.27559278874509036,-1.0937195433642715,-1.404320052330941
2024-09-22 23:56:58.267009,43.37,1.241096,-0.01182986782231462,0.016708257366028764,1.0148152420401695,0.2274643237972632,-1.0368247942864894,-1.4218526205908506
2024-09-22 23:56:58.309746,43.37,1.241148,-0.01433007153288426,0.020549948366167105,1.0148152420401695,0.2274643237972632,-1.0368247942864894,-1.4218526205908506
2024-09-22 23:56:58.321152,43.37,1.241148,-0.01433007153288426,0.020549948366167105,1.0145103773453428,0.31060053564710544,-1.2687009416174144,-1.4218526205908506
2024-09-22 23:56:58.364900,43.37,1.241198,-0.012805606793919833,0.02085484192155066,1.0146933350480416,0.31060053564710544,-1.2687009416174144,-1.4655692620050162
2024-09-22 23:56:58.407528,43.37,1.241249,-0.012805606793919833,0.02085484192155066,1.0146933350480416,0.31060053564710544,-1.0893650827679784,-1.426207081187144
2024-09-22 23:56:58.418768,43.37,1.241249,-0.014756881194255646,0.021037716080532405,1.012742045457939,0.31060053564710544,-1.0893650827679784,-1.426207081187144
2024-09-22 23:56:58.461697,43.37,1.2413,-0.01378124399408774,0.021708563015730736,1.012742045457939,0.24499683869630098,-1.0368247942864894,-1.469981032177806
2024-09-22 23:56:58.504337,43.37,1.2413,-0.01378124399408774,0.021708563015730736,1.0133517748475924,0.3630834878716618,-1.0368247942864894,-1.469981032177806
2024-09-22 23:56:58.516321,43.37,1.241351,-0.011890927646745842,0.021708563015730736,1.0133517748475924,0.3630834878716618,-1.0805987452771515,-1.461214801408723
2024-09-22 23:56:58.559786,43.37,1.241438,-0.011890927646745842,0.019330377182586234,1.0177422736398305,0.3456082558686845,-1.1156065722204744,-1.539996472620964
2024-09-22 23:56:58.602588,43.37,1.241438,-0.015671560341429636,0.018842507696783625,1.0122541258459061,0.3456082558686845,-1.1156065722204744,-1.539996472620964
2024-09-22 23:56:58.613836,43.37,1.241438,-0.015671560341429636,0.018842507696783625,1.0122541258459061,0.3062460483703762,-1.1111946953259408,-1.496222521630302
2024-09-22 23:56:58.656335,43.37,1.241489,-0.012927522899907663,0.021464627513341095,1.015486022140394,0.3499627431454137,-1.0499454856518655,-1.496222521630302
2024-09-22 23:56:58.699368,43.37,1.24154,-0.012927522899907663,0.021464627513341095,1.015486022140394,0.3499627431454137,-1.0499454856518655,-1.496222521630302
2024-09-22 23:56:58.710649,43.37,1.24154,-0.011890927646745842,0.019940162774376668,1.0189618296336447,0.29747979092085736,-1.0499454856518655,-1.496222521630302
2024-09-22 23:56:58.754272,43.37,1.24159,-0.01164699290384454,0.021830479121718566,1.0189618296336447,0.29747979092085736,-1.0937195433642715,-1.43932777255252
2024-09-22 23:56:58.765894,43.37,1.24159,-0.01164699290384454,0.021830479121718566,1.014022554947817,0.29747979092085736,-1.0937195433642715,-1.43932777255252
2024-09-22 23:56:58.798119,43.37,1.24159,-0.01164699290384454,0.021830479121718566,1.014022554947817,0.37184974532118065,-0.9755755846124142,-1.426207081187144
2024-09-22 23:56:58.809727,43.37,1.241641,-0.015549642716465131,0.018964423802771455,1.014022554947817,0.37184974532118065,-0.9755755846124142,-1.426207081187144
2024-09-22 23:56:58.852037,43.37,1.241641,-0.015549642716465131,0.018964423802771455,1.0173154047383688,0.37620423259790986,-1.1111946953259408,-1.426207081187144
2024-09-22 23:56:58.895683,43.37,1.241692,-0.01445198763887209,0.018964423802771455,1.0173154047383688,0.37620423259790986,-1.1111946953259408,-1.4655692620050162
2024-09-22 23:56:58.907240,43.37,1.241692,-0.01445198763887209,0.02274515826889256,1.0158518403312846,0.29747979092085736,-1.1111946953259408,-1.4655692620050162
2024-09-22 23:56:58.950036,43.37,1.241779,-0.011281142054955407,0.021281651582922046,1.0139006479556893,0.29747979092085736,-1.1068402347296475,-1.448094003321603
2024-09-22 23:56:58.993416,43.37,1.241779,-0.011281142054955407,0.021281651582922046,1.0139006479556893,0.3849704900474288,-1.1199610328167677,-1.5268184716790913
2024-09-22 23:56:59.004998,43.37,1.24183,-0.010671253932239326,0.019330377182586234,1.0139006479556893,0.3849704900474288,-1.1199610328167677,-1.5268184716790913
2024-09-22 23:56:59.048546,43.37,1.241881,-0.011037206552565765,0.019330377182586234,1.0131688171448936,0.27123832814879717,-1.0805987452771515,-1.531230241851881
2024-09-22 23:56:59.090871,43.37,1.241881,-0.011037206552565765,0.021281651582922046,1.01426646614658,0.40685746554275976,-1.0805987452771515,-1.531230241851881
2024-09-22 23:56:59.102389,43.37,1.241932,-0.011037206552565765,0.021281651582922046,1.01426646614658,0.40685746554275976,-1.0893650827679784,-1.448094003321603
2024-09-22 23:56:59.145853,43.37,1.241932,-0.012988480952901577,0.021037716080532405,1.0122541258459061,0.4287444677185267,-1.0674780539117754,-1.4087318225037306
2024-09-22 23:56:59.188444,43.37,1.242023,-0.012378695361111141,0.021037716080532405,1.0122541258459061,0.4287444677185267,-1.0674780539117754,-1.4087318225037306
2024-09-22 23:56:59.199933,43.37,1.242023,-0.012378695361111141,0.01963527073796979,1.012620041251304,0.3193667930966243,-1.1068402347296475,-1.4087318225037306
2024-09-22 23:56:59.242240,43.37,1.242074,-0.010732313756670548,0.021281651582922046,1.015546975636458,0.3411964856958948,-1.1068402347296475,-1.469981032177806
2024-09-22 23:56:59.285469,42.85,1.242125,-0.010732313756670548,0.021281651582922046,1.015546975636458,0.3411964856958948,-1.1156065722204744,-1.504988752399385
2024-09-22 23:56:59.296872,42.85,1.242125,-0.010000509527966639,0.020001120827370582,1.0116442992417454,0.3411964856958948,-1.1156065722204744,-1.504988752399385
2024-09-22 23:56:59.338607,42.85,1.242176,-0.011159123418041933,0.02085484192155066,1.0116442992417454,0.3149550229238346,-1.014995075006783,-1.448094003321603
2024-09-22 23:56:59.381060,42.85,1.242176,-0.011159123418041933,0.02085484192155066,1.0137175930384832,0.2843590461946093,-1.014995075006783,-1.448094003321603
2024-09-22 23:56:59.393353,42.85,1.242226,-0.01713506550842347,0.02085484192155066,1.0137175930384832,0.2843590461946093,-1.0980740039605648,-1.5136977803137153
2024-09-22 23:56:59.437084,42.85,1.242315,-0.01713506550842347,0.023050050305299438,1.0146322843374704,0.4330989549952559,-1.0587118231426924,-1.5005769822265953
2024-09-22 23:56:59.480609,42.85,1.242315,-0.010000509527966639,0.020915799974544576,1.012620041251304,0.4330989549952559,-1.0587118231426924,-1.5005769822265953
2024-09-22 23:56:59.492364,42.85,1.242315,-0.010000509527966639,0.020915799974544576,1.012620041251304,0.3280757409696467,-1.1111946953259408,-1.5005769822265953
2024-09-22 23:56:59.535670,42.85,1.242366,-0.01378124399408774,0.020427930488741967,1.0109736163560281,0.3630834878716618,-1.1111946953259408,-1.434973311956227
2024-09-22 23:56:59.577578,42.85,1.242417,-0.01378124399408774,0.020427930488741967,1.0109736163560281,0.3630834878716618,-1.0193495356030762,-1.509343212995678
2024-09-22 23:56:59.588563,42.85,1.242417,-0.012500713238536278,0.020427930488741967,1.0171934977462411,0.3630834878716618,-1.0193495356030762,-1.509343212995678
2024-09-22 23:56:59.631373,42.85,1.242468,-0.012073802565215924,0.022684200215898644,1.0171934977462411,0.3018342781975865,-1.0762442846808582,-1.509343212995678
2024-09-22 23:56:59.674129,42.85,1.242468,-0.012073802565215924,0.022684200215898644,1.0150592504534395,0.3456082558686845,-1.0762442846808582,-1.509343212995678
2024-09-22 23:56:59.685255,42.85,1.242519,-0.011403058160943235,0.022684200215898644,1.0150592504534395,0.3456082558686845,-1.0062288442377,-1.3693696416858583
2024-09-22 23:56:59.727733,42.85,1.242519,-0.011403058160943235,0.021159735476934217,1.0115223922496177,0.3062460483703762,-1.0762442846808582,-1.469981032177806
2024-09-22 23:56:59.739453,42.85,1.242607,-0.011403058160943235,0.021159735476934217,1.0115223922496177,0.3062460483703762,-1.0762442846808582,-1.469981032177806
2024-09-22 23:56:59.771775,42.85,1.242607,-0.010122528164880112,0.022989092252305523,1.0115223922496177,0.3062460483703762,-1.0762442846808582,-1.469981032177806
2024-09-22 23:56:59.783244,42.85,1.242607,-0.010122528164880112,0.022989092252305523,1.0133517748475924,0.2186980663477443,-1.1199610328167677,-1.4174980532728136
2024-09-22 23:56:59.824941,42.85,1.242659,-0.01341539238571027,0.02329398580768908,1.0128639524500669,0.2274643237972632,-1.1199610328167677,-1.4174980532728136
2024-09-22 23:56:59.836539,42.85,1.242659,-0.01341539238571027,0.02329398580768908,1.0128639524500669,0.2274643237972632,-1.0849533125951887,-1.4174980532728136
2024-09-22 23:56:59.868641,42.85,1.24271,-0.01341539238571027,0.02329398580768908,1.0128639524500669,0.2274643237972632,-1.0849533125951887,-1.491868061034009
2024-09-22 23:56:59.880165,42.85,1.24271,-0.012927522899907663,0.02164760496273682,1.0160348952484908,0.26247207069927825,-1.0849533125951887,-1.491868061034009
2024-09-22 23:56:59.922819,42.85,1.24276,-0.014634963569291141,0.021159735476934217,1.0160348952484908,0.26247207069927825,-1.0193495356030762,-1.461214801408723
2024-09-22 23:56:59.934990,42.85,1.24276,-0.014634963569291141,0.021159735476934217,1.0164007134393813,0.26247207069927825,-1.0193495356030762,-1.461214801408723
2024-09-22 23:56:59.968263,42.85,1.24276,-0.014634963569291141,0.021159735476934217,1.0164007134393813,0.3018342781975865,-1.0805987452771515,-1.5005769822265953
2024-09-22 23:56:59.979454,42.85,1.242811,-0.01445198763887209,0.023781855293491683,1.0164007134393813,0.3018342781975865,-1.0805987452771515,-1.5005769822265953
2024-09-22 23:57:00.022189,42.85,1.242862,-0.015793578218854774,0.023781855293491683,1.0168275823408433,0.41121195281948897,-1.1068402347296475,-1.5005769822265953
2024-09-22 23:57:00.064454,42.85,1.242862,-0.015793578218854774,0.019086441680196593,1.0151202039495033,0.41121195281948897,-1.1068402347296475,-1.5005769822265953
2024-09-22 23:57:00.075622,42.85,1.242949,-0.015793578218854774,0.019086441680196593,1.0151202039495033,0.3499627431454137,-1.0630662837389857,-1.448094003321603
2024-09-22 23:57:00.117802,42.85,1.242949,-0.012256778495634975,0.02207441310513153,1.0139616014517532,0.27123832814879717,-1.0805987452771515,-1.448094003321603
2024-09-22 23:57:00.130025,42.85,1.242949,-0.012256778495634975,0.02207441310513153,1.0139616014517532,0.27123832814879717,-1.0805987452771515,-1.3956111311383546
2024-09-22 23:57:00.163461,42.85,1.243,-0.009390723936176203,0.018476656088406155,1.0139616014517532,0.27123832814879717,-1.0805987452771515,-1.3956111311383546
2024-09-22 23:57:00.174783,42.85,1.243,-0.009390723936176203,0.018476656088406155,1.0175593159371317,0.3411964856958948,-1.0805987452771515,-1.3956111311383546
2024-09-22 23:57:00.217436,42.85,1.243051,-0.013110498830326714,0.024696534440665677,1.0174374089450038,0.3411964856958948,-1.1024857741333545,-1.4306188513599336
2024-09-22 23:57:00.260945,42.85,1.243051,-0.013110498830326714,0.024696534440665677,1.0174374089450038,0.3849704900474288,-1.0718325145080685,-1.496222521630302
2024-09-22 23:57:00.272612,42.85,1.243102,-0.012805606793919833,0.017561976941232165,1.0174374089450038,0.3849704900474288,-1.0718325145080685,-1.496222521630302
2024-09-22 23:57:00.315201,42.84,1.243152,-0.014391029585878175,0.017561976941232165,1.0118883076550156,0.3499627431454137,-1.0893650827679784,-1.434973311956227
2024-09-22 23:57:00.357766,42.84,1.243152,-0.014391029585878175,0.016098470255261652,1.0162178529511898,0.3499627431454137,-1.0893650827679784,-1.434973311956227
2024-09-22 23:57:00.368685,42.84,1.243203,-0.014391029585878175,0.016098470255261652,1.0162178529511898,0.3849704900474288,-1.0368247942864894,-1.448094003321603
2024-09-22 23:57:00.411239,42.84,1.243203,-0.015122834574070423,0.018781549643789714,1.014144559154452,0.2318188110739924,-1.0849533125951887,-1.4306188513599336
2024-09-22 23:57:00.453246,42.84,1.243291,-0.010976248499571852,0.018781549643789714,1.014144559154452,0.2318188110739924,-1.0849533125951887,-1.4306188513599336
2024-09-22 23:57:00.464581,42.84,1.243291,-0.010976248499571852,0.01835463821098102,1.0148152420401695,0.3237212803733535,-1.0193495356030762,-1.4306188513599336
2024-09-22 23:57:00.507200,42.84,1.243342,-0.017196025080394063,0.021037716080532405,1.0174374089450038,0.3237212803733535,-1.0193495356030762,-1.4874562908612192
2024-09-22 23:57:00.519152,42.84,1.243342,-0.017196025080394063,0.021037716080532405,1.0174374089450038,0.3368419984191656,-1.0193495356030762,-1.4874562908612192
2024-09-22 23:57:00.552062,42.84,1.243342,-0.017196025080394063,0.021037716080532405,1.0174374089450038,0.3368419984191656,-1.0324703336901964,-1.3956111311383546
2024-09-22 23:57:00.563389,42.84,1.243393,-0.012256778495634975,0.022440264713509,1.0144494238492787,0.3368419984191656,-1.0324703336901964,-1.3956111311383546
2024-09-22 23:57:00.605168,42.84,1.243444,-0.012256778495634975,0.022440264713509,1.0144494238492787,0.3193667930966243,-1.0193495356030762,-1.4437395427253097
2024-09-22 23:57:00.616899,42.84,1.243444,-0.012317737308117227,0.02225739055452726,1.0144494238492787,0.3193667930966243,-1.0193495356030762,-1.4437395427253097
2024-09-22 23:57:00.649989,42.84,1.243444,-0.012317737308117227,0.02225739055452726,1.0151811574455674,0.3849704900474288,-1.0193495356030762,-1.4437395427253097
2024-09-22 23:57:00.661954,42.84,1.243494,-0.011220081471035847,0.02225739055452726,1.0151811574455674,0.3849704900474288,-1.1462025222692638,-1.4655692620050162
2024-09-22 23:57:00.703871,42.84,1.243583,-0.011220081471035847,0.017622936513202757,1.0168275823408433,0.3149550229238346,-1.0412365644592791,-1.4655692620050162
2024-09-22 23:57:00.746541,42.84,1.243583,-0.012805606793919833,0.02152558556633501,1.0168275823408433,0.3149550229238346,-1.0412365644592791,-1.4655692620050162
2024-09-22 23:57:00.758741,42.84,1.243583,-0.012805606793919833,0.02152558556633501,1.0189618296336447,0.3062460483703762,-0.9537458653327078,-1.3562488435987383
2024-09-22 23:57:00.802061,42.84,1.243634,-0.012927522899907663,0.019330377182586234,1.0136566395424191,0.3456082558686845,-1.0412365644592791,-1.3562488435987383
2024-09-22 23:57:00.844813,42.84,1.243685,-0.016464321863639123,0.019330377182586234,1.0136566395424191,0.3456082558686845,-1.0412365644592791,-1.5355847024481744
2024-09-22 23:57:00.855810,42.84,1.243685,-0.016464321863639123,0.02012303845233509,1.015973941752427,0.39809120809324083,-1.0412365644592791,-1.5355847024481744
2024-09-22 23:57:00.898262,42.84,1.243736,-0.013842202047081654,0.02012303845233509,1.015973941752427,0.39809120809324083,-1.1680894444037229,-1.4174980532728136
2024-09-22 23:57:00.940894,42.84,1.243736,-0.013842202047081654,0.01914740125216718,1.015973941752427,0.39809120809324083,-1.1680894444037229,-1.4174980532728136
2024-09-22 23:57:00.952348,42.84,1.243786,-0.013842202047081654,0.01914740125216718,1.0168886330514144,0.27994727602181957,-1.1637349838074296,-1.3737241022821516
2024-09-22 23:57:00.995534,42.84,1.243786,-0.012927522899907663,0.021952496999143704,1.0174983624410678,0.3149550229238346,-1.0543573625463993,-1.3737241022821516
2024-09-22 23:57:01.007658,42.84,1.243786,-0.012927522899907663,0.021952496999143704,1.0174983624410678,0.3149550229238346,-1.0543573625463993,-1.496222521630302
2024-09-22 23:57:01.040264,42.84,1.243837,-0.01341539238571027,0.022867176146317694,1.0174983624410678,0.3149550229238346,-1.0543573625463993,-1.496222521630302
2024-09-22 23:57:01.052152,42.84,1.243837,-0.01341539238571027,0.022867176146317694,1.0133517748475924,0.27123832814879717,-1.0237041029211134,-1.496222521630302
2024-09-22 23:57:01.094938,42.84,1.243924,-0.01378124399408774,0.021281651582922046,1.0112784810508548,0.27559278874509036,-1.0237041029211134,-1.3911993609655648
2024-09-22 23:57:01.138251,42.84,1.243975,-0.01378124399408774,0.021281651582922046,1.0112784810508548,0.27559278874509036,-1.1199610328167677,-1.4306188513599336
2024-09-22 23:57:01.150452,42.84,1.243975,-0.013293374508285133,0.020549948366167105,1.0139006479556893,0.27559278874509036,-1.1199610328167677,-1.4306188513599336
2024-09-22 23:57:01.183002,42.84,1.243975,-0.013293374508285133,0.020549948366167105,1.0139006479556893,0.3456082558686845,-1.1199610328167677,-1.4306188513599336
2024-09-22 23:57:01.194151,42.84,1.244026,-0.015244750680058252,0.01853761414140007,1.0139006479556893,0.3456082558686845,-1.1374934943549335,-1.461214801408723
2024-09-22 23:57:01.237269,42.84,1.244026,-0.015244750680058252,0.01853761414140007,1.0161568022406187,0.3237212803733535,-1.0718325145080685,-1.539996472620964
2024-09-22 23:57:01.248884,42.84,1.244077,-0.018415698035412244,0.01853761414140007,1.0161568022406187,0.3237212803733535,-1.0718325145080685,-1.539996472620964
2024-09-22 23:57:01.280905,42.84,1.244077,-0.018415698035412244,0.021281651582922046,1.0161568022406187,0.3237212803733535,-1.0718325145080685,-1.539996472620964
2024-09-22 23:57:01.292068,42.84,1.244167,-0.018415698035412244,0.021281651582922046,1.0170715907541132,0.3237212803733535,-0.993108152872324,-1.483101830264926
2024-09-22 23:57:01.334303,42.87,1.244167,-0.010305402323861856,0.020001120827370582,1.014144559154452,0.3499627431454137,-0.993108152872324,-1.483101830264926
2024-09-22 23:57:01.345640,42.87,1.244167,-0.010305402323861856,0.020001120827370582,1.014144559154452,0.3499627431454137,-1.1068402347296475,-1.4568603408124299
2024-09-22 23:57:01.377946,42.87,1.244219,-0.010305402323861856,0.020001120827370582,1.014144559154452,0.3499627431454137,-1.1068402347296475,-1.4568603408124299
2024-09-22 23:57:01.389800,42.87,1.244219,-0.011586034850850625,0.020610907938137694,1.0115223922496177,0.29306802074806765,-1.0849533125951887,-1.4568603408124299
2024-09-22 23:57:01.484765,42.87,1.24427,-0.012744546969488612,0.01695219134944173,1.0168275823408433,0.28871353347133843,-1.0849533125951887,-1.4655692620050162
2024-09-22 23:57:01.528212,42.87,1.244321,-0.012744546969488612,0.01695219134944173,1.0168275823408433,0.28871353347133843,-1.0630662837389857,-1.448094003321603
2024-09-22 23:57:01.539778,42.87,1.244321,-0.01256167205101853,0.018171764051999276,1.0134127283436565,0.28871353347133843,-1.0630662837389857,-1.448094003321603
2024-09-22 23:57:01.582248,42.87,1.244371,-0.014208053655459124,0.019574312684975875,1.0134127283436565,0.3674952580444515,-1.0193495356030762,-1.448094003321603
2024-09-22 23:57:01.626119,42.87,1.244371,-0.014208053655459124,0.019574312684975875,1.0157908868352208,0.39809120809324083,-1.028115873093903,-1.448094003321603
2024-09-22 23:57:01.638095,42.87,1.244422,-0.011342100107949322,0.019574312684975875,1.0157908868352208,0.39809120809324083,-1.028115873093903,-1.474335492774099
2024-09-22 23:57:01.670622,42.87,1.244422,-0.011342100107949322,0.020245056329760223,1.0157908868352208,0.39809120809324083,-1.028115873093903,-1.474335492774099
2024-09-22 23:57:01.682008,42.87,1.244509,-0.011342100107949322,0.020245056329760223,1.015668979843093,0.3237212803733535,-0.9755755846124142,-1.469981032177806
2024-09-22 23:57:01.724820,42.87,1.244509,-0.01481783924724956,0.020732824044125523,1.0134127283436565,0.29306802074806765,-0.9755755846124142,-1.469981032177806
2024-09-22 23:57:01.736714,42.87,1.244509,-0.01481783924724956,0.020732824044125523,1.0134127283436565,0.29306802074806765,-1.1374934943549335,-1.4524485706396402
2024-09-22 23:57:01.820978,42.87,1.244607,-0.010671253932239326,0.01853761414140007,1.0134127283436565,0.29306802074806765,-1.1374934943549335,-1.4524485706396402
2024-09-22 23:57:01.832419,42.87,1.244607,-0.010671253932239326,0.01853761414140007,1.0149982969573756,0.3456082558686845,-1.1068402347296475,-1.4524485706396402
2024-09-22 23:57:01.874516,42.87,1.244658,-0.015000815177668611,0.020610907938137694,1.0133517748475924,0.3324875378228724,-1.1068402347296475,-1.4306188513599336
2024-09-22 23:57:01.918224,42.87,1.244709,-0.015000815177668611,0.020610907938137694,1.0133517748475924,0.3324875378228724,-1.1111946953259408,-1.496222521630302
2024-09-22 23:57:01.930145,42.87,1.244709,-0.011342100107949322,0.019879204721382753,1.0133517748475924,0.3324875378228724,-1.1111946953259408,-1.496222521630302
2024-09-22 23:57:01.972327,42.87,1.24476,-0.014878899071680782,0.019879204721382753,1.0135956860463553,0.2668265312955715,-1.1462025222692638,-1.496222521630302
2024-09-22 23:57:02.015691,42.87,1.24476,-0.014878899071680782,0.02140366946034718,1.018656964938818,0.37184974532118065,-1.1462025222692638,-1.496222521630302
2024-09-22 23:57:02.028549,42.87,1.24481,-0.014878899071680782,0.02140366946034718,1.018656964938818,0.37184974532118065,-1.0674780539117754,-1.5224640110827983
2024-09-22 23:57:02.060544,42.87,1.24481,-0.015671560341429636,0.02140366946034718,1.018656964938818,0.37184974532118065,-1.0674780539117754,-1.5224640110827983
2024-09-22 23:57:02.072204,42.87,1.24481,-0.015671560341429636,0.022196330730096036,1.015486022140394,0.3411964856958948,-1.1024857741333545,-1.5355847024481744
2024-09-22 23:57:02.114124,42.87,1.244947,-0.011707950956838454,0.019696228790963704,1.015486022140394,0.3411964856958948,-1.1024857741333545,-1.5355847024481744
2024-09-22 23:57:02.125807,42.87,1.244947,-0.011707950956838454,0.019696228790963704,1.0139616014517532,0.27123832814879717,-1.0412365644592791,-1.5355847024481744
2024-09-22 23:57:02.159284,42.87,1.244947,-0.011707950956838454,0.019696228790963704,1.0139616014517532,0.27123832814879717,-1.0412365644592791,-1.426207081187144
2024-09-22 23:57:02.170935,42.87,1.244999,-0.01365932788809991,0.02067186599113161,1.0143274196426437,0.4418652124447748,-1.0412365644592791,-1.426207081187144
2024-09-22 23:57:02.213183,42.87,1.24505,-0.01396421992450679,0.02012303845233509,1.0143274196426437,0.4418652124447748,-1.0805987452771515,-1.4218526205908506
2024-09-22 23:57:02.224934,42.87,1.24505,-0.01396421992450679,0.02012303845233509,1.0144494238492787,0.4418652124447748,-1.0805987452771515,-1.4218526205908506
2024-09-22 23:57:02.256554,42.87,1.24505,-0.01396421992450679,0.02012303845233509,1.0144494238492787,0.37620423259790986,-1.0805987452771515,-1.4218526205908506
2024-09-22 23:57:02.268009,42.87,1.2451,-0.009756574785065334,0.02085484192155066,1.0144494238492787,0.37620423259790986,-1.0499454856518655,-1.4524485706396402
2024-09-22 23:57:02.312071,42.87,1.245151,-0.009756574785065334,0.02085484192155066,1.0139006479556893,0.2186980663477443,-1.0237041029211134,-1.3911993609655648
2024-09-22 23:57:02.323783,42.87,1.245151,-0.012988480952901577,0.02085484192155066,1.0139006479556893,0.2186980663477443,-1.0237041029211134,-1.3911993609655648
2024-09-22 23:57:02.355364,42.77,1.245151,-0.012988480952901577,0.019330377182586234,1.0174983624410678,0.2186980663477443,-1.0237041029211134,-1.3911993609655648
2024-09-22 23:57:02.367138,42.77,1.24524,-0.012988480952901577,0.019330377182586234,1.0174983624410678,0.38061600277069957,-1.1243154934130608,-1.504988752399385
2024-09-22 23:57:02.411166,42.77,1.24524,-0.015061773230662524,0.02213537267710212,1.0091442337580534,0.3456082558686845,-1.0543573625463993,-1.4306188513599336
2024-09-22 23:57:02.453776,42.77,1.245291,-0.009390723936176203,0.016159429827232244,1.0091442337580534,0.3456082558686845,-1.0543573625463993,-1.4306188513599336
2024-09-22 23:57:02.464871,42.77,1.245291,-0.009390723936176203,0.016159429827232244,1.0129859566567019,0.4155664400962181,-1.0455910250555724,-1.4306188513599336
2024-09-22 23:57:02.506916,42.77,1.245342,-0.012805606793919833,0.020366972435748053,1.0125589905407328,0.4155664400962181,-1.0455910250555724,-1.413086283100024
2024-09-22 23:57:02.518760,42.77,1.245342,-0.012805606793919833,0.020366972435748053,1.0125589905407328,0.27123832814879717,-1.0455910250555724,-1.413086283100024
2024-09-22 23:57:02.603189,42.77,1.245393,-0.012866564846913748,0.020366972435748053,1.0125589905407328,0.27123832814879717,-1.0674780539117754,-1.469981032177806
2024-09-22 23:57:02.615831,42.77,1.245393,-0.012866564846913748,0.01853761414140007,1.015668979843093,0.27123832814879717,-1.0674780539117754,-1.469981032177806
2024-09-22 23:57:02.648449,42.77,1.245393,-0.012866564846913748,0.01853761414140007,1.015668979843093,0.27559278874509036,-1.0368247942864894,-1.469981032177806
2024-09-22 23:57:02.660169,42.77,1.245444,-0.008537002841996126,0.02189143717471248,1.015668979843093,0.27559278874509036,-1.0368247942864894,-1.4437395427253097
2024-09-22 23:57:02.703435,42.77,1.245494,-0.015305708733052167,0.02189143717471248,1.013778546534547,0.3411964856958948,-1.1243154934130608,-1.518109550486505
2024-09-22 23:57:02.747146,42.77,1.245494,-0.015305708733052167,0.021586543619328925,1.0139616014517532,0.3193667930966243,-1.1243154934130608,-1.518109550486505
2024-09-22 23:57:02.759441,42.77,1.245581,-0.015305708733052167,0.021586543619328925,1.0139616014517532,0.3193667930966243,-0.958100325929001,-1.3606034109167755
2024-09-22 23:57:02.791601,42.77,1.245581,-0.014695923141261731,0.021586543619328925,1.0139616014517532,0.3193667930966243,-0.958100325929001,-1.3606034109167755
2024-09-22 23:57:02.803409,42.77,1.245581,-0.014695923141261731,0.02085484192155066,1.0182911467479274,0.3674952580444515,-1.0237041029211134,-1.3824903330512346
2024-09-22 23:57:02.845972,42.77,1.245679,-0.01396421992450679,0.01811080599900536,1.0138396944596255,0.3674952580444515,-1.0237041029211134,-1.3824903330512346
2024-09-22 23:57:02.857848,42.77,1.245679,-0.01396421992450679,0.01811080599900536,1.0138396944596255,0.41121195281948897,-1.0368247942864894,-1.3824903330512346
2024-09-22 23:57:02.891498,42.77,1.245731,-0.01396421992450679,0.01811080599900536,1.0138396944596255,0.41121195281948897,-1.0368247942864894,-1.4787472629468887
2024-09-22 23:57:02.902710,42.77,1.245731,-0.01713506550842347,0.020427930488741967,1.0153641151482662,0.3062460483703762,-1.0368247942864894,-1.4787472629468887
2024-09-22 23:57:02.945228,42.77,1.245781,-0.01408613603049462,0.021159735476934217,1.0153641151482662,0.3062460483703762,-1.0718325145080685,-1.5224640110827983
2024-09-22 23:57:02.957181,42.77,1.245781,-0.01408613603049462,0.021159735476934217,1.0163397599433175,0.3062460483703762,-1.0718325145080685,-1.5224640110827983
2024-09-22 23:57:02.989970,42.77,1.245781,-0.01408613603049462,0.021159735476934217,1.0163397599433175,0.29306802074806765,-1.0849533125951887,-1.5224640110827983
2024-09-22 23:57:03.001918,42.77,1.245832,-0.013049540777332799,0.021037716080532405,1.0163397599433175,0.29306802074806765,-1.0849533125951887,-1.5355847024481744
2024-09-22 23:57:03.045166,42.77,1.245883,-0.011403058160943235,0.021037716080532405,1.0119492611510794,0.31060053564710544,-1.0805987452771515,-1.483101830264926
2024-09-22 23:57:03.089039,42.77,1.245883,-0.011403058160943235,0.020915799974544576,1.0149982969573756,0.27559278874509036,-1.0805987452771515,-1.483101830264926
2024-09-22 23:57:03.100622,42.77,1.245971,-0.011403058160943235,0.020915799974544576,1.0149982969573756,0.27559278874509036,-0.9843418153814971,-1.3911993609655648
2024-09-22 23:57:03.133150,42.77,1.245971,-0.01365932788809991,0.020915799974544576,1.0149982969573756,0.27559278874509036,-0.9843418153814971,-1.3911993609655648
2024-09-22 23:57:03.145250,42.77,1.245971,-0.01365932788809991,0.020062078880364497,1.010668654446694,0.3456082558686845,-1.0674780539117754,-1.3168293532043696
2024-09-22 23:57:03.187605,42.77,1.246023,-0.01146401621393715,0.024269623007856983,1.0132298678554648,0.3456082558686845,-1.0674780539117754,-1.3168293532043696
2024-09-22 23:57:03.199293,42.77,1.246023,-0.01146401621393715,0.024269623007856983,1.0132298678554648,0.28871353347133843,-0.9624548932470381,-1.3168293532043696
2024-09-22 23:57:03.231995,42.77,1.246023,-0.01146401621393715,0.024269623007856983,1.0132298678554648,0.28871353347133843,-0.9624548932470381,-1.3956111311383546
2024-09-22 23:57:03.244167,42.77,1.246073,-0.012927522899907663,0.0173180429578192,1.0152421109416312,0.3237212803733535,-0.9624548932470381,-1.3956111311383546
2024-09-22 23:57:03.286663,42.77,1.246124,-0.013293374508285133,0.022684200215898644,1.0152421109416312,0.3237212803733535,-1.0587118231426924,-1.4437395427253097
2024-09-22 23:57:03.298734,42.77,1.246124,-0.013293374508285133,0.022684200215898644,1.0112784810508548,0.3237212803733535,-1.0587118231426924,-1.4437395427253097
2024-09-22 23:57:03.330294,42.77,1.246124,-0.013293374508285133,0.022684200215898644,1.0112784810508548,0.3062460483703762,-1.1287272635858505,-1.4437395427253097
2024-09-22 23:57:03.341605,42.77,1.246175,-0.011586034850850625,0.016830173472016593,1.0112784810508548,0.3062460483703762,-1.1287272635858505,-1.434973311956227
2024-09-22 23:57:03.384979,42.68,1.246226,-0.011586034850850625,0.016830173472016593,1.0165836711420804,0.31060053564710544,-1.0193495356030762,-1.4655692620050162
2024-09-22 23:57:03.396799,42.68,1.246226,-0.014147094083488534,0.016830173472016593,1.0165836711420804,0.31060053564710544,-1.0193495356030762,-1.4655692620050162
2024-09-22 23:57:03.428288,42.68,1.246226,-0.014147094083488534,0.021464627513341095,1.0163397599433175,0.2668265312955715,-1.0193495356030762,-1.4655692620050162
2024-09-22 23:57:03.439727,42.68,1.246312,-0.014147094083488534,0.021464627513341095,1.0163397599433175,0.2668265312955715,-1.0237041029211134,-1.3824903330512346
2024-09-22 23:57:03.482335,42.68,1.246312,-0.015122834574070423,0.020366972435748053,1.0139006479556893,0.2362305812467821,-1.0105833048339934,-1.43932777255252
2024-09-22 23:57:03.525180,42.68,1.246364,-0.011768909009832369,0.020366972435748053,1.0139006479556893,0.2362305812467821,-1.0105833048339934,-1.43932777255252
2024-09-22 23:57:03.536874,42.68,1.246364,-0.011768909009832369,0.02189143717471248,1.0148762927507406,0.3368419984191656,-1.1024857741333545,-1.43932777255252
2024-09-22 23:57:03.579629,42.68,1.246415,-0.013476350438704184,0.01811080599900536,1.0168275823408433,0.3237212803733535,-1.1024857741333545,-1.509343212995678
2024-09-22 23:57:03.622215,42.68,1.246415,-0.013476350438704184,0.01811080599900536,1.0168275823408433,0.3237212803733535,-1.0237041029211134,-1.5005769822265953
2024-09-22 23:57:03.633787,42.68,1.246465,-0.011707950956838454,0.021098777423940302,1.0124370835486052,0.3237212803733535,-1.0237041029211134,-1.5005769822265953
2024-09-22 23:57:03.676383,42.68,1.246516,-0.011890927646745842,0.021098777423940302,1.0124370835486052,0.38061600277069957,-1.0893650827679784,-1.483101830264926
2024-09-22 23:57:03.688232,42.68,1.246516,-0.011890927646745842,0.02317206970170125,1.0124370835486052,0.38061600277069957,-1.0893650827679784,-1.483101830264926
2024-09-22 23:57:03.720857,42.68,1.246516,-0.011890927646745842,0.02317206970170125,1.0161568022406187,0.2843590461946093,-1.0893650827679784,-1.483101830264926
2024-09-22 23:57:03.732631,42.68,1.246567,-0.012744546969488612,0.02317206970170125,1.0161568022406187,0.2843590461946093,-1.0018170740649104,-1.448094003321603
2024-09-22 23:57:03.776053,42.68,1.246654,-0.012744546969488612,0.017561976941232165,1.0134736818397203,0.3324875378228724,-1.0718325145080685,-1.531230241851881
2024-09-22 23:57:03.818949,42.68,1.246654,-0.012317737308117227,0.02213537267710212,1.0138396944596255,0.3324875378228724,-1.0718325145080685,-1.531230241851881
2024-09-22 23:57:03.829974,42.68,1.246654,-0.012317737308117227,0.02213537267710212,1.0138396944596255,0.31060053564710544,-0.9755755846124142,-1.434973311956227
2024-09-22 23:57:03.872648,42.68,1.246705,-0.012073802565215924,0.019025483627202678,1.0146322843374704,0.3368419984191656,-1.0762442846808582,-1.434973311956227
2024-09-22 23:57:03.915398,42.68,1.246756,-0.012073802565215924,0.019025483627202678,1.0146322843374704,0.3368419984191656,-1.0762442846808582,-1.3911993609655648
2024-09-22 23:57:03.926724,42.68,1.246756,-0.014695923141261731,0.018964423802771455,1.015546975636458,0.27123832814879717,-1.0762442846808582,-1.3911993609655648
2024-09-22 23:57:03.969601,42.68,1.246807,-0.012256778495634975,0.021159735476934217,1.015546975636458,0.27123832814879717,-1.1330817241821438,-1.4655692620050162
2024-09-22 23:57:03.981555,42.68,1.246807,-0.012256778495634975,0.021159735476934217,1.016705578134208,0.27123832814879717,-1.1330817241821438,-1.4655692620050162
2024-09-22 23:57:04.015167,42.68,1.246858,-0.012256778495634975,0.021159735476934217,1.016705578134208,0.38932495064372197,-1.0062288442377,-1.4874562908612192
2024-09-22 23:57:04.026942,42.68,1.246858,-0.014878899071680782,0.020366972435748053,1.016705578134208,0.38932495064372197,-1.0062288442377,-1.4874562908612192
2024-09-22 23:57:04.058689,42.68,1.246858,-0.014878899071680782,0.020366972435748053,1.0162178529511898,0.38932495064372197,-1.0062288442377,-1.4874562908612192
2024-09-22 23:57:04.069587,42.68,1.246909,-0.013476350438704184,0.020366972435748053,1.0162178529511898,0.37620423259790986,-1.0324703336901964,-1.3824903330512346
2024-09-22 23:57:04.111933,42.68,1.246909,-0.013476350438704184,0.019513251341567978,1.0178032271358946,0.37620423259790986,-1.0324703336901964,-1.3824903330512346
2024-09-22 23:57:04.123708,42.68,1.246995,-0.013476350438704184,0.019513251341567978,1.0178032271358946,0.3280757409696467,-0.9668666634198279,-1.4218526205908506
2024-09-22 23:57:04.166696,42.68,1.246995,-0.012622630104012445,0.01798878660260355,1.015608026347029,0.2581175834225491,-0.993108152872324,-1.4524485706396402
2024-09-22 23:57:04.208969,42.68,1.247047,-0.01481783924724956,0.021586543619328925,1.015608026347029,0.2581175834225491,-0.993108152872324,-1.4524485706396402
2024-09-22 23:57:04.220201,42.68,1.247047,-0.01481783924724956,0.021586543619328925,1.0157908868352208,0.27123832814879717,-1.15932321363464,-1.4524485706396402
2024-09-22 23:57:04.263398,42.68,1.247097,-0.013049540777332799,0.023537919791102042,1.0151811574455674,0.3543172304221429,-1.15932321363464,-1.4218526205908506
2024-09-22 23:57:04.305260,42.68,1.247097,-0.013049540777332799,0.023537919791102042,1.0151811574455674,0.3543172304221429,-1.0674780539117754,-1.531230241851881
2024-09-22 23:57:04.317256,42.68,1.247148,-0.013354434332716355,0.020427930488741967,1.0129859566567019,0.3543172304221429,-1.0674780539117754,-1.531230241851881
2024-09-22 23:57:04.360214,42.68,1.247199,-0.012439653414105056,0.020427930488741967,1.0129859566567019,0.3499627431454137,-1.1243154934130608,-1.504988752399385
2024-09-22 23:57:04.372113,42.68,1.247199,-0.012439653414105056,0.022196330730096036,1.0129859566567019,0.3499627431454137,-1.1243154934130608,-1.504988752399385
2024-09-22 23:57:04.404795,42.97,1.247199,-0.012439653414105056,0.022196330730096036,1.0129859566567019,0.3543172304221429,-1.1987427040290088,-1.504988752399385
2024-09-22 23:57:04.416390,42.97,1.247249,-0.013476350438704184,0.022196330730096036,1.0129859566567019,0.3543172304221429,-1.1987427040290088,-1.4174980532728136
2024-09-22 23:57:04.459203,42.97,1.247336,-0.013476350438704184,0.01890346574977754,1.0171934977462411,0.3411964856958948,-1.028115873093903,-1.4306188513599336
2024-09-22 23:57:04.501463,42.97,1.247336,-0.01146401621393715,0.021830479121718566,1.0107297051572652,0.3411964856958948,-1.028115873093903,-1.4306188513599336
2024-09-22 23:57:04.513262,42.97,1.247336,-0.01146401621393715,0.021830479121718566,1.0107297051572652,0.39373674749694765,-1.1418479549512268,-1.496222521630302
2024-09-22 23:57:04.555987,42.97,1.247388,-0.011281142054955407,0.019513251341567978,1.0146933350480416,0.3368419984191656,-1.1680894444037229,-1.496222521630302
2024-09-22 23:57:04.598571,42.97,1.247438,-0.011281142054955407,0.019513251341567978,1.0146933350480416,0.3368419984191656,-1.1680894444037229,-1.539996472620964
2024-09-22 23:57:04.610449,42.97,1.247438,-0.011951885699739756,0.02097675802753849,1.013778546534547,0.3018342781975865,-1.1680894444037229,-1.539996472620964
2024-09-22 23:57:04.653805,42.97,1.247489,-0.012317737308117227,0.02207441310513153,1.0140835084438808,0.3018342781975865,-0.958100325929001,-1.4568603408124299
2024-09-22 23:57:04.696356,42.97,1.247489,-0.012317737308117227,0.02207441310513153,1.0140835084438808,0.3674952580444515,-1.0018170740649104,-1.531230241851881
2024-09-22 23:57:04.708237,42.97,1.24754,-0.011098165365048018,0.02085484192155066,1.0140835084438808,0.3674952580444515,-1.0018170740649104,-1.531230241851881
2024-09-22 23:57:04.750959,42.97,1.247591,-0.011951885699739756,0.02085484192155066,1.0143883731387076,0.35872900059493257,-1.1899764732599258,-1.4524485706396402
2024-09-22 23:57:04.794396,42.97,1.247591,-0.011951885699739756,0.024269623007856983,1.0132908213515286,0.29306802074806765,-1.1899764732599258,-1.4524485706396402
2024-09-22 23:57:04.805822,42.97,1.247677,-0.011951885699739756,0.024269623007856983,1.0132908213515286,0.29306802074806765,-0.9974626134686172,-1.4524485706396402
2024-09-22 23:57:04.848440,42.97,1.247677,-0.012927522899907663,0.02274515826889256,1.017010540043542,0.3543172304221429,-1.1330817241821438,-1.43932777255252
2024-09-22 23:57:04.942205,42.97,1.247729,-0.009085831140280984,0.02189143717471248,1.0131688171448936,0.3543172304221429,-1.1330817241821438,-1.43932777255252
2024-09-22 23:57:04.954229,42.97,1.247729,-0.009085831140280984,0.02189143717471248,1.0131688171448936,0.26247207069927825,-1.1462025222692638,-1.43932777255252
2024-09-22 23:57:04.987833,42.97,1.24778,-0.009085831140280984,0.02189143717471248,1.0131688171448936,0.26247207069927825,-1.1462025222692638,-1.3780785628784449
2024-09-22 23:57:04.999817,42.97,1.24778,-0.015610600769459046,0.020915799974544576,1.0121931723498423,0.3062460483703762,-1.1462025222692638,-1.3780785628784449
2024-09-22 23:57:05.043192,42.97,1.24783,-0.012378695361111141,0.022562284109910815,1.0137175930384832,0.3062460483703762,-1.0499454856518655,-1.4174980532728136
2024-09-22 23:57:05.086142,42.97,1.24783,-0.012378695361111141,0.022562284109910815,1.0137175930384832,0.3543172304221429,-1.028115873093903,-1.4174980532728136
2024-09-22 23:57:05.097991,42.97,1.247881,-0.012012843752733671,0.021281651582922046,1.0137175930384832,0.3543172304221429,-1.028115873093903,-1.3868447936475277
2024-09-22 23:57:05.140519,42.97,1.247932,-0.010976248499571852,0.021281651582922046,1.0175593159371317,0.2843590461946093,-0.9843418153814971,-1.3824903330512346
2024-09-22 23:57:05.182670,42.97,1.247932,-0.010976248499571852,0.02152558556633501,1.0181691425412924,0.2843590461946093,-0.9843418153814971,-1.3824903330512346
2024-09-22 23:57:05.194350,42.97,1.248067,-0.010976248499571852,0.02152558556633501,1.0181691425412924,0.3149550229238346,-1.0368247942864894,-1.491868061034009
2024-09-22 23:57:05.237244,42.97,1.248067,-0.01219582044264106,0.01939133523558015,1.015546975636458,0.29306802074806765,-1.0718325145080685,-1.491868061034009
2024-09-22 23:57:05.249076,42.97,1.248067,-0.01219582044264106,0.01939133523558015,1.015546975636458,0.29306802074806765,-1.0718325145080685,-1.5224640110827983
2024-09-22 23:57:05.281872,42.97,1.248119,-0.01219582044264106,0.020732824044125523,1.015546975636458,0.29306802074806765,-1.0718325145080685,-1.5224640110827983
2024-09-22 23:57:05.293130,42.97,1.248119,-0.01219582044264106,0.020732824044125523,1.0150592504534395,0.37184974532118065,-1.2818216329827905,-1.5224640110827983
2024-09-22 23:57:05.335750,42.97,1.24817,-0.012805606793919833,0.020915799974544576,1.0113394345469187,0.3149550229238346,-1.2818216329827905,-1.4437395427253097
2024-09-22 23:57:05.378321,42.97,1.24817,-0.012805606793919833,0.020915799974544576,1.0113394345469187,0.3149550229238346,-1.1768557818945498,-1.5574717313043773
2024-09-22 23:57:05.390045,42.97,1.248221,-0.015183792627064338,0.020549948366167105,1.0162788064472537,0.3149550229238346,-1.1768557818945498,-1.5574717313043773
2024-09-22 23:57:05.432119,42.39,1.248271,-0.013171458402297304,0.02152558556633501,1.0162788064472537,0.28871353347133843,-1.0412365644592791,-1.4568603408124299
2024-09-22 23:57:05.475280,42.39,1.248271,-0.013171458402297304,0.02152558556633501,1.0139616014517532,0.3499627431454137,-1.0412365644592791,-1.4568603408124299
2024-09-22 23:57:05.486472,42.39,1.248322,-0.01536666678604608,0.02152558556633501,1.0139616014517532,0.3499627431454137,-1.0543573625463993,-1.518109550486505
2024-09-22 23:57:05.528223,42.39,1.248322,-0.01536666678604608,0.019513251341567978,1.01737645544894,0.28871353347133843,-1.1418479549512268,-1.4874562908612192
2024-09-22 23:57:05.540105,42.39,1.248409,-0.01536666678604608,0.019513251341567978,1.01737645544894,0.28871353347133843,-1.1418479549512268,-1.4874562908612192
2024-09-22 23:57:05.573144,42.39,1.248409,-0.014025177977500705,0.019818144896951533,1.01737645544894,0.28871353347133843,-1.1418479549512268,-1.4874562908612192
2024-09-22 23:57:05.585146,42.39,1.248409,-0.014025177977500705,0.019818144896951533,1.0149982969573756,0.27123832814879717,-1.0849533125951887,-1.413086283100024
2024-09-22 23:57:05.628587,42.39,1.24846,-0.01396421992450679,0.019574312684975875,1.0174374089450038,0.3018342781975865,-1.0805987452771515,-1.413086283100024
2024-09-22 23:57:05.670583,42.39,1.248511,-0.01396421992450679,0.019574312684975875,1.0174374089450038,0.3018342781975865,-1.0805987452771515,-1.4174980532728136
2024-09-22 23:57:05.682251,42.39,1.248511,-0.013110498830326714,0.02237930666051509,1.015608026347029,0.40244569536997005,-1.0805987452771515,-1.4174980532728136
2024-09-22 23:57:05.724699,42.39,1.248562,-0.012439653414105056,0.019574312684975875,1.0128639524500669,0.40244569536997005,-1.0718325145080685,-1.531230241851881
2024-09-22 23:57:05.767742,42.39,1.248562,-0.012439653414105056,0.019574312684975875,1.0128639524500669,0.41121195281948897,-1.0849533125951887,-1.531230241851881
2024-09-22 23:57:05.778906,42.39,1.248612,-0.012744546969488612,0.01786687049661572,1.0128639524500669,0.41121195281948897,-1.0849533125951887,-1.6056002496130763
2024-09-22 23:57:05.821829,42.39,1.248663,-0.012744546969488612,0.01786687049661572,1.0129859566567019,0.3499627431454137,-1.15932321363464,-1.496222521630302
2024-09-22 23:57:05.833831,42.39,1.248663,-0.015244750680058252,0.01786687049661572,1.0129859566567019,0.3499627431454137,-1.15932321363464,-1.496222521630302
2024-09-22 23:57:05.865342,42.39,1.248663,-0.015244750680058252,0.01811080599900536,1.014144559154452,0.3499627431454137,-1.15932321363464,-1.496222521630302
2024-09-22 23:57:05.877415,42.39,1.24875,-0.015244750680058252,0.01811080599900536,1.014144559154452,0.3543172304221429,-1.1243154934130608,-1.518109550486505
2024-09-22 23:57:05.920868,42.39,1.24875,-0.013232416455291218,0.01975718684395762,1.0171934977462411,0.3456082558686845,-1.0324703336901964,-1.509343212995678
2024-09-22 23:57:05.964514,42.39,1.248802,-0.012500713238536278,0.01926931735815501,1.0171934977462411,0.3456082558686845,-1.0324703336901964,-1.509343212995678
2024-09-22 23:57:05.976081,42.39,1.248802,-0.012500713238536278,0.01926931735815501,1.0176202694331955,0.3674952580444515,-1.1156065722204744,-1.509343212995678
2024-09-22 23:57:06.019532,42.39,1.248852,-0.012256778495634975,0.01750101888823825,1.0132908213515286,0.3193667930966243,-1.1156065722204744,-1.4655692620050162
2024-09-22 23:57:06.061970,42.39,1.248903,-0.012256778495634975,0.01750101888823825,1.0132908213515286,0.3193667930966243,-1.1068402347296475,-1.5005769822265953
2024-09-22 23:57:06.073686,42.39,1.248903,-0.014269113479890346,0.02067186599113161,1.0150592504534395,0.3193667930966243,-1.1068402347296475,-1.5005769822265953
2024-09-22 23:57:06.117064,42.39,1.248954,-0.012378695361111141,0.02122069352992813,1.0150592504534395,0.3324875378228724,-1.0674780539117754,-1.491868061034009
2024-09-22 23:57:06.159304,42.39,1.248954,-0.012378695361111141,0.02122069352992813,1.0129859566567019,0.27559278874509036,-0.993108152872324,-1.491868061034009
2024-09-22 23:57:06.170799,42.39,1.249005,-0.01378124399408774,0.02122069352992813,1.0129859566567019,0.27559278874509036,-0.993108152872324,-1.483101830264926
2024-09-22 23:57:06.213352,42.39,1.249092,-0.01378124399408774,0.01695219134944173,1.0115833457456815,0.3193667930966243,-1.0674780539117754,-1.3737241022821516
2024-09-22 23:57:06.256620,42.39,1.249092,-0.013171458402297304,0.02067186599113161,1.0139006479556893,0.3193667930966243,-1.0674780539117754,-1.3737241022821516
2024-09-22 23:57:06.268365,42.39,1.249092,-0.013171458402297304,0.02067186599113161,1.0139006479556893,0.2537058132497594,-1.0805987452771515,-1.3737241022821516
2024-09-22 23:57:06.310974,42.39,1.249143,-0.01219582044264106,0.020062078880364497,1.012742045457939,0.26247207069927825,-1.0805987452771515,-1.3343619214642792
2024-09-22 23:57:06.354758,42.39,1.249194,-0.01219582044264106,0.020062078880364497,1.012742045457939,0.26247207069927825,-1.0237041029211134,-1.461214801408723
2024-09-22 23:57:06.366343,42.39,1.249194,-0.01164699290384454,0.02134260963591596,1.0171934977462411,0.26247207069927825,-1.0237041029211134,-1.461214801408723
2024-09-22 23:57:06.409564,42.39,1.249245,-0.014939857124674697,0.016342405757651293,1.0171934977462411,0.3018342781975865,-1.0587118231426924,-1.426207081187144
2024-09-22 23:57:06.452322,41.92,1.249245,-0.014939857124674697,0.016342405757651293,1.0146933350480416,0.2843590461946093,-1.0718325145080685,-1.426207081187144
2024-09-22 23:57:06.463977,41.92,1.249295,-0.014634963569291141,0.016342405757651293,1.0146933350480416,0.2843590461946093,-1.0718325145080685,-1.3737241022821516
2024-09-22 23:57:06.507286,41.92,1.249346,-0.014634963569291141,0.019208359305161096,1.0134736818397203,0.3062460483703762,-1.0674780539117754,-1.3430708426568656
2024-09-22 23:57:06.549069,41.92,1.249346,-0.011220081471035847,0.02067186599113161,1.0134736818397203,0.3062460483703762,-1.0674780539117754,-1.3430708426568656
2024-09-22 23:57:06.560492,41.92,1.249346,-0.011220081471035847,0.02067186599113161,1.0134736818397203,0.3324875378228724,-1.0412365644592791,-1.4437395427253097
2024-09-22 23:57:06.603477,41.92,1.249433,-0.014147094083488534,0.01963527073796979,1.0151811574455674,0.3456082558686845,-1.0368247942864894,-1.4437395427253097
2024-09-22 23:57:06.646251,41.92,1.249484,-0.015183792627064338,0.01963527073796979,1.0151811574455674,0.3456082558686845,-1.0368247942864894,-1.3956111311383546
2024-09-22 23:57:06.657619,41.92,1.249484,-0.015183792627064338,0.021098777423940302,1.013778546534547,0.3193667930966243,-1.0368247942864894,-1.3956111311383546
2024-09-22 23:57:06.700844,41.92,1.249535,-0.01433007153288426,0.023903771399479513,1.0174374089450038,0.3193667930966243,-1.0412365644592791,-1.5136977803137153
2024-09-22 23:57:06.743368,41.92,1.249535,-0.01433007153288426,0.023903771399479513,1.0174374089450038,0.27123832814879717,-1.0849533125951887,-1.4218526205908506
2024-09-22 23:57:06.754952,41.92,1.249586,-0.012317737308117227,0.019940162774376668,1.0174374089450038,0.27123832814879717,-1.0849533125951887,-1.4218526205908506
2024-09-22 23:57:06.798564,41.92,1.249637,-0.012622630104012445,0.019940162774376668,1.0149982969573756,0.35872900059493257,-0.9974626134686172,-1.3999655917346479
2024-09-22 23:57:06.841331,41.92,1.249637,-0.012622630104012445,0.020915799974544576,1.0147542885441054,0.3062460483703762,-0.9974626134686172,-1.3999655917346479
2024-09-22 23:57:06.852815,41.92,1.249725,-0.012622630104012445,0.020915799974544576,1.0147542885441054,0.3062460483703762,-1.0237041029211134,-1.539996472620964
2024-09-22 23:57:06.896145,41.92,1.249725,-0.011220081471035847,0.021952496999143704,1.0137175930384832,0.3674952580444515,-0.9843418153814971,-1.3999655917346479
2024-09-22 23:57:06.989989,41.92,1.249777,-0.013476350438704184,0.021952496999143704,1.0117053499523165,0.3674952580444515,-0.9843418153814971,-1.3999655917346479
2024-09-22 23:57:07.002030,41.92,1.249777,-0.013476350438704184,0.021952496999143704,1.0117053499523165,0.40244569536997005,-1.15932321363464,-1.3999655917346479
2024-09-22 23:57:07.034373,41.92,1.249777,-0.013476350438704184,0.021952496999143704,1.0117053499523165,0.40244569536997005,-1.15932321363464,-1.461214801408723
2024-09-22 23:57:07.045654,41.92,1.249827,-0.01396421992450679,0.020915799974544576,1.0170715907541132,0.3411964856958948,-1.15932321363464,-1.461214801408723
2024-09-22 23:57:07.087847,41.92,1.249878,-0.012317737308117227,0.020915799974544576,1.0170715907541132,0.3411964856958948,-1.1374934943549335,-1.4524485706396402
2024-09-22 23:57:07.099593,41.92,1.249878,-0.012317737308117227,0.018415698035412244,1.0180472355491645,0.3411964856958948,-1.1374934943549335,-1.4524485706396402
2024-09-22 23:57:07.133114,41.92,1.249878,-0.012317737308117227,0.018415698035412244,1.0180472355491645,0.37184974532118065,-0.9974626134686172,-1.4524485706396402
2024-09-22 23:57:07.145454,41.92,1.249929,-0.012317737308117227,0.02176952106872465,1.0180472355491645,0.37184974532118065,-0.9974626134686172,-1.504988752399385
2024-09-22 23:57:07.188463,41.92,1.24998,-0.012866564846913748,0.02176952106872465,1.0139006479556893,0.3411964856958948,-0.993108152872324,-1.5268184716790913
2024-09-22 23:57:07.231746,41.92,1.24998,-0.012866564846913748,0.01786687049661572,1.0146933350480416,0.26247207069927825,-0.993108152872324,-1.5268184716790913
2024-09-22 23:57:07.243320,41.92,1.250115,-0.012866564846913748,0.01786687049661572,1.0146933350480416,0.26247207069927825,-0.9886962759777903,-1.483101830264926
2024-09-22 23:57:07.286347,41.92,1.250115,-0.01396421992450679,0.01890346574977754,1.0140835084438808,0.27559278874509036,-1.014995075006783,-1.4437395427253097
2024-09-22 23:57:07.329438,41.92,1.250167,-0.012866564846913748,0.018049744655597465,1.0140835084438808,0.27559278874509036,-1.014995075006783,-1.4437395427253097
2024-09-22 23:57:07.340983,41.92,1.250167,-0.012866564846913748,0.018049744655597465,1.0170715907541132,0.3368419984191656,-1.0062288442377,-1.4437395427253097
2024-09-22 23:57:07.374977,41.92,1.250167,-0.012866564846913748,0.018049744655597465,1.0170715907541132,0.3368419984191656,-1.0062288442377,-1.426207081187144
2024-09-22 23:57:07.386306,41.92,1.250217,-0.012073802565215924,0.022684200215898644,1.0131688171448936,0.29306802074806765,-1.0062288442377,-1.426207081187144
2024-09-22 23:57:07.429216,41.92,1.250268,-0.012256778495634975,0.022684200215898644,1.0131688171448936,0.29306802074806765,-1.1330817241821438,-1.3299501512914895
2024-09-22 23:57:07.440570,41.92,1.250268,-0.012256778495634975,0.021098777423940302,1.0131688171448936,0.29306802074806765,-1.1330817241821438,-1.3299501512914895
2024-09-22 23:57:07.473219,41.64,1.250268,-0.012256778495634975,0.021098777423940302,1.0131688171448936,0.39373674749694765,-1.0237041029211134,-1.3299501512914895
2024-09-22 23:57:07.485026,41.64,1.250319,-0.013293374508285133,0.020732824044125523,1.0131688171448936,0.39373674749694765,-1.0237041029211134,-1.3956111311383546
2024-09-22 23:57:07.527709,41.64,1.25037,-0.013293374508285133,0.020732824044125523,1.0180472355491645,0.3630834878716618,-1.1637349838074296,-1.504988752399385
2024-09-22 23:57:07.538988,41.64,1.25037,-0.01408613603049462,0.020732824044125523,1.0180472355491645,0.3630834878716618,-1.1637349838074296,-1.504988752399385
2024-09-22 23:57:07.570734,41.64,1.25037,-0.01408613603049462,0.020732824044125523,1.0158518403312846,0.3630834878716618,-1.1637349838074296,-1.504988752399385
2024-09-22 23:57:07.582470,41.64,1.250456,-0.01408613603049462,0.020732824044125523,1.0158518403312846,0.29306802074806765,-1.1068402347296475,-1.3911993609655648
2024-09-22 23:57:07.624957,41.64,1.250456,-0.013171458402297304,0.02317206970170125,1.012925003160638,0.3368419984191656,-1.0805987452771515,-1.3911993609655648
2024-09-22 23:57:07.636721,41.64,1.250456,-0.013171458402297304,0.02317206970170125,1.012925003160638,0.3368419984191656,-1.0805987452771515,-1.4524485706396402
2024-09-22 23:57:07.668638,41.64,1.250508,-0.014695923141261731,0.02317206970170125,1.012925003160638,0.3368419984191656,-1.0805987452771515,-1.4524485706396402
2024-09-22 23:57:07.680393,41.64,1.250508,-0.014695923141261731,0.021098777423940302,1.0117053499523165,0.3368419984191656,-1.028115873093903,-1.4524485706396402
2024-09-22 23:57:07.723008,41.64,1.250559,-0.012500713238536278,0.020245056329760223,1.012620041251304,0.3368419984191656,-1.028115873093903,-1.496222521630302
2024-09-22 23:57:07.735172,41.64,1.250559,-0.012500713238536278,0.020245056329760223,1.012620041251304,0.3674952580444515,-1.028115873093903,-1.496222521630302
2024-09-22 23:57:07.767793,41.64,1.250559,-0.012500713238536278,0.020245056329760223,1.012620041251304,0.3674952580444515,-1.0499454856518655,-1.4087318225037306
2024-09-22 23:57:07.779282,41.64,1.250609,-0.011707950956838454,0.020427930488741967,1.0143883731387076,0.3674952580444515,-1.0499454856518655,-1.4087318225037306
2024-09-22 23:57:07.822552,41.64,1.25066,-0.013842202047081654,0.02152558556633501,1.0143883731387076,0.2843590461946093,-1.028115873093903,-1.518109550486505
2024-09-22 23:57:07.866269,41.64,1.25066,-0.013842202047081654,0.02152558556633501,1.015608026347029,0.3324875378228724,-1.1418479549512268,-1.518109550486505
2024-09-22 23:57:07.880740,41.64,1.250711,-0.012378695361111141,0.02152558556633501,1.015608026347029,0.3324875378228724,-1.1418479549512268,-1.491868061034009
2024-09-22 23:57:07.913293,41.64,1.250711,-0.012378695361111141,0.018049744655597465,1.01426646614658,0.3324875378228724,-1.1418479549512268,-1.491868061034009
2024-09-22 23:57:07.925371,41.64,1.250798,-0.012378695361111141,0.018049744655597465,1.01426646614658,0.4155664400962181,-1.1855647030871361,-1.461214801408723
2024-09-22 23:57:07.968110,41.64,1.250798,-0.009146789193274898,0.022196330730096036,1.0144494238492787,0.40685746554275976,-1.1243154934130608,-1.461214801408723
2024-09-22 23:57:07.979949,41.64,1.250798,-0.009146789193274898,0.022196330730096036,1.0144494238492787,0.40685746554275976,-1.1243154934130608,-1.509343212995678
2024-09-22 23:57:08.012432,41.64,1.250849,-0.014269113479890346,0.02152558556633501,1.0144494238492787,0.40685746554275976,-1.1243154934130608,-1.509343212995678
2024-09-22 23:57:08.024148,41.64,1.250849,-0.014269113479890346,0.02152558556633501,1.0124370835486052,0.38932495064372197,-1.0980740039605648,-1.509343212995678
2024-09-22 23:57:08.067056,41.64,1.2509,-0.01536666678604608,0.020366972435748053,1.012620041251304,0.29306802074806765,-1.0980740039605648,-1.491868061034009
2024-09-22 23:57:08.110379,41.64,1.250951,-0.01536666678604608,0.020366972435748053,1.012620041251304,0.29306802074806765,-1.0893650827679784,-1.43932777255252
2024-09-22 23:57:08.124603,41.64,1.250951,-0.014634963569291141,0.020001120827370582,1.0175593159371317,0.29306802074806765,-1.0893650827679784,-1.43932777255252
2024-09-22 23:57:08.156545,41.64,1.250951,-0.014634963569291141,0.020001120827370582,1.0175593159371317,0.3193667930966243,-0.9799873547852039,-1.43932777255252
2024-09-22 23:57:08.167620,41.64,1.251001,-0.012378695361111141,0.020793883868556746,1.0175593159371317,0.3193667930966243,-0.9799873547852039,-1.4306188513599336
2024-09-22 23:57:08.210148,41.64,1.251052,-0.012378695361111141,0.020793883868556746,1.0144494238492787,0.3237212803733535,-1.1068402347296475,-1.4306188513599336
2024-09-22 23:57:08.222205,41.64,1.251052,-0.013232416455291218,0.020793883868556746,1.0144494238492787,0.3237212803733535,-1.1068402347296475,-1.4306188513599336
2024-09-22 23:57:08.255727,41.64,1.251052,-0.013232416455291218,0.02591610562424655,1.0132298678554648,0.3411964856958948,-1.1068402347296475,-1.4306188513599336
2024-09-22 23:57:08.267375,41.64,1.251139,-0.013232416455291218,0.02591610562424655,1.0132298678554648,0.3411964856958948,-1.1462025222692638,-1.4437395427253097
2024-09-22 23:57:08.309939,41.64,1.251139,-0.013842202047081654,0.02012303845233509,1.017254451242305,0.41121195281948897,-1.0193495356030762,-1.4568603408124299
2024-09-22 23:57:08.352990,41.64,1.25119,-0.012500713238536278,0.02085484192155066,1.017254451242305,0.41121195281948897,-1.0193495356030762,-1.4568603408124299
2024-09-22 23:57:08.364607,41.64,1.25119,-0.012500713238536278,0.02085484192155066,1.0122541258459061,0.3368419984191656,-1.0455910250555724,-1.4568603408124299
2024-09-22 23:57:08.407825,41.64,1.251241,-0.010549337066763158,0.02262324216290473,1.0129859566567019,0.29306802074806765,-1.0455910250555724,-1.4437395427253097
2024-09-22 23:57:08.450325,41.64,1.251292,-0.010549337066763158,0.02262324216290473,1.0129859566567019,0.29306802074806765,-1.1549687530383468,-1.4437395427253097
2024-09-22 23:57:08.462179,41.64,1.251292,-0.014634963569291141,0.018842507696783625,1.0157299333391567,0.29306802074806765,-1.1549687530383468,-1.4437395427253097
2024-09-22 23:57:08.505628,41.8,1.251343,-0.012439653414105056,0.020732824044125523,1.0157299333391567,0.37620423259790986,-1.1812102424908428,-1.43932777255252
2024-09-22 23:57:08.548343,41.8,1.251343,-0.012439653414105056,0.020732824044125523,1.014022554947817,0.35872900059493257,-1.1111946953259408,-1.43932777255252
2024-09-22 23:57:08.559346,41.8,1.251393,-0.014208053655459124,0.020732824044125523,1.014022554947817,0.35872900059493257,-1.1111946953259408,-1.3999655917346479
2024-09-22 23:57:08.601034,41.8,1.25148,-0.014208053655459124,0.022989092252305523,1.0144494238492787,0.2843590461946093,-1.0587118231426924,-1.469981032177806
2024-09-22 23:57:08.643866,41.8,1.25148,-0.014391029585878175,0.020793883868556746,1.0144494238492787,0.2843590461946093,-1.0587118231426924,-1.469981032177806
2024-09-22 23:57:08.655750,41.8,1.25148,-0.014391029585878175,0.020793883868556746,1.0164616669354454,0.27559278874509036,-0.9274470663037151,-1.4568603408124299
2024-09-22 23:57:08.698528,41.8,1.251532,-0.010183486217874026,0.018415698035412244,1.012742045457939,0.3849704900474288,-0.9274470663037151,-1.4568603408124299
2024-09-22 23:57:08.710530,41.8,1.251532,-0.010183486217874026,0.018415698035412244,1.012742045457939,0.3849704900474288,-1.028115873093903,-1.4568603408124299
2024-09-22 23:57:08.743526,41.8,1.251582,-0.01164699290384454,0.018415698035412244,1.012742045457939,0.3849704900474288,-1.028115873093903,-1.483101830264926
2024-09-22 23:57:08.754464,41.8,1.251582,-0.01164699290384454,0.018842507696783625,1.0138396944596255,0.3018342781975865,-1.028115873093903,-1.483101830264926
2024-09-22 23:57:08.796304,41.8,1.251633,-0.010793271809664462,0.021708563015730736,1.0134736818397203,0.3018342781975865,-1.0718325145080685,-1.43932777255252
2024-09-22 23:57:08.839831,41.8,1.251633,-0.010793271809664462,0.021708563015730736,1.0134736818397203,0.28871353347133843,-1.1068402347296475,-1.43932777255252
2024-09-22 23:57:08.851242,41.8,1.251684,-0.01433007153288426,0.016891131525010507,1.0134736818397203,0.28871353347133843,-1.1068402347296475,-1.4568603408124299
2024-09-22 23:57:08.893968,41.8,1.251735,-0.01433007153288426,0.016891131525010507,1.0158518403312846,0.38061600277069957,-1.1899764732599258,-1.553117270708084
2024-09-22 23:57:08.905425,41.8,1.251735,-0.013293374508285133,0.016891131525010507,1.0158518403312846,0.38061600277069957,-1.1899764732599258,-1.553117270708084
2024-09-22 23:57:08.937928,41.8,1.251735,-0.013293374508285133,0.01963527073796979,1.0157299333391567,0.3018342781975865,-1.1899764732599258,-1.553117270708084
2024-09-22 23:57:08.949566,41.8,1.251822,-0.013293374508285133,0.01963527073796979,1.0157299333391567,0.3018342781975865,-1.0893650827679784,-1.496222521630302
2024-09-22 23:57:08.992360,41.8,1.251822,-0.016403363810645208,0.019818144896951533,1.0115833457456815,0.3280757409696467,-1.207451731943339,-1.3737241022821516
2024-09-22 23:57:09.036500,41.8,1.251873,-0.012622630104012445,0.01750101888823825,1.0115833457456815,0.3280757409696467,-1.207451731943339,-1.3737241022821516
2024-09-22 23:57:09.047621,41.8,1.251873,-0.012622630104012445,0.01750101888823825,1.0144494238492787,0.3849704900474288,-1.15932321363464,-1.3737241022821516
2024-09-22 23:57:09.090048,41.8,1.251924,-0.013598266544692013,0.023050050305299438,1.0178641806319584,0.3499627431454137,-1.15932321363464,-1.483101830264926
2024-09-22 23:57:09.133044,41.8,1.251975,-0.013598266544692013,0.023050050305299438,1.0178641806319584,0.3499627431454137,-1.0674780539117754,-1.4568603408124299
2024-09-22 23:57:09.144944,41.8,1.251975,-0.012317737308117227,0.019818144896951533,1.0135956860463553,0.3499627431454137,-1.0674780539117754,-1.4568603408124299
2024-09-22 23:57:09.187441,41.8,1.252026,-0.01573262016586086,0.018964423802771455,1.0135956860463553,0.27559278874509036,-1.1199610328167677,-1.4787472629468887
2024-09-22 23:57:09.230542,41.8,1.252026,-0.01573262016586086,0.018964423802771455,1.017254451242305,0.2843590461946093,-1.1418479549512268,-1.4787472629468887
2024-09-22 23:57:09.242184,41.8,1.252076,-0.016098470255261652,0.018964423802771455,1.017254451242305,0.2843590461946093,-1.1418479549512268,-1.4174980532728136
2024-09-22 23:57:09.285722,41.8,1.252163,-0.016098470255261652,0.02018409827676631,1.0161568022406187,0.3237212803733535,-1.0674780539117754,-1.461214801408723
2024-09-22 23:57:09.327591,41.8,1.252163,-0.01585453627184869,0.019208359305161096,1.0132908213515286,0.3237212803733535,-1.0674780539117754,-1.461214801408723
2024-09-22 23:57:09.338580,41.8,1.252163,-0.01585453627184869,0.019208359305161096,1.0132908213515286,0.3193667930966243,-1.0455910250555724,-1.4174980532728136
2024-09-22 23:57:09.382265,41.8,1.252214,-0.012500713238536278,0.022440264713509,1.0158518403312846,0.3062460483703762,-1.0805987452771515,-1.4174980532728136
2024-09-22 23:57:09.425444,41.8,1.252265,-0.014208053655459124,0.022440264713509,1.0158518403312846,0.3062460483703762,-1.0805987452771515,-1.5224640110827983
2024-09-22 23:57:09.437739,41.8,1.252265,-0.014208053655459124,0.01939133523558015,1.0145103773453428,0.27123832814879717,-1.0805987452771515,-1.5224640110827983
2024-09-22 23:57:09.471844,41.8,1.252265,-0.014208053655459124,0.01939133523558015,1.0145103773453428,0.27123832814879717,-1.1199610328167677,-1.5224640110827983
2024-09-22 23:57:09.484169,41.8,1.252316,-0.01433007153288426,0.02262324216290473,1.0158518403312846,0.27123832814879717,-1.1199610328167677,-1.434973311956227
2024-09-22 23:57:09.528300,41.98,1.252367,-0.015061773230662524,0.02311100987727003,1.0158518403312846,0.3499627431454137,-1.1287272635858505,-1.426207081187144
2024-09-22 23:57:09.570965,41.98,1.252367,-0.015061773230662524,0.02311100987727003,1.0165836711420804,0.3237212803733535,-1.0587118231426924,-1.426207081187144
2024-09-22 23:57:09.582059,41.98,1.252417,-0.012378695361111141,0.02311100987727003,1.0165836711420804,0.3237212803733535,-1.0587118231426924,-1.4087318225037306
2024-09-22 23:57:09.624673,41.98,1.252417,-0.012378695361111141,0.02213537267710212,1.0185960114427541,0.2405850685235113,-1.028115873093903,-1.3868447936475277
2024-09-22 23:57:09.636361,41.98,1.252504,-0.012378695361111141,0.02213537267710212,1.0185960114427541,0.2405850685235113,-1.028115873093903,-1.3868447936475277
2024-09-22 23:57:09.667795,41.98,1.252504,-0.01481783924724956,0.02085484192155066,1.0185960114427541,0.2405850685235113,-1.028115873093903,-1.3868447936475277
2024-09-22 23:57:09.720700,41.98,1.252555,-0.01481783924724956,0.02085484192155066,1.0131688171448936,0.38061600277069957,-1.0893650827679784,-1.3693696416858583
2024-09-22 23:57:09.732903,41.98,1.252555,-0.012866564846913748,0.02085484192155066,1.0131688171448936,0.38061600277069957,-1.0893650827679784,-1.3693696416858583
2024-09-22 23:57:09.817213,41.98,1.252555,-0.012866564846913748,0.021830479121718566,1.01542506864433,0.3499627431454137,-1.0193495356030762,-1.3693696416858583
2024-09-22 23:57:09.829226,41.98,1.252606,-0.012866564846913748,0.021830479121718566,1.01542506864433,0.3499627431454137,-1.0193495356030762,-1.3911993609655648
2024-09-22 23:57:09.862394,41.98,1.252606,-0.013232416455291218,0.022440264713509,1.01542506864433,0.3499627431454137,-1.0193495356030762,-1.3911993609655648
2024-09-22 23:57:09.873829,41.98,1.252606,-0.013232416455291218,0.022440264713509,1.0122541258459061,0.3149550229238346,-0.9755755846124142,-1.4218526205908506
2024-09-22 23:57:09.916395,41.98,1.252657,-0.01378124399408774,0.020610907938137694,1.0117664006628877,0.27994727602181957,-0.9755755846124142,-1.4218526205908506
2024-09-22 23:57:09.928799,41.98,1.252657,-0.01378124399408774,0.020610907938137694,1.0117664006628877,0.27994727602181957,-0.9493340951599181,-1.4218526205908506
2024-09-22 23:57:09.961097,41.98,1.252708,-0.01408613603049462,0.020610907938137694,1.0117664006628877,0.27994727602181957,-0.9493340951599181,-1.5487055005352943
2024-09-22 23:57:09.973022,41.98,1.252708,-0.01408613603049462,0.019208359305161096,1.0140835084438808,0.3368419984191656,-0.9493340951599181,-1.5487055005352943
2024-09-22 23:57:10.015734,41.98,1.252798,-0.010305402323861856,0.019696228790963704,1.0138396944596255,0.3368419984191656,-1.0718325145080685,-1.3780785628784449
2024-09-22 23:57:10.059258,41.98,1.252798,-0.010305402323861856,0.019696228790963704,1.0138396944596255,0.27559278874509036,-1.1199610328167677,-1.496222521630302
2024-09-22 23:57:10.070805,41.98,1.252896,-0.00811019394011308,0.01798878660260355,1.0138396944596255,0.27559278874509036,-1.1199610328167677,-1.496222521630302
2024-09-22 23:57:10.113816,41.98,1.252947,-0.011890927646745842,0.01798878660260355,1.0165836711420804,0.3237212803733535,-1.0805987452771515,-1.426207081187144
2024-09-22 23:57:10.157892,41.98,1.252947,-0.011890927646745842,0.019513251341567978,1.0138396944596255,0.2843590461946093,-1.0805987452771515,-1.426207081187144
2024-09-22 23:57:10.169562,41.98,1.253041,-0.011890927646745842,0.019513251341567978,1.0138396944596255,0.2843590461946093,-1.0937195433642715,-1.448094003321603
2024-09-22 23:57:10.201283,41.98,1.253041,-0.013903160100075569,0.019513251341567978,1.0138396944596255,0.2843590461946093,-1.0937195433642715,-1.448094003321603
2024-09-22 23:57:10.213593,41.98,1.253041,-0.013903160100075569,0.023233027754695164,1.0137175930384832,0.40685746554275976,-1.1462025222692638,-1.5574717313043773
2024-09-22 23:57:10.256003,41.98,1.253092,-0.00969561673207142,0.02018409827676631,1.0143274196426437,0.40685746554275976,-1.1462025222692638,-1.5574717313043773
2024-09-22 23:57:10.267342,41.98,1.253092,-0.00969561673207142,0.02018409827676631,1.0143274196426437,0.3499627431454137,-1.0455910250555724,-1.5574717313043773
2024-09-22 23:57:10.299307,41.98,1.253092,-0.00969561673207142,0.02018409827676631,1.0143274196426437,0.3499627431454137,-1.0455910250555724,-1.496222521630302
2024-09-22 23:57:10.310806,41.98,1.253143,-0.013049540777332799,0.01939133523558015,1.0143274196426437,0.3499627431454137,-1.0455910250555724,-1.496222521630302
2024-09-22 23:57:10.406158,41.98,1.253194,-0.012500713238536278,0.01939133523558015,1.0159129882563631,0.3456082558686845,-1.1199610328167677,-1.496222521630302
2024-09-22 23:57:10.449225,41.98,1.253194,-0.012500713238536278,0.020793883868556746,1.01542506864433,0.3280757409696467,-1.1199610328167677,-1.496222521630302
2024-09-22 23:57:10.460878,41.98,1.253244,-0.012500713238536278,0.020793883868556746,1.01542506864433,0.3280757409696467,-1.0630662837389857,-1.469981032177806
2024-09-22 23:57:10.503444,41.98,1.253244,-0.013293374508285133,0.018476656088406155,1.01426646614658,0.3324875378228724,-1.1462025222692638,-1.3824903330512346
2024-09-22 23:57:10.547311,41.63,1.253295,-0.011281142054955407,0.021281651582922046,1.01426646614658,0.3324875378228724,-1.1462025222692638,-1.3824903330512346
2024-09-22 23:57:10.559218,41.63,1.253295,-0.011281142054955407,0.021281651582922046,1.0108517093639005,0.3149550229238346,-1.0718325145080685,-1.3824903330512346
2024-09-22 23:57:10.591312,41.63,1.253295,-0.011281142054955407,0.021281651582922046,1.0108517093639005,0.3149550229238346,-1.0718325145080685,-1.4218526205908506
2024-09-22 23:57:10.603439,41.63,1.253381,-0.014025177977500705,0.01823272210499319,1.0165227176460165,0.28871353347133843,-1.0718325145080685,-1.4218526205908506
2024-09-22 23:57:10.645234,41.63,1.253481,-0.009024872327798732,0.01823272210499319,1.0165227176460165,0.28871353347133843,-1.0455910250555724,-1.4787472629468887
2024-09-22 23:57:10.657044,41.63,1.253481,-0.009024872327798732,0.022318348607521174,1.0122541258459061,0.28871353347133843,-1.0455910250555724,-1.4787472629468887
2024-09-22 23:57:10.689454,41.63,1.253481,-0.009024872327798732,0.022318348607521174,1.0122541258459061,0.40244569536997005,-1.0455910250555724,-1.4787472629468887
2024-09-22 23:57:10.701682,41.63,1.253531,-0.014208053655459124,0.02164760496273682,1.0122541258459061,0.40244569536997005,-1.1024857741333545,-1.4524485706396402
2024-09-22 23:57:10.745270,41.63,1.253582,-0.014208053655459124,0.02164760496273682,1.015668979843093,0.2668265312955715,-1.1199610328167677,-1.4306188513599336
2024-09-22 23:57:10.757361,41.63,1.253582,-0.014269113479890346,0.02164760496273682,1.015668979843093,0.2668265312955715,-1.1199610328167677,-1.4306188513599336
2024-09-22 23:57:10.790747,41.63,1.253582,-0.014269113479890346,0.02152558556633501,1.0180472355491645,0.39809120809324083,-1.1199610328167677,-1.4306188513599336
2024-09-22 23:57:10.802075,41.63,1.253674,-0.014269113479890346,0.02152558556633501,1.0180472355491645,0.39809120809324083,-1.0630662837389857,-1.404320052330941
2024-09-22 23:57:10.844936,41.63,1.253674,-0.01408613603049462,0.021281651582922046,1.0146933350480416,0.37184974532118065,-1.1506142924420535,-1.426207081187144
2024-09-22 23:57:10.888163,41.63,1.253725,-0.013293374508285133,0.020915799974544576,1.0146933350480416,0.37184974532118065,-1.1506142924420535,-1.426207081187144
2024-09-22 23:57:10.899760,41.63,1.253725,-0.013293374508285133,0.020915799974544576,1.014144559154452,0.3456082558686845,-1.1068402347296475,-1.426207081187144
2024-09-22 23:57:10.943234,41.63,1.253776,-0.011768909009832369,0.01975718684395762,1.0160958487445546,0.29747979092085736,-1.1068402347296475,-1.5355847024481744
2024-09-22 23:57:10.985649,41.63,1.253776,-0.011768909009832369,0.01975718684395762,1.0160958487445546,0.29747979092085736,-1.0018170740649104,-1.5355847024481744
2024-09-22 23:57:11.038107,41.63,1.253827,-0.010732313756670548,0.02097675802753849,1.014144559154452,0.29747979092085736,-1.0018170740649104,-1.4874562908612192
2024-09-22 23:57:11.081180,41.63,1.253827,-0.010732313756670548,0.02097675802753849,1.014144559154452,0.3456082558686845,-1.0412365644592791,-1.4874562908612192
2024-09-22 23:57:11.092447,41.63,1.253878,-0.014939857124674697,0.017927828549609635,1.014144559154452,0.3456082558686845,-1.0412365644592791,-1.5880676813531667
2024-09-22 23:57:11.135637,41.63,1.253929,-0.014939857124674697,0.017927828549609635,1.0187179184348818,0.29306802074806765,-1.0105833048339934,-1.553117270708084
2024-09-22 23:57:11.147345,41.63,1.253929,-0.016586237969626952,0.017927828549609635,1.0187179184348818,0.29306802074806765,-1.0105833048339934,-1.553117270708084
2024-09-22 23:57:11.180430,41.63,1.253929,-0.016586237969626952,0.020366972435748053,1.0143274196426437,0.28871353347133843,-1.0105833048339934,-1.553117270708084
2024-09-22 23:57:11.191412,41.63,1.254015,-0.016586237969626952,0.020366972435748053,1.0143274196426437,0.28871353347133843,-1.0805987452771515,-1.4306188513599336
2024-09-22 23:57:11.233268,41.63,1.254015,-0.013476350438704184,0.021281651582922046,1.0168275823408433,0.35872900059493257,-1.1068402347296475,-1.4087318225037306
2024-09-22 23:57:11.275726,41.63,1.254066,-0.014147094083488534,0.021281651582922046,1.0168275823408433,0.35872900059493257,-1.1068402347296475,-1.4087318225037306
2024-09-22 23:57:11.287664,41.63,1.254066,-0.014147094083488534,0.019025483627202678,1.011034569852092,0.37620423259790986,-1.0499454856518655,-1.4087318225037306
2024-09-22 23:57:11.330132,41.63,1.254162,-0.014878899071680782,0.017927828549609635,1.0153641151482662,0.37620423259790986,-1.0499454856518655,-1.4218526205908506
2024-09-22 23:57:11.342884,41.63,1.254162,-0.014878899071680782,0.017927828549609635,1.0153641151482662,0.3368419984191656,-1.0499454856518655,-1.4218526205908506
2024-09-22 23:57:11.375511,41.63,1.254214,-0.014878899071680782,0.017927828549609635,1.0153641151482662,0.3368419984191656,-0.9799873547852039,-1.448094003321603
2024-09-22 23:57:11.387016,41.63,1.254214,-0.01146401621393715,0.022989092252305523,1.0157908868352208,0.3368419984191656,-0.9799873547852039,-1.448094003321603
2024-09-22 23:57:11.430439,41.63,1.254264,-0.01433007153288426,0.018415698035412244,1.0157908868352208,0.3543172304221429,-1.0412365644592791,-1.469981032177806
2024-09-22 23:57:11.472482,41.63,1.254264,-0.01433007153288426,0.018415698035412244,1.0198765209326321,0.3849704900474288,-1.0412365644592791,-1.469981032177806
2024-09-22 23:57:11.483981,41.63,1.254315,-0.011951885699739756,0.018415698035412244,1.0198765209326321,0.3849704900474288,-1.1330817241821438,-1.518109550486505
2024-09-22 23:57:11.527194,41.63,1.254405,-0.011951885699739756,0.020549948366167105,1.0164616669354454,0.40244569536997005,-0.9799873547852039,-1.434973311956227
2024-09-22 23:57:11.570892,41.61,1.254405,-0.015610600769459046,0.01890346574977754,1.015973941752427,0.40244569536997005,-0.9799873547852039,-1.434973311956227
2024-09-22 23:57:11.582160,41.61,1.254405,-0.015610600769459046,0.01890346574977754,1.015973941752427,0.2843590461946093,-0.958100325929001,-1.43932777255252
2024-09-22 23:57:11.625047,41.61,1.254457,-0.010732313756670548,0.021586543619328925,1.0126809947473678,0.3324875378228724,-1.0980740039605648,-1.43932777255252
2024-09-22 23:57:11.667815,41.61,1.254507,-0.010732313756670548,0.021586543619328925,1.0126809947473678,0.3324875378228724,-1.0980740039605648,-1.4174980532728136
2024-09-22 23:57:11.679349,41.61,1.254507,-0.012500713238536278,0.022867176146317694,1.0158518403312846,0.3543172304221429,-1.0980740039605648,-1.4174980532728136
2024-09-22 23:57:11.722697,41.61,1.254558,-0.012500713238536278,0.022867176146317694,1.0158518403312846,0.3543172304221429,-1.0630662837389857,-1.3956111311383546
2024-09-22 23:57:11.765354,41.61,1.254558,-0.01378124399408774,0.020062078880364497,1.0117664006628877,0.3543172304221429,-1.0630662837389857,-1.3956111311383546
2024-09-22 23:57:11.776447,41.61,1.254558,-0.01378124399408774,0.020062078880364497,1.0117664006628877,0.2537058132497594,-1.2468139127612115,-1.3911993609655648
2024-09-22 23:57:11.819829,41.61,1.254609,-0.01219582044264106,0.021098777423940302,1.0174983624410678,0.2581175834225491,-1.1549687530383468,-1.3911993609655648
2024-09-22 23:57:11.863012,41.61,1.25466,-0.015793578218854774,0.021098777423940302,1.0174983624410678,0.2581175834225491,-1.1549687530383468,-1.3518370734259486
2024-09-22 23:57:11.874484,41.61,1.25466,-0.015793578218854774,0.020001120827370582,1.017010540043542,0.37184974532118065,-1.1549687530383468,-1.3518370734259486
2024-09-22 23:57:11.917325,41.61,1.254746,-0.01164699290384454,0.02097675802753849,1.015546975636458,0.37184974532118065,-1.1374934943549335,-1.4174980532728136
2024-09-22 23:57:11.960480,41.61,1.254746,-0.01164699290384454,0.02097675802753849,1.015546975636458,0.37620423259790986,-1.0980740039605648,-1.3693696416858583
2024-09-22 23:57:11.972268,41.61,1.254797,-0.01146401621393715,0.019025483627202678,1.015546975636458,0.37620423259790986,-1.0980740039605648,-1.3693696416858583
2024-09-22 23:57:12.014678,41.61,1.254848,-0.015488684663471218,0.019025483627202678,1.0139616014517532,0.3193667930966243,-1.0368247942864894,-1.4174980532728136
2024-09-22 23:57:12.108416,41.61,1.254848,-0.015488684663471218,0.019208359305161096,1.0207302587355556,0.29747979092085736,-1.0368247942864894,-1.4174980532728136
2024-09-22 23:57:12.120383,41.61,1.254941,-0.015488684663471218,0.019208359305161096,1.0207302587355556,0.29747979092085736,-1.0368247942864894,-1.469981032177806
2024-09-22 23:57:12.154035,41.61,1.254941,-0.014695923141261731,0.021098777423940302,1.0207302587355556,0.29747979092085736,-1.0368247942864894,-1.469981032177806
2024-09-22 23:57:12.165908,41.61,1.254941,-0.014695923141261731,0.021098777423940302,1.01542506864433,0.29747979092085736,-0.9974626134686172,-1.539996472620964
2024-09-22 23:57:12.209009,41.61,1.254993,-0.012317737308117227,0.01926931735815501,1.01426646614658,0.37184974532118065,-1.0455910250555724,-1.539996472620964
2024-09-22 23:57:12.252902,41.61,1.255044,-0.016769215419022678,0.01926931735815501,1.01426646614658,0.37184974532118065,-1.0455910250555724,-1.496222521630302
2024-09-22 23:57:12.264259,41.61,1.255044,-0.016769215419022678,0.020732824044125523,1.0151202039495033,0.38061600277069957,-1.0455910250555724,-1.496222521630302
2024-09-22 23:57:12.306713,41.61,1.255094,-0.016769215419022678,0.020732824044125523,1.0151202039495033,0.38061600277069957,-1.0718325145080685,-1.4655692620050162
2024-09-22 23:57:12.349867,41.61,1.255094,-0.014025177977500705,0.019208359305161096,1.0151202039495033,0.38061600277069957,-1.0718325145080685,-1.4655692620050162
2024-09-22 23:57:12.361285,41.61,1.255094,-0.014025177977500705,0.019208359305161096,1.0135347325502915,0.2843590461946093,-1.0412365644592791,-1.4174980532728136
2024-09-22 23:57:12.404296,41.61,1.255187,-0.009390723936176203,0.020306014382754138,1.0123761300525411,0.2362305812467821,-1.1549687530383468,-1.4174980532728136
2024-09-22 23:57:12.447299,41.61,1.255238,-0.013720285941093825,0.020306014382754138,1.0123761300525411,0.2362305812467821,-1.1549687530383468,-1.43932777255252
2024-09-22 23:57:12.458725,41.61,1.255238,-0.013720285941093825,0.021586543619328925,1.0140835084438808,0.3062460483703762,-1.1549687530383468,-1.43932777255252
2024-09-22 23:57:12.502320,41.61,1.255332,-0.013049540777332799,0.019086441680196593,1.01737645544894,0.3062460483703762,-1.0237041029211134,-1.3212411233771593
2024-09-22 23:57:12.544680,41.61,1.255332,-0.013049540777332799,0.019086441680196593,1.01737645544894,0.3456082558686845,-1.0368247942864894,-1.434973311956227
2024-09-22 23:57:12.555745,41.61,1.255382,-0.01219582044264106,0.020915799974544576,1.01737645544894,0.3456082558686845,-1.0368247942864894,-1.434973311956227
2024-09-22 23:57:12.598297,41.2,1.255433,-0.013293374508285133,0.020915799974544576,1.015608026347029,0.28871353347133843,-1.0937195433642715,-1.531230241851881
2024-09-22 23:57:12.641938,41.2,1.255433,-0.013293374508285133,0.022562284109910815,1.0164616669354454,0.28871353347133843,-1.0937195433642715,-1.531230241851881
2024-09-22 23:57:12.653302,41.2,1.255527,-0.013293374508285133,0.022562284109910815,1.0164616669354454,0.3324875378228724,-1.1111946953259408,-1.3956111311383546
2024-09-22 23:57:12.696042,41.2,1.255527,-0.012317737308117227,0.022562284109910815,1.0164616669354454,0.3324875378228724,-1.1111946953259408,-1.3956111311383546
2024-09-22 23:57:12.738380,41.2,1.255527,-0.012317737308117227,0.01939133523558015,1.0164616669354454,0.3324875378228724,-1.1111946953259408,-1.3956111311383546
2024-09-22 23:57:12.751426,41.2,1.255578,-0.012317737308117227,0.01939133523558015,1.0125589905407328,0.3368419984191656,-1.0587118231426924,-1.4437395427253097
