Ayaan's Suite
Timestamp,Sample Rate (Hz),Time,Ax,Ay,Az,Gx,Gy,Gz
2024-09-23 11:11:14.027831,0,16.120027,-0.0036811340262279837,-0.02367869399252531,0.09675432418099966,36.09446859390736,-100.26678939585686,76.200527287817
2024-09-23 11:11:14.039322,0,16.120027,-0.0036811340262279837,-0.02367869399252531,0.09725178296655933,32.08287849390507,-100.26678939585686,76.200527287817
2024-09-23 11:11:14.071140,0,16.120027,-0.0036811340262279837,-0.02367869399252531,0.09725178296655933,32.08287849390507,-100.26678939585686,76.200527287817
2024-09-23 11:11:14.082961,0,16.120077,-0.003233425524256645,-0.022982261414192504,0.09750050628343246,32.08287849390507,-100.26678939585686,76.200527287817
2024-09-23 11:11:14.126036,0,16.120128,-0.003233425524256645,-0.022982261414192504,0.09750050628343246,36.09446859390736,-96.25519929585457,80.21211738781929
2024-09-23 11:11:14.137759,0,16.120128,-0.003382661564999035,-0.023230986250042305,0.09750050628343246,36.09446859390736,-96.25519929585457,80.21211738781929
2024-09-23 11:11:14.170650,0,16.120128,-0.003382661564999035,-0.023230986250042305,0.09695331012558621,36.09446859390736,-96.25519929585457,80.21211738781929
2024-09-23 11:11:14.181783,0,16.120179,-0.0035816467500972456,-0.023230986250042305,0.09695331012558621,40.106058693909645,-100.26678939585686,88.23529758782387
2024-09-23 11:11:14.224649,0,16.120179,-0.0035816467500972456,-0.023479709566915436,0.09695331012558621,36.09446859390736,-100.26678939585686,80.21211738781929
2024-09-23 11:11:14.236525,0,16.120266,-0.0035816467500972456,-0.023479709566915436,0.09695331012558621,36.09446859390736,-100.26678939585686,80.21211738781929
2024-09-23 11:11:14.268584,0,16.120266,-0.0031836870127375577,-0.023280723622328886,0.09695331012558621,36.09446859390736,-100.26678939585686,80.21211738781929
2024-09-23 11:11:14.280641,0,16.120266,-0.0031836870127375577,-0.023280723622328886,0.09695331012558621,40.106058693909645,-100.26678939585686,76.200527287817
2024-09-23 11:11:14.324034,0,16.120317,-0.0035816467500972456,-0.023330473146428877,0.09705279702197278,40.106058693909645,-100.26678939585686,76.200527287817
2024-09-23 11:11:14.366154,0,16.120317,-0.0035816467500972456,-0.023330473146428877,0.09705279702197278,40.106058693909645,-100.26678939585686,76.200527287817
2024-09-23 11:11:14.377384,0,16.120368,-0.003780631555451287,-0.023579196463302005,0.09640611396773996,32.08287849390507,-100.26678939585686,76.200527287817
2024-09-23 11:11:14.419923,0,16.120419,-0.004029355252068585,-0.023728432883788564,0.09640611396773996,32.08287849390507,-100.26678939585686,84.22370748782159
2024-09-23 11:11:14.432049,0,16.120419,-0.004029355252068585,-0.023728432883788564,0.09720203344245934,32.08287849390507,-100.26678939585686,84.22370748782159
2024-09-23 11:11:14.463749,0,16.120419,-0.004029355252068585,-0.023728432883788564,0.09720203344245934,36.09446859390736,-96.25519929585457,84.22370748782159
2024-09-23 11:11:14.475621,0,16.120469,-0.003233425524256645,-0.023728432883788564,0.09720203344245934,36.09446859390736,-96.25519929585457,84.22370748782159
2024-09-23 11:11:14.517591,0,16.12052,-0.003233425524256645,-0.023728432883788564,0.09720203344245934,36.09446859390736,-100.26678939585686,76.200527287817
2024-09-23 11:11:14.529799,0,16.12052,-0.0032831742888682963,-0.023728432883788564,0.09720203344245934,36.09446859390736,-100.26678939585686,76.200527287817
2024-09-23 11:11:14.563744,0,16.12052,-0.0032831742888682963,-0.02313149783467906,0.09675432418099966,40.106058693909645,-100.26678939585686,76.200527287817
2024-09-23 11:11:14.575347,0,16.120607,-0.0032831742888682963,-0.02313149783467906,0.09675432418099966,40.106058693909645,-92.24360919585227,84.22370748782159
2024-09-23 11:11:14.608057,0,16.120607,-0.0036811340262279837,-0.02313149783467906,0.09675432418099966,40.106058693909645,-92.24360919585227,84.22370748782159
2024-09-23 11:11:14.619478,0,16.120607,-0.0036811340262279837,-0.022982261414192504,0.09759999317981902,40.106058693909645,-96.25519929585457,80.21211738781929
2024-09-23 11:11:14.662675,0,16.120658,-0.0029847020175114316,-0.02367869399252531,0.09690356060148622,40.106058693909645,-96.25519929585457,80.21211738781929
2024-09-23 11:11:14.674786,0,16.120658,-0.0029847020175114316,-0.02367869399252531,0.09690356060148622,32.08287849390507,-100.26678939585686,80.21211738781929
2024-09-23 11:11:14.707661,0,16.120709,-0.0029847020175114316,-0.02367869399252531,0.09690356060148622,32.08287849390507,-100.26678939585686,76.200527287817
2024-09-23 11:11:14.718787,0,16.120709,-0.003631395514708897,-0.023479709566915436,0.09685382322919964,32.08287849390507,-100.26678939585686,76.200527287817
2024-09-23 11:11:14.760939,0,16.120709,-0.003631395514708897,-0.023479709566915436,0.09685382322919964,32.08287849390507,-88.23529758782387,92.24360919585227
2024-09-23 11:11:14.804189,0,16.12076,-0.003631395514708897,-0.023479709566915436,0.09685382322919964,32.08287849390507,-88.23529758782387,92.24360919585227
2024-09-23 11:11:14.815170,0,16.12076,-0.0032831742888682963,-0.02313149783467906,0.0966050877605131,32.08287849390507,-100.26678939585686,92.24360919585227
2024-09-23 11:11:14.856904,0,16.12081,-0.003382661564999035,-0.023181236725942318,0.0966050877605131,32.08287849390507,-100.26678939585686,84.22370748782159
2024-09-23 11:11:14.868743,0,16.12081,-0.003382661564999035,-0.023181236725942318,0.09725178296655933,36.09446859390736,-100.26678939585686,84.22370748782159
2024-09-23 11:11:14.900886,0,16.12081,-0.003382661564999035,-0.023181236725942318,0.09725178296655933,36.09446859390736,-96.25519929585457,84.22370748782159
2024-09-23 11:11:14.913751,0,16.120861,-0.0030841997366068195,-0.023230986250042305,0.09665483728461309,36.09446859390736,-96.25519929585457,88.23529758782387
2024-09-23 11:11:14.955456,0,16.120948,-0.0034324103296106863,-0.023230986250042305,0.09665483728461309,40.106058693909645,-96.25519929585457,84.22370748782159
2024-09-23 11:11:14.967005,0,16.120948,-0.0034324103296106863,-0.02338022115155219,0.09665483728461309,40.106058693909645,-96.25519929585457,84.22370748782159
2024-09-23 11:11:15.050474,44.07,16.120948,-0.0034324103296106863,-0.02338022115155219,0.09680407370509965,32.08287849390507,-96.25519929585457,84.22370748782159
2024-09-23 11:11:15.061977,44.07,16.120999,-0.0031836870127375577,-0.02338022115155219,0.09680407370509965,32.08287849390507,-96.25519929585457,80.21211738781929
2024-09-23 11:11:15.105586,44.07,16.121094,-0.0031836870127375577,-0.02338022115155219,0.0973512698629459,48.12595698684454,-92.24360919585227,84.22370748782159
2024-09-23 11:11:15.148129,44.07,16.121094,-0.003631395514708897,-0.023579196463302005,0.09725178296655933,48.12595698684454,-92.24360919585227,84.22370748782159
2024-09-23 11:11:15.159607,44.07,16.121094,-0.003631395514708897,-0.023579196463302005,0.09725178296655933,40.106058693909645,-100.26678939585686,80.21211738781929
2024-09-23 11:11:15.202446,44.07,16.121146,-0.0031339382481259063,-0.02303200030545576,0.09670458680871308,32.08287849390507,-92.24360919585227,80.21211738781929
2024-09-23 11:11:15.244262,44.07,16.121197,-0.0031339382481259063,-0.02303200030545576,0.09670458680871308,32.08287849390507,-92.24360919585227,76.200527287817
2024-09-23 11:11:15.255303,44.07,16.121197,-0.0030344509719951677,-0.023330473146428877,0.0966050877605131,36.09446859390736,-92.24360919585227,76.200527287817
2024-09-23 11:11:15.297743,44.07,16.121291,-0.0028354659767690416,-0.02362894446842532,0.0966050877605131,36.09446859390736,-96.25519929585457,76.200527287817
2024-09-23 11:11:15.309847,44.07,16.121291,-0.0028354659767690416,-0.02362894446842532,0.09745075675933246,36.09446859390736,-96.25519929585457,76.200527287817
2024-09-23 11:11:15.342907,44.07,16.121291,-0.0028354659767690416,-0.02362894446842532,0.09745075675933246,36.09446859390736,-88.23529758782387,84.22370748782159
2024-09-23 11:11:15.354315,44.07,16.121342,-0.0032831742888682963,-0.023728432883788564,0.09745075675933246,36.09446859390736,-88.23529758782387,84.22370748782159
2024-09-23 11:11:15.396832,44.07,16.121393,-0.0032831742888682963,-0.023728432883788564,0.09705279702197278,24.06297849342227,-96.25519929585457,80.21211738781929
2024-09-23 11:11:15.440360,44.07,16.121393,-0.0032831742888682963,-0.02338022115155219,0.09675432418099966,36.09446859390736,-96.25519929585457,80.21211738781929
2024-09-23 11:11:15.452189,44.07,16.121484,-0.0032831742888682963,-0.02338022115155219,0.09675432418099966,36.09446859390736,-96.25519929585457,80.21211738781929
2024-09-23 11:11:15.494800,44.07,16.121484,-0.0032831742888682963,-0.023181236725942318,0.09745075675933246,24.06297849342227,-100.26678939585686,84.22370748782159
2024-09-23 11:11:15.536874,44.07,16.121536,-0.003382661564999035,-0.02278327698858263,0.09745075675933246,24.06297849342227,-100.26678939585686,84.22370748782159
2024-09-23 11:11:15.547987,44.07,16.121536,-0.003382661564999035,-0.02278327698858263,0.0976994861521123,36.09446859390736,-92.24360919585227,84.22370748782159
2024-09-23 11:11:15.590787,44.07,16.121587,-0.0029349636958644295,-0.023280723622328886,0.09750050628343246,36.09446859390736,-92.24360919585227,80.21211738781929
2024-09-23 11:11:15.633282,44.07,16.121587,-0.0029349636958644295,-0.023280723622328886,0.09750050628343246,36.09446859390736,-92.24360919585227,84.22370748782159
2024-09-23 11:11:15.644815,44.07,16.121637,-0.0028852147413806935,-0.02268379009219606,0.09715228999426605,36.09446859390736,-92.24360919585227,84.22370748782159
2024-09-23 11:11:15.687161,44.07,16.121688,-0.0030344509719951677,-0.02268379009219606,0.09715228999426605,28.07457030097246,-96.25519929585457,80.21211738781929
2024-09-23 11:11:15.698971,44.07,16.121688,-0.0030344509719951677,-0.023778180888911878,0.09715228999426605,28.07457030097246,-96.25519929585457,80.21211738781929
2024-09-23 11:11:15.731058,44.07,16.121688,-0.0030344509719951677,-0.023778180888911878,0.09725178296655933,40.106058693909645,-96.25519929585457,80.21211738781929
2024-09-23 11:11:15.742174,44.07,16.121739,-0.0027359787006383035,-0.023778180888911878,0.09725178296655933,40.106058693909645,-100.26678939585686,84.22370748782159
2024-09-23 11:11:15.784209,44.07,16.121739,-0.0027359787006383035,-0.02362894446842532,0.09670458680871308,40.106058693909645,-100.26678939585686,84.22370748782159
2024-09-23 11:11:15.826294,44.07,16.121739,-0.0027359787006383035,-0.02362894446842532,0.09670458680871308,48.12595698684454,-100.26678939585686,84.22370748782159
2024-09-23 11:11:15.838185,44.07,16.121826,-0.0030841997366068195,-0.02338022115155219,0.09670458680871308,48.12595698684454,-96.25519929585457,84.22370748782159
2024-09-23 11:11:15.880925,44.07,16.121826,-0.0030841997366068195,-0.02338022115155219,0.09725178296655933,40.106058693909645,-100.26678939585686,76.200527287817
2024-09-23 11:11:15.892750,44.07,16.121877,-0.0034324103296106863,-0.02338022115155219,0.09725178296655933,40.106058693909645,-100.26678939585686,76.200527287817
2024-09-23 11:11:15.925350,44.07,16.121877,-0.0034324103296106863,-0.023728432883788564,0.09725178296655933,40.106058693909645,-100.26678939585686,76.200527287817
2024-09-23 11:11:15.937390,44.07,16.121928,-0.0034324103296106863,-0.023728432883788564,0.09640611396773996,32.08287849390507,-100.26678939585686,80.21211738781929
2024-09-23 11:11:15.980903,44.07,16.121928,-0.0029349636958644295,-0.023181236725942318,0.09670458680871308,36.09446859390736,-92.24360919585227,76.200527287817
2024-09-23 11:11:16.023257,44.07,16.121979,-0.003482159473966507,-0.023181236725942318,0.09670458680871308,36.09446859390736,-92.24360919585227,76.200527287817
2024-09-23 11:11:16.034310,44.07,16.121979,-0.003482159473966507,-0.02352945757203875,0.09710254654607277,36.09446859390736,-100.26678939585686,76.200527287817
2024-09-23 11:11:16.076090,43.0,16.122071,-0.0033329230534799477,-0.02338022115155219,0.09710254654607277,36.09446859390736,-100.26678939585686,76.200527287817
2024-09-23 11:11:16.087832,43.0,16.122071,-0.0033329230534799477,-0.02338022115155219,0.09695331012558621,44.11764879391193,-100.26678939585686,76.200527287817
2024-09-23 11:11:16.120994,43.0,16.122071,-0.0033329230534799477,-0.02338022115155219,0.09695331012558621,44.11764879391193,-108.28669110388756,76.200527287817
2024-09-23 11:11:16.132077,43.0,16.122122,-0.0029847020175114316,-0.023181236725942318,0.09685382322919964,44.11764879391193,-108.28669110388756,72.1922225099802
2024-09-23 11:11:16.174124,43.0,16.122172,-0.0029847020175114316,-0.023181236725942318,0.09685382322919964,44.11764879391193,-96.25519929585457,76.200527287817
2024-09-23 11:11:16.185285,43.0,16.122172,-0.0032831742888682963,-0.022982261414192504,0.09685382322919964,44.11764879391193,-96.25519929585457,76.200527287817
2024-09-23 11:11:16.218154,43.0,16.122172,-0.0032831742888682963,-0.022982261414192504,0.0970030596496862,36.09446859390736,-96.25519929585457,76.200527287817
2024-09-23 11:11:16.229774,43.0,16.122172,-0.0032831742888682963,-0.022982261414192504,0.0970030596496862,36.09446859390736,-100.26678939585686,76.200527287817
2024-09-23 11:11:16.272405,43.0,16.122223,-0.0030841997366068195,-0.023728432883788564,0.0970030596496862,36.09446859390736,-100.26678939585686,80.21211738781929
2024-09-23 11:11:16.284955,43.0,16.122223,-0.0030841997366068195,-0.023728432883788564,0.09650560086412653,36.09446859390736,-100.26678939585686,80.21211738781929
2024-09-23 11:11:16.316559,43.0,16.122223,-0.0030841997366068195,-0.023728432883788564,0.09650560086412653,36.09446859390736,-92.24360919585227,80.21211738781929
2024-09-23 11:11:16.328839,43.0,16.122313,-0.002586742470023829,-0.02362894446842532,0.09779897304849887,36.09446859390736,-92.24360919585227,80.21211738781929
2024-09-23 11:11:16.372181,43.0,16.122365,-0.0033329230534799477,-0.023181236725942318,0.09779897304849887,40.106058693909645,-96.25519929585457,84.22370748782159
2024-09-23 11:11:16.414970,43.0,16.122365,-0.0033329230534799477,-0.023181236725942318,0.09670458680871308,40.106058693909645,-88.23529758782387,84.22370748782159
2024-09-23 11:11:16.426016,43.0,16.122416,-0.0030841997366068195,-0.023181236725942318,0.09670458680871308,40.106058693909645,-88.23529758782387,84.22370748782159
2024-09-23 11:11:16.468674,43.0,16.122466,-0.0030841997366068195,-0.023479709566915436,0.09705279702197278,36.09446859390736,-104.27510100388527,80.21211738781929
2024-09-23 11:11:16.511557,43.0,16.122466,-0.0038303700669703737,-0.02313149783467906,0.09705279702197278,36.09446859390736,-104.27510100388527,80.21211738781929
2024-09-23 11:11:16.522942,43.0,16.122466,-0.0038303700669703737,-0.02313149783467906,0.09705279702197278,44.11764879391193,-104.27510100388527,80.21211738781929
2024-09-23 11:11:16.565871,43.0,16.122558,-0.0030344509719951677,-0.023429960042815445,0.09685382322919964,32.08287849390507,-104.27510100388527,80.21211738781929
2024-09-23 11:11:16.608469,43.0,16.122609,-0.0030344509719951677,-0.023429960042815445,0.09685382322919964,32.08287849390507,-104.27510100388527,80.21211738781929
2024-09-23 11:11:16.620141,43.0,16.122609,-0.0035816467500972456,-0.023479709566915436,0.09690356060148622,36.09446859390736,-104.27510100388527,80.21211738781929
2024-09-23 11:11:16.662702,43.0,16.12266,-0.0035816467500972456,-0.02367869399252531,0.09690356060148622,36.09446859390736,-100.26678939585686,80.21211738781929
2024-09-23 11:11:16.674072,43.0,16.12266,-0.0035816467500972456,-0.02367869399252531,0.09725178296655933,36.09446859390736,-100.26678939585686,80.21211738781929
2024-09-23 11:11:16.708110,43.0,16.12266,-0.0035816467500972456,-0.02367869399252531,0.09725178296655933,40.106058693909645,-100.26678939585686,80.21211738781929
2024-09-23 11:11:16.719297,43.0,16.12271,-0.0031339382481259063,-0.02308174982955575,0.09725178296655933,40.106058693909645,-100.26678939585686,80.21211738781929
2024-09-23 11:11:16.762083,43.0,16.122761,-0.0035816467500972456,-0.02308174982955575,0.0973015264147526,32.08287849390507,-96.25519929585457,76.200527287817
2024-09-23 11:11:16.804613,43.0,16.122761,-0.0035816467500972456,-0.02367869399252531,0.0973015264147526,32.08287849390507,-96.25519929585457,76.200527287817
2024-09-23 11:11:16.857717,43.0,16.12285,-0.0035816467500972456,-0.02367869399252531,0.0970030596496862,36.09446859390736,-96.25519929585457,80.21211738781929
2024-09-23 11:11:16.869799,43.0,16.12285,-0.003233425524256645,-0.02367869399252531,0.0970030596496862,36.09446859390736,-96.25519929585457,80.21211738781929
2024-09-23 11:11:16.901654,43.0,16.12285,-0.003233425524256645,-0.023728432883788564,0.0970030596496862,36.09446859390736,-96.25519929585457,80.21211738781929
2024-09-23 11:11:16.913230,43.0,16.122901,-0.003233425524256645,-0.023728432883788564,0.0970030596496862,36.09446859390736,-96.25519929585457,80.21211738781929
2024-09-23 11:11:16.957910,43.0,16.122901,-0.0032831742888682963,-0.023728432883788564,0.0970030596496862,36.09446859390736,-96.25519929585457,80.21211738781929
2024-09-23 11:11:17.000548,43.0,16.122901,-0.0032831742888682963,-0.023579196463302005,0.0970030596496862,36.09446859390736,-96.25519929585457,80.21211738781929
2024-09-23 11:11:17.054561,43.0,16.122952,-0.0032831742888682963,-0.023579196463302005,0.09705279702197278,32.08287849390507,-100.26678939585686,72.1922225099802
2024-09-23 11:11:17.066639,43.0,16.122952,-0.0029847020175114316,-0.023579196463302005,0.09705279702197278,32.08287849390507,-100.26678939585686,72.1922225099802
2024-09-23 11:11:17.099704,42.99,16.122952,-0.0029847020175114316,-0.02362894446842532,0.09720203344245934,40.106058693909645,-96.25519929585457,72.1922225099802
2024-09-23 11:11:17.111429,42.99,16.123002,-0.0029847020175114316,-0.02362894446842532,0.09720203344245934,40.106058693909645,-96.25519929585457,76.200527287817
2024-09-23 11:11:17.144305,42.99,16.123002,-0.0033329230534799477,-0.02362894446842532,0.09720203344245934,40.106058693909645,-96.25519929585457,76.200527287817
2024-09-23 11:11:17.156210,42.99,16.123002,-0.0033329230534799477,-0.023181236725942318,0.0970030596496862,40.106058693909645,-100.26678939585686,76.200527287817
2024-09-23 11:11:17.199186,42.99,16.123095,-0.0035816467500972456,-0.023778180888911878,0.09670458680871308,44.11764879391193,-100.26678939585686,76.200527287817
2024-09-23 11:11:17.211319,42.99,16.123095,-0.0035816467500972456,-0.023778180888911878,0.09670458680871308,44.11764879391193,-100.26678939585686,76.200527287817
2024-09-23 11:11:17.244114,42.99,16.123146,-0.0025369937054121774,-0.023778180888911878,0.09670458680871308,44.11764879391193,-100.26678939585686,80.21211738781929
2024-09-23 11:11:17.255940,42.99,16.123146,-0.0025369937054121774,-0.023429960042815445,0.0970030596496862,32.08287849390507,-100.26678939585686,80.21211738781929
2024-09-23 11:11:17.298931,42.99,16.12329,-0.0031339382481259063,-0.023429960042815445,0.0970030596496862,32.08287849390507,-100.26678939585686,80.21211738781929
2024-09-23 11:11:17.311034,42.99,16.12329,-0.0031339382481259063,-0.023429960042815445,0.0973015264147526,32.08287849390507,-100.26678939585686,80.21211738781929
2024-09-23 11:11:17.344075,42.99,16.123341,-0.0031339382481259063,-0.023429960042815445,0.0973015264147526,36.09446859390736,-92.24360919585227,84.22370748782159
2024-09-23 11:11:17.355179,42.99,16.123341,-0.0030841997366068195,-0.02338022115155219,0.0973015264147526,36.09446859390736,-92.24360919585227,84.22370748782159
2024-09-23 11:11:17.388426,42.99,16.123341,-0.0030841997366068195,-0.02338022115155219,0.09705279702197278,28.07457030097246,-92.24360919585227,84.22370748782159
2024-09-23 11:11:17.400310,42.99,16.123391,-0.0032831742888682963,-0.02338022115155219,0.09705279702197278,28.07457030097246,-96.25519929585457,80.21211738781929
2024-09-23 11:11:17.442956,42.99,16.123391,-0.0032831742888682963,-0.023728432883788564,0.0970030596496862,48.12595698684454,-96.25519929585457,76.200527287817
2024-09-23 11:11:17.454543,42.99,16.123483,-0.0032831742888682963,-0.023728432883788564,0.0970030596496862,48.12595698684454,-96.25519929585457,76.200527287817
2024-09-23 11:11:17.487418,42.99,16.123483,-0.0033329230534799477,-0.023330473146428877,0.09720203344245934,48.12595698684454,-96.25519929585457,76.200527287817
2024-09-23 11:11:17.499153,42.99,16.123483,-0.0033329230534799477,-0.023330473146428877,0.09720203344245934,36.09446859390736,-92.24360919585227,80.21211738781929
2024-09-23 11:11:17.541952,42.99,16.123535,-0.002785727465249955,-0.02338022115155219,0.09685382322919964,32.08287849390507,-96.25519929585457,80.21211738781929
2024-09-23 11:11:17.585654,42.99,16.123586,-0.0036811340262279837,-0.02338022115155219,0.09685382322919964,32.08287849390507,-96.25519929585457,80.21211738781929
2024-09-23 11:11:17.597057,42.99,16.123586,-0.0036811340262279837,-0.02362894446842532,0.09715228999426605,32.08287849390507,-96.25519929585457,80.21211738781929
2024-09-23 11:11:17.639680,42.99,16.123636,-0.003233425524256645,-0.023429960042815445,0.09685382322919964,32.08287849390507,-100.26678939585686,84.22370748782159
2024-09-23 11:11:17.683018,42.99,16.123636,-0.003233425524256645,-0.023429960042815445,0.09685382322919964,36.09446859390736,-100.26678939585686,84.22370748782159
2024-09-23 11:11:17.695402,42.99,16.123687,-0.0030841997366068195,-0.023181236725942318,0.09685382322919964,36.09446859390736,-100.26678939585686,84.22370748782159
2024-09-23 11:11:17.727412,42.99,16.123687,-0.0030841997366068195,-0.023181236725942318,0.09715228999426605,36.09446859390736,-100.26678939585686,84.22370748782159
2024-09-23 11:11:17.738748,42.99,16.123738,-0.0030344509719951677,-0.023181236725942318,0.09715228999426605,40.106058693909645,-96.25519929585457,84.22370748782159
2024-09-23 11:11:17.780776,42.99,16.123738,-0.0030344509719951677,-0.023429960042815445,0.09680407370509965,36.09446859390736,-96.25519929585457,84.22370748782159
2024-09-23 11:11:17.792589,42.99,16.123825,-0.0030344509719951677,-0.023429960042815445,0.09680407370509965,36.09446859390736,-104.27510100388527,76.200527287817
2024-09-23 11:11:17.876759,42.99,16.123825,-0.0030841997366068195,-0.0228827638849692,0.09680407370509965,36.09446859390736,-104.27510100388527,76.200527287817
2024-09-23 11:11:17.888143,42.99,16.123825,-0.0030841997366068195,-0.0228827638849692,0.0973512698629459,32.08287849390507,-100.26678939585686,72.1922225099802
2024-09-23 11:11:17.930330,42.99,16.123876,-0.0038801188315820256,-0.023479709566915436,0.0973015264147526,36.09446859390736,-100.26678939585686,72.1922225099802
2024-09-23 11:11:17.942596,42.99,16.123876,-0.0038801188315820256,-0.023479709566915436,0.0973015264147526,36.09446859390736,-96.25519929585457,72.1922225099802
2024-09-23 11:11:17.975408,42.99,16.123927,-0.0030344509719951677,-0.023479709566915436,0.0973015264147526,36.09446859390736,-96.25519929585457,84.22370748782159
2024-09-23 11:11:17.987695,42.99,16.123927,-0.0030344509719951677,-0.023429960042815445,0.0973512698629459,44.11764879391193,-96.25519929585457,84.22370748782159
2024-09-23 11:11:18.030653,42.99,16.123978,-0.0028852147413806935,-0.02313149783467906,0.09685382322919964,44.11764879391193,-88.23529758782387,80.21211738781929
2024-09-23 11:11:18.072868,42.99,16.123978,-0.0028852147413806935,-0.02313149783467906,0.09685382322919964,44.11764879391193,-100.26678939585686,76.200527287817
2024-09-23 11:11:18.084514,42.99,16.124028,-0.0029847020175114316,-0.02338022115155219,0.09685382322919964,44.11764879391193,-100.26678939585686,76.200527287817
2024-09-23 11:11:18.127614,43.19,16.12412,-0.003979606107712764,-0.02338022115155219,0.09764974270391902,32.08287849390507,-104.27510100388527,80.21211738781929
2024-09-23 11:11:18.170130,43.19,16.12412,-0.003979606107712764,-0.02338022115155219,0.0966050877605131,32.08287849390507,-104.27510100388527,80.21211738781929
2024-09-23 11:11:18.181855,43.19,16.124215,-0.003979606107712764,-0.02338022115155219,0.0966050877605131,32.08287849390507,-96.25519929585457,80.21211738781929
2024-09-23 11:11:18.224580,43.19,16.124215,-0.0027359787006383035,-0.023877669304275123,0.0973015264147526,32.08287849390507,-92.24360919585227,80.21211738781929
2024-09-23 11:11:18.267828,43.19,16.124266,-0.0035318979854855937,-0.023230986250042305,0.0973015264147526,32.08287849390507,-92.24360919585227,80.21211738781929
2024-09-23 11:11:18.279295,43.19,16.124266,-0.0035318979854855937,-0.023230986250042305,0.09725178296655933,32.08287849390507,-96.25519929585457,80.21211738781929
2024-09-23 11:11:18.321923,43.19,16.124317,-0.0030841997366068195,-0.023330473146428877,0.0973015264147526,40.106058693909645,-96.25519929585457,88.23529758782387
2024-09-23 11:11:18.366066,43.19,16.124367,-0.0030841997366068195,-0.023330473146428877,0.0973015264147526,40.106058693909645,-96.25519929585457,84.22370748782159
2024-09-23 11:11:18.377272,43.19,16.124367,-0.003482159473966507,-0.023728432883788564,0.0970030596496862,40.106058693909645,-96.25519929585457,84.22370748782159
2024-09-23 11:11:18.419773,43.19,16.124418,-0.0029349636958644295,-0.024026904205785005,0.0970030596496862,32.08287849390507,-92.24360919585227,80.21211738781929
2024-09-23 11:11:18.461642,43.19,16.124418,-0.0029349636958644295,-0.024026904205785005,0.0966050877605131,36.09446859390736,-92.24360919585227,80.21211738781929
2024-09-23 11:11:18.473071,43.19,16.124469,-0.003631395514708897,-0.024026904205785005,0.0966050877605131,36.09446859390736,-96.25519929585457,80.21211738781929
2024-09-23 11:11:18.517445,43.19,16.124556,-0.003631395514708897,-0.023181236725942318,0.09755024973162574,36.09446859390736,-104.27510100388527,76.200527287817
2024-09-23 11:11:18.559690,43.19,16.124556,-0.0030841997366068195,-0.023877669304275123,0.09779897304849887,36.09446859390736,-104.27510100388527,76.200527287817
2024-09-23 11:11:18.570918,43.19,16.124556,-0.0030841997366068195,-0.023877669304275123,0.09779897304849887,36.09446859390736,-100.26678939585686,72.1922225099802
2024-09-23 11:11:18.613585,43.19,16.124607,-0.0030344509719951677,-0.023330473146428877,0.0973015264147526,36.09446859390736,-96.25519929585457,72.1922225099802
2024-09-23 11:11:18.655623,43.19,16.124658,-0.0030344509719951677,-0.023330473146428877,0.0973015264147526,36.09446859390736,-96.25519929585457,72.1922225099802
2024-09-23 11:11:18.667327,43.19,16.124658,-0.003382661564999035,-0.023877669304275123,0.0970030596496862,40.106058693909645,-96.25519929585457,72.1922225099802
2024-09-23 11:11:18.709381,43.19,16.124709,-0.0028354659767690416,-0.023429960042815445,0.0970030596496862,40.106058693909645,-100.26678939585686,76.200527287817
2024-09-23 11:11:18.721471,43.19,16.124709,-0.0028354659767690416,-0.023429960042815445,0.09690356060148622,40.106058693909645,-100.26678939585686,76.200527287817
2024-09-23 11:11:18.753785,43.19,16.124709,-0.0028354659767690416,-0.023429960042815445,0.09690356060148622,48.12595698684454,-100.26678939585686,76.200527287817
2024-09-23 11:11:18.765013,43.19,16.12476,-0.003482159473966507,-0.02352945757203875,0.09690356060148622,48.12595698684454,-100.26678939585686,76.200527287817
2024-09-23 11:11:18.807600,43.19,16.12481,-0.003482159473966507,-0.02352945757203875,0.09710254654607277,36.09446859390736,-108.28669110388756,68.18063240997792
2024-09-23 11:11:18.819788,43.19,16.12481,-0.002785727465249955,-0.02352945757203875,0.09710254654607277,36.09446859390736,-108.28669110388756,68.18063240997792
2024-09-23 11:11:18.852405,43.19,16.12481,-0.002785727465249955,-0.024026904205785005,0.09670458680871308,32.08287849390507,-108.28669110388756,68.18063240997792
2024-09-23 11:11:18.863354,43.19,16.124897,-0.002785727465249955,-0.024026904205785005,0.09670458680871308,32.08287849390507,-100.26678939585686,76.200527287817
2024-09-23 11:11:18.905270,43.19,16.124897,-0.003631395514708897,-0.023728432883788564,0.09715228999426605,32.08287849390507,-100.26678939585686,76.200527287817
2024-09-23 11:11:18.948835,43.19,16.124897,-0.003631395514708897,-0.023728432883788564,0.09715228999426605,40.106058693909645,-96.25519929585457,76.200527287817
2024-09-23 11:11:18.961013,43.19,16.124949,-0.0034324103296106863,-0.023479709566915436,0.09715228999426605,40.106058693909645,-96.25519929585457,80.21211738781929
2024-09-23 11:11:19.004451,43.19,16.124999,-0.0030344509719951677,-0.023479709566915436,0.09655535038822652,28.07457030097246,-96.25519929585457,80.21211738781929
2024-09-23 11:11:19.046384,43.19,16.124999,-0.0030344509719951677,-0.023778180888911878,0.0973015264147526,28.07457030097246,-96.25519929585457,80.21211738781929
2024-09-23 11:11:19.058327,43.19,16.12505,-0.0030344509719951677,-0.023778180888911878,0.0973015264147526,32.08287849390507,-92.24360919585227,84.22370748782159
2024-09-23 11:11:19.100897,43.19,16.12505,-0.0038303700669703737,-0.02352945757203875,0.0973015264147526,36.09446859390736,-96.25519929585457,84.22370748782159
2024-09-23 11:11:19.112661,43.19,16.12505,-0.0038303700669703737,-0.02352945757203875,0.0973015264147526,36.09446859390736,-96.25519929585457,84.22370748782159
2024-09-23 11:11:19.144194,42.81,16.125101,-0.0032831742888682963,-0.02352945757203875,0.0973015264147526,36.09446859390736,-96.25519929585457,84.22370748782159
2024-09-23 11:11:19.155740,42.81,16.125101,-0.0032831742888682963,-0.023230986250042305,0.0966050877605131,36.09446859390736,-96.25519929585457,84.22370748782159
2024-09-23 11:11:19.198990,42.81,16.125191,-0.0033329230534799477,-0.023330473146428877,0.09690356060148622,36.09446859390736,-96.25519929585457,76.200527287817
2024-09-23 11:11:19.241739,42.81,16.125191,-0.0033329230534799477,-0.023330473146428877,0.09690356060148622,36.09446859390736,-96.25519929585457,80.21211738781929
2024-09-23 11:11:19.253077,42.81,16.125242,-0.003482159473966507,-0.02352945757203875,0.0973512698629459,36.09446859390736,-96.25519929585457,80.21211738781929
2024-09-23 11:11:19.295360,42.81,16.125292,-0.003233425524256645,-0.02352945757203875,0.0973512698629459,36.09446859390736,-96.25519929585457,84.22370748782159
2024-09-23 11:11:19.307348,42.81,16.125292,-0.003233425524256645,-0.02338022115155219,0.0973512698629459,36.09446859390736,-96.25519929585457,84.22370748782159
2024-09-23 11:11:19.339866,42.81,16.125292,-0.003233425524256645,-0.02338022115155219,0.0970030596496862,40.106058693909645,-88.23529758782387,84.22370748782159
2024-09-23 11:11:19.350907,42.81,16.125343,-0.0034324103296106863,-0.02338022115155219,0.0970030596496862,40.106058693909645,-88.23529758782387,84.22370748782159
2024-09-23 11:11:19.393331,42.81,16.125433,-0.0034324103296106863,-0.02338022115155219,0.09720203344245934,36.09446859390736,-100.26678939585686,80.21211738781929
2024-09-23 11:11:19.435933,42.81,16.125433,-0.0031836870127375577,-0.023429960042815445,0.09720203344245934,36.09446859390736,-100.26678939585686,80.21211738781929
2024-09-23 11:11:19.447503,42.81,16.125433,-0.0031836870127375577,-0.023429960042815445,0.09745075675933246,40.106058693909645,-96.25519929585457,72.1922225099802
2024-09-23 11:11:19.490081,42.81,16.125485,-0.002785727465249955,-0.023330473146428877,0.09690356060148622,32.08287849390507,-96.25519929585457,72.1922225099802
2024-09-23 11:11:19.502051,42.81,16.125485,-0.002785727465249955,-0.023330473146428877,0.09690356060148622,32.08287849390507,-108.28669110388756,72.1922225099802
2024-09-23 11:11:19.533871,42.81,16.125536,-0.002785727465249955,-0.023330473146428877,0.09690356060148622,32.08287849390507,-108.28669110388756,80.21211738781929
2024-09-23 11:11:19.545656,42.81,16.125536,-0.0029847020175114316,-0.023579196463302005,0.09695331012558621,32.08287849390507,-108.28669110388756,80.21211738781929
2024-09-23 11:11:19.588271,42.81,16.125586,-0.0037308827908396356,-0.02367869399252531,0.09685382322919964,32.08287849390507,-104.27510100388527,80.21211738781929
2024-09-23 11:11:19.630500,42.81,16.125586,-0.0037308827908396356,-0.02367869399252531,0.09685382322919964,32.08287849390507,-104.27510100388527,80.21211738781929
2024-09-23 11:11:19.642097,42.81,16.125637,-0.0029847020175114316,-0.023728432883788564,0.09685382322919964,32.08287849390507,-104.27510100388527,80.21211738781929
2024-09-23 11:11:19.736053,42.81,16.125688,-0.003233425524256645,-0.023728432883788564,0.09720203344245934,40.106058693909645,-100.26678939585686,76.200527287817
2024-09-23 11:11:19.779124,42.81,16.125688,-0.003233425524256645,-0.024076653729884996,0.09720203344245934,40.106058693909645,-100.26678939585686,76.200527287817
2024-09-23 11:11:19.790682,42.81,16.125775,-0.003233425524256645,-0.024076653729884996,0.09720203344245934,40.106058693909645,-100.26678939585686,84.22370748782159
2024-09-23 11:11:19.874818,42.81,16.125775,-0.003233425524256645,-0.023479709566915436,0.09720203344245934,40.106058693909645,-100.26678939585686,84.22370748782159
2024-09-23 11:11:19.886165,42.81,16.125775,-0.003233425524256645,-0.023479709566915436,0.09655535038822652,28.07457030097246,-96.25519929585457,80.21211738781929
2024-09-23 11:11:19.929040,42.81,16.125826,-0.0028852147413806935,-0.023230986250042305,0.09655535038822652,28.07457030097246,-96.25519929585457,80.21211738781929
2024-09-23 11:11:19.971442,42.81,16.125826,-0.0028852147413806935,-0.023230986250042305,0.09685382322919964,28.07457030097246,-96.25519929585457,80.21211738781929
2024-09-23 11:11:19.982479,42.81,16.125877,-0.0029847020175114316,-0.023230986250042305,0.09685382322919964,32.08287849390507,-100.26678939585686,84.22370748782159
2024-09-23 11:11:20.026464,42.81,16.125877,-0.0029847020175114316,-0.023778180888911878,0.09794820946898543,36.09446859390736,-100.26678939585686,80.21211738781929
2024-09-23 11:11:20.038146,42.81,16.125971,-0.0029847020175114316,-0.023778180888911878,0.09794820946898543,36.09446859390736,-100.26678939585686,80.21211738781929
2024-09-23 11:11:20.071282,42.81,16.125971,-0.0032831742888682963,-0.02338022115155219,0.0970030596496862,36.09446859390736,-100.26678939585686,80.21211738781929
2024-09-23 11:11:20.083082,42.81,16.125971,-0.0032831742888682963,-0.02338022115155219,0.0970030596496862,48.12595698684454,-100.26678939585686,80.21211738781929
2024-09-23 11:11:20.125925,42.81,16.126022,-0.0030841997366068195,-0.023230986250042305,0.09750050628343246,32.08287849390507,-92.24360919585227,80.21211738781929
2024-09-23 11:11:20.168357,42.19,16.126119,-0.0030841997366068195,-0.023230986250042305,0.09750050628343246,32.08287849390507,-92.24360919585227,76.200527287817
2024-09-23 11:11:20.179761,42.19,16.126119,-0.0030344509719951677,-0.02367869399252531,0.09690356060148622,40.106058693909645,-92.24360919585227,76.200527287817
2024-09-23 11:11:20.222465,42.19,16.126215,-0.0035816467500972456,-0.02352945757203875,0.09690356060148622,40.106058693909645,-100.26678939585686,80.21211738781929
2024-09-23 11:11:20.234307,42.19,16.126215,-0.0035816467500972456,-0.02352945757203875,0.09745075675933246,40.106058693909645,-100.26678939585686,80.21211738781929
2024-09-23 11:11:20.317931,42.19,16.126266,-0.0027359787006383035,-0.02352945757203875,0.09745075675933246,40.106058693909645,-100.26678939585686,72.1922225099802
2024-09-23 11:11:20.329766,42.19,16.126266,-0.0027359787006383035,-0.023728432883788564,0.09745075675933246,40.106058693909645,-100.26678939585686,72.1922225099802
2024-09-23 11:11:20.362354,42.19,16.126266,-0.0027359787006383035,-0.023728432883788564,0.09720203344245934,32.08287849390507,-100.26678939585686,72.1922225099802
2024-09-23 11:11:20.373871,42.19,16.126266,-0.0027359787006383035,-0.023728432883788564,0.09720203344245934,32.08287849390507,-100.26678939585686,80.21211738781929
2024-09-23 11:11:20.416261,42.19,16.126317,-0.0038303700669703737,-0.02362894446842532,0.09680407370509965,32.08287849390507,-100.26678939585686,80.21211738781929
2024-09-23 11:11:20.428750,42.19,16.126317,-0.0038303700669703737,-0.02362894446842532,0.09680407370509965,48.12595698684454,-96.25519929585457,80.21211738781929
2024-09-23 11:11:20.460598,42.19,16.126408,-0.0038303700669703737,-0.02362894446842532,0.09680407370509965,48.12595698684454,-96.25519929585457,84.22370748782159
2024-09-23 11:11:20.472806,42.19,16.126408,-0.0030841997366068195,-0.023330473146428877,0.0973015264147526,40.106058693909645,-96.25519929585457,84.22370748782159
2024-09-23 11:11:20.515960,42.19,16.12646,-0.0030841997366068195,-0.02362894446842532,0.09645586349183995,40.106058693909645,-96.25519929585457,80.21211738781929
2024-09-23 11:11:20.558226,42.19,16.12646,-0.0030841997366068195,-0.02362894446842532,0.09645586349183995,32.08287849390507,-96.25519929585457,80.21211738781929
2024-09-23 11:11:20.569313,42.19,16.126556,-0.0029847020175114316,-0.023429960042815445,0.09645586349183995,32.08287849390507,-96.25519929585457,76.200527287817
2024-09-23 11:11:20.612383,42.19,16.126606,-0.0033329230534799477,-0.023429960042815445,0.0973015264147526,32.08287849390507,-100.26678939585686,76.200527287817
2024-09-23 11:11:20.654848,42.19,16.126606,-0.0033329230534799477,-0.023579196463302005,0.09640611396773996,32.08287849390507,-100.26678939585686,76.200527287817
2024-09-23 11:11:20.666036,42.19,16.126701,-0.0033329230534799477,-0.023579196463302005,0.09640611396773996,36.09446859390736,-104.27510100388527,80.21211738781929
2024-09-23 11:11:20.707755,42.19,16.126701,-0.0033329230534799477,-0.023479709566915436,0.09690356060148622,36.09446859390736,-96.25519929585457,80.21211738781929
2024-09-23 11:11:20.719600,42.19,16.126701,-0.0033329230534799477,-0.023479709566915436,0.09690356060148622,36.09446859390736,-96.25519929585457,76.200527287817
2024-09-23 11:11:20.752035,42.19,16.126752,-0.0035816467500972456,-0.023479709566915436,0.09690356060148622,36.09446859390736,-96.25519929585457,76.200527287817
2024-09-23 11:11:20.763663,42.19,16.126752,-0.0035816467500972456,-0.023230986250042305,0.09680407370509965,36.09446859390736,-100.26678939585686,76.200527287817
2024-09-23 11:11:20.805383,42.19,16.126803,-0.0034324103296106863,-0.023230986250042305,0.09715228999426605,36.09446859390736,-100.26678939585686,80.21211738781929
2024-09-23 11:11:20.817201,42.19,16.126803,-0.0034324103296106863,-0.023230986250042305,0.09715228999426605,32.08287849390507,-100.26678939585686,80.21211738781929
2024-09-23 11:11:20.902043,42.19,16.126854,-0.0033329230534799477,-0.023230986250042305,0.09715228999426605,32.08287849390507,-96.25519929585457,80.21211738781929
2024-09-23 11:11:20.913807,42.19,16.126854,-0.0033329230534799477,-0.023877669304275123,0.09680407370509965,32.08287849390507,-96.25519929585457,80.21211738781929
2024-09-23 11:11:20.946252,42.19,16.126854,-0.0033329230534799477,-0.023877669304275123,0.09680407370509965,40.106058693909645,-96.25519929585457,80.21211738781929
2024-09-23 11:11:20.999855,42.19,16.126854,-0.0033329230534799477,-0.023877669304275123,0.09680407370509965,40.106058693909645,-96.25519929585457,80.21211738781929
2024-09-23 11:11:21.053248,42.19,16.126904,-0.003780631555451287,-0.02367869399252531,0.09695331012558621,44.11764879391193,-96.25519929585457,76.200527287817
2024-09-23 11:11:21.096980,42.19,16.126955,-0.0031836870127375577,-0.02367869399252531,0.09695331012558621,44.11764879391193,-96.25519929585457,80.21211738781929
2024-09-23 11:11:21.108831,42.19,16.126955,-0.0031836870127375577,-0.023479709566915436,0.09710254654607277,44.11764879391193,-96.25519929585457,80.21211738781929
2024-09-23 11:11:21.142201,42.19,16.126955,-0.0031836870127375577,-0.023479709566915436,0.09710254654607277,36.09446859390736,-100.26678939585686,80.21211738781929
2024-09-23 11:11:21.153395,42.19,16.127042,-0.0034324103296106863,-0.02308174982955575,0.09710254654607277,36.09446859390736,-100.26678939585686,80.21211738781929
2024-09-23 11:11:21.196285,41.86,16.12714,-0.0034324103296106863,-0.02308174982955575,0.09640611396773996,44.11764879391193,-100.26678939585686,76.200527287817
2024-09-23 11:11:21.208551,41.86,16.12714,-0.0030344509719951677,-0.02308174982955575,0.09640611396773996,44.11764879391193,-100.26678939585686,76.200527287817
2024-09-23 11:11:21.241111,41.86,16.12714,-0.0030344509719951677,-0.023181236725942318,0.09655535038822652,36.09446859390736,-100.26678939585686,76.200527287817
2024-09-23 11:11:21.253010,41.86,16.12714,-0.0030344509719951677,-0.023181236725942318,0.09655535038822652,36.09446859390736,-96.25519929585457,76.200527287817
2024-09-23 11:11:21.295750,41.86,16.127286,-0.003482159473966507,-0.02293251340906919,0.0966050877605131,36.09446859390736,-96.25519929585457,80.21211738781929
2024-09-23 11:11:21.339341,41.86,16.127337,-0.003482159473966507,-0.02293251340906919,0.0966050877605131,36.09446859390736,-96.25519929585457,80.21211738781929
2024-09-23 11:11:21.350697,41.86,16.127337,-0.0029847020175114316,-0.022833026512682618,0.09710254654607277,36.09446859390736,-96.25519929585457,80.21211738781929
2024-09-23 11:11:21.393658,41.86,16.127388,-0.004079093383843503,-0.02352945757203875,0.09710254654607277,32.08287849390507,-96.25519929585457,84.22370748782159
2024-09-23 11:11:21.435778,41.86,16.127388,-0.004079093383843503,-0.02352945757203875,0.09655535038822652,32.08287849390507,-92.24360919585227,84.22370748782159
2024-09-23 11:11:21.447382,41.86,16.127439,-0.0031339382481259063,-0.02352945757203875,0.09655535038822652,32.08287849390507,-92.24360919585227,84.22370748782159
2024-09-23 11:11:21.490645,41.86,16.127489,-0.0031339382481259063,-0.024026904205785005,0.09715228999426605,36.09446859390736,-100.26678939585686,72.1922225099802
2024-09-23 11:11:21.532440,41.86,16.127489,-0.0037308827908396356,-0.02352945757203875,0.09715228999426605,36.09446859390736,-100.26678939585686,72.1922225099802
2024-09-23 11:11:21.543787,41.86,16.127489,-0.0037308827908396356,-0.02352945757203875,0.09715228999426605,32.08287849390507,-100.26678939585686,84.22370748782159
2024-09-23 11:11:21.585822,41.86,16.127579,-0.0036811340262279837,-0.02338022115155219,0.09675432418099966,32.08287849390507,-100.26678939585686,84.22370748782159
2024-09-23 11:11:21.598813,41.86,16.127579,-0.0036811340262279837,-0.02338022115155219,0.09675432418099966,36.09446859390736,-100.26678939585686,84.22370748782159
2024-09-23 11:11:21.630769,41.86,16.12763,-0.0036811340262279837,-0.02338022115155219,0.09675432418099966,36.09446859390736,-100.26678939585686,84.22370748782159
2024-09-23 11:11:21.642459,41.86,16.12763,-0.0034324103296106863,-0.02338022115155219,0.09655535038822652,36.09446859390736,-100.26678939585686,84.22370748782159
2024-09-23 11:11:21.685857,41.86,16.127681,-0.0029349636958644295,-0.023181236725942318,0.09764974270391902,36.09446859390736,-96.25519929585457,80.21211738781929
2024-09-23 11:11:21.728524,41.86,16.127681,-0.0029349636958644295,-0.023181236725942318,0.09764974270391902,24.06297849342227,-100.26678939585686,88.23529758782387
2024-09-23 11:11:21.739841,41.86,16.127732,-0.0031836870127375577,-0.023479709566915436,0.09764974270391902,24.06297849342227,-100.26678939585686,88.23529758782387
2024-09-23 11:11:21.782128,41.86,16.127782,-0.0032831742888682963,-0.023479709566915436,0.09665483728461309,32.08287849390507,-100.26678939585686,72.1922225099802
2024-09-23 11:11:21.824948,41.86,16.127782,-0.0032831742888682963,-0.02352945757203875,0.09680407370509965,32.08287849390507,-100.26678939585686,72.1922225099802
2024-09-23 11:11:21.836546,41.86,16.127871,-0.0032831742888682963,-0.02352945757203875,0.09680407370509965,40.106058693909645,-92.24360919585227,76.200527287817
2024-09-23 11:11:21.879479,41.86,16.127871,-0.002785727465249955,-0.02367869399252531,0.09720203344245934,40.106058693909645,-108.28669110388756,68.18063240997792
2024-09-23 11:11:21.922199,41.86,16.127922,-0.0030841997366068195,-0.02367869399252531,0.09720203344245934,40.106058693909645,-108.28669110388756,68.18063240997792
2024-09-23 11:11:21.933738,41.86,16.127922,-0.0030841997366068195,-0.022982261414192504,0.09635636444363997,40.106058693909645,-100.26678939585686,68.18063240997792
2024-09-23 11:11:21.976180,41.86,16.127974,-0.0030841997366068195,-0.022982261414192504,0.09635636444363997,40.106058693909645,-100.26678939585686,76.200527287817
2024-09-23 11:11:22.018847,41.86,16.127974,-0.0030841997366068195,-0.022982261414192504,0.09635636444363997,40.106058693909645,-100.26678939585686,76.200527287817
2024-09-23 11:11:22.030518,41.86,16.127974,-0.0030841997366068195,-0.02313149783467906,0.09725178296655933,44.11764879391193,-96.25519929585457,76.200527287817
2024-09-23 11:11:22.073643,41.86,16.128024,-0.0032831742888682963,-0.023579196463302005,0.09705279702197278,36.09446859390736,-96.25519929585457,76.200527287817
2024-09-23 11:11:22.085706,41.86,16.128024,-0.0032831742888682963,-0.023579196463302005,0.09705279702197278,36.09446859390736,-96.25519929585457,76.200527287817
2024-09-23 11:11:22.119838,41.86,16.128075,-0.003482159473966507,-0.023579196463302005,0.09705279702197278,36.09446859390736,-96.25519929585457,80.21211738781929
2024-09-23 11:11:22.130800,41.86,16.128075,-0.003482159473966507,-0.02338022115155219,0.0970030596496862,32.08287849390507,-96.25519929585457,80.21211738781929
2024-09-23 11:11:22.173077,41.86,16.128075,-0.003482159473966507,-0.02338022115155219,0.0970030596496862,32.08287849390507,-96.25519929585457,92.24360919585227
2024-09-23 11:11:22.214959,41.78,16.128126,-0.003233425524256645,-0.02338022115155219,0.0970030596496862,32.08287849390507,-96.25519929585457,92.24360919585227
2024-09-23 11:11:22.226769,41.78,16.128126,-0.003233425524256645,-0.023927417309398437,0.09715228999426605,32.08287849390507,-96.25519929585457,92.24360919585227
2024-09-23 11:11:22.268750,41.78,16.128212,-0.003233425524256645,-0.02338022115155219,0.0970030596496862,32.08287849390507,-96.25519929585457,84.22370748782159
2024-09-23 11:11:22.280303,41.78,16.128212,-0.003233425524256645,-0.02338022115155219,0.0970030596496862,32.08287849390507,-96.25519929585457,84.22370748782159
2024-09-23 11:11:22.312393,41.78,16.128212,-0.003233425524256645,-0.02338022115155219,0.0970030596496862,32.08287849390507,-96.25519929585457,84.22370748782159
2024-09-23 11:11:22.323661,41.78,16.128264,-0.0031836870127375577,-0.023579196463302005,0.09710254654607277,32.08287849390507,-96.25519929585457,84.22370748782159
2024-09-23 11:11:22.366473,41.78,16.128359,-0.003382661564999035,-0.023579196463302005,0.09710254654607277,36.09446859390736,-96.25519929585457,76.200527287817
2024-09-23 11:11:22.378613,41.78,16.128359,-0.003382661564999035,-0.023927417309398437,0.09710254654607277,36.09446859390736,-96.25519929585457,76.200527287817
2024-09-23 11:11:22.411169,41.78,16.128359,-0.003382661564999035,-0.023927417309398437,0.09695331012558621,36.09446859390736,-100.26678939585686,76.200527287817
2024-09-23 11:11:22.422206,41.78,16.128409,-0.0033329230534799477,-0.023927417309398437,0.09695331012558621,36.09446859390736,-100.26678939585686,76.200527287817
2024-09-23 11:11:22.464326,41.78,16.128409,-0.0033329230534799477,-0.023429960042815445,0.09665483728461309,24.06297849342227,-96.25519929585457,80.21211738781929
2024-09-23 11:11:22.476545,41.78,16.128505,-0.0033329230534799477,-0.023429960042815445,0.09665483728461309,24.06297849342227,-96.25519929585457,80.21211738781929
2024-09-23 11:11:22.508450,41.78,16.128505,-0.0031836870127375577,-0.023728432883788564,0.09655535038822652,24.06297849342227,-96.25519929585457,80.21211738781929
2024-09-23 11:11:22.519473,41.78,16.128505,-0.0031836870127375577,-0.023728432883788564,0.09655535038822652,36.09446859390736,-88.23529758782387,80.21211738781929
2024-09-23 11:11:22.562560,41.78,16.128556,-0.003482159473966507,-0.023230986250042305,0.09695331012558621,40.106058693909645,-92.24360919585227,80.21211738781929
2024-09-23 11:11:22.604658,41.78,16.128607,-0.003482159473966507,-0.023230986250042305,0.09695331012558621,40.106058693909645,-92.24360919585227,76.200527287817
2024-09-23 11:11:22.616611,41.78,16.128607,-0.003482159473966507,-0.023429960042815445,0.0973015264147526,36.09446859390736,-92.24360919585227,76.200527287817
2024-09-23 11:11:22.660645,41.78,16.128658,-0.003482159473966507,-0.023728432883788564,0.09740101331113918,36.09446859390736,-104.27510100388527,80.21211738781929
2024-09-23 11:11:22.703505,41.78,16.128658,-0.003482159473966507,-0.023728432883788564,0.09740101331113918,28.07457030097246,-108.28669110388756,76.200527287817
2024-09-23 11:11:22.714782,41.78,16.128708,-0.0034324103296106863,-0.023778180888911878,0.09740101331113918,28.07457030097246,-108.28669110388756,76.200527287817
2024-09-23 11:11:22.758164,41.78,16.128759,-0.0030344509719951677,-0.023778180888911878,0.09690356060148622,40.106058693909645,-88.23529758782387,76.200527287817
2024-09-23 11:11:22.800137,41.78,16.128759,-0.0030344509719951677,-0.02313149783467906,0.09690356060148622,40.106058693909645,-88.23529758782387,76.200527287817
2024-09-23 11:11:22.811724,41.78,16.128846,-0.0030344509719951677,-0.02313149783467906,0.09690356060148622,32.08287849390507,-100.26678939585686,80.21211738781929
2024-09-23 11:11:22.854511,41.78,16.128846,-0.0033329230534799477,-0.02362894446842532,0.09685382322919964,36.09446859390736,-108.28669110388756,76.200527287817
2024-09-23 11:11:22.897242,41.78,16.128898,-0.0031339382481259063,-0.02362894446842532,0.09685382322919964,36.09446859390736,-108.28669110388756,76.200527287817
2024-09-23 11:11:22.908561,41.78,16.128898,-0.0031339382481259063,-0.023728432883788564,0.09710254654607277,28.07457030097246,-100.26678939585686,76.200527287817
2024-09-23 11:11:22.950702,41.78,16.128948,-0.0030344509719951677,-0.023230986250042305,0.0973512698629459,28.07457030097246,-100.26678939585686,80.21211738781929
2024-09-23 11:11:22.962352,41.78,16.128948,-0.0030344509719951677,-0.023230986250042305,0.0973512698629459,36.09446859390736,-100.26678939585686,80.21211738781929
2024-09-23 11:11:22.994446,41.78,16.128948,-0.0030344509719951677,-0.023230986250042305,0.0973512698629459,36.09446859390736,-104.27510100388527,80.21211738781929
2024-09-23 11:11:23.046702,41.78,16.128999,-0.0033329230534799477,-0.023230986250042305,0.0973512698629459,36.09446859390736,-104.27510100388527,80.21211738781929
2024-09-23 11:11:23.058170,41.78,16.128999,-0.0033329230534799477,-0.023429960042815445,0.0973512698629459,32.08287849390507,-104.27510100388527,80.21211738781929
2024-09-23 11:11:23.090222,41.78,16.128999,-0.0033329230534799477,-0.023429960042815445,0.0973512698629459,32.08287849390507,-100.26678939585686,80.21211738781929
2024-09-23 11:11:23.102187,41.78,16.12905,-0.0030344509719951677,-0.023280723622328886,0.0973015264147526,32.08287849390507,-100.26678939585686,76.200527287817
2024-09-23 11:11:23.145734,41.78,16.1291,-0.003233425524256645,-0.023280723622328886,0.0973015264147526,40.106058693909645,-96.25519929585457,72.1922225099802
2024-09-23 11:11:23.157318,41.78,16.1291,-0.003233425524256645,-0.02367869399252531,0.0973015264147526,40.106058693909645,-96.25519929585457,72.1922225099802
2024-09-23 11:11:23.189623,41.78,16.1291,-0.003233425524256645,-0.02367869399252531,0.09725178296655933,32.08287849390507,-96.25519929585457,72.1922225099802
2024-09-23 11:11:23.201083,41.78,16.129187,-0.003382661564999035,-0.02367869399252531,0.09725178296655933,32.08287849390507,-104.27510100388527,84.22370748782159
2024-09-23 11:11:23.244201,42.1,16.129187,-0.003382661564999035,-0.02367869399252531,0.09715228999426605,36.09446859390736,-96.25519929585457,80.21211738781929
2024-09-23 11:11:23.256490,42.1,16.129238,-0.003382661564999035,-0.02367869399252531,0.09715228999426605,36.09446859390736,-96.25519929585457,80.21211738781929
2024-09-23 11:11:23.289665,42.1,16.129238,-0.0028852147413806935,-0.023479709566915436,0.09675432418099966,36.09446859390736,-96.25519929585457,80.21211738781929
2024-09-23 11:11:23.301192,42.1,16.129238,-0.0028852147413806935,-0.023479709566915436,0.09675432418099966,36.09446859390736,-92.24360919585227,84.22370748782159
2024-09-23 11:11:23.344526,42.1,16.129334,-0.003382661564999035,-0.023579196463302005,0.09680407370509965,32.08287849390507,-96.25519929585457,84.22370748782159
2024-09-23 11:11:23.388197,42.1,16.129385,-0.0030841997366068195,-0.023429960042815445,0.09680407370509965,32.08287849390507,-96.25519929585457,84.22370748782159
2024-09-23 11:11:23.399992,42.1,16.129385,-0.0030841997366068195,-0.023429960042815445,0.09675432418099966,36.09446859390736,-96.25519929585457,84.22370748782159
2024-09-23 11:11:23.431549,42.1,16.129385,-0.0030841997366068195,-0.023429960042815445,0.09675432418099966,36.09446859390736,-100.26678939585686,84.22370748782159
2024-09-23 11:11:23.442741,42.1,16.129436,-0.0033329230534799477,-0.022982261414192504,0.09670458680871308,36.09446859390736,-100.26678939585686,80.21211738781929
2024-09-23 11:11:23.485064,42.1,16.129487,-0.0033329230534799477,-0.022982261414192504,0.09670458680871308,40.106058693909645,-100.26678939585686,84.22370748782159
2024-09-23 11:11:23.501797,42.1,16.129487,-0.0028852147413806935,-0.02367869399252531,0.09670458680871308,40.106058693909645,-100.26678939585686,84.22370748782159
2024-09-23 11:11:23.533815,42.1,16.129487,-0.0028852147413806935,-0.02367869399252531,0.09685382322919964,44.11764879391193,-100.26678939585686,84.22370748782159
2024-09-23 11:11:23.545366,42.1,16.129537,-0.003631395514708897,-0.02367869399252531,0.09685382322919964,44.11764879391193,-100.26678939585686,84.22370748782159
2024-09-23 11:11:23.578602,42.1,16.129537,-0.003631395514708897,-0.023479709566915436,0.09685382322919964,44.11764879391193,-100.26678939585686,84.22370748782159
2024-09-23 11:11:23.589776,42.1,16.129626,-0.003631395514708897,-0.023479709566915436,0.09695331012558621,28.07457030097246,-100.26678939585686,80.21211738781929
2024-09-23 11:11:23.633059,42.1,16.129626,-0.003979606107712764,-0.02367869399252531,0.09695331012558621,36.09446859390736,-104.27510100388527,80.21211738781929
2024-09-23 11:11:23.644837,42.1,16.129626,-0.003979606107712764,-0.02367869399252531,0.09695331012558621,36.09446859390736,-104.27510100388527,76.200527287817
2024-09-23 11:11:23.677567,42.1,16.129677,-0.0038303700669703737,-0.02367869399252531,0.09695331012558621,36.09446859390736,-104.27510100388527,76.200527287817
2024-09-23 11:11:23.689296,42.1,16.129677,-0.0038303700669703737,-0.023728432883788564,0.09750050628343246,40.106058693909645,-100.26678939585686,76.200527287817
2024-09-23 11:11:23.731723,42.1,16.129728,-0.003482159473966507,-0.023429960042815445,0.09675432418099966,40.106058693909645,-100.26678939585686,76.200527287817
2024-09-23 11:11:23.743434,42.1,16.129728,-0.003482159473966507,-0.023429960042815445,0.09675432418099966,36.09446859390736,-100.26678939585686,76.200527287817
2024-09-23 11:11:23.776064,42.1,16.129779,-0.003482159473966507,-0.023429960042815445,0.09675432418099966,36.09446859390736,-92.24360919585227,88.23529758782387
2024-09-23 11:11:23.787189,42.1,16.129779,-0.0030841997366068195,-0.02338022115155219,0.09755024973162574,36.09446859390736,-92.24360919585227,88.23529758782387
2024-09-23 11:11:23.829680,42.1,16.129829,-0.0028354659767690416,-0.023181236725942318,0.09755024973162574,32.08287849390507,-92.24360919585227,80.21211738781929
2024-09-23 11:11:23.872303,42.1,16.129829,-0.0028354659767690416,-0.023181236725942318,0.09705279702197278,40.106058693909645,-92.24360919585227,80.21211738781929
2024-09-23 11:11:23.884042,42.1,16.12988,-0.0033329230534799477,-0.023181236725942318,0.09705279702197278,40.106058693909645,-96.25519929585457,80.21211738781929
2024-09-23 11:11:23.967932,42.1,16.12988,-0.0033329230534799477,-0.023280723622328886,0.09705279702197278,40.106058693909645,-96.25519929585457,80.21211738781929
2024-09-23 11:11:23.979260,42.1,16.129967,-0.0033329230534799477,-0.023280723622328886,0.09695331012558621,32.08287849390507,-104.27510100388527,76.200527287817
2024-09-23 11:11:24.022528,42.1,16.129967,-0.003631395514708897,-0.023280723622328886,0.09695331012558621,32.08287849390507,-104.27510100388527,76.200527287817
2024-09-23 11:11:24.065455,42.1,16.129967,-0.003631395514708897,-0.02367869399252531,0.09695331012558621,32.08287849390507,-104.27510100388527,76.200527287817
2024-09-23 11:11:24.076781,42.1,16.129967,-0.003631395514708897,-0.02367869399252531,0.09710254654607277,32.08287849390507,-96.25519929585457,76.200527287817
2024-09-23 11:11:24.118583,42.1,16.130019,-0.003780631555451287,-0.023877669304275123,0.09710254654607277,32.08287849390507,-96.25519929585457,76.200527287817
2024-09-23 11:11:24.130881,42.1,16.130019,-0.003780631555451287,-0.023877669304275123,0.09715228999426605,36.09446859390736,-100.26678939585686,76.200527287817
2024-09-23 11:11:24.162960,42.1,16.130019,-0.003780631555451287,-0.023877669304275123,0.09715228999426605,36.09446859390736,-100.26678939585686,76.200527287817
2024-09-23 11:11:24.174334,42.1,16.130069,-0.0030841997366068195,-0.023429960042815445,0.09725178296655933,28.07457030097246,-100.26678939585686,76.200527287817
2024-09-23 11:11:24.216299,42.1,16.13012,-0.0035816467500972456,-0.023429960042815445,0.09725178296655933,28.07457030097246,-100.26678939585686,80.21211738781929
2024-09-23 11:11:24.227640,42.1,16.13012,-0.0035816467500972456,-0.023877669304275123,0.09725178296655933,28.07457030097246,-100.26678939585686,80.21211738781929
2024-09-23 11:11:24.270477,42.28,16.130213,-0.003382661564999035,-0.023778180888911878,0.09725178296655933,36.09446859390736,-96.25519929585457,76.200527287817
2024-09-23 11:11:24.313277,42.28,16.130213,-0.003382661564999035,-0.023778180888911878,0.09710254654607277,44.11764879391193,-96.25519929585457,76.200527287817
2024-09-23 11:11:24.325185,42.28,16.130311,-0.0034324103296106863,-0.023778180888911878,0.09710254654607277,44.11764879391193,-96.25519929585457,80.21211738781929
2024-09-23 11:11:24.357376,42.28,16.130311,-0.0034324103296106863,-0.023280723622328886,0.09710254654607277,44.11764879391193,-96.25519929585457,80.21211738781929
2024-09-23 11:11:24.369893,42.28,16.130406,-0.0034324103296106863,-0.023280723622328886,0.09685382322919964,36.09446859390736,-104.27510100388527,84.22370748782159
2024-09-23 11:11:24.412162,42.28,16.130406,-0.003382661564999035,-0.023927417309398437,0.09685382322919964,44.11764879391193,-104.27510100388527,84.22370748782159
2024-09-23 11:11:24.423992,42.28,16.130406,-0.003382661564999035,-0.023927417309398437,0.09685382322919964,44.11764879391193,-108.28669110388756,76.200527287817
2024-09-23 11:11:24.455745,42.28,16.130458,-0.003382661564999035,-0.023927417309398437,0.09685382322919964,44.11764879391193,-108.28669110388756,76.200527287817
2024-09-23 11:11:24.467664,42.28,16.130458,-0.0031836870127375577,-0.02352945757203875,0.0966050877605131,36.09446859390736,-96.25519929585457,76.200527287817
2024-09-23 11:11:24.510405,42.28,16.130508,-0.0031836870127375577,-0.02293251340906919,0.09665483728461309,36.09446859390736,-96.25519929585457,88.23529758782387
2024-09-23 11:11:24.522108,42.28,16.130508,-0.0031836870127375577,-0.02293251340906919,0.09665483728461309,40.106058693909645,-96.25519929585457,88.23529758782387
2024-09-23 11:11:24.554278,42.28,16.130508,-0.0031836870127375577,-0.02293251340906919,0.09665483728461309,40.106058693909645,-96.25519929585457,80.21211738781929
2024-09-23 11:11:24.565917,42.28,16.130559,-0.0036811340262279837,-0.023927417309398437,0.09715228999426605,40.106058693909645,-96.25519929585457,80.21211738781929
2024-09-23 11:11:24.607858,42.28,16.13061,-0.003382661564999035,-0.023927417309398437,0.09715228999426605,40.106058693909645,-92.24360919585227,84.22370748782159
2024-09-23 11:11:24.620113,42.28,16.13061,-0.003382661564999035,-0.02352945757203875,0.09715228999426605,40.106058693909645,-92.24360919585227,84.22370748782159
2024-09-23 11:11:24.652540,42.28,16.13061,-0.003382661564999035,-0.02352945757203875,0.09640611396773996,36.09446859390736,-92.24360919585227,84.22370748782159
2024-09-23 11:11:24.663868,42.28,16.13066,-0.003382661564999035,-0.02352945757203875,0.09640611396773996,36.09446859390736,-96.25519929585457,80.21211738781929
2024-09-23 11:11:24.705946,42.28,16.13066,-0.003382661564999035,-0.02352945757203875,0.09705279702197278,36.09446859390736,-96.25519929585457,76.200527287817
2024-09-23 11:11:24.718142,42.28,16.130748,-0.003382661564999035,-0.02352945757203875,0.09705279702197278,36.09446859390736,-96.25519929585457,76.200527287817
2024-09-23 11:11:24.750316,42.28,16.130748,-0.0031339382481259063,-0.023330473146428877,0.09705279702197278,36.09446859390736,-96.25519929585457,76.200527287817
2024-09-23 11:11:24.762288,42.28,16.130748,-0.0031339382481259063,-0.023330473146428877,0.09655535038822652,36.09446859390736,-104.27510100388527,80.21211738781929
2024-09-23 11:11:24.804700,42.28,16.130799,-0.003382661564999035,-0.023181236725942318,0.09784872257259886,36.09446859390736,-96.25519929585457,80.21211738781929
2024-09-23 11:11:24.847116,42.28,16.13085,-0.003382661564999035,-0.023181236725942318,0.09784872257259886,36.09446859390736,-96.25519929585457,84.22370748782159
2024-09-23 11:11:24.858581,42.28,16.13085,-0.0028354659767690416,-0.023728432883788564,0.09690356060148622,40.106058693909645,-96.25519929585457,84.22370748782159
2024-09-23 11:11:24.901277,42.28,16.1309,-0.0030841997366068195,-0.02313149783467906,0.09690356060148622,40.106058693909645,-92.24360919585227,88.23529758782387
2024-09-23 11:11:24.913435,42.28,16.1309,-0.0030841997366068195,-0.02313149783467906,0.09685382322919964,40.106058693909645,-92.24360919585227,88.23529758782387
2024-09-23 11:11:24.944981,42.28,16.1309,-0.0030841997366068195,-0.02313149783467906,0.09685382322919964,36.09446859390736,-100.26678939585686,88.23529758782387
2024-09-23 11:11:24.956251,42.28,16.130951,-0.003382661564999035,-0.02313149783467906,0.09685382322919964,36.09446859390736,-100.26678939585686,84.22370748782159
2024-09-23 11:11:24.999615,42.28,16.131002,-0.0030841997366068195,-0.02313149783467906,0.09720203344245934,32.08287849390507,-100.26678939585686,76.200527287817
2024-09-23 11:11:25.094140,42.28,16.131002,-0.0030841997366068195,-0.02367869399252531,0.09789846602079214,32.08287849390507,-100.26678939585686,76.200527287817
2024-09-23 11:11:25.105872,42.28,16.131089,-0.0030841997366068195,-0.02367869399252531,0.09789846602079214,32.08287849390507,-96.25519929585457,76.200527287817
2024-09-23 11:11:25.137880,42.28,16.131089,-0.003382661564999035,-0.02367869399252531,0.09789846602079214,32.08287849390507,-96.25519929585457,76.200527287817
2024-09-23 11:11:25.149349,42.28,16.131089,-0.003382661564999035,-0.023330473146428877,0.09740101331113918,36.09446859390736,-96.25519929585457,76.200527287817
2024-09-23 11:11:25.191737,42.28,16.13114,-0.003382661564999035,-0.023280723622328886,0.09740101331113918,36.09446859390736,-96.25519929585457,76.200527287817
2024-09-23 11:11:25.203408,42.28,16.13114,-0.003382661564999035,-0.023280723622328886,0.09740101331113918,40.106058693909645,-96.25519929585457,76.200527287817
2024-09-23 11:11:25.235340,42.28,16.13114,-0.003382661564999035,-0.023280723622328886,0.09740101331113918,40.106058693909645,-96.25519929585457,76.200527287817
2024-09-23 11:11:25.247032,42.28,16.131191,-0.0033329230534799477,-0.02367869399252531,0.0970030596496862,44.11764879391193,-96.25519929585457,76.200527287817
2024-09-23 11:11:25.288726,42.29,16.131241,-0.0027359787006383035,-0.02367869399252531,0.0970030596496862,44.11764879391193,-100.26678939585686,80.21211738781929
2024-09-23 11:11:25.300393,42.29,16.131241,-0.0027359787006383035,-0.023479709566915436,0.09680407370509965,44.11764879391193,-100.26678939585686,80.21211738781929
2024-09-23 11:11:25.332386,42.29,16.131241,-0.0027359787006383035,-0.023479709566915436,0.09680407370509965,32.08287849390507,-100.26678939585686,80.21211738781929
2024-09-23 11:11:25.344175,42.29,16.131334,-0.0028852147413806935,-0.023429960042815445,0.09680407370509965,32.08287849390507,-100.26678939585686,76.200527287817
2024-09-23 11:11:25.387089,42.29,16.131334,-0.0028852147413806935,-0.023429960042815445,0.0970030596496862,32.08287849390507,-100.26678939585686,76.200527287817
2024-09-23 11:11:25.398365,42.29,16.131385,-0.003233425524256645,-0.023429960042815445,0.0970030596496862,32.08287849390507,-100.26678939585686,84.22370748782159
2024-09-23 11:11:25.441082,42.29,16.131479,-0.003233425524256645,-0.02367869399252531,0.09690356060148622,44.11764879391193,-100.26678939585686,72.1922225099802
2024-09-23 11:11:25.483466,42.29,16.131479,-0.0030841997366068195,-0.02338022115155219,0.09755024973162574,44.11764879391193,-100.26678939585686,72.1922225099802
2024-09-23 11:11:25.494691,42.29,16.131479,-0.0030841997366068195,-0.02338022115155219,0.09755024973162574,44.11764879391193,-100.26678939585686,76.200527287817
2024-09-23 11:11:25.537044,42.29,16.13153,-0.003233425524256645,-0.023181236725942318,0.0970030596496862,40.106058693909645,-100.26678939585686,76.200527287817
2024-09-23 11:11:25.580102,42.29,16.131581,-0.0033329230534799477,-0.023181236725942318,0.0970030596496862,40.106058693909645,-100.26678939585686,80.21211738781929
2024-09-23 11:11:25.591639,42.29,16.131581,-0.0033329230534799477,-0.023230986250042305,0.09675432418099966,44.11764879391193,-100.26678939585686,80.21211738781929
2024-09-23 11:11:25.634898,42.29,16.131631,-0.003482159473966507,-0.023579196463302005,0.0970030596496862,44.11764879391193,-100.26678939585686,76.200527287817
2024-09-23 11:11:25.678047,42.29,16.131631,-0.003482159473966507,-0.023579196463302005,0.0970030596496862,40.106058693909645,-104.27510100388527,72.1922225099802
2024-09-23 11:11:25.689764,42.29,16.131682,-0.0031836870127375577,-0.02367869399252531,0.0970030596496862,40.106058693909645,-104.27510100388527,72.1922225099802
2024-09-23 11:11:25.733270,42.29,16.131733,-0.0033329230534799477,-0.02367869399252531,0.09755024973162574,28.07457030097246,-108.28669110388756,80.21211738781929
2024-09-23 11:11:25.775298,42.29,16.131733,-0.0033329230534799477,-0.023330473146428877,0.09720203344245934,40.106058693909645,-108.28669110388756,80.21211738781929
2024-09-23 11:11:25.786755,42.29,16.13182,-0.0033329230534799477,-0.023330473146428877,0.09720203344245934,40.106058693909645,-92.24360919585227,80.21211738781929
2024-09-23 11:11:25.829608,42.29,16.13182,-0.0038801188315820256,-0.023230986250042305,0.09740101331113918,32.08287849390507,-92.24360919585227,80.21211738781929
2024-09-23 11:11:25.872439,42.29,16.131871,-0.003233425524256645,-0.023230986250042305,0.09740101331113918,32.08287849390507,-92.24360919585227,80.21211738781929
2024-09-23 11:11:25.884346,42.29,16.131871,-0.003233425524256645,-0.02278327698858263,0.09680407370509965,28.07457030097246,-96.25519929585457,80.21211738781929
2024-09-23 11:11:25.927008,42.29,16.131922,-0.003382661564999035,-0.023827930413011865,0.09690356060148622,36.09446859390736,-96.25519929585457,84.22370748782159
2024-09-23 11:11:26.020920,42.29,16.131973,-0.003482159473966507,-0.023827930413011865,0.09690356060148622,36.09446859390736,-96.25519929585457,80.21211738781929
2024-09-23 11:11:26.032560,42.29,16.131973,-0.003482159473966507,-0.023181236725942318,0.09705279702197278,36.09446859390736,-96.25519929585457,80.21211738781929
2024-09-23 11:11:26.117059,42.29,16.131973,-0.003482159473966507,-0.023181236725942318,0.09705279702197278,44.11764879391193,-96.25519929585457,84.22370748782159
2024-09-23 11:11:26.128180,42.29,16.132023,-0.0032831742888682963,-0.023330473146428877,0.09705279702197278,44.11764879391193,-96.25519929585457,84.22370748782159
2024-09-23 11:11:26.172088,42.29,16.132074,-0.0033329230534799477,-0.023330473146428877,0.09750050628343246,40.106058693909645,-96.25519929585457,80.21211738781929
2024-09-23 11:11:26.214210,42.29,16.132074,-0.0033329230534799477,-0.023230986250042305,0.09695331012558621,32.08287849390507,-96.25519929585457,80.21211738781929
2024-09-23 11:11:26.225559,42.29,16.132161,-0.0033329230534799477,-0.023230986250042305,0.09695331012558621,32.08287849390507,-96.25519929585457,72.1922225099802
2024-09-23 11:11:26.267491,42.29,16.132161,-0.0030841997366068195,-0.02338022115155219,0.09755024973162574,36.09446859390736,-96.25519929585457,80.21211738781929
2024-09-23 11:11:26.311360,41.81,16.132259,-0.0030841997366068195,-0.023728432883788564,0.09755024973162574,36.09446859390736,-96.25519929585457,80.21211738781929
2024-09-23 11:11:26.323045,41.81,16.132259,-0.0030841997366068195,-0.023728432883788564,0.09720203344245934,40.106058693909645,-100.26678939585686,80.21211738781929
2024-09-23 11:11:26.365668,41.81,16.132357,-0.0030344509719951677,-0.023429960042815445,0.09725178296655933,40.106058693909645,-100.26678939585686,76.200527287817
2024-09-23 11:11:26.408928,41.81,16.132408,-0.0030344509719951677,-0.023429960042815445,0.09725178296655933,40.106058693909645,-96.25519929585457,76.200527287817
2024-09-23 11:11:26.420519,41.81,16.132408,-0.0029847020175114316,-0.023280723622328886,0.09655535038822652,40.106058693909645,-96.25519929585457,76.200527287817
2024-09-23 11:11:26.463150,41.81,16.132459,-0.003233425524256645,-0.022833026512682618,0.09655535038822652,32.08287849390507,-100.26678939585686,80.21211738781929
2024-09-23 11:11:26.505090,41.81,16.132459,-0.003233425524256645,-0.022833026512682618,0.09695331012558621,32.08287849390507,-100.26678939585686,80.21211738781929
2024-09-23 11:11:26.516288,41.81,16.13251,-0.0028852147413806935,-0.022833026512682618,0.09695331012558621,32.08287849390507,-100.26678939585686,80.21211738781929
2024-09-23 11:11:26.558899,41.81,16.13251,-0.0028852147413806935,-0.023579196463302005,0.09695331012558621,40.106058693909645,-96.25519929585457,76.200527287817
2024-09-23 11:11:26.570837,41.81,16.1326,-0.0028852147413806935,-0.023579196463302005,0.09695331012558621,40.106058693909645,-96.25519929585457,76.200527287817
2024-09-23 11:11:26.602598,41.81,16.1326,-0.0029349636958644295,-0.024026904205785005,0.09695331012558621,40.106058693909645,-96.25519929585457,76.200527287817
2024-09-23 11:11:26.613731,41.81,16.1326,-0.0029349636958644295,-0.024026904205785005,0.0966050877605131,36.09446859390736,-92.24360919585227,76.200527287817
2024-09-23 11:11:26.657081,41.81,16.132651,-0.0033329230534799477,-0.023280723622328886,0.09750050628343246,40.106058693909645,-96.25519929585457,76.200527287817
2024-09-23 11:11:26.700195,41.81,16.132702,-0.0033329230534799477,-0.023280723622328886,0.09750050628343246,40.106058693909645,-96.25519929585457,76.200527287817
2024-09-23 11:11:26.711375,41.81,16.132702,-0.003631395514708897,-0.023827930413011865,0.09740101331113918,44.11764879391193,-96.25519929585457,76.200527287817
2024-09-23 11:11:26.754223,41.81,16.132753,-0.0031836870127375577,-0.023479709566915436,0.09740101331113918,44.11764879391193,-96.25519929585457,80.21211738781929
2024-09-23 11:11:26.766050,41.81,16.132753,-0.0031836870127375577,-0.023479709566915436,0.09745075675933246,44.11764879391193,-96.25519929585457,80.21211738781929
2024-09-23 11:11:26.799426,41.81,16.132753,-0.0031836870127375577,-0.023479709566915436,0.09745075675933246,32.08287849390507,-96.25519929585457,80.21211738781929
2024-09-23 11:11:26.810812,41.81,16.132803,-0.0035816467500972456,-0.02338022115155219,0.09745075675933246,32.08287849390507,-96.25519929585457,80.21211738781929
2024-09-23 11:11:26.853738,41.81,16.132854,-0.0035816467500972456,-0.02338022115155219,0.09690356060148622,32.08287849390507,-104.27510100388527,80.21211738781929
2024-09-23 11:11:26.865596,41.81,16.132854,-0.0029349636958644295,-0.02338022115155219,0.09690356060148622,32.08287849390507,-104.27510100388527,80.21211738781929
2024-09-23 11:11:26.898410,41.81,16.132854,-0.0029349636958644295,-0.023230986250042305,0.0970030596496862,40.106058693909645,-100.26678939585686,80.21211738781929
2024-09-23 11:11:26.910444,41.81,16.132854,-0.0029349636958644295,-0.023230986250042305,0.0970030596496862,40.106058693909645,-100.26678939585686,80.21211738781929
2024-09-23 11:11:26.943043,41.81,16.132941,-0.0029349636958644295,-0.023230986250042305,0.0970030596496862,40.106058693909645,-100.26678939585686,80.21211738781929
2024-09-23 11:11:26.954405,41.81,16.132941,-0.0035318979854855937,-0.023778180888911878,0.09740101331113918,40.106058693909645,-100.26678939585686,80.21211738781929
2024-09-23 11:11:26.996888,41.81,16.132993,-0.0032831742888682963,-0.02352945757203875,0.09695331012558621,40.106058693909645,-100.26678939585686,76.200527287817
2024-09-23 11:11:27.008640,41.81,16.132993,-0.0032831742888682963,-0.02352945757203875,0.09695331012558621,32.08287849390507,-100.26678939585686,76.200527287817
2024-09-23 11:11:27.185858,41.81,16.132993,-0.0032831742888682963,-0.02352945757203875,0.09695331012558621,32.08287849390507,-96.25519929585457,76.200527287817
2024-09-23 11:11:27.198237,41.81,16.133043,-0.0033329230534799477,-0.023579196463302005,0.0973015264147526,32.08287849390507,-96.25519929585457,76.200527287817
2024-09-23 11:11:27.240723,41.81,16.133094,-0.0033329230534799477,-0.023579196463302005,0.0973015264147526,40.106058693909645,-100.26678939585686,72.1922225099802
2024-09-23 11:11:27.252107,41.81,16.133094,-0.0032831742888682963,-0.023230986250042305,0.0973015264147526,40.106058693909645,-100.26678939585686,72.1922225099802
2024-09-23 11:11:27.284581,41.81,16.133094,-0.0032831742888682963,-0.023230986250042305,0.0973015264147526,36.09446859390736,-100.26678939585686,72.1922225099802
2024-09-23 11:11:27.296278,41.81,16.133145,-0.0030344509719951677,-0.023230986250042305,0.0973015264147526,36.09446859390736,-100.26678939585686,76.200527287817
2024-09-23 11:11:27.382155,41.34,16.133145,-0.0030344509719951677,-0.02338022115155219,0.0973015264147526,36.09446859390736,-100.26678939585686,76.200527287817
2024-09-23 11:11:27.393662,41.34,16.133234,-0.0030344509719951677,-0.02338022115155219,0.09690356060148622,32.08287849390507,-100.26678939585686,80.21211738781929
2024-09-23 11:11:27.436209,41.34,16.133234,-0.0027359787006383035,-0.02367869399252531,0.0973015264147526,44.11764879391193,-96.25519929585457,80.21211738781929
2024-09-23 11:11:27.448337,41.34,16.133234,-0.0027359787006383035,-0.02367869399252531,0.0973015264147526,44.11764879391193,-96.25519929585457,84.22370748782159
2024-09-23 11:11:27.482118,41.34,16.133429,-0.0030344509719951677,-0.023330473146428877,0.0973015264147526,44.11764879391193,-96.25519929585457,84.22370748782159
2024-09-23 11:11:27.493145,41.34,16.133429,-0.0030344509719951677,-0.023330473146428877,0.09725178296655933,44.11764879391193,-100.26678939585686,84.22370748782159
2024-09-23 11:11:27.535812,41.34,16.133481,-0.0030344509719951677,-0.02397715620066169,0.09715228999426605,36.09446859390736,-100.26678939585686,76.200527287817
2024-09-23 11:11:27.579131,41.34,16.133531,-0.0030344509719951677,-0.02397715620066169,0.09715228999426605,36.09446859390736,-96.25519929585457,76.200527287817
2024-09-23 11:11:27.590748,41.34,16.133531,-0.003382661564999035,-0.02293251340906919,0.09740101331113918,36.09446859390736,-96.25519929585457,76.200527287817
2024-09-23 11:11:27.633629,41.34,16.133626,-0.003631395514708897,-0.02338022115155219,0.09740101331113918,48.12595698684454,-100.26678939585686,76.200527287817
2024-09-23 11:11:27.675655,41.34,16.133626,-0.003631395514708897,-0.02338022115155219,0.0973015264147526,32.08287849390507,-100.26678939585686,76.200527287817
2024-09-23 11:11:27.686921,41.34,16.133677,-0.0032831742888682963,-0.02338022115155219,0.0973015264147526,32.08287849390507,-100.26678939585686,88.23529758782387
2024-09-23 11:11:27.729823,41.34,16.133677,-0.0032831742888682963,-0.02313149783467906,0.09710254654607277,32.08287849390507,-100.26678939585686,80.21211738781929
2024-09-23 11:11:27.741728,41.34,16.13377,-0.0032831742888682963,-0.02313149783467906,0.09710254654607277,32.08287849390507,-100.26678939585686,80.21211738781929
2024-09-23 11:11:27.774649,41.34,16.13377,-0.0025369937054121774,-0.023230986250042305,0.09670458680871308,32.08287849390507,-100.26678939585686,80.21211738781929
2024-09-23 11:11:27.786482,41.34,16.13377,-0.0025369937054121774,-0.023230986250042305,0.09670458680871308,40.106058693909645,-88.23529758782387,84.22370748782159
2024-09-23 11:11:27.828681,41.34,16.133821,-0.0031836870127375577,-0.02313149783467906,0.09755024973162574,36.09446859390736,-96.25519929585457,84.22370748782159
2024-09-23 11:11:27.871876,41.34,16.133872,-0.003382661564999035,-0.02313149783467906,0.09755024973162574,36.09446859390736,-96.25519929585457,76.200527287817
2024-09-23 11:11:27.883461,41.34,16.133872,-0.003382661564999035,-0.02308174982955575,0.09710254654607277,36.09446859390736,-96.25519929585457,76.200527287817
2024-09-23 11:11:27.925861,41.34,16.133923,-0.0030841997366068195,-0.02338022115155219,0.09725178296655933,36.09446859390736,-104.27510100388527,76.200527287817
2024-09-23 11:11:27.969133,41.34,16.133923,-0.0030841997366068195,-0.02338022115155219,0.09725178296655933,32.08287849390507,-96.25519929585457,84.22370748782159
2024-09-23 11:11:27.980550,41.34,16.133973,-0.0031836870127375577,-0.023181236725942318,0.09725178296655933,32.08287849390507,-96.25519929585457,84.22370748782159
2024-09-23 11:11:28.023527,41.34,16.134024,-0.003233425524256645,-0.023181236725942318,0.09745075675933246,36.09446859390736,-104.27510100388527,80.21211738781929
2024-09-23 11:11:28.066641,41.34,16.134024,-0.003233425524256645,-0.023927417309398437,0.0970030596496862,32.08287849390507,-104.27510100388527,80.21211738781929
2024-09-23 11:11:28.077969,41.34,16.134111,-0.003233425524256645,-0.023927417309398437,0.0970030596496862,32.08287849390507,-100.26678939585686,76.200527287817
2024-09-23 11:11:28.162688,41.34,16.134111,-0.003631395514708897,-0.023181236725942318,0.0970030596496862,32.08287849390507,-100.26678939585686,76.200527287817
2024-09-23 11:11:28.215094,41.34,16.134111,-0.003631395514708897,-0.023181236725942318,0.09695331012558621,32.08287849390507,-104.27510100388527,76.200527287817
2024-09-23 11:11:28.226801,41.34,16.134163,-0.0026862297461545674,-0.023181236725942318,0.09695331012558621,32.08287849390507,-104.27510100388527,76.200527287817
2024-09-23 11:11:28.259492,41.34,16.134163,-0.0026862297461545674,-0.023230986250042305,0.09695331012558621,32.08287849390507,-104.27510100388527,76.200527287817
2024-09-23 11:11:28.271285,41.34,16.134213,-0.0026862297461545674,-0.023230986250042305,0.09720203344245934,36.09446859390736,-100.26678939585686,80.21211738781929
2024-09-23 11:11:28.313963,41.34,16.134213,-0.004029355252068585,-0.023280723622328886,0.09685382322919964,44.11764879391193,-92.24360919585227,80.21211738781929
2024-09-23 11:11:28.325990,41.34,16.134213,-0.004029355252068585,-0.023280723622328886,0.09685382322919964,44.11764879391193,-92.24360919585227,80.21211738781929
2024-09-23 11:11:28.359382,41.34,16.134264,-0.0032831742888682963,-0.023479709566915436,0.09685382322919964,44.11764879391193,-92.24360919585227,80.21211738781929
2024-09-23 11:11:28.370906,41.34,16.134264,-0.0032831742888682963,-0.023479709566915436,0.09715228999426605,40.106058693909645,-96.25519929585457,80.21211738781929
2024-09-23 11:11:28.413470,41.04,16.134315,-0.0032831742888682963,-0.022982261414192504,0.09680407370509965,44.11764879391193,-96.25519929585457,80.21211738781929
2024-09-23 11:11:28.456603,41.04,16.134454,-0.0032831742888682963,-0.022982261414192504,0.09680407370509965,44.11764879391193,-96.25519929585457,80.21211738781929
2024-09-23 11:11:28.468355,41.04,16.134454,-0.0030344509719951677,-0.02352945757203875,0.0973015264147526,44.11764879391193,-96.25519929585457,80.21211738781929
2024-09-23 11:11:28.510986,41.04,16.134505,-0.0030344509719951677,-0.023927417309398437,0.0973015264147526,40.106058693909645,-100.26678939585686,76.200527287817
2024-09-23 11:11:28.554533,41.04,16.134505,-0.0030344509719951677,-0.023927417309398437,0.09655535038822652,36.09446859390736,-88.23529758782387,76.200527287817
2024-09-23 11:11:28.565700,41.04,16.134556,-0.0030344509719951677,-0.023927417309398437,0.09655535038822652,36.09446859390736,-88.23529758782387,88.23529758782387
2024-09-23 11:11:28.609078,41.04,16.134647,-0.0030344509719951677,-0.023778180888911878,0.0973512698629459,36.09446859390736,-92.24360919585227,84.22370748782159
2024-09-23 11:11:28.651966,41.04,16.134647,-0.0036811340262279837,-0.023479709566915436,0.09680407370509965,36.09446859390736,-92.24360919585227,84.22370748782159
2024-09-23 11:11:28.663495,41.04,16.134647,-0.0036811340262279837,-0.023479709566915436,0.09680407370509965,28.07457030097246,-100.26678939585686,80.21211738781929
2024-09-23 11:11:28.706494,41.04,16.134699,-0.003233425524256645,-0.023429960042815445,0.09695331012558621,36.09446859390736,-100.26678939585686,80.21211738781929
2024-09-23 11:11:28.750542,41.04,16.13475,-0.002785727465249955,-0.023181236725942318,0.09695331012558621,36.09446859390736,-100.26678939585686,88.23529758782387
2024-09-23 11:11:28.761665,41.04,16.13475,-0.002785727465249955,-0.023181236725942318,0.09750050628343246,40.106058693909645,-100.26678939585686,88.23529758782387
2024-09-23 11:11:28.793883,41.04,16.13475,-0.002785727465249955,-0.023181236725942318,0.09750050628343246,40.106058693909645,-92.24360919585227,88.23529758782387
2024-09-23 11:11:28.805798,41.04,16.1348,-0.0032831742888682963,-0.023827930413011865,0.09655535038822652,40.106058693909645,-92.24360919585227,80.21211738781929
2024-09-23 11:11:28.847532,41.04,16.1348,-0.0032831742888682963,-0.023827930413011865,0.09655535038822652,40.106058693909645,-92.24360919585227,84.22370748782159
2024-09-23 11:11:28.859556,41.04,16.134851,-0.0033329230534799477,-0.023479709566915436,0.09655535038822652,40.106058693909645,-92.24360919585227,84.22370748782159
2024-09-23 11:11:28.891519,41.04,16.134851,-0.0033329230534799477,-0.023479709566915436,0.09655535038822652,40.106058693909645,-92.24360919585227,84.22370748782159
2024-09-23 11:11:28.903038,41.04,16.134902,-0.003233425524256645,-0.023479709566915436,0.09655535038822652,44.11764879391193,-104.27510100388527,76.200527287817
2024-09-23 11:11:28.944995,41.04,16.134902,-0.003233425524256645,-0.02313149783467906,0.09690356060148622,36.09446859390736,-104.27510100388527,76.200527287817
2024-09-23 11:11:28.956376,41.04,16.134989,-0.003233425524256645,-0.02313149783467906,0.09690356060148622,36.09446859390736,-92.24360919585227,84.22370748782159
2024-09-23 11:11:28.988756,41.04,16.134989,-0.003631395514708897,-0.02313149783467906,0.09690356060148622,36.09446859390736,-92.24360919585227,84.22370748782159
2024-09-23 11:11:29.000402,41.04,16.134989,-0.003631395514708897,-0.023479709566915436,0.09720203344245934,36.09446859390736,-104.27510100388527,88.23529758782387
2024-09-23 11:11:29.042401,41.04,16.13504,-0.0032831742888682963,-0.022982261414192504,0.09645586349183995,36.09446859390736,-104.27510100388527,88.23529758782387
2024-09-23 11:11:29.054271,41.04,16.13504,-0.0032831742888682963,-0.022982261414192504,0.09645586349183995,40.106058693909645,-100.26678939585686,88.23529758782387
2024-09-23 11:11:29.086229,41.04,16.13504,-0.0032831742888682963,-0.022982261414192504,0.09645586349183995,40.106058693909645,-100.26678939585686,76.200527287817
2024-09-23 11:11:29.098314,41.04,16.135091,-0.0035318979854855937,-0.023230986250042305,0.0973015264147526,44.11764879391193,-100.26678939585686,76.200527287817
2024-09-23 11:11:29.192222,41.04,16.135091,-0.0035318979854855937,-0.023230986250042305,0.0973015264147526,44.11764879391193,-108.28669110388756,76.200527287817
2024-09-23 11:11:29.235746,41.04,16.135142,-0.0035318979854855937,-0.023230986250042305,0.0973015264147526,44.11764879391193,-108.28669110388756,80.21211738781929
2024-09-23 11:11:29.247558,41.04,16.135142,-0.0032831742888682963,-0.024176140626271565,0.09745075675933246,44.11764879391193,-108.28669110388756,80.21211738781929
2024-09-23 11:11:29.291611,41.04,16.135193,-0.0031339382481259063,-0.024176140626271565,0.09745075675933246,40.106058693909645,-96.25519929585457,80.21211738781929
2024-09-23 11:11:29.303581,41.04,16.135193,-0.0031339382481259063,-0.02313149783467906,0.09745075675933246,40.106058693909645,-96.25519929585457,80.21211738781929
2024-09-23 11:11:29.335963,41.04,16.135193,-0.0031339382481259063,-0.02313149783467906,0.09690356060148622,44.11764879391193,-96.25519929585457,84.22370748782159
2024-09-23 11:11:29.347557,41.04,16.135243,-0.003929857343101113,-0.02313149783467906,0.09690356060148622,44.11764879391193,-96.25519929585457,84.22370748782159
2024-09-23 11:11:29.379171,41.04,16.135243,-0.003929857343101113,-0.02338022115155219,0.09690356060148622,44.11764879391193,-96.25519929585457,84.22370748782159
2024-09-23 11:11:29.390369,41.04,16.13533,-0.003929857343101113,-0.02338022115155219,0.09715228999426605,32.08287849390507,-96.25519929585457,80.21211738781929
2024-09-23 11:11:29.432411,41.13,16.13533,-0.003382661564999035,-0.0228827638849692,0.09685382322919964,32.08287849390507,-96.25519929585457,80.21211738781929
2024-09-23 11:11:29.445227,41.13,16.13533,-0.003382661564999035,-0.0228827638849692,0.09685382322919964,32.08287849390507,-96.25519929585457,80.21211738781929
2024-09-23 11:11:29.478016,41.13,16.135476,-0.003382661564999035,-0.0228827638849692,0.09685382322919964,32.08287849390507,-96.25519929585457,80.21211738781929
2024-09-23 11:11:29.489829,41.13,16.135476,-0.0029847020175114316,-0.02308174982955575,0.09774922960030558,36.09446859390736,-100.26678939585686,80.21211738781929
2024-09-23 11:11:29.532073,41.13,16.135528,-0.003482159473966507,-0.023877669304275123,0.09720203344245934,36.09446859390736,-100.26678939585686,80.21211738781929
2024-09-23 11:11:29.543726,41.13,16.135528,-0.003482159473966507,-0.023877669304275123,0.09720203344245934,36.09446859390736,-100.26678939585686,80.21211738781929
2024-09-23 11:11:29.628528,41.13,16.135579,-0.0032831742888682963,-0.023877669304275123,0.09720203344245934,36.09446859390736,-104.27510100388527,80.21211738781929
2024-09-23 11:11:29.640404,41.13,16.135579,-0.0032831742888682963,-0.023181236725942318,0.09705279702197278,36.09446859390736,-104.27510100388527,80.21211738781929
2024-09-23 11:11:29.672993,41.13,16.135579,-0.0032831742888682963,-0.023181236725942318,0.09705279702197278,32.08287849390507,-104.27510100388527,80.21211738781929
2024-09-23 11:11:29.685049,41.13,16.13563,-0.0033329230534799477,-0.023429960042815445,0.09705279702197278,32.08287849390507,-100.26678939585686,76.200527287817
2024-09-23 11:11:29.727634,41.13,16.13563,-0.0033329230534799477,-0.023429960042815445,0.0970030596496862,36.09446859390736,-100.26678939585686,76.200527287817
2024-09-23 11:11:29.770513,41.13,16.13568,-0.0033329230534799477,-0.023429960042815445,0.0970030596496862,36.09446859390736,-100.26678939585686,80.21211738781929
2024-09-23 11:11:29.782213,41.13,16.13568,-0.003382661564999035,-0.023330473146428877,0.09720203344245934,36.09446859390736,-100.26678939585686,80.21211738781929
2024-09-23 11:11:29.824734,41.13,16.135769,-0.0035318979854855937,-0.023579196463302005,0.09720203344245934,36.09446859390736,-100.26678939585686,80.21211738781929
2024-09-23 11:11:29.836604,41.13,16.135769,-0.0035318979854855937,-0.023579196463302005,0.0966050877605131,36.09446859390736,-100.26678939585686,80.21211738781929
2024-09-23 11:11:29.869177,41.13,16.135769,-0.0035318979854855937,-0.023579196463302005,0.0966050877605131,44.11764879391193,-100.26678939585686,80.21211738781929
2024-09-23 11:11:29.880780,41.13,16.135867,-0.003482159473966507,-0.024275627522658133,0.0966050877605131,44.11764879391193,-100.26678939585686,76.200527287817
2024-09-23 11:11:29.923312,41.13,16.135918,-0.003482159473966507,-0.024275627522658133,0.0973512698629459,36.09446859390736,-100.26678939585686,80.21211738781929
2024-09-23 11:11:29.935555,41.13,16.135918,-0.0033329230534799477,-0.024275627522658133,0.0973512698629459,36.09446859390736,-100.26678939585686,80.21211738781929
2024-09-23 11:11:29.967604,41.13,16.135918,-0.0033329230534799477,-0.02362894446842532,0.09695331012558621,36.09446859390736,-100.26678939585686,80.21211738781929
2024-09-23 11:11:29.979251,41.13,16.135969,-0.0033329230534799477,-0.02362894446842532,0.09695331012558621,36.09446859390736,-96.25519929585457,76.200527287817
2024-09-23 11:11:30.021826,41.13,16.135969,-0.0030344509719951677,-0.023728432883788564,0.09690356060148622,36.09446859390736,-96.25519929585457,84.22370748782159
2024-09-23 11:11:30.064923,41.13,16.136062,-0.0029847020175114316,-0.023927417309398437,0.09690356060148622,36.09446859390736,-96.25519929585457,84.22370748782159
2024-09-23 11:11:30.077026,41.13,16.136062,-0.0029847020175114316,-0.023927417309398437,0.0966050877605131,36.09446859390736,-100.26678939585686,84.22370748782159
2024-09-23 11:11:30.119248,41.13,16.136113,-0.0038303700669703737,-0.02303200030545576,0.09710254654607277,36.09446859390736,-100.26678939585686,80.21211738781929
2024-09-23 11:11:30.161406,41.13,16.136113,-0.0038303700669703737,-0.02303200030545576,0.09710254654607277,36.09446859390736,-96.25519929585457,76.200527287817
2024-09-23 11:11:30.173442,41.13,16.136164,-0.0030841997366068195,-0.023429960042815445,0.0973015264147526,36.09446859390736,-96.25519929585457,76.200527287817
2024-09-23 11:11:30.257931,41.13,16.136164,-0.0030841997366068195,-0.023429960042815445,0.0973015264147526,36.09446859390736,-96.25519929585457,76.200527287817
2024-09-23 11:11:30.268941,41.13,16.136214,-0.003382661564999035,-0.023429960042815445,0.0973015264147526,36.09446859390736,-100.26678939585686,76.200527287817
2024-09-23 11:11:30.311047,41.13,16.136214,-0.003382661564999035,-0.023877669304275123,0.09715228999426605,40.106058693909645,-96.25519929585457,76.200527287817
2024-09-23 11:11:30.322846,41.13,16.136265,-0.003382661564999035,-0.023877669304275123,0.09715228999426605,40.106058693909645,-96.25519929585457,80.21211738781929
2024-09-23 11:11:30.355603,41.13,16.136265,-0.0035318979854855937,-0.023877669304275123,0.09715228999426605,40.106058693909645,-96.25519929585457,80.21211738781929
2024-09-23 11:11:30.367055,41.13,16.136265,-0.0035318979854855937,-0.023479709566915436,0.09640611396773996,24.06297849342227,-96.25519929585457,84.22370748782159
2024-09-23 11:11:30.410177,41.13,16.136354,-0.0034324103296106863,-0.023280723622328886,0.09710254654607277,32.08287849390507,-96.25519929585457,84.22370748782159
2024-09-23 11:11:30.422372,41.13,16.136354,-0.0034324103296106863,-0.023280723622328886,0.09710254654607277,32.08287849390507,-100.26678939585686,84.22370748782159
2024-09-23 11:11:30.455607,41.52,16.136405,-0.003780631555451287,-0.023280723622328886,0.09710254654607277,32.08287849390507,-100.26678939585686,80.21211738781929
2024-09-23 11:11:30.467421,41.52,16.136405,-0.003780631555451287,-0.02412639262114825,0.0966050877605131,32.08287849390507,-100.26678939585686,80.21211738781929
2024-09-23 11:11:30.509936,41.52,16.136501,-0.0032831742888682963,-0.023181236725942318,0.09740101331113918,32.08287849390507,-96.25519929585457,88.23529758782387
2024-09-23 11:11:30.552145,41.52,16.136501,-0.0032831742888682963,-0.023181236725942318,0.09740101331113918,28.07457030097246,-96.25519929585457,84.22370748782159
2024-09-23 11:11:30.563375,41.52,16.136552,-0.0033329230534799477,-0.02313149783467906,0.09740101331113918,28.07457030097246,-96.25519929585457,84.22370748782159
2024-09-23 11:11:30.606219,41.52,16.136603,-0.0032831742888682963,-0.02313149783467906,0.09690356060148622,32.08287849390507,-92.24360919585227,80.21211738781929
2024-09-23 11:11:30.648767,41.52,16.136603,-0.0032831742888682963,-0.023728432883788564,0.09755024973162574,32.08287849390507,-92.24360919585227,80.21211738781929
2024-09-23 11:11:30.659900,41.52,16.136695,-0.0032831742888682963,-0.023728432883788564,0.09755024973162574,36.09446859390736,-100.26678939585686,80.21211738781929
2024-09-23 11:11:30.702856,41.52,16.136695,-0.0029349636958644295,-0.02313149783467906,0.09685382322919964,32.08287849390507,-108.28669110388756,80.21211738781929
2024-09-23 11:11:30.715436,41.52,16.136695,-0.0029349636958644295,-0.02313149783467906,0.09685382322919964,32.08287849390507,-108.28669110388756,76.200527287817
2024-09-23 11:11:30.747787,41.52,16.136746,-0.0030841997366068195,-0.023429960042815445,0.09685382322919964,32.08287849390507,-108.28669110388756,76.200527287817
2024-09-23 11:11:30.758819,41.52,16.136746,-0.0030841997366068195,-0.023429960042815445,0.09675432418099966,40.106058693909645,-100.26678939585686,76.200527287817
2024-09-23 11:11:30.801472,41.52,16.136797,-0.003382661564999035,-0.02362894446842532,0.09695331012558621,36.09446859390736,-100.26678939585686,80.21211738781929
2024-09-23 11:11:30.843945,41.52,16.136797,-0.003382661564999035,-0.02362894446842532,0.09695331012558621,36.09446859390736,-96.25519929585457,76.200527287817
2024-09-23 11:11:30.854972,41.52,16.136848,-0.0029847020175114316,-0.02308174982955575,0.09675432418099966,36.09446859390736,-96.25519929585457,76.200527287817
2024-09-23 11:11:30.897389,41.52,16.136898,-0.0029847020175114316,-0.02308174982955575,0.09675432418099966,40.106058693909645,-92.24360919585227,76.200527287817
2024-09-23 11:11:30.909172,41.52,16.136898,-0.0032831742888682963,-0.023230986250042305,0.09675432418099966,40.106058693909645,-92.24360919585227,76.200527287817
2024-09-23 11:11:30.942114,41.52,16.136898,-0.0032831742888682963,-0.023230986250042305,0.09680407370509965,40.106058693909645,-92.24360919585227,76.200527287817
2024-09-23 11:11:30.954018,41.52,16.136949,-0.0031339382481259063,-0.023230986250042305,0.09680407370509965,40.106058693909645,-92.24360919585227,84.22370748782159
2024-09-23 11:11:30.996710,41.52,16.137036,-0.0031339382481259063,-0.023280723622328886,0.09680407370509965,40.106058693909645,-92.24360919585227,80.21211738781929
2024-09-23 11:11:31.040283,41.52,16.137036,-0.003482159473966507,-0.022833026512682618,0.09720203344245934,40.106058693909645,-92.24360919585227,80.21211738781929
2024-09-23 11:11:31.051959,41.52,16.137036,-0.003482159473966507,-0.022833026512682618,0.09720203344245934,36.09446859390736,-100.26678939585686,80.21211738781929
2024-09-23 11:11:31.094521,41.52,16.137088,-0.0029847020175114316,-0.023280723622328886,0.09740101331113918,36.09446859390736,-100.26678939585686,80.21211738781929
2024-09-23 11:11:31.137029,41.52,16.137138,-0.0031836870127375577,-0.023280723622328886,0.09740101331113918,36.09446859390736,-100.26678939585686,80.21211738781929
2024-09-23 11:11:31.148330,41.52,16.137138,-0.0031836870127375577,-0.024076653729884996,0.09690356060148622,40.106058693909645,-100.26678939585686,80.21211738781929
2024-09-23 11:11:31.191971,41.52,16.137189,-0.0035318979854855937,-0.02308174982955575,0.09720203344245934,40.106058693909645,-96.25519929585457,84.22370748782159
2024-09-23 11:11:31.285783,41.52,16.13724,-0.0035318979854855937,-0.02308174982955575,0.09720203344245934,40.106058693909645,-104.27510100388527,80.21211738781929
2024-09-23 11:11:31.297865,41.52,16.13724,-0.0029847020175114316,-0.02308174982955575,0.09720203344245934,40.106058693909645,-104.27510100388527,80.21211738781929
2024-09-23 11:11:31.330584,41.52,16.13724,-0.0029847020175114316,-0.023429960042815445,0.09720203344245934,40.106058693909645,-104.27510100388527,80.21211738781929
2024-09-23 11:11:31.342357,41.52,16.13729,-0.0029847020175114316,-0.023429960042815445,0.09710254654607277,44.11764879391193,-96.25519929585457,84.22370748782159
2024-09-23 11:11:31.384758,41.52,16.13729,-0.0030344509719951677,-0.02338022115155219,0.09670458680871308,40.106058693909645,-96.25519929585457,84.22370748782159
2024-09-23 11:11:31.397144,41.52,16.13729,-0.0030344509719951677,-0.02338022115155219,0.09670458680871308,40.106058693909645,-92.24360919585227,84.22370748782159
2024-09-23 11:11:31.430906,41.52,16.137377,-0.0031836870127375577,-0.023579196463302005,0.09670458680871308,40.106058693909645,-92.24360919585227,84.22370748782159
2024-09-23 11:11:31.442427,41.52,16.137377,-0.0031836870127375577,-0.023579196463302005,0.09695331012558621,40.106058693909645,-96.25519929585457,84.22370748782159
2024-09-23 11:11:31.485539,41.61,16.137429,-0.0029847020175114316,-0.023280723622328886,0.09680407370509965,36.09446859390736,-96.25519929585457,84.22370748782159
2024-09-23 11:11:31.527322,41.61,16.137525,-0.0029847020175114316,-0.023280723622328886,0.09680407370509965,36.09446859390736,-100.26678939585686,80.21211738781929
2024-09-23 11:11:31.538739,41.61,16.137525,-0.003780631555451287,-0.023479709566915436,0.0973512698629459,36.09446859390736,-100.26678939585686,80.21211738781929
2024-09-23 11:11:31.581318,41.61,16.137576,-0.0031339382481259063,-0.02352945757203875,0.0973512698629459,36.09446859390736,-96.25519929585457,72.1922225099802
2024-09-23 11:11:31.624218,41.61,16.137576,-0.0031339382481259063,-0.02352945757203875,0.09690356060148622,36.09446859390736,-96.25519929585457,72.1922225099802
2024-09-23 11:11:31.635980,41.61,16.137627,-0.0029349636958644295,-0.02352945757203875,0.09690356060148622,36.09446859390736,-96.25519929585457,80.21211738781929
2024-09-23 11:11:31.678740,41.61,16.137719,-0.0029349636958644295,-0.023429960042815445,0.09705279702197278,40.106058693909645,-100.26678939585686,80.21211738781929
2024-09-23 11:11:31.720971,41.61,16.137719,-0.0036811340262279837,-0.022484804147609512,0.09705279702197278,40.106058693909645,-100.26678939585686,80.21211738781929
2024-09-23 11:11:31.732662,41.61,16.137719,-0.0036811340262279837,-0.022484804147609512,0.09710254654607277,36.09446859390736,-112.29828120388984,84.22370748782159
2024-09-23 11:11:31.774659,41.61,16.13777,-0.0036811340262279837,-0.023429960042815445,0.09740101331113918,32.08287849390507,-112.29828120388984,84.22370748782159
2024-09-23 11:11:31.786823,41.61,16.13777,-0.0036811340262279837,-0.023429960042815445,0.09740101331113918,32.08287849390507,-100.26678939585686,84.22370748782159
2024-09-23 11:11:31.820156,41.61,16.137821,-0.002785727465249955,-0.023429960042815445,0.09740101331113918,32.08287849390507,-100.26678939585686,84.22370748782159
2024-09-23 11:11:31.831832,41.61,16.137821,-0.002785727465249955,-0.023330473146428877,0.0970030596496862,40.106058693909645,-100.26678939585686,84.22370748782159
2024-09-23 11:11:31.873860,41.61,16.137872,-0.0030344509719951677,-0.02362894446842532,0.0970030596496862,40.106058693909645,-100.26678939585686,80.21211738781929
2024-09-23 11:11:31.916185,41.61,16.137872,-0.0030344509719951677,-0.02362894446842532,0.0970030596496862,40.106058693909645,-100.26678939585686,80.21211738781929
2024-09-23 11:11:31.927894,41.61,16.137922,-0.003482159473966507,-0.02367869399252531,0.0970030596496862,40.106058693909645,-100.26678939585686,80.21211738781929
2024-09-23 11:11:31.971087,41.61,16.137973,-0.0034324103296106863,-0.02367869399252531,0.09755024973162574,28.07457030097246,-88.23529758782387,84.22370748782159
2024-09-23 11:11:32.013273,41.61,16.137973,-0.0034324103296106863,-0.023579196463302005,0.09755024973162574,28.07457030097246,-88.23529758782387,84.22370748782159
2024-09-23 11:11:32.024859,41.61,16.13806,-0.0034324103296106863,-0.023579196463302005,0.09755024973162574,40.106058693909645,-92.24360919585227,76.200527287817
2024-09-23 11:11:32.068198,41.61,16.13806,-0.0031836870127375577,-0.023429960042815445,0.09740101331113918,32.08287849390507,-100.26678939585686,76.200527287817
2024-09-23 11:11:32.079788,41.61,16.13806,-0.0031836870127375577,-0.023429960042815445,0.09740101331113918,32.08287849390507,-100.26678939585686,84.22370748782159
2024-09-23 11:11:32.112727,41.61,16.138112,-0.0033329230534799477,-0.023728432883788564,0.09740101331113918,32.08287849390507,-100.26678939585686,84.22370748782159
2024-09-23 11:11:32.124318,41.61,16.138112,-0.0033329230534799477,-0.023728432883788564,0.09710254654607277,32.08287849390507,-104.27510100388527,84.22370748782159
2024-09-23 11:11:32.167171,41.61,16.138162,-0.0032831742888682963,-0.023230986250042305,0.09630662707135339,44.11764879391193,-104.27510100388527,76.200527287817
2024-09-23 11:11:32.210477,41.61,16.138213,-0.0032831742888682963,-0.023230986250042305,0.09630662707135339,44.11764879391193,-88.23529758782387,80.21211738781929
2024-09-23 11:11:32.222052,41.61,16.138213,-0.0035318979854855937,-0.02338022115155219,0.09670458680871308,44.11764879391193,-88.23529758782387,80.21211738781929
2024-09-23 11:11:32.305220,41.61,16.138213,-0.0035318979854855937,-0.02338022115155219,0.09670458680871308,36.09446859390736,-88.23529758782387,80.21211738781929
2024-09-23 11:11:32.317421,41.61,16.138264,-0.0031836870127375577,-0.02338022115155219,0.09670458680871308,36.09446859390736,-96.25519929585457,80.21211738781929
2024-09-23 11:11:32.359908,41.61,16.138264,-0.0031836870127375577,-0.02352945757203875,0.0973015264147526,36.09446859390736,-104.27510100388527,80.21211738781929
2024-09-23 11:11:32.371931,41.61,16.138314,-0.0031836870127375577,-0.02352945757203875,0.0973015264147526,36.09446859390736,-104.27510100388527,80.21211738781929
2024-09-23 11:11:32.403453,41.61,16.138314,-0.0030841997366068195,-0.023479709566915436,0.0973015264147526,36.09446859390736,-104.27510100388527,80.21211738781929
2024-09-23 11:11:32.414631,41.61,16.138314,-0.0030841997366068195,-0.023479709566915436,0.09715228999426605,32.08287849390507,-96.25519929585457,80.21211738781929
2024-09-23 11:11:32.458415,41.61,16.138401,-0.003382661564999035,-0.023778180888911878,0.09725178296655933,32.08287849390507,-96.25519929585457,80.21211738781929
2024-09-23 11:11:32.501979,41.52,16.138453,-0.003382661564999035,-0.023778180888911878,0.09725178296655933,32.08287849390507,-96.25519929585457,80.21211738781929
2024-09-23 11:11:32.513181,41.52,16.138453,-0.002785727465249955,-0.023877669304275123,0.09720203344245934,40.106058693909645,-96.25519929585457,80.21211738781929
2024-09-23 11:11:32.555369,41.52,16.138549,-0.0032831742888682963,-0.022982261414192504,0.09720203344245934,40.106058693909645,-96.25519929585457,84.22370748782159
2024-09-23 11:11:32.567480,41.52,16.138549,-0.0032831742888682963,-0.022982261414192504,0.09670458680871308,40.106058693909645,-96.25519929585457,84.22370748782159
2024-09-23 11:11:32.600469,41.52,16.138549,-0.0032831742888682963,-0.022982261414192504,0.09670458680871308,40.106058693909645,-88.23529758782387,88.23529758782387
2024-09-23 11:11:32.611958,41.52,16.1386,-0.0030841997366068195,-0.02352945757203875,0.09670458680871308,40.106058693909645,-88.23529758782387,88.23529758782387
2024-09-23 11:11:32.654507,41.52,16.13865,-0.0035816467500972456,-0.02352945757203875,0.09655535038822652,32.08287849390507,-92.24360919585227,88.23529758782387
2024-09-23 11:11:32.698034,41.52,16.13865,-0.0035816467500972456,-0.023579196463302005,0.09745075675933246,40.106058693909645,-92.24360919585227,88.23529758782387
2024-09-23 11:11:32.709669,41.52,16.138742,-0.0035816467500972456,-0.023579196463302005,0.09745075675933246,40.106058693909645,-92.24360919585227,80.21211738781929
2024-09-23 11:11:32.752012,41.52,16.138742,-0.0030841997366068195,-0.023579196463302005,0.09685382322919964,28.07457030097246,-104.27510100388527,84.22370748782159
2024-09-23 11:11:32.795416,41.52,16.138794,-0.0030841997366068195,-0.023330473146428877,0.09685382322919964,28.07457030097246,-104.27510100388527,84.22370748782159
2024-09-23 11:11:32.806474,41.52,16.138794,-0.0030841997366068195,-0.023330473146428877,0.09745075675933246,40.106058693909645,-100.26678939585686,84.22370748782159
2024-09-23 11:11:32.849801,41.52,16.138845,-0.0036811340262279837,-0.023429960042815445,0.09685382322919964,52.137550501942634,-100.26678939585686,76.200527287817
2024-09-23 11:11:32.891921,41.52,16.138895,-0.0036811340262279837,-0.023429960042815445,0.09685382322919964,52.137550501942634,-104.27510100388527,80.21211738781929
2024-09-23 11:11:32.903281,41.52,16.138895,-0.0038801188315820256,-0.02338022115155219,0.09690356060148622,52.137550501942634,-104.27510100388527,80.21211738781929
2024-09-23 11:11:32.946217,41.52,16.138946,-0.003482159473966507,-0.02338022115155219,0.09690356060148622,36.09446859390736,-100.26678939585686,88.23529758782387
2024-09-23 11:11:32.989679,41.52,16.138946,-0.003482159473966507,-0.02338022115155219,0.0970030596496862,44.11764879391193,-100.26678939585686,88.23529758782387
2024-09-23 11:11:33.001033,41.52,16.138997,-0.0030841997366068195,-0.02338022115155219,0.0970030596496862,44.11764879391193,-100.26678939585686,84.22370748782159
2024-09-23 11:11:33.043334,41.52,16.139084,-0.0030841997366068195,-0.023479709566915436,0.09690356060148622,44.11764879391193,-92.24360919585227,72.1922225099802
2024-09-23 11:11:33.085833,41.52,16.139084,-0.0029847020175114316,-0.02352945757203875,0.09690356060148622,44.11764879391193,-92.24360919585227,72.1922225099802
2024-09-23 11:11:33.098455,41.52,16.139084,-0.0029847020175114316,-0.02352945757203875,0.0973512698629459,48.12595698684454,-96.25519929585457,80.21211738781929
2024-09-23 11:11:33.141819,41.52,16.139135,-0.0028354659767690416,-0.02362894446842532,0.0973015264147526,32.08287849390507,-96.25519929585457,80.21211738781929
2024-09-23 11:11:33.183842,41.52,16.139186,-0.0028354659767690416,-0.02362894446842532,0.0973015264147526,32.08287849390507,-96.25519929585457,76.200527287817
2024-09-23 11:11:33.194896,41.52,16.139186,-0.0035318979854855937,-0.02338022115155219,0.0973015264147526,40.106058693909645,-96.25519929585457,76.200527287817
2024-09-23 11:11:33.237983,41.52,16.139186,-0.0035318979854855937,-0.02338022115155219,0.0973015264147526,40.106058693909645,-96.25519929585457,76.200527287817
2024-09-23 11:11:33.280390,41.52,16.139237,-0.0035318979854855937,-0.02338022115155219,0.0973015264147526,40.106058693909645,-96.25519929585457,80.21211738781929
2024-09-23 11:11:33.292164,41.52,16.139237,-0.0030841997366068195,-0.02338022115155219,0.0973015264147526,40.106058693909645,-96.25519929585457,80.21211738781929
2024-09-23 11:11:33.335068,41.52,16.139237,-0.0030841997366068195,-0.02352945757203875,0.09630662707135339,44.11764879391193,-88.23529758782387,84.22370748782159
2024-09-23 11:11:33.347215,41.52,16.139287,-0.0030841997366068195,-0.02352945757203875,0.09630662707135339,44.11764879391193,-88.23529758782387,84.22370748782159
2024-09-23 11:11:33.379029,41.52,16.139287,-0.0036811340262279837,-0.02338022115155219,0.09630662707135339,44.11764879391193,-88.23529758782387,84.22370748782159
2024-09-23 11:11:33.390170,41.52,16.139287,-0.0036811340262279837,-0.02338022115155219,0.09715228999426605,40.106058693909645,-108.28669110388756,68.18063240997792
2024-09-23 11:11:33.433210,41.52,16.139338,-0.0030344509719951677,-0.02338022115155219,0.09705279702197278,32.08287849390507,-96.25519929585457,68.18063240997792
2024-09-23 11:11:33.476241,41.52,16.139425,-0.0030344509719951677,-0.02338022115155219,0.09705279702197278,32.08287849390507,-96.25519929585457,80.21211738781929
2024-09-23 11:11:33.487959,41.52,16.139425,-0.003780631555451287,-0.022982261414192504,0.0973015264147526,36.09446859390736,-96.25519929585457,80.21211738781929
2024-09-23 11:11:33.531024,41.13,16.139476,-0.0035816467500972456,-0.02352945757203875,0.09715228999426605,36.09446859390736,-100.26678939585686,80.21211738781929
2024-09-23 11:11:33.573424,41.13,16.139476,-0.0035816467500972456,-0.02352945757203875,0.09715228999426605,40.106058693909645,-96.25519929585457,80.21211738781929
2024-09-23 11:11:33.584866,41.13,16.139574,-0.0030841997366068195,-0.023330473146428877,0.09715228999426605,40.106058693909645,-96.25519929585457,72.1922225099802
2024-09-23 11:11:33.628011,41.13,16.139624,-0.0030841997366068195,-0.023330473146428877,0.09740101331113918,32.08287849390507,-88.23529758782387,84.22370748782159
2024-09-23 11:11:33.639609,41.13,16.139624,-0.003482159473966507,-0.023330473146428877,0.09740101331113918,32.08287849390507,-88.23529758782387,84.22370748782159
2024-09-23 11:11:33.672032,41.13,16.139624,-0.003482159473966507,-0.023877669304275123,0.0966050877605131,32.08287849390507,-88.23529758782387,84.22370748782159
2024-09-23 11:11:33.683032,41.13,16.139717,-0.003482159473966507,-0.023877669304275123,0.0966050877605131,32.08287849390507,-100.26678939585686,76.200527287817
2024-09-23 11:11:33.725221,41.13,16.139717,-0.0029349636958644295,-0.023330473146428877,0.09710254654607277,36.09446859390736,-100.26678939585686,76.200527287817
2024-09-23 11:11:33.737542,41.13,16.139717,-0.0029349636958644295,-0.023330473146428877,0.09710254654607277,36.09446859390736,-100.26678939585686,80.21211738781929
2024-09-23 11:11:33.770037,41.13,16.139769,-0.003482159473966507,-0.023280723622328886,0.09710254654607277,36.09446859390736,-100.26678939585686,80.21211738781929
2024-09-23 11:11:33.781746,41.13,16.139769,-0.003482159473966507,-0.023280723622328886,0.09705279702197278,32.08287849390507,-100.26678939585686,80.21211738781929
2024-09-23 11:11:33.824265,41.13,16.13982,-0.0030841997366068195,-0.023280723622328886,0.09740101331113918,40.106058693909645,-100.26678939585686,80.21211738781929
2024-09-23 11:11:33.867178,41.13,16.139871,-0.0030841997366068195,-0.023280723622328886,0.09740101331113918,40.106058693909645,-92.24360919585227,88.23529758782387
2024-09-23 11:11:33.878584,41.13,16.139871,-0.0035816467500972456,-0.02313149783467906,0.0973015264147526,40.106058693909645,-92.24360919585227,88.23529758782387
2024-09-23 11:11:33.920899,41.13,16.139921,-0.002586742470023829,-0.023579196463302005,0.0973015264147526,36.09446859390736,-100.26678939585686,84.22370748782159
2024-09-23 11:11:33.963862,41.13,16.139921,-0.002586742470023829,-0.023579196463302005,0.09764974270391902,44.11764879391193,-100.26678939585686,84.22370748782159
2024-09-23 11:11:33.975501,41.13,16.139972,-0.0031836870127375577,-0.023579196463302005,0.09764974270391902,44.11764879391193,-92.24360919585227,80.21211738781929
2024-09-23 11:11:34.018382,41.13,16.140059,-0.0031836870127375577,-0.023230986250042305,0.0970030596496862,36.09446859390736,-92.24360919585227,80.21211738781929
2024-09-23 11:11:34.060804,41.13,16.140059,-0.003780631555451287,-0.023230986250042305,0.0970030596496862,36.09446859390736,-92.24360919585227,80.21211738781929
2024-09-23 11:11:34.072293,41.13,16.140059,-0.003780631555451287,-0.02338022115155219,0.09715228999426605,36.09446859390736,-100.26678939585686,80.21211738781929
2024-09-23 11:11:34.114134,41.13,16.14011,-0.0035816467500972456,-0.02338022115155219,0.09685382322919964,36.09446859390736,-100.26678939585686,80.21211738781929
2024-09-23 11:11:34.126178,41.13,16.14011,-0.0035816467500972456,-0.02338022115155219,0.09685382322919964,36.09446859390736,-108.28669110388756,80.21211738781929
2024-09-23 11:11:34.158468,41.13,16.140161,-0.0035816467500972456,-0.02338022115155219,0.09685382322919964,36.09446859390736,-108.28669110388756,80.21211738781929
2024-09-23 11:11:34.169602,41.13,16.140161,-0.0034324103296106863,-0.02268379009219606,0.09690356060148622,36.09446859390736,-108.28669110388756,80.21211738781929
2024-09-23 11:11:34.212260,41.13,16.140212,-0.0037308827908396356,-0.023579196463302005,0.09690356060148622,36.09446859390736,-104.27510100388527,80.21211738781929
2024-09-23 11:11:34.224258,41.13,16.140212,-0.0037308827908396356,-0.023579196463302005,0.09715228999426605,36.09446859390736,-104.27510100388527,80.21211738781929
2024-09-23 11:11:34.256390,41.13,16.140212,-0.0037308827908396356,-0.023579196463302005,0.09715228999426605,40.106058693909645,-88.23529758782387,80.21211738781929
2024-09-23 11:11:34.267455,41.13,16.140262,-0.0029847020175114316,-0.023877669304275123,0.09715228999426605,40.106058693909645,-88.23529758782387,88.23529758782387
2024-09-23 11:11:34.309901,41.13,16.140313,-0.0029847020175114316,-0.023877669304275123,0.09829641968224512,40.106058693909645,-92.24360919585227,84.22370748782159
2024-09-23 11:11:34.321942,41.13,16.140313,-0.003233425524256645,-0.023877669304275123,0.09829641968224512,40.106058693909645,-92.24360919585227,84.22370748782159
2024-09-23 11:11:34.354748,41.13,16.140313,-0.003233425524256645,-0.023230986250042305,0.0970030596496862,32.08287849390507,-92.24360919585227,84.22370748782159
2024-09-23 11:11:34.409673,41.13,16.1404,-0.0027359787006383035,-0.02338022115155219,0.09720203344245934,32.08287849390507,-96.25519929585457,76.200527287817
2024-09-23 11:11:34.452844,41.13,16.1404,-0.0027359787006383035,-0.02338022115155219,0.09720203344245934,36.09446859390736,-100.26678939585686,84.22370748782159
2024-09-23 11:11:34.464694,41.13,16.140451,-0.003382661564999035,-0.023479709566915436,0.09720203344245934,36.09446859390736,-100.26678939585686,84.22370748782159
2024-09-23 11:11:34.498854,41.13,16.140451,-0.003382661564999035,-0.023479709566915436,0.09750050628343246,36.09446859390736,-100.26678939585686,84.22370748782159
2024-09-23 11:11:34.510369,41.13,16.140502,-0.0032831742888682963,-0.023479709566915436,0.09750050628343246,36.09446859390736,-96.25519929585457,80.21211738781929
2024-09-23 11:11:34.552396,41.06,16.140502,-0.0032831742888682963,-0.02338022115155219,0.09620712802315341,36.09446859390736,-100.26678939585686,80.21211738781929
2024-09-23 11:11:34.563436,41.06,16.140553,-0.0032831742888682963,-0.02338022115155219,0.09620712802315341,36.09446859390736,-100.26678939585686,76.200527287817
2024-09-23 11:11:34.594927,41.06,16.140553,-0.0033329230534799477,-0.02338022115155219,0.09620712802315341,36.09446859390736,-100.26678939585686,76.200527287817
2024-09-23 11:11:34.606381,41.06,16.140553,-0.0033329230534799477,-0.022733528983459317,0.09690356060148622,36.09446859390736,-96.25519929585457,76.200527287817
2024-09-23 11:11:34.648766,41.06,16.140644,-0.003929857343101113,-0.024176140626271565,0.09690356060148622,36.09446859390736,-96.25519929585457,76.200527287817
2024-09-23 11:11:34.660262,41.06,16.140644,-0.003929857343101113,-0.024176140626271565,0.0973512698629459,32.08287849390507,-100.26678939585686,76.200527287817
2024-09-23 11:11:34.693897,41.06,16.140644,-0.003929857343101113,-0.024176140626271565,0.0973512698629459,32.08287849390507,-100.26678939585686,76.200527287817
2024-09-23 11:11:34.705447,41.06,16.140696,-0.0031836870127375577,-0.023280723622328886,0.09655535038822652,32.08287849390507,-100.26678939585686,76.200527287817
2024-09-23 11:11:34.749180,41.06,16.140746,-0.0034324103296106863,-0.023429960042815445,0.09655535038822652,32.08287849390507,-96.25519929585457,76.200527287817
2024-09-23 11:11:34.761131,41.06,16.140746,-0.0034324103296106863,-0.023429960042815445,0.0970030596496862,32.08287849390507,-96.25519929585457,76.200527287817
2024-09-23 11:11:34.793437,41.06,16.140746,-0.0034324103296106863,-0.023429960042815445,0.0970030596496862,40.106058693909645,-104.27510100388527,76.200527287817
2024-09-23 11:11:34.804529,41.06,16.140797,-0.0030841997366068195,-0.024026904205785005,0.0970030596496862,40.106058693909645,-104.27510100388527,76.200527287817
2024-09-23 11:11:34.846544,41.06,16.140797,-0.0030841997366068195,-0.024026904205785005,0.09725178296655933,40.106058693909645,-104.27510100388527,76.200527287817
2024-09-23 11:11:34.889776,41.06,16.140797,-0.0030841997366068195,-0.024026904205785005,0.09725178296655933,36.09446859390736,-96.25519929585457,76.200527287817
2024-09-23 11:11:34.900959,41.06,16.140848,-0.003233425524256645,-0.02362894446842532,0.09725178296655933,36.09446859390736,-96.25519929585457,80.21211738781929
2024-09-23 11:11:34.943625,41.06,16.140936,-0.003233425524256645,-0.02362894446842532,0.09685382322919964,36.09446859390736,-100.26678939585686,84.22370748782159
2024-09-23 11:11:34.955668,41.06,16.140936,-0.0031339382481259063,-0.02362894446842532,0.09685382322919964,36.09446859390736,-100.26678939585686,84.22370748782159
2024-09-23 11:11:34.988823,41.06,16.140936,-0.0031339382481259063,-0.023429960042815445,0.0973015264147526,44.11764879391193,-100.26678939585686,84.22370748782159
2024-09-23 11:11:35.000483,41.06,16.140988,-0.0031339382481259063,-0.023429960042815445,0.0973015264147526,44.11764879391193,-92.24360919585227,92.24360919585227
2024-09-23 11:11:35.043137,41.06,16.140988,-0.0033329230534799477,-0.023280723622328886,0.09755024973162574,40.106058693909645,-104.27510100388527,76.200527287817
2024-09-23 11:11:35.086582,41.06,16.141039,-0.0032831742888682963,-0.023280723622328886,0.09755024973162574,40.106058693909645,-104.27510100388527,76.200527287817
2024-09-23 11:11:35.098740,41.06,16.141039,-0.0032831742888682963,-0.023579196463302005,0.09715228999426605,40.106058693909645,-92.24360919585227,76.200527287817
2024-09-23 11:11:35.132374,41.06,16.141039,-0.0032831742888682963,-0.023579196463302005,0.09715228999426605,40.106058693909645,-92.24360919585227,84.22370748782159
2024-09-23 11:11:35.143889,41.06,16.141132,-0.0029349636958644295,-0.023479709566915436,0.09690356060148622,40.106058693909645,-92.24360919585227,84.22370748782159
2024-09-23 11:11:35.186300,41.06,16.141183,-0.0033329230534799477,-0.023479709566915436,0.09690356060148622,40.106058693909645,-92.24360919585227,84.22370748782159
2024-09-23 11:11:35.197782,41.06,16.141183,-0.0033329230534799477,-0.02313149783467906,0.09690356060148622,40.106058693909645,-92.24360919585227,84.22370748782159
2024-09-23 11:11:35.229638,41.06,16.141183,-0.0033329230534799477,-0.02313149783467906,0.09690356060148622,40.106058693909645,-92.24360919585227,84.22370748782159
2024-09-23 11:11:35.240689,41.06,16.141234,-0.0030344509719951677,-0.023479709566915436,0.09690356060148622,40.106058693909645,-96.25519929585457,80.21211738781929
2024-09-23 11:11:35.283761,41.06,16.141234,-0.0030344509719951677,-0.023479709566915436,0.09705279702197278,36.09446859390736,-96.25519929585457,80.21211738781929
2024-09-23 11:11:35.295184,41.06,16.141285,-0.0033329230534799477,-0.023479709566915436,0.09705279702197278,36.09446859390736,-96.25519929585457,80.21211738781929
2024-09-23 11:11:35.328478,41.06,16.141285,-0.0033329230534799477,-0.023579196463302005,0.09685382322919964,36.09446859390736,-96.25519929585457,80.21211738781929
2024-09-23 11:11:35.340803,41.06,16.141375,-0.0033329230534799477,-0.023579196463302005,0.09685382322919964,40.106058693909645,-100.26678939585686,76.200527287817
2024-09-23 11:11:35.383649,41.06,16.141375,-0.0029847020175114316,-0.023280723622328886,0.09695331012558621,36.09446859390736,-100.26678939585686,76.200527287817
2024-09-23 11:11:35.426208,41.06,16.141427,-0.0029847020175114316,-0.023280723622328886,0.09695331012558621,36.09446859390736,-100.26678939585686,80.21211738781929
2024-09-23 11:11:35.437396,41.06,16.141427,-0.003631395514708897,-0.02293251340906919,0.09720203344245934,32.08287849390507,-100.26678939585686,80.21211738781929
2024-09-23 11:11:35.481206,41.06,16.141477,-0.0030841997366068195,-0.02352945757203875,0.09650560086412653,32.08287849390507,-92.24360919585227,80.21211738781929
2024-09-23 11:11:35.525072,41.06,16.141477,-0.0030841997366068195,-0.02352945757203875,0.09650560086412653,40.106058693909645,-96.25519929585457,76.200527287817
2024-09-23 11:11:35.536602,41.06,16.141528,-0.0038801188315820256,-0.023479709566915436,0.09650560086412653,40.106058693909645,-96.25519929585457,76.200527287817
2024-09-23 11:11:35.578645,41.12,16.141578,-0.0028852147413806935,-0.023479709566915436,0.09680407370509965,36.09446859390736,-96.25519929585457,80.21211738781929
2024-09-23 11:11:35.621882,41.12,16.141578,-0.0028852147413806935,-0.023927417309398437,0.09715228999426605,36.09446859390736,-96.25519929585457,80.21211738781929
2024-09-23 11:11:35.633723,41.12,16.141667,-0.0028852147413806935,-0.023927417309398437,0.09715228999426605,28.07457030097246,-108.28669110388756,76.200527287817
2024-09-23 11:11:35.677611,41.12,16.141667,-0.0028354659767690416,-0.02313149783467906,0.09695331012558621,36.09446859390736,-96.25519929585457,76.200527287817
2024-09-23 11:11:35.719579,41.12,16.141719,-0.003382661564999035,-0.02397715620066169,0.09695331012558621,36.09446859390736,-96.25519929585457,76.200527287817
