Ayaan's Suite
Timestamp,Sample Rate (Hz),Time,Ax,Ay,Az,Gx,Gy,Gz
2024-09-23 19:41:20.386017,0,46.727067,0.0008954064660419869,-0.023579196463302005,0.0973015264147526,36.09446859390736,-104.27510100388527,76.200527287817
2024-09-23 19:41:20.418481,0,46.727067,0.0010943914612681128,-0.02308174982955575,0.09794820946898543,40.106058693909645,-104.27510100388527,76.200527287817
2024-09-23 19:41:20.430050,0,46.727067,0.0010943914612681128,-0.02308174982955575,0.09794820946898543,40.106058693909645,-92.24360919585227,80.21211738781929
2024-09-23 19:41:20.463151,0,46.727119,0.000845657606494293,-0.02308174982955575,0.09794820946898543,40.106058693909645,-92.24360919585227,80.21211738781929
2024-09-23 19:41:20.515848,0,46.727119,0.000845657606494293,-0.02278327698858263,0.09755024973162574,36.09446859390736,-96.25519929585457,80.21211738781929
2024-09-23 19:41:20.527688,0,46.727169,0.000845657606494293,-0.02278327698858263,0.09755024973162574,36.09446859390736,-96.25519929585457,80.21211738781929
2024-09-23 19:41:20.560407,0,46.727169,0.0006466830067647949,-0.02278327698858263,0.09755024973162574,36.09446859390736,-96.25519929585457,80.21211738781929
2024-09-23 19:41:20.571331,0,46.727169,0.0006466830067647949,-0.02313149783467906,0.09740101331113918,44.11764879391193,-92.24360919585227,72.1922225099802
2024-09-23 19:41:20.613416,0,46.72722,0.001044642601720419,-0.02303200030545576,0.09745075675933246,44.11764879391193,-92.24360919585227,72.1922225099802
2024-09-23 19:41:20.625238,0,46.72722,0.001044642601720419,-0.02303200030545576,0.09745075675933246,44.11764879391193,-92.24360919585227,72.1922225099802
2024-09-23 19:41:20.659420,0,46.727271,0.001044642601720419,-0.02303200030545576,0.09745075675933246,44.11764879391193,-92.24360919585227,76.200527287817
2024-09-23 19:41:20.671144,0,46.727271,0.00044769805900669,-0.02352945757203875,0.0970030596496862,36.09446859390736,-92.24360919585227,76.200527287817
2024-09-23 19:41:20.714269,0,46.727321,0.0009451553255896806,-0.02362894446842532,0.09740101331113918,36.09446859390736,-92.24360919585227,76.200527287817
2024-09-23 19:41:20.756310,0,46.727321,0.0009451553255896806,-0.02362894446842532,0.09740101331113918,48.12595698684454,-92.24360919585227,76.200527287817
2024-09-23 19:41:20.768506,0,46.727411,0.0005969341946851222,-0.02367869399252531,0.09740101331113918,48.12595698684454,-92.24360919585227,72.1922225099802
2024-09-23 19:41:20.812028,0,46.727461,0.001044642601720419,-0.02367869399252531,0.09695331012558621,48.12595698684454,-96.25519929585457,76.200527287817
2024-09-23 19:41:20.854558,0,46.727461,0.001044642601720419,-0.023778180888911878,0.09745075675933246,48.12595698684454,-96.25519929585457,76.200527287817
2024-09-23 19:41:20.865713,0,46.727555,0.001044642601720419,-0.023778180888911878,0.09745075675933246,36.09446859390736,-96.25519929585457,80.21211738781929
2024-09-23 19:41:20.909654,0,46.727555,0.0005471957306340564,-0.022982261414192504,0.09725178296655933,36.09446859390736,-96.25519929585457,76.200527287817
2024-09-23 19:41:20.951553,0,46.727606,0.0007959191899112484,-0.022982261414192504,0.09725178296655933,36.09446859390736,-96.25519929585457,76.200527287817
2024-09-23 19:41:20.962587,0,46.727606,0.0007959191899112484,-0.0228827638849692,0.09690356060148622,40.106058693909645,-100.26678939585686,76.200527287817
2024-09-23 19:41:21.004688,0,46.727657,0.0004974468710863627,-0.02308174982955575,0.09710254654607277,40.106058693909645,-100.26678939585686,72.1922225099802
2024-09-23 19:41:21.016592,0,46.727657,0.0004974468710863627,-0.02308174982955575,0.09710254654607277,48.12595698684454,-100.26678939585686,72.1922225099802
2024-09-23 19:41:21.048483,0,46.727657,0.0004974468710863627,-0.02308174982955575,0.09710254654607277,48.12595698684454,-92.24360919585227,76.200527287817
2024-09-23 19:41:21.060039,0,46.727707,0.0003979595949556242,-0.022982261414192504,0.09665483728461309,48.12595698684454,-92.24360919585227,76.200527287817
2024-09-23 19:41:21.102191,0,46.727758,0.0005471957306340564,-0.022982261414192504,0.09665483728461309,40.106058693909645,-100.26678939585686,76.200527287817
2024-09-23 19:41:21.113730,0,46.727758,0.0005471957306340564,-0.02303200030545576,0.09665483728461309,40.106058693909645,-100.26678939585686,76.200527287817
2024-09-23 19:41:21.146720,0,46.727758,0.0005471957306340564,-0.02303200030545576,0.09745075675933246,24.06297849342227,-100.26678939585686,76.200527287817
2024-09-23 19:41:21.158455,0,46.727809,0.0006964318663124887,-0.02303200030545576,0.09745075675933246,24.06297849342227,-96.25519929585457,80.21211738781929
2024-09-23 19:41:21.200278,0,46.727809,0.0006964318663124887,-0.023330473146428877,0.09705279702197278,48.12595698684454,-96.25519929585457,72.1922225099802
2024-09-23 19:41:21.212029,0,46.727896,0.0006964318663124887,-0.023330473146428877,0.09705279702197278,48.12595698684454,-96.25519929585457,72.1922225099802
2024-09-23 19:41:21.243507,0,46.727896,0.0006466830067647949,-0.02303200030545576,0.09705279702197278,48.12595698684454,-96.25519929585457,72.1922225099802
2024-09-23 19:41:21.255056,0,46.727896,0.0006466830067647949,-0.02303200030545576,0.09764974270391902,44.11764879391193,-96.25519929585457,80.21211738781929
2024-09-23 19:41:21.297402,0,46.727947,0.000845657606494293,-0.023280723622328886,0.09720203344245934,24.06297849342227,-96.25519929585457,80.21211738781929
2024-09-23 19:41:21.309104,0,46.727947,0.000845657606494293,-0.023280723622328886,0.09720203344245934,24.06297849342227,-96.25519929585457,80.21211738781929
2024-09-23 19:41:21.341068,0,46.727998,0.000845657606494293,-0.023280723622328886,0.09720203344245934,24.06297849342227,-96.25519929585457,76.200527287817
2024-09-23 19:41:21.352505,0,46.727998,0.0012933660135295898,-0.022484804147609512,0.0976994861521123,40.106058693909645,-96.25519929585457,76.200527287817
2024-09-23 19:41:21.395906,46.03,46.728049,0.0006964318663124887,-0.02338022115155219,0.09715228999426605,40.106058693909645,-96.25519929585457,76.200527287817
2024-09-23 19:41:21.438472,46.03,46.728049,0.0006964318663124887,-0.02338022115155219,0.09715228999426605,52.137550501942634,-96.25519929585457,76.200527287817
2024-09-23 19:41:21.450043,46.03,46.728099,0.0006466830067647949,-0.023728432883788564,0.09715228999426605,52.137550501942634,-96.25519929585457,76.200527287817
2024-09-23 19:41:21.492950,46.03,46.72815,0.0008954064660419869,-0.023728432883788564,0.0973512698629459,52.137550501942634,-92.24360919585227,84.22370748782159
2024-09-23 19:41:21.536749,46.03,46.72815,0.0008954064660419869,-0.02263404056809607,0.09740101331113918,52.137550501942634,-92.24360919585227,84.22370748782159
2024-09-23 19:41:21.548430,46.03,46.728237,0.0008954064660419869,-0.02263404056809607,0.09740101331113918,40.106058693909645,-96.25519929585457,80.21211738781929
2024-09-23 19:41:21.591016,46.03,46.728237,0.0005969341946851222,-0.02263404056809607,0.09740101331113918,40.106058693909645,-96.25519929585457,80.21211738781929
2024-09-23 19:41:21.634189,46.03,46.728237,0.0005969341946851222,-0.02367869399252531,0.09750050628343246,40.106058693909645,-96.25519929585457,80.21211738781929
2024-09-23 19:41:21.646162,46.03,46.728289,0.0005969341946851222,-0.02367869399252531,0.09750050628343246,32.08287849390507,-92.24360919585227,84.22370748782159
2024-09-23 19:41:21.689369,46.03,46.728289,0.0009948937421727254,-0.02367869399252531,0.09710254654607277,40.106058693909645,-100.26678939585686,80.21211738781929
2024-09-23 19:41:21.731603,46.03,46.728339,0.000845657606494293,-0.02367869399252531,0.09710254654607277,40.106058693909645,-100.26678939585686,80.21211738781929
2024-09-23 19:41:21.742718,46.03,46.728339,0.000845657606494293,-0.023827930413011865,0.0973512698629459,40.106058693909645,-100.26678939585686,80.21211738781929
2024-09-23 19:41:21.785450,46.03,46.72839,0.0007959191899112484,-0.02278327698858263,0.09814718933766527,40.106058693909645,-100.26678939585686,80.21211738781929
2024-09-23 19:41:21.797329,46.03,46.72839,0.0007959191899112484,-0.02278327698858263,0.09814718933766527,44.11764879391193,-100.26678939585686,80.21211738781929
2024-09-23 19:41:21.829596,46.03,46.72839,0.0007959191899112484,-0.02278327698858263,0.09814718933766527,44.11764879391193,-92.24360919585227,76.200527287817
2024-09-23 19:41:21.841206,46.03,46.728441,0.0006466830067647949,-0.02303200030545576,0.09750050628343246,44.11764879391193,-92.24360919585227,76.200527287817
2024-09-23 19:41:21.883462,46.03,46.728532,0.0003979595949556242,-0.022733528983459317,0.09750050628343246,36.09446859390736,-96.25519929585457,76.200527287817
2024-09-23 19:41:21.926987,46.03,46.728532,0.0003979595949556242,-0.022733528983459317,0.09725178296655933,40.106058693909645,-96.25519929585457,76.200527287817
2024-09-23 19:41:21.938729,46.03,46.728583,0.000845657606494293,-0.022733528983459317,0.09725178296655933,40.106058693909645,-96.25519929585457,76.200527287817
2024-09-23 19:41:21.982107,46.03,46.728676,0.000845657606494293,-0.023330473146428877,0.09774922960030558,44.11764879391193,-96.25519929585457,76.200527287817
2024-09-23 19:41:22.024611,46.03,46.728676,0.0010943914612681128,-0.023280723622328886,0.09774922960030558,44.11764879391193,-96.25519929585457,76.200527287817
2024-09-23 19:41:22.036271,46.03,46.728676,0.0010943914612681128,-0.023280723622328886,0.0973015264147526,44.11764879391193,-96.25519929585457,80.21211738781929
2024-09-23 19:41:22.078589,46.03,46.728728,0.0012436275969465451,-0.02367869399252531,0.09764974270391902,44.11764879391193,-88.23529758782387,80.21211738781929
2024-09-23 19:41:22.121331,46.03,46.728728,0.0012436275969465451,-0.02367869399252531,0.09764974270391902,44.11764879391193,-88.23529758782387,84.22370748782159
2024-09-23 19:41:22.132966,46.03,46.728779,0.0007959191899112484,-0.023429960042815445,0.09755024973162574,28.07457030097246,-88.23529758782387,84.22370748782159
2024-09-23 19:41:22.176962,46.03,46.728829,0.00044769805900669,-0.023330473146428877,0.09764974270391902,28.07457030097246,-96.25519929585457,76.200527287817
2024-09-23 19:41:22.219259,46.03,46.728829,0.00044769805900669,-0.023330473146428877,0.09764974270391902,36.09446859390736,-96.25519929585457,76.200527287817
2024-09-23 19:41:22.231107,46.03,46.72888,0.000845657606494293,-0.023728432883788564,0.09764974270391902,36.09446859390736,-96.25519929585457,80.21211738781929
2024-09-23 19:41:22.273734,46.03,46.72893,0.00034821073540793035,-0.023728432883788564,0.09710254654607277,36.09446859390736,-92.24360919585227,76.200527287817
2024-09-23 19:41:22.316279,46.03,46.72893,0.00034821073540793035,-0.02362894446842532,0.09680407370509965,36.09446859390736,-92.24360919585227,76.200527287817
2024-09-23 19:41:22.327414,46.03,46.729017,0.00034821073540793035,-0.02362894446842532,0.09680407370509965,48.12595698684454,-100.26678939585686,72.1922225099802
2024-09-23 19:41:22.370485,46.03,46.729017,0.0005471957306340564,-0.02303200030545576,0.09690356060148622,48.12595698684454,-100.26678939585686,72.1922225099802
2024-09-23 19:41:22.382279,46.03,46.729017,0.0005471957306340564,-0.02303200030545576,0.09690356060148622,48.12595698684454,-92.24360919585227,76.200527287817
2024-09-23 19:41:22.414438,43.14,46.729069,0.0008954064660419869,-0.02303200030545576,0.09690356060148622,48.12595698684454,-92.24360919585227,76.200527287817
2024-09-23 19:41:22.426375,43.14,46.729069,0.0008954064660419869,-0.02352945757203875,0.09764974270391902,48.12595698684454,-96.25519929585457,76.200527287817
2024-09-23 19:41:22.469167,43.14,46.729119,0.0006964318663124887,-0.022982261414192504,0.09705279702197278,48.12595698684454,-96.25519929585457,76.200527287817
2024-09-23 19:41:22.480663,43.14,46.729119,0.0006964318663124887,-0.022982261414192504,0.09705279702197278,36.09446859390736,-96.25519929585457,76.200527287817
2024-09-23 19:41:22.512191,43.14,46.729119,0.0006964318663124887,-0.022982261414192504,0.09705279702197278,36.09446859390736,-104.27510100388527,64.16903547978401
2024-09-23 19:41:22.523710,43.14,46.72917,0.0009948937421727254,-0.02362894446842532,0.09690356060148622,36.09446859390736,-104.27510100388527,64.16903547978401
2024-09-23 19:41:22.566064,43.14,46.729221,0.001044642601720419,-0.023479709566915436,0.09690356060148622,40.106058693909645,-92.24360919585227,76.200527287817
2024-09-23 19:41:22.608917,43.14,46.729221,0.001044642601720419,-0.023479709566915436,0.09725178296655933,24.06297849342227,-92.24360919585227,76.200527287817
2024-09-23 19:41:22.620331,43.14,46.729271,0.0009451553255896806,-0.023479709566915436,0.09725178296655933,24.06297849342227,-100.26678939585686,80.21211738781929
2024-09-23 19:41:22.663069,43.14,46.729271,0.0009451553255896806,-0.023330473146428877,0.09764974270391902,40.106058693909645,-92.24360919585227,84.22370748782159
2024-09-23 19:41:22.674980,43.14,46.729359,0.0009451553255896806,-0.023330473146428877,0.09764974270391902,40.106058693909645,-92.24360919585227,84.22370748782159
2024-09-23 19:41:22.706542,43.14,46.729359,0.0011441298778511575,-0.02313149783467906,0.09764974270391902,40.106058693909645,-92.24360919585227,84.22370748782159
2024-09-23 19:41:22.718242,43.14,46.729359,0.0011441298778511575,-0.02313149783467906,0.09745075675933246,40.106058693909645,-92.24360919585227,76.200527287817
2024-09-23 19:41:22.760733,43.14,46.72941,0.000845657606494293,-0.02362894446842532,0.09745075675933246,40.106058693909645,-92.24360919585227,76.200527287817
2024-09-23 19:41:22.803828,43.14,46.72941,0.000845657606494293,-0.02362894446842532,0.0973015264147526,36.09446859390736,-92.24360919585227,76.200527287817
2024-09-23 19:41:22.815462,43.14,46.729461,0.000845657606494293,-0.02362894446842532,0.0973015264147526,36.09446859390736,-96.25519929585457,76.200527287817
2024-09-23 19:41:22.857743,43.14,46.729461,0.0007959191899112484,-0.023778180888911878,0.09755024973162574,36.09446859390736,-100.26678939585686,76.200527287817
2024-09-23 19:41:22.869573,43.14,46.729461,0.0007959191899112484,-0.023778180888911878,0.09755024973162574,36.09446859390736,-100.26678939585686,76.200527287817
2024-09-23 19:41:22.902553,43.14,46.729511,0.0010943914612681128,-0.023778180888911878,0.09755024973162574,36.09446859390736,-100.26678939585686,76.200527287817
2024-09-23 19:41:22.914399,43.14,46.729511,0.0010943914612681128,-0.023280723622328886,0.09740101331113918,36.09446859390736,-100.26678939585686,76.200527287817
2024-09-23 19:41:22.956433,43.14,46.729563,0.0004974468710863627,-0.02303200030545576,0.09720203344245934,44.11764879391193,-100.26678939585686,76.200527287817
2024-09-23 19:41:22.999270,43.14,46.729563,0.0004974468710863627,-0.02303200030545576,0.09720203344245934,44.11764879391193,-96.25519929585457,76.200527287817
2024-09-23 19:41:23.011182,43.14,46.729613,0.0009948937421727254,-0.023479709566915436,0.0973512698629459,44.11764879391193,-96.25519929585457,76.200527287817
2024-09-23 19:41:23.053855,43.14,46.729701,0.0009948937421727254,-0.02313149783467906,0.0973512698629459,36.09446859390736,-104.27510100388527,72.1922225099802
2024-09-23 19:41:23.096338,43.14,46.729701,0.0009948937421727254,-0.02313149783467906,0.09710254654607277,36.09446859390736,-104.27510100388527,72.1922225099802
2024-09-23 19:41:23.107730,43.14,46.729752,0.0005969341946851222,-0.02313149783467906,0.09710254654607277,36.09446859390736,-96.25519929585457,72.1922225099802
2024-09-23 19:41:23.150919,43.14,46.729846,0.0005969341946851222,-0.02367869399252531,0.09705279702197278,40.106058693909645,-96.25519929585457,76.200527287817
2024-09-23 19:41:23.193101,43.14,46.729846,0.0012933660135295898,-0.02367869399252531,0.09705279702197278,40.106058693909645,-96.25519929585457,76.200527287817
2024-09-23 19:41:23.204449,43.14,46.729846,0.0012933660135295898,-0.023479709566915436,0.09745075675933246,36.09446859390736,-88.23529758782387,88.23529758782387
2024-09-23 19:41:23.247416,43.14,46.729898,0.001044642601720419,-0.023230986250042305,0.09725178296655933,48.12595698684454,-88.23529758782387,88.23529758782387
2024-09-23 19:41:23.259560,43.14,46.729898,0.001044642601720419,-0.023230986250042305,0.09725178296655933,48.12595698684454,-92.24360919585227,88.23529758782387
2024-09-23 19:41:23.291730,43.14,46.729948,0.001044642601720419,-0.023230986250042305,0.09725178296655933,48.12595698684454,-92.24360919585227,76.200527287817
2024-09-23 19:41:23.303560,43.14,46.729948,0.0007959191899112484,-0.023429960042815445,0.09720203344245934,48.12595698684454,-92.24360919585227,76.200527287817
2024-09-23 19:41:23.345396,43.14,46.729999,0.0008954064660419869,-0.023429960042815445,0.09720203344245934,48.12595698684454,-96.25519929585457,76.200527287817
2024-09-23 19:41:23.357656,43.14,46.729999,0.0008954064660419869,-0.02313149783467906,0.09720203344245934,48.12595698684454,-96.25519929585457,76.200527287817
2024-09-23 19:41:23.390294,43.14,46.729999,0.0008954064660419869,-0.02313149783467906,0.09720203344245934,32.08287849390507,-88.23529758782387,76.200527287817
2024-09-23 19:41:23.401757,43.14,46.73005,0.0009451553255896806,-0.02313149783467906,0.09720203344245934,32.08287849390507,-88.23529758782387,68.18063240997792
2024-09-23 19:41:23.443534,43.34,46.7301,0.0009451553255896806,-0.022982261414192504,0.09720203344245934,40.106058693909645,-92.24360919585227,84.22370748782159
2024-09-23 19:41:23.486749,43.34,46.7301,0.0012436275969465451,-0.023330473146428877,0.09720203344245934,40.106058693909645,-92.24360919585227,84.22370748782159
2024-09-23 19:41:23.498687,43.34,46.7301,0.0012436275969465451,-0.023330473146428877,0.09720203344245934,48.12595698684454,-96.25519929585457,76.200527287817
2024-09-23 19:41:23.542149,43.34,46.730187,0.001044642601720419,-0.023579196463302005,0.09705279702197278,48.12595698684454,-92.24360919585227,76.200527287817
2024-09-23 19:41:23.584438,43.34,46.730239,0.001044642601720419,-0.023579196463302005,0.09705279702197278,48.12595698684454,-92.24360919585227,72.1922225099802
2024-09-23 19:41:23.595365,43.34,46.730239,0.0003979595949556242,-0.023579196463302005,0.09675432418099966,32.08287849390507,-92.24360919585227,72.1922225099802
2024-09-23 19:41:23.639182,43.34,46.730289,0.001044642601720419,-0.023728432883788564,0.09710254654607277,32.08287849390507,-96.25519929585457,80.21211738781929
2024-09-23 19:41:23.681854,43.34,46.730289,0.001044642601720419,-0.023728432883788564,0.09710254654607277,36.09446859390736,-100.26678939585686,80.21211738781929
2024-09-23 19:41:23.693888,43.34,46.73034,0.0006964318663124887,-0.023330473146428877,0.09710254654607277,36.09446859390736,-100.26678939585686,80.21211738781929
2024-09-23 19:41:23.735623,43.34,46.730391,0.0006964318663124887,-0.023330473146428877,0.09655535038822652,44.11764879391193,-96.25519929585457,72.1922225099802
2024-09-23 19:41:23.747586,43.34,46.730391,0.0007959191899112484,-0.023330473146428877,0.09655535038822652,44.11764879391193,-96.25519929585457,72.1922225099802
2024-09-23 19:41:23.779947,43.34,46.730391,0.0007959191899112484,-0.02268379009219606,0.09655535038822652,44.11764879391193,-96.25519929585457,72.1922225099802
2024-09-23 19:41:23.834484,43.34,46.73048,0.0007959191899112484,-0.02268379009219606,0.09740101331113918,40.106058693909645,-92.24360919585227,80.21211738781929
2024-09-23 19:41:23.845864,43.34,46.73048,0.0003979595949556242,-0.02268379009219606,0.09740101331113918,40.106058693909645,-92.24360919585227,80.21211738781929
2024-09-23 19:41:23.878471,43.34,46.73048,0.0003979595949556242,-0.02367869399252531,0.09720203344245934,52.137550501942634,-92.24360919585227,80.21211738781929
2024-09-23 19:41:23.889833,43.34,46.730531,0.0003979595949556242,-0.02367869399252531,0.09720203344245934,52.137550501942634,-100.26678939585686,76.200527287817
2024-09-23 19:41:23.932665,43.34,46.730531,0.0006466830067647949,-0.023330473146428877,0.09755024973162574,44.11764879391193,-96.25519929585457,76.200527287817
2024-09-23 19:41:23.976459,43.34,46.730582,0.0011938787373988514,-0.023330473146428877,0.09755024973162574,44.11764879391193,-96.25519929585457,76.200527287817
2024-09-23 19:41:23.988158,43.34,46.730582,0.0011938787373988514,-0.023330473146428877,0.09740101331113918,40.106058693909645,-96.25519929585457,76.200527287817
2024-09-23 19:41:24.020363,43.34,46.730582,0.0011938787373988514,-0.023330473146428877,0.09740101331113918,40.106058693909645,-96.25519929585457,72.1922225099802
2024-09-23 19:41:24.031440,43.34,46.730633,0.00029846189959424716,-0.022982261414192504,0.09725178296655933,40.106058693909645,-96.25519929585457,72.1922225099802
2024-09-23 19:41:24.074525,43.34,46.730725,9.948729986474904e-05,-0.022982261414192504,0.09725178296655933,40.106058693909645,-96.25519929585457,80.21211738781929
2024-09-23 19:41:24.085814,43.34,46.730725,9.948729986474904e-05,-0.023181236725942318,0.09725178296655933,40.106058693909645,-96.25519929585457,80.21211738781929
2024-09-23 19:41:24.118278,43.34,46.730725,9.948729986474904e-05,-0.023181236725942318,0.09725178296655933,28.07457030097246,-96.25519929585457,80.21211738781929
2024-09-23 19:41:24.129580,43.34,46.730776,0.0011441298778511575,-0.023280723622328886,0.09725178296655933,28.07457030097246,-100.26678939585686,72.1922225099802
2024-09-23 19:41:24.171599,43.34,46.730776,0.0011441298778511575,-0.023280723622328886,0.09829641968224512,44.11764879391193,-84.22370748782159,80.21211738781929
2024-09-23 19:41:24.183502,43.34,46.730827,0.0003979595949556242,-0.023280723622328886,0.09829641968224512,44.11764879391193,-84.22370748782159,80.21211738781929
2024-09-23 19:41:24.215497,43.34,46.730827,0.0003979595949556242,-0.02293251340906919,0.09829641968224512,44.11764879391193,-84.22370748782159,80.21211738781929
2024-09-23 19:41:24.227479,43.34,46.730919,0.0003979595949556242,-0.02293251340906919,0.0970030596496862,40.106058693909645,-92.24360919585227,80.21211738781929
2024-09-23 19:41:24.270153,43.34,46.730919,0.001044642601720419,-0.02338022115155219,0.09759999317981902,44.11764879391193,-92.24360919585227,80.21211738781929
2024-09-23 19:41:24.281817,43.34,46.730919,0.001044642601720419,-0.02338022115155219,0.09759999317981902,44.11764879391193,-96.25519929585457,76.200527287817
2024-09-23 19:41:24.315259,43.34,46.73097,0.00044769805900669,-0.02338022115155219,0.09759999317981902,44.11764879391193,-96.25519929585457,76.200527287817
2024-09-23 19:41:24.327156,43.34,46.73097,0.00044769805900669,-0.02278327698858263,0.09759999317981902,44.11764879391193,-96.25519929585457,76.200527287817
2024-09-23 19:41:24.369687,43.34,46.731021,0.00044769805900669,-0.02278327698858263,0.09715228999426605,40.106058693909645,-100.26678939585686,76.200527287817
2024-09-23 19:41:24.381294,43.34,46.731021,0.000845657606494293,-0.02278327698858263,0.09715228999426605,40.106058693909645,-100.26678939585686,76.200527287817
2024-09-23 19:41:24.414597,43.34,46.731021,0.000845657606494293,-0.02308174982955575,0.09745075675933246,40.106058693909645,-100.26678939585686,76.200527287817
2024-09-23 19:41:24.425718,43.34,46.731071,0.000845657606494293,-0.02308174982955575,0.09745075675933246,48.12595698684454,-92.24360919585227,80.21211738781929
2024-09-23 19:41:24.468752,43.48,46.731071,0.0006466830067647949,-0.02338022115155219,0.0976994861521123,52.137550501942634,-92.24360919585227,80.21211738781929
2024-09-23 19:41:24.511747,43.48,46.731122,0.001044642601720419,-0.02303200030545576,0.0976994861521123,52.137550501942634,-92.24360919585227,80.21211738781929
2024-09-23 19:41:24.523401,43.48,46.731122,0.001044642601720419,-0.02303200030545576,0.09799795899308542,36.09446859390736,-92.24360919585227,80.21211738781929
2024-09-23 19:41:24.565666,43.48,46.731173,0.000845657606494293,-0.02303200030545576,0.09794820946898543,64.16903547978401,-92.24360919585227,84.22370748782159
2024-09-23 19:41:24.607397,43.48,46.731173,0.000845657606494293,-0.02303200030545576,0.09794820946898543,64.16903547978401,-92.24360919585227,80.21211738781929
2024-09-23 19:41:24.619340,43.48,46.731262,0.0009948937421727254,-0.023280723622328886,0.09720203344245934,64.16903547978401,-92.24360919585227,80.21211738781929
2024-09-23 19:41:24.662764,43.48,46.731312,0.0005969341946851222,-0.02362894446842532,0.09720203344245934,52.137550501942634,-96.25519929585457,76.200527287817
2024-09-23 19:41:24.705049,43.48,46.731312,0.0005969341946851222,-0.02362894446842532,0.09620712802315341,24.06297849342227,-96.25519929585457,76.200527287817
2024-09-23 19:41:24.716750,43.48,46.731363,0.001442602149208022,-0.02362894446842532,0.09620712802315341,24.06297849342227,-100.26678939585686,76.200527287817
2024-09-23 19:41:24.760035,43.48,46.731455,0.001442602149208022,-0.02268379009219606,0.09750050628343246,36.09446859390736,-104.27510100388527,72.1922225099802
2024-09-23 19:41:24.803056,43.48,46.731455,0.00044769805900669,-0.023927417309398437,0.09750050628343246,36.09446859390736,-104.27510100388527,72.1922225099802
2024-09-23 19:41:24.814043,43.48,46.731455,0.00044769805900669,-0.023927417309398437,0.09725178296655933,48.12595698684454,-100.26678939585686,72.1922225099802
2024-09-23 19:41:24.857218,43.48,46.731506,0.00024872343554318134,-0.023181236725942318,0.09789846602079214,44.11764879391193,-100.26678939585686,72.1922225099802
2024-09-23 19:41:24.869569,43.48,46.731506,0.00024872343554318134,-0.023181236725942318,0.09789846602079214,44.11764879391193,-92.24360919585227,72.1922225099802
2024-09-23 19:41:24.902257,43.48,46.731506,0.00024872343554318134,-0.023181236725942318,0.09789846602079214,44.11764879391193,-92.24360919585227,80.21211738781929
2024-09-23 19:41:24.955112,43.48,46.731557,0.001044642601720419,-0.02268379009219606,0.09784872257259886,64.16903547978401,-100.26678939585686,80.21211738781929
2024-09-23 19:41:24.997695,43.48,46.731608,0.001044642601720419,-0.02268379009219606,0.09784872257259886,64.16903547978401,-100.26678939585686,76.200527287817
2024-09-23 19:41:25.009443,43.48,46.731608,0.0008954064660419869,-0.023479709566915436,0.09740101331113918,64.16903547978401,-100.26678939585686,76.200527287817
2024-09-23 19:41:25.052500,43.48,46.731658,0.00029846189959424716,-0.022982261414192504,0.09740101331113918,64.16903547978401,-92.24360919585227,76.200527287817
2024-09-23 19:41:25.064143,43.48,46.731658,0.00029846189959424716,-0.022982261414192504,0.09854515515093167,64.16903547978401,-92.24360919585227,76.200527287817
2024-09-23 19:41:25.095549,43.48,46.731658,0.00029846189959424716,-0.022982261414192504,0.09854515515093167,108.28669110388756,-92.24360919585227,76.200527287817
2024-09-23 19:41:25.107259,43.48,46.731709,0.0006964318663124887,-0.023330473146428877,0.09854515515093167,108.28669110388756,-92.24360919585227,88.23529758782387
2024-09-23 19:41:25.150316,43.48,46.731796,0.0003979595949556242,-0.023330473146428877,0.09670458680871308,40.106058693909645,-96.25519929585457,80.21211738781929
2024-09-23 19:41:25.192780,43.48,46.731796,0.0003979595949556242,-0.022982261414192504,0.0966050877605131,40.106058693909645,-96.25519929585457,80.21211738781929
2024-09-23 19:41:25.204518,43.48,46.731894,0.0003979595949556242,-0.022982261414192504,0.0966050877605131,28.07457030097246,-92.24360919585227,72.1922225099802
2024-09-23 19:41:25.246184,43.48,46.731894,0.0007959191899112484,-0.02367869399252531,0.09690356060148622,60.15744537978172,-100.26678939585686,72.1922225099802
2024-09-23 19:41:25.258186,43.48,46.731894,0.0007959191899112484,-0.02367869399252531,0.09690356060148622,60.15744537978172,-100.26678939585686,72.1922225099802
2024-09-23 19:41:25.290450,43.48,46.731945,0.0006466830067647949,-0.02367869399252531,0.09690356060148622,60.15744537978172,-100.26678939585686,72.1922225099802
2024-09-23 19:41:25.301548,43.48,46.731945,0.0006466830067647949,-0.023230986250042305,0.0973015264147526,44.11764879391193,-100.26678939585686,72.1922225099802
2024-09-23 19:41:25.344252,43.48,46.731996,0.0005471957306340564,-0.022982261414192504,0.09809744588947199,44.11764879391193,-100.26678939585686,72.1922225099802
2024-09-23 19:41:25.356032,43.48,46.731996,0.0005471957306340564,-0.022982261414192504,0.09809744588947199,44.11764879391193,-100.26678939585686,72.1922225099802
2024-09-23 19:41:25.390668,43.48,46.732046,0.0006964318663124887,-0.022982261414192504,0.09809744588947199,44.11764879391193,-88.23529758782387,80.21211738781929
2024-09-23 19:41:25.402024,43.48,46.732046,0.0006964318663124887,-0.02338022115155219,0.0970030596496862,44.11764879391193,-88.23529758782387,80.21211738781929
2024-09-23 19:41:25.446153,43.48,46.732046,0.0006964318663124887,-0.02338022115155219,0.0970030596496862,36.09446859390736,-100.26678939585686,80.21211738781929
2024-09-23 19:41:25.488078,43.02,46.732097,0.0012436275969465451,-0.022982261414192504,0.0970030596496862,36.09446859390736,-100.26678939585686,80.21211738781929
2024-09-23 19:41:25.499818,43.02,46.732097,0.0012436275969465451,-0.022982261414192504,0.09715228999426605,40.106058693909645,-100.26678939585686,80.21211738781929
2024-09-23 19:41:25.532961,43.02,46.732097,0.0012436275969465451,-0.022982261414192504,0.09715228999426605,40.106058693909645,-92.24360919585227,80.21211738781929
2024-09-23 19:41:25.544959,43.02,46.732148,0.001442602149208022,-0.02278327698858263,0.09675432418099966,40.106058693909645,-92.24360919585227,76.200527287817
2024-09-23 19:41:25.588077,43.02,46.732235,0.0007959191899112484,-0.02278327698858263,0.09675432418099966,32.08287849390507,-96.25519929585457,76.200527287817
2024-09-23 19:41:25.600221,43.02,46.732235,0.0007959191899112484,-0.023330473146428877,0.09675432418099966,32.08287849390507,-96.25519929585457,76.200527287817
2024-09-23 19:41:25.633929,43.02,46.732235,0.0007959191899112484,-0.023330473146428877,0.09745075675933246,28.07457030097246,-96.25519929585457,76.200527287817
2024-09-23 19:41:25.645347,43.02,46.732286,0.0005471957306340564,-0.023330473146428877,0.09745075675933246,28.07457030097246,-96.25519929585457,72.1922225099802
2024-09-23 19:41:25.679973,43.02,46.732286,0.0005471957306340564,-0.02293251340906919,0.09745075675933246,28.07457030097246,-96.25519929585457,72.1922225099802
2024-09-23 19:41:25.691658,43.02,46.732338,0.0005471957306340564,-0.02293251340906919,0.09745075675933246,40.106058693909645,-96.25519929585457,72.1922225099802
2024-09-23 19:41:25.734874,43.02,46.732338,0.0005969341946851222,-0.02303200030545576,0.0966050877605131,40.106058693909645,-92.24360919585227,72.1922225099802
2024-09-23 19:41:25.747684,43.02,46.732338,0.0005969341946851222,-0.02303200030545576,0.0966050877605131,40.106058693909645,-92.24360919585227,76.200527287817
2024-09-23 19:41:25.779558,43.02,46.73243,0.00029846189959424716,-0.02303200030545576,0.0966050877605131,40.106058693909645,-92.24360919585227,76.200527287817
2024-09-23 19:41:25.790707,43.02,46.73243,0.00029846189959424716,-0.023579196463302005,0.09755024973162574,40.106058693909645,-100.26678939585686,76.200527287817
2024-09-23 19:41:25.833925,43.02,46.732482,0.0012436275969465451,-0.022982261414192504,0.09740101331113918,44.11764879391193,-100.26678939585686,68.18063240997792
2024-09-23 19:41:25.877326,43.02,46.732532,0.0012436275969465451,-0.022982261414192504,0.09740101331113918,44.11764879391193,-96.25519929585457,72.1922225099802
2024-09-23 19:41:25.889017,43.02,46.732532,0.0009948937421727254,-0.023479709566915436,0.0970030596496862,44.11764879391193,-96.25519929585457,72.1922225099802
2024-09-23 19:41:25.931596,43.02,46.732583,0.0011938787373988514,-0.023280723622328886,0.0970030596496862,48.12595698684454,-96.25519929585457,76.200527287817
2024-09-23 19:41:25.974799,43.02,46.732583,0.0011938787373988514,-0.023280723622328886,0.09705279702197278,40.106058693909645,-96.25519929585457,76.200527287817
2024-09-23 19:41:25.986215,43.02,46.732634,0.0011938787373988514,-0.023280723622328886,0.09705279702197278,40.106058693909645,-96.25519929585457,76.200527287817
2024-09-23 19:41:26.029792,43.02,46.732634,0.0004974468710863627,-0.02352945757203875,0.09695331012558621,32.08287849390507,-100.26678939585686,76.200527287817
2024-09-23 19:41:26.072457,43.02,46.732723,0.0006964318663124887,-0.0224350561424862,0.09695331012558621,32.08287849390507,-100.26678939585686,76.200527287817
2024-09-23 19:41:26.084214,43.02,46.732723,0.0006964318663124887,-0.0224350561424862,0.09720203344245934,40.106058693909645,-88.23529758782387,76.200527287817
2024-09-23 19:41:26.126902,43.02,46.732774,0.0007461703303635545,-0.022733528983459317,0.09745075675933246,36.09446859390736,-88.23529758782387,76.200527287817
2024-09-23 19:41:26.169845,43.02,46.732825,0.0007461703303635545,-0.022733528983459317,0.09745075675933246,36.09446859390736,-92.24360919585227,76.200527287817
2024-09-23 19:41:26.181455,43.02,46.732825,0.000845657606494293,-0.02313149783467906,0.0973512698629459,36.09446859390736,-92.24360919585227,76.200527287817
2024-09-23 19:41:26.224795,43.02,46.732875,0.0008954064660419869,-0.02362894446842532,0.0973512698629459,52.137550501942634,-88.23529758782387,72.1922225099802
2024-09-23 19:41:26.268297,43.02,46.732875,0.0008954064660419869,-0.02362894446842532,0.0973015264147526,52.137550501942634,-92.24360919585227,72.1922225099802
2024-09-23 19:41:26.280480,43.02,46.732926,0.00034821073540793035,-0.02362894446842532,0.0973015264147526,52.137550501942634,-92.24360919585227,76.200527287817
2024-09-23 19:41:26.314538,43.02,46.732926,0.00034821073540793035,-0.023579196463302005,0.09740101331113918,52.137550501942634,-92.24360919585227,76.200527287817
2024-09-23 19:41:26.325847,43.02,46.733015,0.00034821073540793035,-0.023579196463302005,0.09740101331113918,36.09446859390736,-92.24360919585227,80.21211738781929
2024-09-23 19:41:26.368202,43.02,46.733015,0.0005471957306340564,-0.02352945757203875,0.0976994861521123,32.08287849390507,-100.26678939585686,80.21211738781929
2024-09-23 19:41:26.380721,43.02,46.733015,0.0005471957306340564,-0.02352945757203875,0.0976994861521123,32.08287849390507,-100.26678939585686,76.200527287817
2024-09-23 19:41:26.414798,43.02,46.733066,0.0007461703303635545,-0.023280723622328886,0.0976994861521123,32.08287849390507,-100.26678939585686,76.200527287817
2024-09-23 19:41:26.426343,43.02,46.733066,0.0007461703303635545,-0.023280723622328886,0.0973015264147526,32.08287849390507,-92.24360919585227,76.200527287817
2024-09-23 19:41:26.458272,43.02,46.733066,0.0007461703303635545,-0.023280723622328886,0.0973015264147526,32.08287849390507,-92.24360919585227,76.200527287817
2024-09-23 19:41:26.469960,43.02,46.733117,0.0008954064660419869,-0.02367869399252531,0.09650560086412653,40.106058693909645,-92.24360919585227,76.200527287817
2024-09-23 19:41:26.511896,43.18,46.733168,0.0013928637326249774,-0.02367869399252531,0.09650560086412653,40.106058693909645,-96.25519929585457,76.200527287817
2024-09-23 19:41:26.523682,43.18,46.733168,0.0013928637326249774,-0.02362894446842532,0.09764974270391902,40.106058693909645,-96.25519929585457,76.200527287817
2024-09-23 19:41:26.555771,43.18,46.733168,0.0013928637326249774,-0.02362894446842532,0.09764974270391902,48.12595698684454,-96.25519929585457,76.200527287817
2024-09-23 19:41:26.567139,43.18,46.733218,0.0007461703303635545,-0.023927417309398437,0.09764974270391902,48.12595698684454,-92.24360919585227,84.22370748782159
2024-09-23 19:41:26.608930,43.18,46.733218,0.0007461703303635545,-0.023927417309398437,0.0973015264147526,48.12595698684454,-92.24360919585227,84.22370748782159
2024-09-23 19:41:26.620201,43.18,46.733269,0.0005969341946851222,-0.023927417309398437,0.0973015264147526,48.12595698684454,-92.24360919585227,76.200527287817
2024-09-23 19:41:26.664537,43.18,46.733356,0.0005969341946851222,-0.023181236725942318,0.09695331012558621,44.11764879391193,-96.25519929585457,76.200527287817
2024-09-23 19:41:26.706868,43.18,46.733356,0.0005969341946851222,-0.02352945757203875,0.09740101331113918,44.11764879391193,-96.25519929585457,76.200527287817
2024-09-23 19:41:26.718547,43.18,46.733356,0.0005969341946851222,-0.02352945757203875,0.09740101331113918,44.11764879391193,-92.24360919585227,76.200527287817
2024-09-23 19:41:26.761360,43.18,46.733408,0.0009948937421727254,-0.022982261414192504,0.09740101331113918,48.12595698684454,-92.24360919585227,76.200527287817
2024-09-23 19:41:26.804899,43.18,46.733458,0.0006964318663124887,-0.023579196463302005,0.09740101331113918,48.12595698684454,-92.24360919585227,72.1922225099802
2024-09-23 19:41:26.816798,43.18,46.733458,0.0006964318663124887,-0.023579196463302005,0.09720203344245934,40.106058693909645,-92.24360919585227,72.1922225099802
2024-09-23 19:41:26.848443,43.18,46.733458,0.0006964318663124887,-0.023579196463302005,0.09720203344245934,40.106058693909645,-92.24360919585227,72.1922225099802
2024-09-23 19:41:26.859480,43.18,46.733509,0.0004974468710863627,-0.022733528983459317,0.09720203344245934,40.106058693909645,-92.24360919585227,84.22370748782159
2024-09-23 19:41:26.903024,43.18,46.73356,0.0004974468710863627,-0.022733528983459317,0.09720203344245934,32.08287849390507,-100.26678939585686,72.1922225099802
2024-09-23 19:41:26.914555,43.18,46.73356,0.0016913256559532351,-0.02397715620066169,0.09720203344245934,32.08287849390507,-100.26678939585686,72.1922225099802
2024-09-23 19:41:26.948022,43.18,46.73356,0.0016913256559532351,-0.02397715620066169,0.09720203344245934,56.14914060194492,-100.26678939585686,72.1922225099802
2024-09-23 19:41:26.959396,43.18,46.73361,0.0005471957306340564,-0.02397715620066169,0.09720203344245934,56.14914060194492,-96.25519929585457,68.18063240997792
2024-09-23 19:41:27.001471,43.18,46.73361,0.0005471957306340564,-0.023181236725942318,0.09715228999426605,24.06297849342227,-96.25519929585457,84.22370748782159
2024-09-23 19:41:27.013118,43.18,46.733697,0.0005471957306340564,-0.023181236725942318,0.09715228999426605,24.06297849342227,-96.25519929585457,84.22370748782159
2024-09-23 19:41:27.098291,43.18,46.733697,0.0008954064660419869,-0.02338022115155219,0.09685382322919964,16.039798293417693,-96.25519929585457,84.22370748782159
2024-09-23 19:41:27.110403,43.18,46.733697,0.0008954064660419869,-0.02338022115155219,0.09685382322919964,16.039798293417693,-96.25519929585457,80.21211738781929
2024-09-23 19:41:27.142790,43.18,46.733749,0.00024872343554318134,-0.02338022115155219,0.09685382322919964,16.039798293417693,-96.25519929585457,80.21211738781929
2024-09-23 19:41:27.154889,43.18,46.733749,0.00024872343554318134,-0.023579196463302005,0.09685382322919964,40.106058693909645,-104.27510100388527,80.21211738781929
2024-09-23 19:41:27.197044,43.18,46.7338,0.0006964318663124887,-0.02367869399252531,0.09680407370509965,40.106058693909645,-104.27510100388527,80.21211738781929
2024-09-23 19:41:27.209180,43.18,46.7338,0.0006964318663124887,-0.02367869399252531,0.09680407370509965,40.106058693909645,-104.27510100388527,80.21211738781929
2024-09-23 19:41:27.240790,43.18,46.7338,0.0006964318663124887,-0.02367869399252531,0.09680407370509965,40.106058693909645,-96.25519929585457,80.21211738781929
2024-09-23 19:41:27.251836,43.18,46.73385,0.0010943914612681128,-0.022982261414192504,0.09789846602079214,40.106058693909645,-96.25519929585457,80.21211738781929
2024-09-23 19:41:27.295280,43.18,46.733901,0.001044642601720419,-0.02303200030545576,0.09789846602079214,76.200527287817,-104.27510100388527,76.200527287817
2024-09-23 19:41:27.337113,43.18,46.733901,0.001044642601720419,-0.02303200030545576,0.09740101331113918,32.08287849390507,-104.27510100388527,76.200527287817
2024-09-23 19:41:27.348865,43.18,46.733901,0.001044642601720419,-0.02303200030545576,0.09740101331113918,32.08287849390507,-96.25519929585457,84.22370748782159
2024-09-23 19:41:27.391098,43.18,46.733993,0.0009948937421727254,-0.023181236725942318,0.09755024973162574,32.08287849390507,-96.25519929585457,84.22370748782159
2024-09-23 19:41:27.403752,43.18,46.733993,0.0009948937421727254,-0.023181236725942318,0.09755024973162574,40.106058693909645,-100.26678939585686,84.22370748782159
2024-09-23 19:41:27.436578,43.18,46.734087,0.0009948937421727254,-0.023181236725942318,0.09755024973162574,40.106058693909645,-100.26678939585686,80.21211738781929
2024-09-23 19:41:27.447509,43.18,46.734087,0.0005969341946851222,-0.02362894446842532,0.09690356060148622,36.09446859390736,-100.26678939585686,80.21211738781929
2024-09-23 19:41:27.489861,43.18,46.734139,0.0011938787373988514,-0.023181236725942318,0.09759999317981902,36.09446859390736,-92.24360919585227,84.22370748782159
2024-09-23 19:41:27.532168,43.17,46.734139,0.0011938787373988514,-0.023181236725942318,0.09759999317981902,40.106058693909645,-92.24360919585227,84.22370748782159
2024-09-23 19:41:27.544568,43.17,46.73419,0.0009451553255896806,-0.022982261414192504,0.09759999317981902,40.106058693909645,-96.25519929585457,76.200527287817
2024-09-23 19:41:27.587360,43.17,46.73419,0.0009451553255896806,-0.022982261414192504,0.09695331012558621,44.11764879391193,-100.26678939585686,76.200527287817
2024-09-23 19:41:27.682195,43.17,46.73424,0.0011441298778511575,-0.022982261414192504,0.09695331012558621,44.11764879391193,-100.26678939585686,76.200527287817
2024-09-23 19:41:27.694046,43.17,46.73424,0.0011441298778511575,-0.023181236725942318,0.09745075675933246,36.09446859390736,-100.26678939585686,76.200527287817
2024-09-23 19:41:27.727977,43.17,46.73424,0.0011441298778511575,-0.023181236725942318,0.09745075675933246,36.09446859390736,-92.24360919585227,76.200527287817
2024-09-23 19:41:27.739804,43.17,46.734331,0.0007959191899112484,-0.023280723622328886,0.09715228999426605,36.09446859390736,-92.24360919585227,80.21211738781929
2024-09-23 19:41:27.782572,43.17,46.734383,0.0009451553255896806,-0.023479709566915436,0.09715228999426605,40.106058693909645,-92.24360919585227,72.1922225099802
2024-09-23 19:41:27.825749,43.17,46.734383,0.0009451553255896806,-0.023479709566915436,0.09720203344245934,40.106058693909645,-92.24360919585227,72.1922225099802
2024-09-23 19:41:27.837669,43.17,46.734433,0.0007959191899112484,-0.023479709566915436,0.09720203344245934,40.106058693909645,-100.26678939585686,80.21211738781929
2024-09-23 19:41:27.881198,43.17,46.734484,0.0007959191899112484,-0.023479709566915436,0.09710254654607277,40.106058693909645,-92.24360919585227,80.21211738781929
2024-09-23 19:41:27.923262,43.17,46.734484,0.0007959191899112484,-0.02263404056809607,0.09710254654607277,40.106058693909645,-92.24360919585227,80.21211738781929
2024-09-23 19:41:27.934404,43.17,46.734484,0.0007959191899112484,-0.02263404056809607,0.09680407370509965,44.11764879391193,-96.25519929585457,80.21211738781929
2024-09-23 19:41:27.978903,43.17,46.734624,0.0012436275969465451,-0.023479709566915436,0.09755024973162574,48.12595698684454,-96.25519929585457,80.21211738781929
2024-09-23 19:41:28.022189,43.17,46.734675,0.0011441298778511575,-0.023479709566915436,0.09755024973162574,48.12595698684454,-96.25519929585457,76.200527287817
2024-09-23 19:41:28.033847,43.17,46.734675,0.0011441298778511575,-0.023230986250042305,0.0970030596496862,40.106058693909645,-96.25519929585457,76.200527287817
2024-09-23 19:41:28.076749,43.17,46.734726,0.00034821073540793035,-0.023280723622328886,0.09750050628343246,40.106058693909645,-92.24360919585227,72.1922225099802
2024-09-23 19:41:28.119362,43.17,46.734726,0.00034821073540793035,-0.023280723622328886,0.09750050628343246,40.106058693909645,-100.26678939585686,80.21211738781929
2024-09-23 19:41:28.131197,43.17,46.734777,0.0006964318663124887,-0.022833026512682618,0.09750050628343246,40.106058693909645,-100.26678939585686,80.21211738781929
2024-09-23 19:41:28.173929,43.17,46.734828,0.0009948937421727254,-0.022833026512682618,0.09755024973162574,40.106058693909645,-100.26678939585686,72.1922225099802
2024-09-23 19:41:28.216607,43.17,46.734828,0.0009948937421727254,-0.02293251340906919,0.09764974270391902,40.106058693909645,-100.26678939585686,72.1922225099802
2024-09-23 19:41:28.228860,43.17,46.734916,0.0009948937421727254,-0.02293251340906919,0.09764974270391902,40.106058693909645,-96.25519929585457,76.200527287817
2024-09-23 19:41:28.271977,43.17,46.734916,0.0007959191899112484,-0.023479709566915436,0.09715228999426605,36.09446859390736,-92.24360919585227,80.21211738781929
2024-09-23 19:41:28.314283,43.17,46.734968,0.0007959191899112484,-0.023330473146428877,0.09715228999426605,36.09446859390736,-92.24360919585227,80.21211738781929
2024-09-23 19:41:28.325884,43.17,46.734968,0.0007959191899112484,-0.023330473146428877,0.09755024973162574,44.11764879391193,-92.24360919585227,80.21211738781929
2024-09-23 19:41:28.368998,43.17,46.735018,0.0011938787373988514,-0.023330473146428877,0.09740101331113918,52.137550501942634,-92.24360919585227,80.21211738781929
2024-09-23 19:41:28.411548,43.17,46.735069,0.0011938787373988514,-0.023330473146428877,0.09740101331113918,52.137550501942634,-96.25519929585457,76.200527287817
2024-09-23 19:41:28.422838,43.17,46.735069,0.0007959191899112484,-0.02362894446842532,0.09695331012558621,52.137550501942634,-96.25519929585457,76.200527287817
2024-09-23 19:41:28.464804,43.17,46.73512,0.0005969341946851222,-0.023280723622328886,0.09695331012558621,44.11764879391193,-92.24360919585227,76.200527287817
2024-09-23 19:41:28.508767,43.17,46.73512,0.0005969341946851222,-0.023280723622328886,0.09710254654607277,48.12595698684454,-92.24360919585227,76.200527287817
2024-09-23 19:41:28.519728,43.17,46.73517,0.0008954064660419869,-0.023280723622328886,0.09710254654607277,48.12595698684454,-92.24360919585227,76.200527287817
2024-09-23 19:41:28.562168,42.51,46.73517,0.0008954064660419869,-0.022584292562972758,0.09710254654607277,48.12595698684454,-92.24360919585227,76.200527287817
2024-09-23 19:41:28.604579,42.51,46.73517,0.0008954064660419869,-0.022584292562972758,0.0983959187304451,48.12595698684454,-92.24360919585227,76.200527287817
2024-09-23 19:41:28.616808,42.51,46.735257,0.0009948937421727254,-0.022584292562972758,0.0983959187304451,340.9097258640289,-80.21211738781929,52.137550501942634
2024-09-23 19:41:28.659335,42.51,46.735257,0.0009948937421727254,-0.023728432883788564,0.0983959187304451,340.9097258640289,-80.21211738781929,52.137550501942634
2024-09-23 19:41:28.701132,42.51,46.735257,0.0009948937421727254,-0.023728432883788564,0.09675432418099966,340.9097258640289,-80.21211738781929,52.137550501942634
2024-09-23 19:41:28.712496,42.51,46.735309,0.0004974468710863627,-0.023728432883788564,0.09675432418099966,377.00417396736145,-84.22370748782159,56.14914060194492
2024-09-23 19:41:28.755511,42.51,46.735309,0.0004974468710863627,-0.023827930413011865,0.094117830288155,84.22370748782159,-88.23529758782387,56.14914060194492
2024-09-23 19:41:28.766520,42.51,46.735359,0.0004974468710863627,-0.023827930413011865,0.094117830288155,84.22370748782159,-88.23529758782387,72.1922225099802
2024-09-23 19:41:28.798643,42.51,46.735359,0.00044769805900669,-0.023827930413011865,0.094117830288155,84.22370748782159,-88.23529758782387,72.1922225099802
2024-09-23 19:41:28.810045,42.51,46.735359,0.00044769805900669,-0.023927417309398437,0.09386910697128187,112.29828120388984,-96.25519929585457,84.22370748782159
2024-09-23 19:41:28.852163,42.51,46.73541,0.0003979595949556242,-0.023579196463302005,0.09670458680871308,112.29828120388984,-96.25519929585457,84.22370748782159
2024-09-23 19:41:28.863715,42.51,46.73541,0.0003979595949556242,-0.023579196463302005,0.09670458680871308,4.008308192932605,-96.25519929585457,84.22370748782159
2024-09-23 19:41:28.906582,42.51,46.735503,0.0013431148730772837,-0.02293251340906919,0.10496228477641348,-32.08287849390507,-96.25519929585457,92.24360919585227
2024-09-23 19:41:28.948765,42.51,46.7356,0.0013431148730772837,-0.02293251340906919,0.10496228477641348,-32.08287849390507,-72.1922225099802,80.21211738781929
2024-09-23 19:41:28.960157,42.51,46.7356,0.0009451553255896806,-0.023479709566915436,0.09774922960030558,-32.08287849390507,-72.1922225099802,80.21211738781929
2024-09-23 19:41:29.003425,42.51,46.735651,0.0007959191899112484,-0.023330473146428877,0.09774922960030558,248.66282451581955,-92.24360919585227,72.1922225099802
2024-09-23 19:41:29.098320,42.51,46.735702,0.0007959191899112484,-0.023330473146428877,0.09516248523156091,56.14914060194492,-92.24360919585227,80.21211738781929
2024-09-23 19:41:29.110520,42.51,46.735702,0.0011441298778511575,-0.023330473146428877,0.09516248523156091,56.14914060194492,-92.24360919585227,80.21211738781929
2024-09-23 19:41:29.142534,42.51,46.735702,0.0011441298778511575,-0.023181236725942318,0.098047696365372,56.14914060194492,-92.24360919585227,80.21211738781929
2024-09-23 19:41:29.153760,42.51,46.735794,0.0011441298778511575,-0.023181236725942318,0.098047696365372,56.14914060194492,-96.25519929585457,72.1922225099802
2024-09-23 19:41:29.197167,42.51,46.735794,0.0010943914612681128,-0.02313149783467906,0.09764974270391902,40.106058693909645,-96.25519929585457,72.1922225099802
2024-09-23 19:41:29.239059,42.51,46.735846,0.001044642601720419,-0.02313149783467906,0.09764974270391902,40.106058693909645,-96.25519929585457,72.1922225099802
2024-09-23 19:41:29.250516,42.51,46.735846,0.001044642601720419,-0.023429960042815445,0.09680407370509965,20.05138839341998,-68.18063240997792,72.1922225099802
2024-09-23 19:41:29.292757,42.51,46.735896,-0.0009451553255896806,-0.024375126570858115,0.09187930220857672,20.05138839341998,-68.18063240997792,-168.44741497564317
2024-09-23 19:41:29.304404,42.51,46.735896,-0.0009451553255896806,-0.024375126570858115,0.09187930220857672,-36.09446859390736,-68.18063240997792,-168.44741497564317
2024-09-23 19:41:29.337324,42.51,46.735896,-0.0009451553255896806,-0.024375126570858115,0.09187930220857672,-36.09446859390736,-72.1922225099802,152.40433306760787
2024-09-23 19:41:29.349073,42.51,46.73599,0.0018405616966956251,-0.021141690034020565,0.10506177167280004,-36.09446859390736,-72.1922225099802,152.40433306760787
2024-09-23 19:41:29.391601,42.51,46.736041,0.0004974468710863627,-0.023927417309398437,0.10506177167280004,200.53357879171372,-88.23529758782387,68.18063240997792
2024-09-23 19:41:29.434010,42.51,46.736041,0.0004974468710863627,-0.023927417309398437,0.09297368844836251,200.53357879171372,-88.23529758782387,68.18063240997792
2024-09-23 19:41:29.445854,42.51,46.736092,0.00029846189959424716,-0.023927417309398437,0.09297368844836251,328.8749282432556,-88.23529758782387,56.14914060194492
2024-09-23 19:41:29.488143,42.51,46.736092,0.00029846189959424716,-0.02313149783467906,0.0987938784678048,-40.106058693909645,-96.25519929585457,80.21211738781929
2024-09-23 19:41:29.500523,42.51,46.736184,0.00029846189959424716,-0.02313149783467906,0.0987938784678048,-40.106058693909645,-96.25519929585457,80.21211738781929
2024-09-23 19:41:29.533116,42.51,46.736184,0.0009948937421727254,-0.02313149783467906,0.0987938784678048,-40.106058693909645,-96.25519929585457,80.21211738781929
2024-09-23 19:41:29.545182,42.51,46.736184,0.0009948937421727254,-0.02313149783467906,0.09774922960030558,36.09446859390736,-96.25519929585457,76.200527287817
2024-09-23 19:41:29.631190,42.15,46.736235,0.0003979595949556242,-0.02352945757203875,0.09774922960030558,36.09446859390736,-96.25519929585457,76.200527287817
2024-09-23 19:41:29.643015,42.15,46.736235,0.0003979595949556242,-0.02352945757203875,0.09814718933766527,80.21211738781929,-96.25519929585457,76.200527287817
2024-09-23 19:41:29.685890,42.15,46.736286,0.0003979595949556242,-0.02352945757203875,0.09814718933766527,80.21211738781929,-96.25519929585457,72.1922225099802
2024-09-23 19:41:29.728954,42.15,46.736286,0.0008954064660419869,-0.022733528983459317,0.0973512698629459,80.21211738781929,-96.25519929585457,72.1922225099802
2024-09-23 19:41:29.740710,42.15,46.736286,0.0008954064660419869,-0.022733528983459317,0.0973512698629459,28.07457030097246,-100.26678939585686,72.1922225099802
2024-09-23 19:41:29.773371,42.15,46.736336,0.0008954064660419869,-0.022733528983459317,0.0973512698629459,28.07457030097246,-100.26678939585686,72.1922225099802
2024-09-23 19:41:29.784645,42.15,46.736336,0.0007461703303635545,-0.022733528983459317,0.09715228999426605,12.031489246711136,-96.25519929585457,72.1922225099802
2024-09-23 19:41:29.827009,42.15,46.736387,0.0012933660135295898,-0.02238531725122294,0.09715228999426605,12.031489246711136,-96.25519929585457,80.21211738781929
2024-09-23 19:41:29.838546,42.15,46.736387,0.0012933660135295898,-0.02238531725122294,0.09690356060148622,8.019899146708847,-96.25519929585457,80.21211738781929
2024-09-23 19:41:29.881177,42.15,46.736438,0.0015420998683034098,-0.023330473146428877,0.09774922960030558,8.019899146708847,-100.26678939585686,80.21211738781929
2024-09-23 19:41:29.975234,42.15,46.736574,0.0004974468710863627,-0.023330473146428877,0.09774922960030558,36.09446859390736,-100.26678939585686,76.200527287817
2024-09-23 19:41:29.986834,42.15,46.736574,0.0004974468710863627,-0.0228827638849692,0.09774922960030558,36.09446859390736,-100.26678939585686,76.200527287817
2024-09-23 19:41:30.019360,42.15,46.736574,0.0004974468710863627,-0.0228827638849692,0.09680407370509965,36.09446859390736,-100.26678939585686,76.200527287817
2024-09-23 19:41:30.031123,42.15,46.736625,0.0007461703303635545,-0.0228827638849692,0.09680407370509965,48.12595698684454,-96.25519929585457,80.21211738781929
2024-09-23 19:41:30.073941,42.15,46.736625,0.0007461703303635545,-0.023181236725942318,0.09824668230995855,68.18063240997792,-96.25519929585457,76.200527287817
2024-09-23 19:41:30.085739,42.15,46.73672,0.0007461703303635545,-0.023181236725942318,0.09824668230995855,68.18063240997792,-96.25519929585457,76.200527287817
2024-09-23 19:41:30.117602,42.15,46.73672,0.0009948937421727254,-0.0225345536717095,0.09824668230995855,68.18063240997792,-96.25519929585457,76.200527287817
2024-09-23 19:41:30.129824,42.15,46.73672,0.0009948937421727254,-0.0225345536717095,0.09755024973162574,92.24360919585227,-88.23529758782387,76.200527287817
2024-09-23 19:41:30.173187,42.15,46.736771,0.0005471957306340564,-0.02367869399252531,0.0970030596496862,48.12595698684454,-84.22370748782159,76.200527287817
2024-09-23 19:41:30.215897,42.15,46.736867,0.0009948937421727254,-0.02367869399252531,0.0970030596496862,48.12595698684454,-84.22370748782159,84.22370748782159
2024-09-23 19:41:30.227730,42.15,46.736867,0.0009948937421727254,-0.0228827638849692,0.0970030596496862,48.12595698684454,-84.22370748782159,84.22370748782159
2024-09-23 19:41:30.270609,42.15,46.736918,0.0007461703303635545,-0.0228827638849692,0.09635636444363997,56.14914060194492,-96.25519929585457,76.200527287817
2024-09-23 19:41:30.314104,42.15,46.736918,0.0007461703303635545,-0.02338022115155219,0.09650560086412653,24.06297849342227,-96.25519929585457,76.200527287817
2024-09-23 19:41:30.325709,42.15,46.736969,0.0007461703303635545,-0.02338022115155219,0.09650560086412653,24.06297849342227,-88.23529758782387,80.21211738781929
2024-09-23 19:41:30.369326,42.15,46.736969,0.000845657606494293,-0.023230986250042305,0.0973512698629459,28.07457030097246,-96.25519929585457,76.200527287817
2024-09-23 19:41:30.412294,42.15,46.73702,0.000845657606494293,-0.023230986250042305,0.0973512698629459,28.07457030097246,-96.25519929585457,76.200527287817
2024-09-23 19:41:30.465684,42.15,46.73702,0.0011938787373988514,-0.023181236725942318,0.09695331012558621,52.137550501942634,-100.26678939585686,76.200527287817
2024-09-23 19:41:30.508591,42.15,46.73711,0.00024872343554318134,-0.023181236725942318,0.09695331012558621,52.137550501942634,-100.26678939585686,76.200527287817
2024-09-23 19:41:30.520625,42.15,46.73711,0.00024872343554318134,-0.023280723622328886,0.09710254654607277,40.106058693909645,-100.26678939585686,76.200527287817
2024-09-23 19:41:30.554475,42.15,46.73711,0.00024872343554318134,-0.023280723622328886,0.09710254654607277,40.106058693909645,-96.25519929585457,76.200527287817
2024-09-23 19:41:30.566062,42.15,46.737161,0.0008954064660419869,-0.023330473146428877,0.09715228999426605,40.106058693909645,-96.25519929585457,80.21211738781929
2024-09-23 19:41:30.608443,42.15,46.737161,0.0008954064660419869,-0.023330473146428877,0.09715228999426605,40.106058693909645,-96.25519929585457,80.21211738781929
2024-09-23 19:41:30.661620,41.82,46.737212,0.0010943914612681128,-0.02352945757203875,0.0970030596496862,40.106058693909645,-96.25519929585457,76.200527287817
2024-09-23 19:41:30.705605,41.82,46.737263,0.0010943914612681128,-0.02352945757203875,0.0970030596496862,40.106058693909645,-96.25519929585457,76.200527287817
2024-09-23 19:41:30.717324,41.82,46.737263,0.000845657606494293,-0.023230986250042305,0.0970030596496862,40.106058693909645,-96.25519929585457,76.200527287817
2024-09-23 19:41:30.750081,41.82,46.737263,0.000845657606494293,-0.023230986250042305,0.0976994861521123,40.106058693909645,-96.25519929585457,76.200527287817
2024-09-23 19:41:30.761816,41.82,46.737356,0.0006964318663124887,-0.023230986250042305,0.0976994861521123,48.12595698684454,-96.25519929585457,76.200527287817
2024-09-23 19:41:30.804322,41.82,46.737356,0.0006964318663124887,-0.023230986250042305,0.09715228999426605,20.05138839341998,-92.24360919585227,76.200527287817
2024-09-23 19:41:30.847816,41.82,46.737356,0.0006964318663124887,-0.023230986250042305,0.09715228999426605,20.05138839341998,-92.24360919585227,76.200527287817
2024-09-23 19:41:30.859564,41.82,46.737452,0.0008954064660419869,-0.023927417309398437,0.09794820946898543,32.08287849390507,-92.24360919585227,76.200527287817
2024-09-23 19:41:30.902144,41.82,46.737549,0.00044769805900669,-0.023181236725942318,0.09794820946898543,32.08287849390507,-100.26678939585686,72.1922225099802
2024-09-23 19:41:30.914129,41.82,46.737549,0.00044769805900669,-0.023181236725942318,0.09720203344245934,32.08287849390507,-100.26678939585686,72.1922225099802
2024-09-23 19:41:30.946388,41.82,46.737549,0.00044769805900669,-0.023181236725942318,0.09720203344245934,44.11764879391193,-104.27510100388527,72.1922225099802
2024-09-23 19:41:30.998768,41.82,46.737601,0.0009451553255896806,-0.023877669304275123,0.09720203344245934,44.11764879391193,-104.27510100388527,72.1922225099802
2024-09-23 19:41:31.010161,41.82,46.737601,0.0009451553255896806,-0.023877669304275123,0.09720203344245934,32.08287849390507,-104.27510100388527,72.1922225099802
2024-09-23 19:41:31.093763,41.82,46.737651,0.0009451553255896806,-0.023877669304275123,0.09720203344245934,32.08287849390507,-104.27510100388527,72.1922225099802
2024-09-23 19:41:31.105481,41.82,46.737651,0.00034821073540793035,-0.02338022115155219,0.09715228999426605,32.08287849390507,-104.27510100388527,72.1922225099802
2024-09-23 19:41:31.149037,41.82,46.737702,0.00044769805900669,-0.023479709566915436,0.09715228999426605,32.08287849390507,-96.25519929585457,72.1922225099802
2024-09-23 19:41:31.191131,41.82,46.737702,0.00044769805900669,-0.023479709566915436,0.09710254654607277,44.11764879391193,-96.25519929585457,72.1922225099802
2024-09-23 19:41:31.202984,41.82,46.737793,0.0015420998683034098,-0.023479709566915436,0.09710254654607277,44.11764879391193,-96.25519929585457,76.200527287817
2024-09-23 19:41:31.246040,41.82,46.737844,0.0015420998683034098,-0.0224350561424862,0.09814718933766527,20.05138839341998,-100.26678939585686,80.21211738781929
2024-09-23 19:41:31.288717,41.82,46.737844,0.0013928637326249774,-0.02313149783467906,0.09759999317981902,20.05138839341998,-100.26678939585686,80.21211738781929
2024-09-23 19:41:31.299849,41.82,46.737844,0.0013928637326249774,-0.02313149783467906,0.09759999317981902,48.12595698684454,-92.24360919585227,80.21211738781929
2024-09-23 19:41:31.343088,41.82,46.737988,0.0010943914612681128,-0.022982261414192504,0.09764974270391902,48.12595698684454,-92.24360919585227,80.21211738781929
2024-09-23 19:41:31.387027,41.82,46.738039,0.0007461703303635545,-0.022982261414192504,0.09764974270391902,48.12595698684454,-92.24360919585227,80.21211738781929
2024-09-23 19:41:31.398064,41.82,46.738039,0.0007461703303635545,-0.023330473146428877,0.09720203344245934,40.106058693909645,-92.24360919585227,80.21211738781929
2024-09-23 19:41:31.441339,41.82,46.73809,0.001044642601720419,-0.023728432883788564,0.0973015264147526,40.106058693909645,-92.24360919585227,84.22370748782159
2024-09-23 19:41:31.483294,41.82,46.73809,0.001044642601720419,-0.023728432883788564,0.0973015264147526,40.106058693909645,-96.25519929585457,84.22370748782159
2024-09-23 19:41:31.495272,41.82,46.738141,0.0007461703303635545,-0.023429960042815445,0.0973015264147526,40.106058693909645,-96.25519929585457,84.22370748782159
2024-09-23 19:41:31.538167,41.82,46.738191,0.0004974468710863627,-0.023429960042815445,0.09695331012558621,40.106058693909645,-100.26678939585686,80.21211738781929
2024-09-23 19:41:31.580931,41.82,46.738191,0.0004974468710863627,-0.022833026512682618,0.09705279702197278,36.09446859390736,-100.26678939585686,80.21211738781929
2024-09-23 19:41:31.592007,41.82,46.73828,0.0004974468710863627,-0.022833026512682618,0.09705279702197278,36.09446859390736,-100.26678939585686,80.21211738781929
2024-09-23 19:41:31.636056,41.82,46.73828,0.0009948937421727254,-0.022833026512682618,0.09705279702197278,36.09446859390736,-100.26678939585686,80.21211738781929
2024-09-23 19:41:31.678974,41.05,46.73828,0.0009948937421727254,-0.023280723622328886,0.0976994861521123,48.12595698684454,-100.26678939585686,80.21211738781929
2024-09-23 19:41:31.690515,41.05,46.738332,0.0009948937421727254,-0.023280723622328886,0.0976994861521123,48.12595698684454,-96.25519929585457,76.200527287817
2024-09-23 19:41:31.733056,41.05,46.738332,0.0003979595949556242,-0.02362894446842532,0.09755024973162574,32.08287849390507,-96.25519929585457,76.200527287817
2024-09-23 19:41:31.777673,41.05,46.738382,0.0009948937421727254,-0.023280723622328886,0.09715228999426605,32.08287849390507,-96.25519929585457,76.200527287817
2024-09-23 19:41:31.788657,41.05,46.738382,0.0009948937421727254,-0.023280723622328886,0.09715228999426605,36.09446859390736,-88.23529758782387,76.200527287817
2024-09-23 19:41:31.831303,41.05,46.738433,0.0005471957306340564,-0.02308174982955575,0.09784872257259886,52.137550501942634,-88.23529758782387,72.1922225099802
2024-09-23 19:41:31.874172,41.05,46.738483,0.0005471957306340564,-0.02308174982955575,0.09784872257259886,52.137550501942634,-96.25519929585457,76.200527287817
2024-09-23 19:41:31.885446,41.05,46.738483,0.0001989745997294981,-0.023181236725942318,0.09750050628343246,52.137550501942634,-96.25519929585457,76.200527287817
2024-09-23 19:41:31.928221,41.05,46.738575,0.001044642601720419,-0.0228827638849692,0.09750050628343246,44.11764879391193,-96.25519929585457,80.21211738781929
2024-09-23 19:41:31.970145,41.05,46.738575,0.001044642601720419,-0.0228827638849692,0.09725178296655933,44.11764879391193,-96.25519929585457,80.21211738781929
2024-09-23 19:41:31.981079,41.05,46.738625,0.0011441298778511575,-0.0228827638849692,0.09725178296655933,44.11764879391193,-88.23529758782387,76.200527287817
2024-09-23 19:41:32.025652,41.05,46.738719,0.0011441298778511575,-0.023429960042815445,0.09759999317981902,32.08287849390507,-100.26678939585686,76.200527287817
2024-09-23 19:41:32.068018,41.05,46.738719,0.0007959191899112484,-0.023429960042815445,0.09759999317981902,32.08287849390507,-100.26678939585686,76.200527287817
2024-09-23 19:41:32.120265,41.05,46.738719,0.0007959191899112484,-0.023330473146428877,0.0973015264147526,48.12595698684454,-96.25519929585457,76.200527287817
2024-09-23 19:41:32.131413,41.05,46.73877,0.0007959191899112484,-0.023330473146428877,0.0973015264147526,48.12595698684454,-96.25519929585457,72.1922225099802
2024-09-23 19:41:32.163868,41.05,46.73877,0.000845657606494293,-0.023330473146428877,0.0973015264147526,48.12595698684454,-96.25519929585457,72.1922225099802
2024-09-23 19:41:32.175748,41.05,46.73877,0.000845657606494293,-0.02362894446842532,0.09764974270391902,56.14914060194492,-92.24360919585227,68.18063240997792
2024-09-23 19:41:32.218241,41.05,46.738821,0.0006964318663124887,-0.023579196463302005,0.0973512698629459,56.14914060194492,-92.24360919585227,68.18063240997792
2024-09-23 19:41:32.229369,41.05,46.738821,0.0006964318663124887,-0.023579196463302005,0.0973512698629459,48.12595698684454,-96.25519929585457,68.18063240997792
2024-09-23 19:41:32.262513,41.05,46.738872,0.0006964318663124887,-0.023579196463302005,0.0973512698629459,48.12595698684454,-96.25519929585457,76.200527287817
2024-09-23 19:41:32.273684,41.05,46.738872,0.0009948937421727254,-0.02338022115155219,0.09705279702197278,44.11764879391193,-96.25519929585457,76.200527287817
2024-09-23 19:41:32.315806,41.05,46.738922,0.0009451553255896806,-0.02238531725122294,0.09705279702197278,44.11764879391193,-92.24360919585227,76.200527287817
2024-09-23 19:41:32.327507,41.05,46.738922,0.0009451553255896806,-0.02238531725122294,0.09705279702197278,44.11764879391193,-92.24360919585227,76.200527287817
2024-09-23 19:41:32.359492,41.05,46.738922,0.0009451553255896806,-0.02238531725122294,0.09705279702197278,44.11764879391193,-88.23529758782387,76.200527287817
2024-09-23 19:41:32.371243,41.05,46.739013,0.00034821073540793035,-0.023230986250042305,0.09705279702197278,44.11764879391193,-88.23529758782387,76.200527287817
2024-09-23 19:41:32.414447,41.05,46.739064,0.0011938787373988514,-0.023230986250042305,0.09675432418099966,40.106058693909645,-96.25519929585457,76.200527287817
2024-09-23 19:41:32.457637,41.05,46.739064,0.0011938787373988514,-0.022733528983459317,0.09690356060148622,40.106058693909645,-96.25519929585457,76.200527287817
2024-09-23 19:41:32.468629,41.05,46.739157,0.0011938787373988514,-0.022733528983459317,0.09690356060148622,36.09446859390736,-92.24360919585227,72.1922225099802
2024-09-23 19:41:32.512080,41.05,46.739157,0.0006964318663124887,-0.02352945757203875,0.09779897304849887,36.09446859390736,-84.22370748782159,80.21211738781929
2024-09-23 19:41:32.555017,41.05,46.739209,0.0012436275969465451,-0.02352945757203875,0.09779897304849887,36.09446859390736,-84.22370748782159,80.21211738781929
2024-09-23 19:41:32.566722,41.05,46.739209,0.0012436275969465451,-0.023280723622328886,0.09725178296655933,44.11764879391193,-88.23529758782387,80.21211738781929
2024-09-23 19:41:32.608509,41.05,46.73926,0.0012933660135295898,-0.023280723622328886,0.09725178296655933,44.11764879391193,-88.23529758782387,80.21211738781929
2024-09-23 19:41:32.650803,41.05,46.73926,0.0012933660135295898,-0.02338022115155219,0.09725178296655933,44.11764879391193,-88.23529758782387,80.21211738781929
2024-09-23 19:41:32.704370,41.02,46.73926,0.0012933660135295898,-0.02338022115155219,0.0970030596496862,24.06297849342227,-88.23529758782387,84.22370748782159
2024-09-23 19:41:32.716128,41.02,46.73931,0.0012436275969465451,-0.02338022115155219,0.0970030596496862,24.06297849342227,-88.23529758782387,84.22370748782159
2024-09-23 19:41:32.749449,41.02,46.73931,0.0012436275969465451,-0.022982261414192504,0.0970030596496862,24.06297849342227,-88.23529758782387,84.22370748782159
2024-09-23 19:41:32.761061,41.02,46.739361,0.0012436275969465451,-0.022982261414192504,0.09750050628343246,24.06297849342227,-92.24360919585227,80.21211738781929
2024-09-23 19:41:32.803676,41.02,46.739361,0.0011441298778511575,-0.023230986250042305,0.09720203344245934,40.106058693909645,-96.25519929585457,80.21211738781929
2024-09-23 19:41:32.815091,41.02,46.739361,0.0011441298778511575,-0.023230986250042305,0.09720203344245934,40.106058693909645,-96.25519929585457,80.21211738781929
2024-09-23 19:41:32.847136,41.02,46.739412,0.0003979595949556242,-0.023230986250042305,0.09720203344245934,40.106058693909645,-96.25519929585457,80.21211738781929
2024-09-23 19:41:32.858481,41.02,46.739412,0.0003979595949556242,-0.023330473146428877,0.09715228999426605,36.09446859390736,-92.24360919585227,80.21211738781929
2024-09-23 19:41:32.902019,41.02,46.739499,0.0006964318663124887,-0.02293251340906919,0.09715228999426605,36.09446859390736,-92.24360919585227,76.200527287817
2024-09-23 19:41:32.913811,41.02,46.739499,0.0006964318663124887,-0.02293251340906919,0.09715228999426605,36.09446859390736,-92.24360919585227,76.200527287817
2024-09-23 19:41:32.945982,41.02,46.739598,0.0006964318663124887,-0.02293251340906919,0.09715228999426605,36.09446859390736,-96.25519929585457,72.1922225099802
2024-09-23 19:41:32.957193,41.02,46.739598,0.0007461703303635545,-0.02367869399252531,0.09745075675933246,36.09446859390736,-96.25519929585457,72.1922225099802
2024-09-23 19:41:33.001101,41.02,46.739649,0.00044769805900669,-0.02352945757203875,0.09745075675933246,36.09446859390736,-92.24360919585227,84.22370748782159
2024-09-23 19:41:33.044057,41.02,46.739649,0.00044769805900669,-0.02352945757203875,0.09725178296655933,40.106058693909645,-100.26678939585686,84.22370748782159
2024-09-23 19:41:33.055808,41.02,46.739699,0.0005471957306340564,-0.02352945757203875,0.09725178296655933,40.106058693909645,-100.26678939585686,80.21211738781929
2024-09-23 19:41:33.098738,41.02,46.739791,0.0005471957306340564,-0.023280723622328886,0.09705279702197278,44.11764879391193,-96.25519929585457,80.21211738781929
2024-09-23 19:41:33.141175,41.02,46.739791,0.0009451553255896806,-0.022982261414192504,0.0973015264147526,44.11764879391193,-96.25519929585457,80.21211738781929
2024-09-23 19:41:33.152972,41.02,46.739791,0.0009451553255896806,-0.022982261414192504,0.0973015264147526,48.12595698684454,-88.23529758782387,84.22370748782159
2024-09-23 19:41:33.195569,41.02,46.739843,0.0007959191899112484,-0.023579196463302005,0.0976994861521123,40.106058693909645,-92.24360919585227,84.22370748782159
2024-09-23 19:41:33.239003,41.02,46.739893,0.0011441298778511575,-0.023579196463302005,0.0976994861521123,40.106058693909645,-92.24360919585227,80.21211738781929
2024-09-23 19:41:33.250539,41.02,46.739893,0.0011441298778511575,-0.023230986250042305,0.09789846602079214,32.08287849390507,-92.24360919585227,80.21211738781929
2024-09-23 19:41:33.293702,41.02,46.739944,0.0008954064660419869,-0.02338022115155219,0.09740101331113918,32.08287849390507,-96.25519929585457,76.200527287817
2024-09-23 19:41:33.335884,41.02,46.739944,0.0008954064660419869,-0.02338022115155219,0.09740101331113918,44.11764879391193,-96.25519929585457,76.200527287817
2024-09-23 19:41:33.347799,41.02,46.739995,0.0006964318663124887,-0.023230986250042305,0.09740101331113918,44.11764879391193,-96.25519929585457,76.200527287817
2024-09-23 19:41:33.390842,41.02,46.740046,0.0006964318663124887,-0.023230986250042305,0.09750050628343246,40.106058693909645,-96.25519929585457,84.22370748782159
2024-09-23 19:41:33.402529,41.02,46.740046,0.00044769805900669,-0.023230986250042305,0.09750050628343246,40.106058693909645,-96.25519929585457,84.22370748782159
2024-09-23 19:41:33.434341,41.02,46.740046,0.00044769805900669,-0.023579196463302005,0.09720203344245934,36.09446859390736,-96.25519929585457,84.22370748782159
2024-09-23 19:41:33.445826,41.02,46.740132,0.00044769805900669,-0.023579196463302005,0.09720203344245934,36.09446859390736,-96.25519929585457,84.22370748782159
2024-09-23 19:41:33.489187,41.02,46.740132,0.0009451553255896806,-0.02293251340906919,0.09715228999426605,20.05138839341998,-100.26678939585686,92.24360919585227
2024-09-23 19:41:33.532275,41.02,46.740184,0.0009451553255896806,-0.023927417309398437,0.09759999317981902,20.05138839341998,-100.26678939585686,92.24360919585227
2024-09-23 19:41:33.543922,41.02,46.740184,0.0009451553255896806,-0.023927417309398437,0.09759999317981902,48.12595698684454,-84.22370748782159,92.24360919585227
2024-09-23 19:41:33.586746,41.02,46.740235,0.0010943914612681128,-0.023728432883788564,0.09755024973162574,48.12595698684454,-84.22370748782159,72.1922225099802
2024-09-23 19:41:33.628600,41.02,46.740285,0.0010943914612681128,-0.023728432883788564,0.09755024973162574,48.12595698684454,-84.22370748782159,72.1922225099802
2024-09-23 19:41:33.640932,41.02,46.740285,0.0011441298778511575,-0.02278327698858263,0.09774922960030558,48.12595698684454,-84.22370748782159,72.1922225099802
2024-09-23 19:41:33.673748,41.02,46.740285,0.0011441298778511575,-0.02278327698858263,0.09774922960030558,44.11764879391193,-84.22370748782159,72.1922225099802
2024-09-23 19:41:33.726448,40.85,46.740336,0.0011441298778511575,-0.02278327698858263,0.09774922960030558,44.11764879391193,-88.23529758782387,84.22370748782159
2024-09-23 19:41:33.738062,40.85,46.740336,0.0007461703303635545,-0.022733528983459317,0.09720203344245934,44.11764879391193,-88.23529758782387,84.22370748782159
2024-09-23 19:41:33.781442,40.85,46.740387,0.000845657606494293,-0.02338022115155219,0.09720203344245934,36.09446859390736,-96.25519929585457,72.1922225099802
2024-09-23 19:41:33.824415,40.85,46.740387,0.000845657606494293,-0.02338022115155219,0.09720203344245934,60.15744537978172,-96.25519929585457,72.1922225099802
2024-09-23 19:41:33.835947,40.85,46.740474,0.0003979595949556242,-0.02338022115155219,0.09720203344245934,60.15744537978172,-92.24360919585227,72.1922225099802
2024-09-23 19:41:33.879466,40.85,46.740525,0.0003979595949556242,-0.023330473146428877,0.0973512698629459,60.15744537978172,-88.23529758782387,76.200527287817
2024-09-23 19:41:33.923302,40.85,46.740525,0.0007461703303635545,-0.022982261414192504,0.09705279702197278,56.14914060194492,-88.23529758782387,76.200527287817
2024-09-23 19:41:33.935151,40.85,46.740525,0.0007461703303635545,-0.022982261414192504,0.09705279702197278,56.14914060194492,-92.24360919585227,68.18063240997792
2024-09-23 19:41:33.966793,40.85,46.740621,0.0007461703303635545,-0.022982261414192504,0.09705279702197278,56.14914060194492,-92.24360919585227,68.18063240997792
2024-09-23 19:41:33.978093,40.85,46.740621,0.0010943914612681128,-0.023479709566915436,0.09740101331113918,36.09446859390736,-92.24360919585227,68.18063240997792
2024-09-23 19:41:34.021176,40.85,46.740672,0.0005471957306340564,-0.02313149783467906,0.09740101331113918,36.09446859390736,-92.24360919585227,80.21211738781929
2024-09-23 19:41:34.032710,40.85,46.740672,0.0005471957306340564,-0.02313149783467906,0.09799795899308542,40.106058693909645,-92.24360919585227,80.21211738781929
2024-09-23 19:41:34.066352,40.85,46.740672,0.0005471957306340564,-0.02313149783467906,0.09799795899308542,40.106058693909645,-92.24360919585227,68.18063240997792
2024-09-23 19:41:34.078219,40.85,46.740723,0.0007461703303635545,-0.02313149783467906,0.09725178296655933,40.106058693909645,-92.24360919585227,68.18063240997792
2024-09-23 19:41:34.120850,40.85,46.740773,0.0012933660135295898,-0.023579196463302005,0.09725178296655933,44.11764879391193,-92.24360919585227,84.22370748782159
2024-09-23 19:41:34.163399,40.85,46.740773,0.0012933660135295898,-0.023579196463302005,0.09779897304849887,56.14914060194492,-92.24360919585227,84.22370748782159
2024-09-23 19:41:34.175007,40.85,46.740824,0.0013431148730772837,-0.023579196463302005,0.09779897304849887,56.14914060194492,-92.24360919585227,72.1922225099802
2024-09-23 19:41:34.217463,40.85,46.740824,0.0013431148730772837,-0.0228827638849692,0.09715228999426605,32.08287849390507,-104.27510100388527,80.21211738781929
2024-09-23 19:41:34.229688,40.85,46.740912,0.0013431148730772837,-0.0228827638849692,0.09715228999426605,32.08287849390507,-104.27510100388527,80.21211738781929
2024-09-23 19:41:34.261274,40.85,46.740912,0.0006466830067647949,-0.02303200030545576,0.09715228999426605,32.08287849390507,-104.27510100388527,80.21211738781929
2024-09-23 19:41:34.272460,40.85,46.740912,0.0006466830067647949,-0.02303200030545576,0.09794820946898543,56.14914060194492,-92.24360919585227,68.18063240997792
2024-09-23 19:41:34.316017,40.85,46.740964,0.001044642601720419,-0.023429960042815445,0.09745075675933246,24.06297849342227,-92.24360919585227,68.18063240997792
2024-09-23 19:41:34.327743,40.85,46.740964,0.001044642601720419,-0.023429960042815445,0.09745075675933246,24.06297849342227,-96.25519929585457,68.18063240997792
2024-09-23 19:41:34.361059,40.85,46.741015,0.0004974468710863627,-0.023429960042815445,0.09745075675933246,24.06297849342227,-96.25519929585457,80.21211738781929
2024-09-23 19:41:34.372398,40.85,46.741015,0.0004974468710863627,-0.02338022115155219,0.09819693278585856,52.137550501942634,-96.25519929585457,80.21211738781929
2024-09-23 19:41:34.415282,40.85,46.741065,0.0009451553255896806,-0.023479709566915436,0.09630662707135339,52.137550501942634,-92.24360919585227,64.16903547978401
2024-09-23 19:41:34.458488,40.85,46.741065,0.0009451553255896806,-0.023479709566915436,0.09630662707135339,56.14914060194492,-96.25519929585457,76.200527287817
2024-09-23 19:41:34.469714,40.85,46.741116,0.0007959191899112484,-0.02308174982955575,0.09630662707135339,56.14914060194492,-96.25519929585457,76.200527287817
2024-09-23 19:41:34.513114,40.85,46.741167,0.000845657606494293,-0.02308174982955575,0.0973015264147526,52.137550501942634,-96.25519929585457,76.200527287817
2024-09-23 19:41:34.554779,40.85,46.741167,0.000845657606494293,-0.02303200030545576,0.09745075675933246,32.08287849390507,-96.25519929585457,76.200527287817
2024-09-23 19:41:34.566044,40.85,46.741254,0.000845657606494293,-0.02303200030545576,0.09745075675933246,32.08287849390507,-88.23529758782387,84.22370748782159
2024-09-23 19:41:34.609457,40.85,46.741254,0.0011938787373988514,-0.0225345536717095,0.0973015264147526,32.08287849390507,-92.24360919585227,88.23529758782387
2024-09-23 19:41:34.651372,40.85,46.741305,0.000845657606494293,-0.0225345536717095,0.0973015264147526,32.08287849390507,-92.24360919585227,88.23529758782387
2024-09-23 19:41:34.663207,40.85,46.741305,0.000845657606494293,-0.023429960042815445,0.09750050628343246,36.09446859390736,-88.23529758782387,88.23529758782387
2024-09-23 19:41:34.706616,40.85,46.741356,0.0009451553255896806,-0.02308174982955575,0.0973512698629459,48.12595698684454,-88.23529758782387,76.200527287817
2024-09-23 19:41:34.748824,40.67,46.741356,0.0009451553255896806,-0.02308174982955575,0.0973512698629459,48.12595698684454,-84.22370748782159,72.1922225099802
2024-09-23 19:41:34.759883,40.67,46.741407,0.0011441298778511575,-0.023778180888911878,0.09750050628343246,48.12595698684454,-84.22370748782159,72.1922225099802
2024-09-23 19:41:34.802118,40.67,46.741458,0.0011441298778511575,-0.023778180888911878,0.09750050628343246,52.137550501942634,-96.25519929585457,76.200527287817
2024-09-23 19:41:34.814717,40.67,46.741458,0.0007959191899112484,-0.023778180888911878,0.09750050628343246,52.137550501942634,-96.25519929585457,76.200527287817
2024-09-23 19:41:34.846549,40.67,46.741458,0.0007959191899112484,-0.023778180888911878,0.09720203344245934,44.11764879391193,-96.25519929585457,76.200527287817
2024-09-23 19:41:34.857601,40.67,46.741508,0.0009948937421727254,-0.023778180888911878,0.09720203344245934,44.11764879391193,-92.24360919585227,88.23529758782387
2024-09-23 19:41:34.900174,40.67,46.741508,0.0009948937421727254,-0.023181236725942318,0.09715228999426605,28.07457030097246,-96.25519929585457,96.25519929585457
2024-09-23 19:41:34.912073,40.67,46.741595,0.0009948937421727254,-0.023181236725942318,0.09715228999426605,28.07457030097246,-96.25519929585457,96.25519929585457
2024-09-23 19:41:34.945416,40.67,46.741595,0.0013928637326249774,-0.022982261414192504,0.09745075675933246,28.07457030097246,-96.25519929585457,96.25519929585457
2024-09-23 19:41:34.957100,40.67,46.741595,0.0013928637326249774,-0.022982261414192504,0.09745075675933246,36.09446859390736,-96.25519929585457,76.200527287817
2024-09-23 19:41:35.000479,40.67,46.741647,0.0008954064660419869,-0.0228827638849692,0.09750050628343246,36.09446859390736,-88.23529758782387,76.200527287817
2024-09-23 19:41:35.042881,40.67,46.741697,0.0007959191899112484,-0.0228827638849692,0.09750050628343246,36.09446859390736,-88.23529758782387,76.200527287817
2024-09-23 19:41:35.054421,40.67,46.741697,0.0007959191899112484,-0.0228827638849692,0.09720203344245934,44.11764879391193,-88.23529758782387,76.200527287817
2024-09-23 19:41:35.096944,40.67,46.741748,0.0007461703303635545,-0.02367869399252531,0.09715228999426605,44.11764879391193,-92.24360919585227,76.200527287817
2024-09-23 19:41:35.139807,40.67,46.741748,0.0007461703303635545,-0.02367869399252531,0.09715228999426605,40.106058693909645,-96.25519929585457,72.1922225099802
2024-09-23 19:41:35.151481,40.67,46.741799,0.0007461703303635545,-0.02352945757203875,0.09715228999426605,40.106058693909645,-96.25519929585457,72.1922225099802
2024-09-23 19:41:35.194632,40.67,46.741849,0.001044642601720419,-0.02352945757203875,0.09750050628343246,36.09446859390736,-88.23529758782387,72.1922225099802
2024-09-23 19:41:35.237774,40.67,46.741849,0.001044642601720419,-0.02338022115155219,0.09764974270391902,44.11764879391193,-88.23529758782387,72.1922225099802
2024-09-23 19:41:35.249412,40.67,46.741936,0.001044642601720419,-0.02338022115155219,0.09764974270391902,44.11764879391193,-100.26678939585686,76.200527287817
2024-09-23 19:41:35.294189,40.67,46.741936,0.0010943914612681128,-0.022982261414192504,0.09710254654607277,36.09446859390736,-104.27510100388527,84.22370748782159
2024-09-23 19:41:35.337974,40.67,46.741988,0.0009451553255896806,-0.023330473146428877,0.0973015264147526,56.14914060194492,-104.27510100388527,84.22370748782159
2024-09-23 19:41:35.349991,40.67,46.741988,0.0009451553255896806,-0.023330473146428877,0.0973015264147526,56.14914060194492,-88.23529758782387,84.22370748782159
2024-09-23 19:41:35.382745,40.67,46.742038,0.0009451553255896806,-0.023330473146428877,0.0973015264147526,56.14914060194492,-88.23529758782387,60.15744537978172
2024-09-23 19:41:35.394424,40.67,46.742038,0.0003979595949556242,-0.02278327698858263,0.09759999317981902,36.09446859390736,-88.23529758782387,60.15744537978172
2024-09-23 19:41:35.436029,40.67,46.742089,0.000845657606494293,-0.023230986250042305,0.09759999317981902,36.09446859390736,-96.25519929585457,72.1922225099802
2024-09-23 19:41:35.448226,40.67,46.742089,0.000845657606494293,-0.023230986250042305,0.09720203344245934,36.09446859390736,-96.25519929585457,72.1922225099802
2024-09-23 19:41:35.480187,40.67,46.742089,0.000845657606494293,-0.023230986250042305,0.09720203344245934,32.08287849390507,-96.25519929585457,72.1922225099802
2024-09-23 19:41:35.491551,40.67,46.74214,0.0004974468710863627,-0.02293251340906919,0.09720203344245934,32.08287849390507,-96.25519929585457,80.21211738781929
2024-09-23 19:41:35.533984,40.67,46.74219,0.0004974468710863627,-0.02293251340906919,0.09779897304849887,68.18063240997792,-92.24360919585227,68.18063240997792
2024-09-23 19:41:35.545697,40.67,46.74219,0.0004974468710863627,-0.02293251340906919,0.09779897304849887,68.18063240997792,-92.24360919585227,68.18063240997792
2024-09-23 19:41:35.578043,40.67,46.74219,0.0004974468710863627,-0.02308174982955575,0.0976994861521123,68.18063240997792,-92.24360919585227,68.18063240997792
2024-09-23 19:41:35.589110,40.67,46.742277,0.0004974468710863627,-0.02308174982955575,0.0976994861521123,28.07457030097246,-104.27510100388527,80.21211738781929
2024-09-23 19:41:35.631982,40.67,46.742277,0.001044642601720419,-0.024076653729884996,0.09779897304849887,56.14914060194492,-92.24360919585227,80.21211738781929
2024-09-23 19:41:35.643737,40.67,46.742277,0.001044642601720419,-0.024076653729884996,0.09779897304849887,56.14914060194492,-92.24360919585227,76.200527287817
2024-09-23 19:41:35.675291,40.67,46.742329,0.001044642601720419,-0.024076653729884996,0.09779897304849887,56.14914060194492,-92.24360919585227,76.200527287817
2024-09-23 19:41:35.687503,40.67,46.742329,0.001044642601720419,-0.023429960042815445,0.0966050877605131,48.12595698684454,-96.25519929585457,76.200527287817
2024-09-23 19:41:35.730700,40.67,46.74238,0.0011938787373988514,-0.0228827638849692,0.09750050628343246,40.106058693909645,-96.25519929585457,76.200527287817
2024-09-23 19:41:35.772998,40.94,46.74238,0.0011938787373988514,-0.0228827638849692,0.09750050628343246,40.106058693909645,-88.23529758782387,80.21211738781929
2024-09-23 19:41:35.784873,40.94,46.74243,0.0009451553255896806,-0.02338022115155219,0.0973512698629459,40.106058693909645,-88.23529758782387,80.21211738781929
2024-09-23 19:41:35.828391,40.94,46.742481,0.0012436275969465451,-0.02308174982955575,0.0973512698629459,40.106058693909645,-88.23529758782387,84.22370748782159
2024-09-23 19:41:35.871236,40.94,46.742481,0.0012436275969465451,-0.02308174982955575,0.09725178296655933,64.16903547978401,-92.24360919585227,84.22370748782159
2024-09-23 19:41:35.882787,40.94,46.742532,0.0010943914612681128,-0.02308174982955575,0.09725178296655933,64.16903547978401,-92.24360919585227,68.18063240997792
2024-09-23 19:41:35.925843,40.94,46.742619,0.0010943914612681128,-0.023728432883788564,0.09715228999426605,60.15744537978172,-92.24360919585227,68.18063240997792
2024-09-23 19:41:35.969951,40.94,46.742619,0.0013928637326249774,-0.022982261414192504,0.09779897304849887,60.15744537978172,-92.24360919585227,68.18063240997792
2024-09-23 19:41:35.982498,40.94,46.742619,0.0013928637326249774,-0.022982261414192504,0.09779897304849887,60.15744537978172,-92.24360919585227,68.18063240997792
2024-09-23 19:41:36.014328,40.94,46.74267,0.0013928637326249774,-0.022982261414192504,0.09779897304849887,60.15744537978172,-92.24360919585227,68.18063240997792
2024-09-23 19:41:36.025671,40.94,46.74267,0.0012436275969465451,-0.02313149783467906,0.09755024973162574,32.08287849390507,-100.26678939585686,68.18063240997792
2024-09-23 19:41:36.068539,40.94,46.742721,0.0009948937421727254,-0.0228827638849692,0.09755024973162574,32.08287849390507,-100.26678939585686,84.22370748782159
2024-09-23 19:41:36.080088,40.94,46.742721,0.0009948937421727254,-0.0228827638849692,0.0973512698629459,20.05138839341998,-100.26678939585686,84.22370748782159
2024-09-23 19:41:36.113131,40.94,46.742721,0.0009948937421727254,-0.0228827638849692,0.0973512698629459,20.05138839341998,-100.26678939585686,84.22370748782159
2024-09-23 19:41:36.125223,40.94,46.742772,0.0007461703303635545,-0.02313149783467906,0.09690356060148622,20.05138839341998,-100.26678939585686,92.24360919585227
2024-09-23 19:41:36.168483,40.94,46.742822,0.0005969341946851222,-0.02233556924609963,0.09690356060148622,44.11764879391193,-92.24360919585227,76.200527287817
2024-09-23 19:41:36.210776,40.94,46.742822,0.0005969341946851222,-0.02233556924609963,0.0970030596496862,56.14914060194492,-92.24360919585227,76.200527287817
2024-09-23 19:41:36.222376,40.94,46.742873,0.0005969341946851222,-0.02233556924609963,0.0970030596496862,56.14914060194492,-92.24360919585227,72.1922225099802
2024-09-23 19:41:36.265040,40.94,46.742873,0.0005969341946851222,-0.02308174982955575,0.09740101331113918,40.106058693909645,-88.23529758782387,76.200527287817
2024-09-23 19:41:36.277234,40.94,46.74296,0.0005969341946851222,-0.02308174982955575,0.09740101331113918,40.106058693909645,-88.23529758782387,76.200527287817
2024-09-23 19:41:36.308898,40.94,46.74296,0.0007461703303635545,-0.02303200030545576,0.09740101331113918,40.106058693909645,-88.23529758782387,76.200527287817
2024-09-23 19:41:36.320136,40.94,46.74296,0.0007461703303635545,-0.02303200030545576,0.09695331012558621,44.11764879391193,-92.24360919585227,80.21211738781929
2024-09-23 19:41:36.363780,40.94,46.743011,0.0006466830067647949,-0.02308174982955575,0.09695331012558621,36.09446859390736,-92.24360919585227,80.21211738781929
2024-09-23 19:41:36.405948,40.94,46.743062,0.0006466830067647949,-0.02308174982955575,0.09695331012558621,36.09446859390736,-92.24360919585227,80.21211738781929
2024-09-23 19:41:36.417279,40.94,46.743062,0.0007461703303635545,-0.02338022115155219,0.09740101331113918,44.11764879391193,-92.24360919585227,80.21211738781929
2024-09-23 19:41:36.458996,40.94,46.743113,0.0006466830067647949,-0.02338022115155219,0.09740101331113918,44.11764879391193,-96.25519929585457,68.18063240997792
2024-09-23 19:41:36.470906,40.94,46.743113,0.0006466830067647949,-0.02362894446842532,0.09740101331113918,44.11764879391193,-96.25519929585457,68.18063240997792
2024-09-23 19:41:36.502920,40.94,46.743113,0.0006466830067647949,-0.02362894446842532,0.09740101331113918,40.106058693909645,-96.25519929585457,68.18063240997792
2024-09-23 19:41:36.514854,40.94,46.743163,0.0009948937421727254,-0.02338022115155219,0.09740101331113918,40.106058693909645,-100.26678939585686,76.200527287817
2024-09-23 19:41:36.558037,40.94,46.743214,0.0009948937421727254,-0.02338022115155219,0.09740101331113918,28.07457030097246,-92.24360919585227,88.23529758782387
2024-09-23 19:41:36.569647,40.94,46.743214,0.0005471957306340564,-0.02338022115155219,0.09740101331113918,28.07457030097246,-92.24360919585227,88.23529758782387
2024-09-23 19:41:36.603042,40.94,46.743214,0.0005471957306340564,-0.023230986250042305,0.0973015264147526,60.15744537978172,-92.24360919585227,88.23529758782387
2024-09-23 19:41:36.614422,40.94,46.743301,0.0005471957306340564,-0.023230986250042305,0.0973015264147526,60.15744537978172,-88.23529758782387,68.18063240997792
2024-09-23 19:41:36.698166,40.94,46.743301,0.0006466830067647949,-0.023230986250042305,0.0973015264147526,60.15744537978172,-88.23529758782387,68.18063240997792
2024-09-23 19:41:36.710516,40.94,46.743301,0.0006466830067647949,-0.023330473146428877,0.09685382322919964,44.11764879391193,-92.24360919585227,76.200527287817
2024-09-23 19:41:36.754443,40.94,46.743353,0.0010943914612681128,-0.023181236725942318,0.09740101331113918,32.08287849390507,-92.24360919585227,76.200527287817
2024-09-23 19:41:36.796364,40.75,46.743403,0.0010943914612681128,-0.023181236725942318,0.09740101331113918,32.08287849390507,-92.24360919585227,84.22370748782159
2024-09-23 19:41:36.807731,40.75,46.743403,0.0008954064660419869,-0.02338022115155219,0.09750050628343246,28.07457030097246,-92.24360919585227,84.22370748782159
2024-09-23 19:41:36.850484,40.75,46.743454,0.0006964318663124887,-0.02367869399252531,0.09750050628343246,28.07457030097246,-96.25519929585457,88.23529758782387
2024-09-23 19:41:36.862557,40.75,46.743454,0.0006964318663124887,-0.02367869399252531,0.09740101331113918,28.07457030097246,-96.25519929585457,88.23529758782387
2024-09-23 19:41:36.894405,40.75,46.743454,0.0006964318663124887,-0.02367869399252531,0.09740101331113918,40.106058693909645,-96.25519929585457,88.23529758782387
2024-09-23 19:41:36.906342,40.75,46.743505,0.0011938787373988514,-0.023181236725942318,0.09740101331113918,40.106058693909645,-96.25519929585457,80.21211738781929
2024-09-23 19:41:36.989069,40.75,46.743505,0.0011938787373988514,-0.023181236725942318,0.09725178296655933,40.106058693909645,-96.25519929585457,80.21211738781929
2024-09-23 19:41:37.000504,40.75,46.743596,0.0007461703303635545,-0.023181236725942318,0.09725178296655933,56.14914060194492,-100.26678939585686,72.1922225099802
2024-09-23 19:41:37.043580,40.75,46.743596,0.0007461703303635545,-0.02338022115155219,0.0973015264147526,20.05138839341998,-96.25519929585457,72.1922225099802
2024-09-23 19:41:37.055456,40.75,46.743691,0.0007461703303635545,-0.02338022115155219,0.0973015264147526,20.05138839341998,-96.25519929585457,92.24360919585227
2024-09-23 19:41:37.087985,40.75,46.743691,0.0008954064660419869,-0.02338022115155219,0.0973015264147526,20.05138839341998,-96.25519929585457,92.24360919585227
2024-09-23 19:41:37.099125,40.75,46.743691,0.0008954064660419869,-0.023429960042815445,0.09759999317981902,52.137550501942634,-100.26678939585686,72.1922225099802
2024-09-23 19:41:37.142990,40.75,46.743743,0.0010943914612681128,-0.02303200030545576,0.09675432418099966,36.09446859390736,-100.26678939585686,72.1922225099802
2024-09-23 19:41:37.154671,40.75,46.743743,0.0010943914612681128,-0.02303200030545576,0.09675432418099966,36.09446859390736,-96.25519929585457,72.1922225099802
2024-09-23 19:41:37.186544,40.75,46.743793,0.0010943914612681128,-0.02303200030545576,0.09675432418099966,36.09446859390736,-96.25519929585457,84.22370748782159
2024-09-23 19:41:37.197639,40.75,46.743793,0.0005471957306340564,-0.023579196463302005,0.0973512698629459,36.09446859390736,-96.25519929585457,84.22370748782159
2024-09-23 19:41:37.240142,40.75,46.743888,0.000845657606494293,-0.02338022115155219,0.0973512698629459,36.09446859390736,-112.29828120388984,72.1922225099802
2024-09-23 19:41:37.257119,40.75,46.743888,0.000845657606494293,-0.02338022115155219,0.0962568775472534,36.09446859390736,-112.29828120388984,72.1922225099802
2024-09-23 19:41:37.291181,40.75,46.743939,0.0006466830067647949,-0.023579196463302005,0.0962568775472534,0.0,-100.26678939585686,84.22370748782159
2024-09-23 19:41:37.332954,40.75,46.743939,0.0006466830067647949,-0.023579196463302005,0.09799795899308542,4.008308192932605,-100.26678939585686,84.22370748782159
2024-09-23 19:41:37.344480,40.75,46.74399,0.0005969341946851222,-0.023579196463302005,0.09799795899308542,4.008308192932605,-100.26678939585686,88.23529758782387
2024-09-23 19:41:37.387311,40.75,46.744082,0.0005969341946851222,-0.02313149783467906,0.09759999317981902,56.14914060194492,-92.24360919585227,72.1922225099802
2024-09-23 19:41:37.430008,40.75,46.744082,0.0006466830067647949,-0.023429960042815445,0.09759999317981902,56.14914060194492,-92.24360919585227,72.1922225099802
2024-09-23 19:41:37.441480,40.75,46.744082,0.0006466830067647949,-0.023429960042815445,0.09740101331113918,64.16903547978401,-88.23529758782387,64.16903547978401
2024-09-23 19:41:37.484635,40.75,46.744133,0.0005969341946851222,-0.02367869399252531,0.09690356060148622,52.137550501942634,-92.24360919585227,64.16903547978401
2024-09-23 19:41:37.527581,40.75,46.744183,0.0005969341946851222,-0.02367869399252531,0.09690356060148622,52.137550501942634,-92.24360919585227,64.16903547978401
2024-09-23 19:41:37.539043,40.75,46.744183,0.0006964318663124887,-0.023778180888911878,0.09715228999426605,36.09446859390736,-92.24360919585227,64.16903547978401
2024-09-23 19:41:37.582378,40.75,46.744234,0.0010943914612681128,-0.023230986250042305,0.09774922960030558,36.09446859390736,-96.25519929585457,68.18063240997792
2024-09-23 19:41:37.625055,40.75,46.744234,0.0010943914612681128,-0.023230986250042305,0.09774922960030558,40.106058693909645,-100.26678939585686,68.18063240997792
2024-09-23 19:41:37.637729,40.75,46.744285,0.0011938787373988514,-0.02367869399252531,0.09774922960030558,40.106058693909645,-100.26678939585686,80.21211738781929
2024-09-23 19:41:37.680982,40.75,46.744336,0.0011938787373988514,-0.02367869399252531,0.09750050628343246,52.137550501942634,-100.26678939585686,76.200527287817
2024-09-23 19:41:37.723454,40.75,46.744336,0.0011938787373988514,-0.02303200030545576,0.09710254654607277,48.12595698684454,-100.26678939585686,76.200527287817
2024-09-23 19:41:37.734528,40.75,46.744423,0.0011938787373988514,-0.02303200030545576,0.09710254654607277,48.12595698684454,-88.23529758782387,84.22370748782159
2024-09-23 19:41:37.777250,40.75,46.744423,0.0012933660135295898,-0.023330473146428877,0.0970030596496862,24.06297849342227,-104.27510100388527,88.23529758782387
2024-09-23 19:41:37.820004,40.54,46.744474,0.0012933660135295898,-0.023330473146428877,0.0970030596496862,24.06297849342227,-104.27510100388527,88.23529758782387
2024-09-23 19:41:37.831080,40.54,46.744474,0.0012933660135295898,-0.023479709566915436,0.09750050628343246,28.07457030097246,-96.25519929585457,88.23529758782387
2024-09-23 19:41:37.873962,40.54,46.744525,0.0009451553255896806,-0.023230986250042305,0.09745075675933246,28.07457030097246,-96.25519929585457,72.1922225099802
2024-09-23 19:41:37.886102,40.54,46.744525,0.0009451553255896806,-0.023230986250042305,0.09745075675933246,48.12595698684454,-96.25519929585457,72.1922225099802
2024-09-23 19:41:37.918708,40.54,46.744525,0.0009451553255896806,-0.023230986250042305,0.09745075675933246,48.12595698684454,-84.22370748782159,72.1922225099802
2024-09-23 19:41:37.929950,40.54,46.744575,0.0008954064660419869,-0.022833026512682618,0.09794820946898543,48.12595698684454,-84.22370748782159,72.1922225099802
2024-09-23 19:41:37.972949,40.54,46.744626,0.0007959191899112484,-0.02303200030545576,0.09794820946898543,32.08287849390507,-92.24360919585227,84.22370748782159
2024-09-23 19:41:38.015947,40.54,46.744626,0.0007959191899112484,-0.02303200030545576,0.09705279702197278,28.07457030097246,-92.24360919585227,84.22370748782159
2024-09-23 19:41:38.028291,40.54,46.744677,0.0012933660135295898,-0.02303200030545576,0.09705279702197278,28.07457030097246,-92.24360919585227,88.23529758782387
2024-09-23 19:41:38.071321,40.54,46.744764,0.0012933660135295898,-0.02313149783467906,0.09695331012558621,32.08287849390507,-96.25519929585457,80.21211738781929
2024-09-23 19:41:38.114556,40.54,46.744764,0.0009451553255896806,-0.02362894446842532,0.09789846602079214,32.08287849390507,-96.25519929585457,80.21211738781929
2024-09-23 19:41:38.126203,40.54,46.744764,0.0009451553255896806,-0.02362894446842532,0.09789846602079214,36.09446859390736,-84.22370748782159,84.22370748782159
2024-09-23 19:41:38.169297,40.54,46.744815,0.0005471957306340564,-0.02293251340906919,0.09740101331113918,48.12595698684454,-92.24360919585227,84.22370748782159
2024-09-23 19:41:38.211247,40.54,46.744866,0.0008954064660419869,-0.02293251340906919,0.09740101331113918,48.12595698684454,-92.24360919585227,84.22370748782159
2024-09-23 19:41:38.223192,40.54,46.744866,0.0008954064660419869,-0.02313149783467906,0.09675432418099966,28.07457030097246,-92.24360919585227,84.22370748782159
2024-09-23 19:41:38.266282,40.54,46.744917,0.0007959191899112484,-0.023579196463302005,0.09794820946898543,28.07457030097246,-96.25519929585457,84.22370748782159
2024-09-23 19:41:38.309228,40.54,46.744917,0.0007959191899112484,-0.023579196463302005,0.09794820946898543,24.06297849342227,-100.26678939585686,84.22370748782159
2024-09-23 19:41:38.321193,40.54,46.744967,0.0006964318663124887,-0.023280723622328886,0.09794820946898543,24.06297849342227,-100.26678939585686,84.22370748782159
2024-09-23 19:41:38.363373,40.54,46.745018,0.000845657606494293,-0.023280723622328886,0.0970030596496862,24.06297849342227,-96.25519929585457,84.22370748782159
2024-09-23 19:41:38.406382,40.54,46.745018,0.000845657606494293,-0.023429960042815445,0.09784872257259886,72.1922225099802,-96.25519929585457,84.22370748782159
2024-09-23 19:41:38.418943,40.54,46.745105,0.000845657606494293,-0.023429960042815445,0.09784872257259886,72.1922225099802,-100.26678939585686,76.200527287817
2024-09-23 19:41:38.461702,40.54,46.745105,0.0012436275969465451,-0.023280723622328886,0.0976994861521123,80.21211738781929,-100.26678939585686,68.18063240997792
2024-09-23 19:41:38.504277,40.54,46.745157,0.0005969341946851222,-0.02278327698858263,0.0976994861521123,80.21211738781929,-100.26678939585686,68.18063240997792
2024-09-23 19:41:38.515800,40.54,46.745157,0.0005969341946851222,-0.02278327698858263,0.0973015264147526,48.12595698684454,-100.26678939585686,68.18063240997792
2024-09-23 19:41:38.558393,40.54,46.745207,0.00034821073540793035,-0.02303200030545576,0.09814718933766527,68.18063240997792,-100.26678939585686,84.22370748782159
2024-09-23 19:41:38.600890,40.54,46.745258,0.00034821073540793035,-0.02303200030545576,0.09814718933766527,68.18063240997792,-100.26678939585686,72.1922225099802
2024-09-23 19:41:38.612029,40.54,46.745258,0.0008954064660419869,-0.023330473146428877,0.09705279702197278,68.18063240997792,-100.26678939585686,72.1922225099802
2024-09-23 19:41:38.653660,40.54,46.745308,0.0008954064660419869,-0.023330473146428877,0.09705279702197278,100.26678939585686,-96.25519929585457,80.21211738781929
2024-09-23 19:41:38.665428,40.54,46.745308,0.0008954064660419869,-0.023429960042815445,0.09705279702197278,100.26678939585686,-96.25519929585457,80.21211738781929
2024-09-23 19:41:38.697252,40.54,46.745308,0.0008954064660419869,-0.023429960042815445,0.09710254654607277,32.08287849390507,-96.25519929585457,80.21211738781929
2024-09-23 19:41:38.709027,40.54,46.745359,0.0008954064660419869,-0.023429960042815445,0.09710254654607277,32.08287849390507,-92.24360919585227,76.200527287817
2024-09-23 19:41:38.752096,40.54,46.745359,0.0008954064660419869,-0.023181236725942318,0.09740101331113918,28.07457030097246,-92.24360919585227,72.1922225099802
2024-09-23 19:41:38.763771,40.54,46.745446,0.0008954064660419869,-0.023181236725942318,0.09740101331113918,28.07457030097246,-92.24360919585227,72.1922225099802
2024-09-23 19:41:38.796618,40.54,46.745446,0.0007461703303635545,-0.02362894446842532,0.09740101331113918,28.07457030097246,-92.24360919585227,72.1922225099802
2024-09-23 19:41:38.808634,40.54,46.745446,0.0007461703303635545,-0.02362894446842532,0.0976994861521123,32.08287849390507,-96.25519929585457,76.200527287817
2024-09-23 19:41:38.850951,40.93,46.745498,0.0006964318663124887,-0.023230986250042305,0.09705279702197278,24.06297849342227,-100.26678939585686,76.200527287817
2024-09-23 19:41:38.893466,40.93,46.745548,0.0008954064660419869,-0.023230986250042305,0.09705279702197278,24.06297849342227,-100.26678939585686,84.22370748782159
2024-09-23 19:41:38.906094,40.93,46.745548,0.0008954064660419869,-0.023429960042815445,0.09710254654607277,16.039798293417693,-100.26678939585686,84.22370748782159
2024-09-23 19:41:38.949285,40.93,46.745599,0.001442602149208022,-0.02293251340906919,0.09834616920634512,16.039798293417693,-100.26678939585686,76.200527287817
2024-09-23 19:41:38.991288,40.93,46.745599,0.001442602149208022,-0.02293251340906919,0.09834616920634512,44.11764879391193,-88.23529758782387,76.200527287817
2024-09-23 19:41:39.002297,40.93,46.74565,0.001044642601720419,-0.022982261414192504,0.09834616920634512,44.11764879391193,-88.23529758782387,80.21211738781929
2024-09-23 19:41:39.045268,40.93,46.7457,0.0011441298778511575,-0.022982261414192504,0.0973512698629459,80.21211738781929,-100.26678939585686,76.200527287817
2024-09-23 19:41:39.087683,40.93,46.7457,0.0011441298778511575,-0.023429960042815445,0.09635636444363997,80.21211738781929,-100.26678939585686,76.200527287817
2024-09-23 19:41:39.099569,40.93,46.745788,0.0011441298778511575,-0.023429960042815445,0.09635636444363997,44.11764879391193,-96.25519929585457,80.21211738781929
2024-09-23 19:41:39.141760,40.93,46.745788,0.00044769805900669,-0.023280723622328886,0.09779897304849887,32.08287849390507,-104.27510100388527,80.21211738781929
2024-09-23 19:41:39.153874,40.93,46.745788,0.00044769805900669,-0.023280723622328886,0.09779897304849887,32.08287849390507,-104.27510100388527,80.21211738781929
2024-09-23 19:41:39.187317,40.93,46.745839,0.0009451553255896806,-0.023479709566915436,0.09779897304849887,32.08287849390507,-104.27510100388527,80.21211738781929
2024-09-23 19:41:39.198468,40.93,46.745839,0.0009451553255896806,-0.023479709566915436,0.09740101331113918,28.07457030097246,-100.26678939585686,80.21211738781929
2024-09-23 19:41:39.241859,40.93,46.74589,0.0013928637326249774,-0.023778180888911878,0.09715228999426605,20.05138839341998,-100.26678939585686,80.21211738781929
2024-09-23 19:41:39.283657,40.93,46.74594,0.0013928637326249774,-0.023778180888911878,0.09715228999426605,20.05138839341998,-92.24360919585227,76.200527287817
2024-09-23 19:41:39.295709,40.93,46.74594,0.000845657606494293,-0.02293251340906919,0.09814718933766527,20.05138839341998,-92.24360919585227,76.200527287817
2024-09-23 19:41:39.338652,40.93,46.745991,0.001044642601720419,-0.02338022115155219,0.09814718933766527,40.106058693909645,-100.26678939585686,76.200527287817
2024-09-23 19:41:39.381227,40.93,46.745991,0.001044642601720419,-0.02338022115155219,0.09755024973162574,48.12595698684454,-96.25519929585457,76.200527287817
2024-09-23 19:41:39.392546,40.93,46.746042,0.000845657606494293,-0.02338022115155219,0.09755024973162574,48.12595698684454,-96.25519929585457,76.200527287817
2024-09-23 19:41:39.437856,40.93,46.746129,0.000845657606494293,-0.023778180888911878,0.09759999317981902,32.08287849390507,-92.24360919585227,72.1922225099802
2024-09-23 19:41:39.480003,40.93,46.746129,0.0008954064660419869,-0.023230986250042305,0.09725178296655933,32.08287849390507,-92.24360919585227,72.1922225099802
2024-09-23 19:41:39.491109,40.93,46.746129,0.0008954064660419869,-0.023230986250042305,0.09725178296655933,36.09446859390736,-92.24360919585227,76.200527287817
2024-09-23 19:41:39.533458,40.93,46.74618,0.0007959191899112484,-0.02308174982955575,0.09774922960030558,44.11764879391193,-96.25519929585457,76.200527287817
2024-09-23 19:41:39.576471,40.93,46.746231,0.0007959191899112484,-0.02308174982955575,0.09774922960030558,44.11764879391193,-96.25519929585457,80.21211738781929
2024-09-23 19:41:39.587767,40.93,46.746231,0.001044642601720419,-0.023429960042815445,0.09779897304849887,40.106058693909645,-96.25519929585457,80.21211738781929
2024-09-23 19:41:39.630197,40.93,46.746282,0.0008954064660419869,-0.023280723622328886,0.09725178296655933,40.106058693909645,-100.26678939585686,72.1922225099802
2024-09-23 19:41:39.672566,40.93,46.746282,0.0008954064660419869,-0.023280723622328886,0.09725178296655933,44.11764879391193,-96.25519929585457,72.1922225099802
2024-09-23 19:41:39.684353,40.93,46.746332,0.0011441298778511575,-0.023429960042815445,0.09725178296655933,44.11764879391193,-96.25519929585457,80.21211738781929
2024-09-23 19:41:39.727332,40.93,46.746383,0.0009948937421727254,-0.023429960042815445,0.09794820946898543,44.11764879391193,-96.25519929585457,76.200527287817
2024-09-23 19:41:39.770185,40.93,46.746383,0.0009948937421727254,-0.02278327698858263,0.09755024973162574,44.11764879391193,-96.25519929585457,76.200527287817
2024-09-23 19:41:39.781432,40.93,46.74647,0.0009948937421727254,-0.02278327698858263,0.09755024973162574,40.106058693909645,-104.27510100388527,76.200527287817
2024-09-23 19:41:39.824517,40.93,46.74647,0.001044642601720419,-0.02303200030545576,0.09774922960030558,40.106058693909645,-96.25519929585457,76.200527287817
2024-09-23 19:41:39.867902,40.93,46.746522,0.0010943914612681128,-0.02303200030545576,0.09774922960030558,40.106058693909645,-96.25519929585457,76.200527287817
2024-09-23 19:41:39.879331,40.93,46.746522,0.0010943914612681128,-0.023479709566915436,0.09715228999426605,36.09446859390736,-96.25519929585457,76.200527287817
2024-09-23 19:41:39.922160,40.93,46.746573,0.0008954064660419869,-0.023579196463302005,0.0976994861521123,36.09446859390736,-96.25519929585457,76.200527287817
2024-09-23 19:41:39.965195,40.93,46.746573,0.0008954064660419869,-0.023579196463302005,0.0976994861521123,36.09446859390736,-96.25519929585457,76.200527287817
2024-09-23 19:41:39.976409,40.93,46.746623,0.0009948937421727254,-0.02278327698858263,0.09755024973162574,36.09446859390736,-96.25519929585457,76.200527287817
2024-09-23 19:41:40.019846,40.93,46.746675,0.0009451553255896806,-0.02278327698858263,0.09755024973162574,44.11764879391193,-100.26678939585686,72.1922225099802
2024-09-23 19:41:40.031406,40.93,46.746675,0.0009451553255896806,-0.022833026512682618,0.09755024973162574,44.11764879391193,-100.26678939585686,72.1922225099802
2024-09-23 19:41:40.065289,40.93,46.746675,0.0009451553255896806,-0.022833026512682618,0.09670458680871308,48.12595698684454,-96.25519929585457,72.1922225099802
2024-09-23 19:41:40.077363,40.93,46.746725,0.0006964318663124887,-0.022833026512682618,0.09670458680871308,48.12595698684454,-96.25519929585457,76.200527287817
2024-09-23 19:41:40.109174,40.93,46.746725,0.0006964318663124887,-0.022982261414192504,0.09670458680871308,48.12595698684454,-96.25519929585457,76.200527287817
2024-09-23 19:41:40.120417,40.93,46.746811,0.0006964318663124887,-0.022982261414192504,0.09745075675933246,40.106058693909645,-92.24360919585227,76.200527287817
2024-09-23 19:41:40.162752,40.93,46.746811,0.0012933660135295898,-0.023429960042815445,0.09759999317981902,40.106058693909645,-92.24360919585227,76.200527287817
2024-09-23 19:41:40.177931,40.93,46.746811,0.0012933660135295898,-0.023429960042815445,0.09759999317981902,32.08287849390507,-92.24360919585227,76.200527287817
2024-09-23 19:41:40.211411,40.93,46.746863,0.0007959191899112484,-0.02268379009219606,0.09710254654607277,32.08287849390507,-92.24360919585227,76.200527287817
2024-09-23 19:41:40.222983,40.93,46.746863,0.0007959191899112484,-0.02268379009219606,0.09710254654607277,36.09446859390736,-88.23529758782387,76.200527287817
2024-09-23 19:41:40.265782,40.93,46.746913,0.0006964318663124887,-0.022733528983459317,0.09705279702197278,36.09446859390736,-88.23529758782387,76.200527287817
2024-09-23 19:41:40.308372,40.93,46.746913,0.0006964318663124887,-0.022733528983459317,0.09705279702197278,36.09446859390736,-88.23529758782387,76.200527287817
2024-09-23 19:41:40.361911,40.93,46.746964,0.0007959191899112484,-0.023280723622328886,0.09720203344245934,36.09446859390736,-96.25519929585457,84.22370748782159
2024-09-23 19:41:40.404268,40.93,46.746964,0.0007959191899112484,-0.023280723622328886,0.09720203344245934,40.106058693909645,-104.27510100388527,84.22370748782159
2024-09-23 19:41:40.415425,40.93,46.747015,0.0009948937421727254,-0.02338022115155219,0.09720203344245934,40.106058693909645,-104.27510100388527,72.1922225099802
2024-09-23 19:41:40.457788,40.93,46.747065,0.0009948937421727254,-0.02338022115155219,0.09705279702197278,32.08287849390507,-100.26678939585686,76.200527287817
2024-09-23 19:41:40.469469,40.93,46.747065,0.0007461703303635545,-0.02338022115155219,0.09705279702197278,32.08287849390507,-100.26678939585686,76.200527287817
2024-09-23 19:41:40.501804,40.93,46.747065,0.0007461703303635545,-0.02352945757203875,0.0973512698629459,32.08287849390507,-100.26678939585686,76.200527287817
2024-09-23 19:41:40.513966,40.93,46.747152,0.0007461703303635545,-0.02352945757203875,0.0973512698629459,44.11764879391193,-96.25519929585457,76.200527287817
2024-09-23 19:41:40.557401,40.93,46.747152,0.0006964318663124887,-0.023479709566915436,0.09759999317981902,44.11764879391193,-96.25519929585457,80.21211738781929
2024-09-23 19:41:40.600803,40.93,46.747251,0.0007959191899112484,-0.02338022115155219,0.09759999317981902,44.11764879391193,-96.25519929585457,80.21211738781929
2024-09-23 19:41:40.611805,40.93,46.747251,0.0007959191899112484,-0.02338022115155219,0.09740101331113918,28.07457030097246,-96.25519929585457,80.21211738781929
2024-09-23 19:41:40.654007,40.93,46.747302,0.0012933660135295898,-0.02313149783467906,0.09774922960030558,40.106058693909645,-96.25519929585457,76.200527287817
2024-09-23 19:41:40.696841,40.93,46.747302,0.0012933660135295898,-0.02313149783467906,0.09774922960030558,40.106058693909645,-104.27510100388527,76.200527287817
2024-09-23 19:41:40.707895,40.93,46.747353,0.0006964318663124887,-0.02313149783467906,0.09710254654607277,40.106058693909645,-104.27510100388527,76.200527287817
2024-09-23 19:41:40.750165,40.93,46.747403,0.0006964318663124887,-0.02313149783467906,0.09710254654607277,32.08287849390507,-100.26678939585686,80.21211738781929
2024-09-23 19:41:40.761918,40.93,46.747403,0.0014923510087557158,-0.023330473146428877,0.09710254654607277,32.08287849390507,-100.26678939585686,80.21211738781929
2024-09-23 19:41:40.794193,40.93,46.747403,0.0014923510087557158,-0.023330473146428877,0.09725178296655933,40.106058693909645,-100.26678939585686,80.21211738781929
2024-09-23 19:41:40.805753,40.93,46.747454,0.000845657606494293,-0.023330473146428877,0.09725178296655933,40.106058693909645,-100.26678939585686,76.200527287817
2024-09-23 19:41:40.848569,40.93,46.747542,0.000845657606494293,-0.023330473146428877,0.09725178296655933,36.09446859390736,-92.24360919585227,80.21211738781929
2024-09-23 19:41:40.891385,41.25,46.747542,0.0008954064660419869,-0.022982261414192504,0.09725178296655933,36.09446859390736,-92.24360919585227,80.21211738781929
2024-09-23 19:41:40.903728,41.25,46.747542,0.0008954064660419869,-0.022982261414192504,0.09740101331113918,40.106058693909645,-96.25519929585457,76.200527287817
2024-09-23 19:41:40.946697,41.25,46.747594,0.000845657606494293,-0.023429960042815445,0.09690356060148622,36.09446859390736,-96.25519929585457,76.200527287817
2024-09-23 19:41:40.958202,41.25,46.747594,0.000845657606494293,-0.023429960042815445,0.09690356060148622,36.09446859390736,-92.24360919585227,76.200527287817
2024-09-23 19:41:40.991119,41.25,46.747645,0.0008954064660419869,-0.023429960042815445,0.09690356060148622,36.09446859390736,-92.24360919585227,76.200527287817
2024-09-23 19:41:41.002235,41.25,46.747645,0.0008954064660419869,-0.023280723622328886,0.09725178296655933,40.106058693909645,-92.24360919585227,76.200527287817
2024-09-23 19:41:41.045902,41.25,46.747695,0.0007959191899112484,-0.02313149783467906,0.09715228999426605,40.106058693909645,-96.25519929585457,76.200527287817
2024-09-23 19:41:41.089222,41.25,46.747746,0.0007959191899112484,-0.02313149783467906,0.09715228999426605,40.106058693909645,-100.26678939585686,76.200527287817
2024-09-23 19:41:41.100964,41.25,46.747746,0.0006466830067647949,-0.023181236725942318,0.09715228999426605,40.106058693909645,-100.26678939585686,76.200527287817
2024-09-23 19:41:41.133021,41.25,46.747746,0.0006466830067647949,-0.023181236725942318,0.09740101331113918,40.106058693909645,-100.26678939585686,76.200527287817
2024-09-23 19:41:41.145347,41.25,46.747797,0.0012933660135295898,-0.023181236725942318,0.09740101331113918,32.08287849390507,-96.25519929585457,68.18063240997792
2024-09-23 19:41:41.189027,41.25,46.747797,0.0012933660135295898,-0.023181236725942318,0.09784872257259886,36.09446859390736,-100.26678939585686,76.200527287817
2024-09-23 19:41:41.201257,41.25,46.747884,0.0012933660135295898,-0.023181236725942318,0.09784872257259886,36.09446859390736,-100.26678939585686,76.200527287817
2024-09-23 19:41:41.233346,41.25,46.747884,0.00029846189959424716,-0.023280723622328886,0.09784872257259886,36.09446859390736,-100.26678939585686,76.200527287817
2024-09-23 19:41:41.244787,41.25,46.747884,0.00029846189959424716,-0.023280723622328886,0.0973512698629459,40.106058693909645,-108.28669110388756,68.18063240997792
2024-09-23 19:41:41.288074,41.25,46.747935,0.0007959191899112484,-0.02338022115155219,0.09705279702197278,52.137550501942634,-100.26678939585686,68.18063240997792
2024-09-23 19:41:41.330745,41.25,46.747986,0.0007959191899112484,-0.02338022115155219,0.09705279702197278,52.137550501942634,-100.26678939585686,72.1922225099802
2024-09-23 19:41:41.383998,41.25,46.747986,0.0010943914612681128,-0.023728432883788564,0.09605789160266685,0.0,-92.24360919585227,72.1922225099802
2024-09-23 19:41:41.396194,41.25,46.747986,0.0010943914612681128,-0.023728432883788564,0.09605789160266685,0.0,-92.24360919585227,76.200527287817
2024-09-23 19:41:41.428151,41.25,46.748037,0.0009451553255896806,-0.023728432883788564,0.09605789160266685,0.0,-92.24360919585227,76.200527287817
2024-09-23 19:41:41.439492,41.25,46.748037,0.0009451553255896806,-0.023181236725942318,0.09725178296655933,-4.008308192932605,-92.24360919585227,76.200527287817
2024-09-23 19:41:41.481653,41.25,46.748087,0.0007461703303635545,-0.023330473146428877,0.09784872257259886,-4.008308192932605,-92.24360919585227,80.21211738781929
2024-09-23 19:41:41.493312,41.25,46.748087,0.0007461703303635545,-0.023330473146428877,0.09784872257259886,36.09446859390736,-92.24360919585227,80.21211738781929
2024-09-23 19:41:41.526613,41.25,46.748138,0.0007461703303635545,-0.023330473146428877,0.09784872257259886,36.09446859390736,-100.26678939585686,84.22370748782159
2024-09-23 19:41:41.537618,41.25,46.748138,0.0009451553255896806,-0.023230986250042305,0.09750050628343246,36.09446859390736,-100.26678939585686,84.22370748782159
2024-09-23 19:41:41.579774,41.25,46.748225,0.0005969341946851222,-0.023230986250042305,0.09750050628343246,44.11764879391193,-96.25519929585457,80.21211738781929
2024-09-23 19:41:41.622209,41.25,46.748225,0.0005969341946851222,-0.023230986250042305,0.09695331012558621,44.11764879391193,-96.25519929585457,80.21211738781929
2024-09-23 19:41:41.633905,41.25,46.748277,0.0005969341946851222,-0.023230986250042305,0.09695331012558621,44.11764879391193,-96.25519929585457,80.21211738781929
2024-09-23 19:41:41.677035,41.25,46.748277,0.0005969341946851222,-0.02313149783467906,0.09745075675933246,36.09446859390736,-104.27510100388527,76.200527287817
2024-09-23 19:41:41.688843,41.25,46.748371,0.0005969341946851222,-0.02313149783467906,0.09745075675933246,36.09446859390736,-104.27510100388527,76.200527287817
2024-09-23 19:41:41.720494,41.25,46.748371,0.000845657606494293,-0.02278327698858263,0.09745075675933246,36.09446859390736,-104.27510100388527,76.200527287817
2024-09-23 19:41:41.732381,41.25,46.748371,0.000845657606494293,-0.02278327698858263,0.09745075675933246,12.031489246711136,-100.26678939585686,80.21211738781929
2024-09-23 19:41:41.776078,41.25,46.748423,0.0008954064660419869,-0.023280723622328886,0.09710254654607277,28.07457030097246,-100.26678939585686,80.21211738781929
2024-09-23 19:41:41.870072,41.25,46.748473,0.0007959191899112484,-0.023181236725942318,0.09710254654607277,28.07457030097246,-100.26678939585686,84.22370748782159
2024-09-23 19:41:41.924012,41.58,46.748525,0.0011441298778511575,-0.023181236725942318,0.09705279702197278,48.12595698684454,-100.26678939585686,76.200527287817
2024-09-23 19:41:41.966878,41.58,46.748525,0.0011441298778511575,-0.02352945757203875,0.09819693278585856,68.18063240997792,-100.26678939585686,76.200527287817
2024-09-23 19:41:41.978026,41.58,46.748575,0.0011441298778511575,-0.02352945757203875,0.09819693278585856,68.18063240997792,-100.26678939585686,76.200527287817
2024-09-23 19:41:42.010655,41.58,46.748575,0.0011938787373988514,-0.02352945757203875,0.09819693278585856,68.18063240997792,-100.26678939585686,76.200527287817
2024-09-23 19:41:42.022248,41.58,46.748575,0.0011938787373988514,-0.023280723622328886,0.09750050628343246,36.09446859390736,-100.26678939585686,84.22370748782159
2024-09-23 19:41:42.064514,41.58,46.748626,0.0009948937421727254,-0.02338022115155219,0.0973512698629459,36.09446859390736,-100.26678939585686,84.22370748782159
2024-09-23 19:41:42.076072,41.58,46.748626,0.0009948937421727254,-0.02338022115155219,0.0973512698629459,48.12595698684454,-96.25519929585457,84.22370748782159
2024-09-23 19:41:42.108136,41.58,46.748626,0.0009948937421727254,-0.02338022115155219,0.0973512698629459,48.12595698684454,-96.25519929585457,80.21211738781929
2024-09-23 19:41:42.119774,41.58,46.748713,0.0011938787373988514,-0.02263404056809607,0.09720203344245934,40.106058693909645,-96.25519929585457,80.21211738781929
2024-09-23 19:41:42.162149,41.58,46.748812,0.0011938787373988514,-0.02263404056809607,0.09720203344245934,40.106058693909645,-92.24360919585227,80.21211738781929
2024-09-23 19:41:42.173805,41.58,46.748812,0.0009948937421727254,-0.02308174982955575,0.0970030596496862,40.106058693909645,-92.24360919585227,80.21211738781929
2024-09-23 19:41:42.206051,41.58,46.748812,0.0009948937421727254,-0.02308174982955575,0.0970030596496862,52.137550501942634,-92.24360919585227,80.21211738781929
2024-09-23 19:41:42.217833,41.58,46.748862,0.0008954064660419869,-0.02313149783467906,0.0970030596496862,52.137550501942634,-100.26678939585686,68.18063240997792
2024-09-23 19:41:42.261696,41.58,46.748913,0.0008954064660419869,-0.02313149783467906,0.0973512698629459,44.11764879391193,-100.26678939585686,68.18063240997792
2024-09-23 19:41:42.273757,41.58,46.748913,0.0009451553255896806,-0.02313149783467906,0.0973512698629459,44.11764879391193,-100.26678939585686,68.18063240997792
2024-09-23 19:41:42.306697,41.58,46.748913,0.0009451553255896806,-0.023280723622328886,0.09764974270391902,36.09446859390736,-100.26678939585686,68.18063240997792
2024-09-23 19:41:42.317790,41.58,46.749005,0.0009451553255896806,-0.023280723622328886,0.09764974270391902,36.09446859390736,-100.26678939585686,80.21211738781929
2024-09-23 19:41:42.361220,41.58,46.749005,0.0012436275969465451,-0.02308174982955575,0.09680407370509965,44.11764879391193,-92.24360919585227,76.200527287817
