Ayaan's Suite
Timestamp,Sample Rate (Hz),Time,Ax,Ay,Az,Gx,Gy,Gz
2024-09-23 23:21:23.191491,0,59.930142,0.0015420998683034098,-0.0255690042639605,0.09988827078349728,40.106058693909645,-84.22370748782159,84.22370748782159
2024-09-23 23:21:23.202673,0,59.930142,0.0015420998683034098,-0.0255690042639605,0.09988827078349728,92.24360919585227,-84.22370748782159,84.22370748782159
2024-09-23 23:21:23.285443,0,59.930193,0.0015420998683034098,-0.0255690042639605,0.09988827078349728,92.24360919585227,-84.22370748782159,72.1922225099802
2024-09-23 23:21:23.297025,0,59.930193,0.00029846189959424716,-0.026514160159166435,0.09685382322919964,64.16903547978401,-84.22370748782159,72.1922225099802
2024-09-23 23:21:23.339575,0,59.930244,0.00029846189959424716,-0.02661365616941306,0.09685382322919964,64.16903547978401,-92.24360919585227,72.1922225099802
2024-09-23 23:21:23.382515,0,59.930244,0.00029846189959424716,-0.02661365616941306,0.09556044496892059,64.16903547978401,-92.24360919585227,72.1922225099802
2024-09-23 23:21:23.394336,0,59.930294,-4.973845218406054e-05,-0.02661365616941306,0.09556044496892059,24.06297849342227,-92.24360919585227,80.21211738781929
2024-09-23 23:21:23.437416,0,59.930294,-4.973845218406054e-05,-0.026315186366393295,0.09511273570746091,28.07457030097246,-96.25519929585457,80.21211738781929
2024-09-23 23:21:23.480564,0,59.930345,-4.973845218406054e-05,-0.026315186366393295,0.09511273570746091,28.07457030097246,-96.25519929585457,76.200527287817
2024-09-23 23:21:23.492177,0,59.930345,0.00014922575204880957,-0.026414673262779863,0.09610764112676684,36.09446859390736,-96.25519929585457,76.200527287817
2024-09-23 23:21:23.534387,0,59.930434,-0.00024872343554318134,-0.026414673262779863,0.09610764112676684,36.09446859390736,-96.25519929585457,72.1922225099802
2024-09-23 23:21:23.545878,0,59.930434,-0.00024872343554318134,-0.026713146103752982,0.0962568775472534,36.09446859390736,-96.25519929585457,72.1922225099802
2024-09-23 23:21:23.578487,0,59.930434,-0.00024872343554318134,-0.026713146103752982,0.0962568775472534,44.11764879391193,-92.24360919585227,72.1922225099802
2024-09-23 23:21:23.589600,0,59.930532,0.0,-0.02686238252423954,0.0962568775472534,44.11764879391193,-92.24360919585227,72.1922225099802
2024-09-23 23:21:23.632241,0,59.930583,0.0,-0.02686238252423954,0.09630662707135339,28.07457030097246,-92.24360919585227,68.18063240997792
2024-09-23 23:21:23.644205,0,59.930583,0.00029846189959424716,-0.02686238252423954,0.09630662707135339,28.07457030097246,-92.24360919585227,68.18063240997792
2024-09-23 23:21:23.676804,0,59.930583,0.00029846189959424716,-0.026265436842293304,0.09715228999426605,44.11764879391193,-92.24360919585227,68.18063240997792
2024-09-23 23:21:23.687766,0,59.930634,0.00029846189959424716,-0.026265436842293304,0.09715228999426605,44.11764879391193,-88.23529758782387,80.21211738781929
2024-09-23 23:21:23.822754,0,59.930634,4.973845218406054e-05,-0.026514160159166435,0.09715228999426605,44.11764879391193,-88.23529758782387,80.21211738781929
2024-09-23 23:21:23.834699,0,59.930634,4.973845218406054e-05,-0.026514160159166435,0.09675432418099966,48.12595698684454,-96.25519929585457,76.200527287817
2024-09-23 23:21:23.877933,0,59.930727,0.0004974468710863627,-0.026663396579652995,0.09650560086412653,40.106058693909645,-96.25519929585457,76.200527287817
2024-09-23 23:21:23.920243,0,59.930727,0.0004974468710863627,-0.026663396579652995,0.09650560086412653,40.106058693909645,-92.24360919585227,72.1922225099802
2024-09-23 23:21:23.931332,0,59.930778,0.0007461703303635545,-0.026563909683266423,0.09740101331113918,40.106058693909645,-92.24360919585227,72.1922225099802
2024-09-23 23:21:23.975208,0,59.930829,0.0007461703303635545,-0.026364923738679876,0.09740101331113918,40.106058693909645,-92.24360919585227,76.200527287817
2024-09-23 23:21:24.017235,0,59.930829,0.0007461703303635545,-0.026364923738679876,0.0973512698629459,64.16903547978401,-92.24360919585227,76.200527287817
2024-09-23 23:21:24.029146,0,59.930879,0.0009948937421727254,-0.026364923738679876,0.0973512698629459,64.16903547978401,-92.24360919585227,64.16903547978401
2024-09-23 23:21:24.071381,0,59.930879,0.0009948937421727254,-0.026265436842293304,0.09695331012558621,52.137550501942634,-88.23529758782387,72.1922225099802
2024-09-23 23:21:24.083369,0,59.931021,0.0009948937421727254,-0.026265436842293304,0.09695331012558621,52.137550501942634,-88.23529758782387,72.1922225099802
2024-09-23 23:21:24.116217,0,59.931021,0.0007959191899112484,-0.026514160159166435,0.0966050877605131,52.137550501942634,-88.23529758782387,72.1922225099802
2024-09-23 23:21:24.127803,0,59.931021,0.0007959191899112484,-0.026514160159166435,0.0966050877605131,44.11764879391193,-96.25519929585457,72.1922225099802
2024-09-23 23:21:24.170483,38.17,59.931117,-9.948729986474904e-05,-0.026215699470006727,0.09630662707135339,48.12595698684454,-92.24360919585227,72.1922225099802
2024-09-23 23:21:24.212773,38.17,59.931168,-0.00029846189959424716,-0.026215699470006727,0.09630662707135339,48.12595698684454,-92.24360919585227,76.200527287817
2024-09-23 23:21:24.224625,38.17,59.931168,-0.00029846189959424716,-0.02676289258989962,0.09650560086412653,44.11764879391193,-92.24360919585227,76.200527287817
2024-09-23 23:21:24.266898,38.17,59.931219,0.00014922575204880957,-0.02686238252423954,0.09570968138940715,44.11764879391193,-84.22370748782159,76.200527287817
2024-09-23 23:21:24.309958,38.17,59.931219,0.00014922575204880957,-0.02686238252423954,0.09570968138940715,44.11764879391193,-96.25519929585457,76.200527287817
2024-09-23 23:21:24.321595,38.17,59.93127,0.0005969341946851222,-0.026165949945906736,0.09570968138940715,44.11764879391193,-96.25519929585457,76.200527287817
2024-09-23 23:21:24.364295,38.17,59.93127,0.0005969341946851222,-0.026165949945906736,0.09725178296655933,32.08287849390507,-92.24360919585227,76.200527287817
2024-09-23 23:21:24.406418,38.17,59.931321,0.0005969341946851222,-0.026165949945906736,0.09725178296655933,32.08287849390507,-92.24360919585227,68.18063240997792
2024-09-23 23:21:24.417793,38.17,59.931321,0.0004974468710863627,-0.026713146103752982,0.09561019449302058,36.09446859390736,-92.24360919585227,68.18063240997792
2024-09-23 23:21:24.459719,38.17,59.931409,0.0003979595949556242,-0.026713146103752982,0.09561019449302058,36.09446859390736,-88.23529758782387,76.200527287817
2024-09-23 23:21:24.474003,38.17,59.931409,0.0003979595949556242,-0.026563909683266423,0.09640611396773996,36.09446859390736,-88.23529758782387,76.200527287817
2024-09-23 23:21:24.507023,38.17,59.931409,0.0003979595949556242,-0.026563909683266423,0.09640611396773996,52.137550501942634,-96.25519929585457,72.1922225099802
2024-09-23 23:21:24.518592,38.17,59.93146,0.0,-0.026116200421806745,0.09640611396773996,52.137550501942634,-96.25519929585457,72.1922225099802
2024-09-23 23:21:24.561204,38.17,59.931511,0.0001989745997294981,-0.026116200421806745,0.09665483728461309,44.11764879391193,-88.23529758782387,68.18063240997792
2024-09-23 23:21:24.604566,38.17,59.931511,0.0001989745997294981,-0.026514160159166435,0.09670458680871308,48.12595698684454,-88.23529758782387,68.18063240997792
2024-09-23 23:21:24.617458,38.17,59.931561,0.0001989745997294981,-0.026514160159166435,0.09670458680871308,48.12595698684454,-88.23529758782387,76.200527287817
2024-09-23 23:21:24.650585,38.17,59.931561,0.0,-0.026016713525420176,0.09670458680871308,48.12595698684454,-88.23529758782387,76.200527287817
2024-09-23 23:21:24.661828,38.17,59.931561,0.0,-0.026016713525420176,0.09655535038822652,60.15744537978172,-92.24360919585227,72.1922225099802
2024-09-23 23:21:24.704559,38.17,59.931653,0.0005471957306340564,-0.02711110584111267,0.09655535038822652,60.15744537978172,-92.24360919585227,72.1922225099802
2024-09-23 23:21:24.749904,38.17,59.931653,0.0005471957306340564,-0.02711110584111267,0.09655535038822652,44.11764879391193,-92.24360919585227,76.200527287817
2024-09-23 23:21:24.761571,38.17,59.931704,0.0005471957306340564,-0.026713146103752982,0.09655535038822652,44.11764879391193,-92.24360919585227,76.200527287817
2024-09-23 23:21:24.804163,38.17,59.931755,0.00034821073540793035,-0.026713146103752982,0.09635636444363997,48.12595698684454,-100.26678939585686,72.1922225099802
2024-09-23 23:21:24.848317,38.17,59.931755,0.00034821073540793035,-0.026414673262779863,0.09580916828579372,24.06297849342227,-100.26678939585686,72.1922225099802
2024-09-23 23:21:24.860123,38.17,59.931806,0.00034821073540793035,-0.026414673262779863,0.09580916828579372,24.06297849342227,-88.23529758782387,72.1922225099802
2024-09-23 23:21:24.892321,38.17,59.931806,0.0004974468710863627,-0.026414673262779863,0.09580916828579372,24.06297849342227,-88.23529758782387,72.1922225099802
2024-09-23 23:21:24.903819,38.17,59.931806,0.0004974468710863627,-0.02661365616941306,0.09705279702197278,48.12595698684454,-96.25519929585457,76.200527287817
2024-09-23 23:21:24.945962,38.17,59.931856,0.0001989745997294981,-0.026215699470006727,0.09705279702197278,48.12595698684454,-96.25519929585457,76.200527287817
2024-09-23 23:21:24.957273,38.17,59.931856,0.0001989745997294981,-0.026215699470006727,0.09665483728461309,44.11764879391193,-92.24360919585227,76.200527287817
2024-09-23 23:21:24.989712,38.17,59.931856,0.0001989745997294981,-0.026215699470006727,0.09665483728461309,44.11764879391193,-92.24360919585227,68.18063240997792
2024-09-23 23:21:25.001302,38.17,59.931946,0.0006466830067647949,-0.02711110584111267,0.09565993186530716,28.07457030097246,-92.24360919585227,68.18063240997792
2024-09-23 23:21:25.043237,38.17,59.931997,0.0004974468710863627,-0.02711110584111267,0.09565993186530716,28.07457030097246,-88.23529758782387,76.200527287817
2024-09-23 23:21:25.054716,38.17,59.931997,0.0004974468710863627,-0.026364923738679876,0.0966050877605131,28.07457030097246,-88.23529758782387,76.200527287817
2024-09-23 23:21:25.087466,38.17,59.931997,0.0004974468710863627,-0.026364923738679876,0.0966050877605131,32.08287849390507,-88.23529758782387,76.200527287817
2024-09-23 23:21:25.099190,38.17,59.932048,0.00034821073540793035,-0.02701161590677275,0.0966050877605131,32.08287849390507,-92.24360919585227,76.200527287817
2024-09-23 23:21:25.141435,38.17,59.932048,0.00034821073540793035,-0.02701161590677275,0.09650560086412653,52.137550501942634,-92.24360919585227,76.200527287817
2024-09-23 23:21:25.152833,38.17,59.932098,0.0001989745997294981,-0.02701161590677275,0.09650560086412653,52.137550501942634,-92.24360919585227,76.200527287817
2024-09-23 23:21:25.184821,40.77,59.932098,0.0001989745997294981,-0.026663396579652995,0.09650560086412653,52.137550501942634,-92.24360919585227,76.200527287817
2024-09-23 23:21:25.196551,40.77,59.932098,0.0001989745997294981,-0.026663396579652995,0.09570968138940715,44.11764879391193,-92.24360919585227,76.200527287817
2024-09-23 23:21:25.240280,40.77,59.932189,0.0005969341946851222,-0.025718240684447058,0.09570968138940715,44.11764879391193,-92.24360919585227,76.200527287817
2024-09-23 23:21:25.252396,40.77,59.932189,0.0005969341946851222,-0.025718240684447058,0.0973512698629459,48.12595698684454,-92.24360919585227,76.200527287817
2024-09-23 23:21:25.284656,40.77,59.932189,0.0005969341946851222,-0.025718240684447058,0.0973512698629459,48.12595698684454,-88.23529758782387,76.200527287817
2024-09-23 23:21:25.296570,40.77,59.93224,0.00014922575204880957,-0.026265436842293304,0.09680407370509965,48.12595698684454,-88.23529758782387,76.200527287817
2024-09-23 23:21:25.339161,40.77,59.93224,0.00014922575204880957,-0.026265436842293304,0.09680407370509965,48.12595698684454,-88.23529758782387,76.200527287817
2024-09-23 23:21:25.381316,40.77,59.93224,0.00014922575204880957,-0.026265436842293304,0.09680407370509965,48.12595698684454,-96.25519929585457,76.200527287817
2024-09-23 23:21:25.393242,40.77,59.932291,0.00029846189959424716,-0.026265436842293304,0.0970030596496862,48.12595698684454,-96.25519929585457,80.21211738781929
2024-09-23 23:21:25.436228,40.77,59.932342,0.0005471957306340564,-0.026265436842293304,0.0970030596496862,32.08287849390507,-96.25519929585457,72.1922225099802
2024-09-23 23:21:25.448599,40.77,59.932342,0.0005471957306340564,-0.02681263300013955,0.0970030596496862,32.08287849390507,-96.25519929585457,72.1922225099802
2024-09-23 23:21:25.481420,40.77,59.932342,0.0005471957306340564,-0.02681263300013955,0.09645586349183995,44.11764879391193,-92.24360919585227,72.1922225099802
2024-09-23 23:21:25.492528,40.77,59.932392,0.0005471957306340564,-0.02681263300013955,0.09645586349183995,44.11764879391193,-92.24360919585227,76.200527287817
2024-09-23 23:21:25.535699,40.77,59.932392,0.0005471957306340564,-0.026514160159166435,0.09645586349183995,44.11764879391193,-92.24360919585227,76.200527287817
2024-09-23 23:21:25.578880,40.77,59.932392,0.0005471957306340564,-0.026514160159166435,0.09670458680871308,48.12595698684454,-88.23529758782387,76.200527287817
2024-09-23 23:21:25.590659,40.77,59.932482,0.00044769805900669,-0.026514160159166435,0.09670458680871308,48.12595698684454,-88.23529758782387,76.200527287817
2024-09-23 23:21:25.633595,40.77,59.932579,0.00044769805900669,-0.026116200421806745,0.09755024973162574,64.16903547978401,-92.24360919585227,76.200527287817
2024-09-23 23:21:25.676128,40.77,59.932579,-0.00034821073540793035,-0.026464422786879854,0.09501324881107436,64.16903547978401,-92.24360919585227,76.200527287817
2024-09-23 23:21:25.687750,40.77,59.932579,-0.00034821073540793035,-0.026464422786879854,0.09501324881107436,36.09446859390736,-88.23529758782387,76.200527287817
2024-09-23 23:21:25.730284,40.77,59.932631,0.0005969341946851222,-0.02686238252423954,0.09789846602079214,40.106058693909645,-92.24360919585227,76.200527287817
2024-09-23 23:21:25.773030,40.77,59.932681,0.0007959191899112484,-0.02686238252423954,0.09789846602079214,40.106058693909645,-92.24360919585227,72.1922225099802
2024-09-23 23:21:25.784613,40.77,59.932681,0.0007959191899112484,-0.02681263300013955,0.09655535038822652,52.137550501942634,-92.24360919585227,72.1922225099802
2024-09-23 23:21:25.827764,40.77,59.932775,0.00044769805900669,-0.026066463049520167,0.09690356060148622,52.137550501942634,-96.25519929585457,72.1922225099802
2024-09-23 23:21:25.872208,40.77,59.932775,0.00044769805900669,-0.026066463049520167,0.09690356060148622,44.11764879391193,-92.24360919585227,72.1922225099802
2024-09-23 23:21:25.884096,40.77,59.932826,0.0005471957306340564,-0.026364923738679876,0.09690356060148622,44.11764879391193,-92.24360919585227,72.1922225099802
2024-09-23 23:21:25.916319,40.77,59.932826,0.0005471957306340564,-0.026364923738679876,0.09675432418099966,44.11764879391193,-92.24360919585227,72.1922225099802
2024-09-23 23:21:25.927363,40.77,59.932877,-0.0001989745997294981,-0.026364923738679876,0.09675432418099966,52.137550501942634,-92.24360919585227,80.21211738781929
2024-09-23 23:21:25.970186,40.77,59.932877,-0.0001989745997294981,-0.026912129010386178,0.09675432418099966,40.106058693909645,-80.21211738781929,80.21211738781929
2024-09-23 23:21:26.064735,40.77,59.932969,-0.0001989745997294981,-0.026912129010386178,0.09675432418099966,40.106058693909645,-80.21211738781929,76.200527287817
2024-09-23 23:21:26.076237,40.77,59.932969,0.0006964318663124887,-0.026364923738679876,0.09784872257259886,52.137550501942634,-80.21211738781929,76.200527287817
2024-09-23 23:21:26.120296,40.77,59.93302,0.0003979595949556242,-0.025917226629033608,0.0966050877605131,52.137550501942634,-88.23529758782387,76.200527287817
2024-09-23 23:21:26.214244,39.81,59.933071,0.0003979595949556242,-0.025917226629033608,0.0966050877605131,56.14914060194492,-84.22370748782159,92.24360919585227
2024-09-23 23:21:26.226402,39.81,59.933071,0.0005471957306340564,-0.025917226629033608,0.0966050877605131,56.14914060194492,-84.22370748782159,92.24360919585227
2024-09-23 23:21:26.258553,39.81,59.933071,0.0005471957306340564,-0.026016713525420176,0.0966050877605131,56.14914060194492,-84.22370748782159,92.24360919585227
2024-09-23 23:21:26.270364,39.81,59.933122,0.0005471957306340564,-0.026016713525420176,0.09665483728461309,44.11764879391193,-88.23529758782387,76.200527287817
2024-09-23 23:21:26.366049,39.81,59.933122,0.0009948937421727254,-0.02686238252423954,0.09675432418099966,48.12595698684454,-96.25519929585457,68.18063240997792
2024-09-23 23:21:26.408956,39.81,59.933172,0.0004974468710863627,-0.02676289258989962,0.09605789160266685,48.12595698684454,-96.25519929585457,68.18063240997792
2024-09-23 23:21:26.420906,39.81,59.933172,0.0004974468710863627,-0.02676289258989962,0.09605789160266685,44.11764879391193,-92.24360919585227,68.18063240997792
2024-09-23 23:21:26.452521,39.81,59.933172,0.0004974468710863627,-0.02676289258989962,0.09605789160266685,44.11764879391193,-92.24360919585227,72.1922225099802
2024-09-23 23:21:26.463786,39.81,59.93331,0.00034821073540793035,-0.02576799020854705,0.09755024973162574,48.12595698684454,-92.24360919585227,72.1922225099802
2024-09-23 23:21:26.506420,39.81,59.933409,9.948729986474904e-05,-0.02576799020854705,0.09755024973162574,48.12595698684454,-92.24360919585227,76.200527287817
2024-09-23 23:21:26.518570,39.81,59.933409,9.948729986474904e-05,-0.026215699470006727,0.09755024973162574,48.12595698684454,-92.24360919585227,76.200527287817
2024-09-23 23:21:26.551327,39.81,59.933409,9.948729986474904e-05,-0.026215699470006727,0.09655535038822652,48.12595698684454,-92.24360919585227,76.200527287817
2024-09-23 23:21:26.562795,39.81,59.93346,0.0006964318663124887,-0.026215699470006727,0.09655535038822652,52.137550501942634,-100.26678939585686,76.200527287817
2024-09-23 23:21:26.604593,39.81,59.93346,0.0006964318663124887,-0.025966964001320186,0.09685382322919964,48.12595698684454,-92.24360919585227,76.200527287817
2024-09-23 23:21:26.615909,39.81,59.933556,0.0006964318663124887,-0.025966964001320186,0.09685382322919964,48.12595698684454,-92.24360919585227,76.200527287817
2024-09-23 23:21:26.649123,39.81,59.933556,0.00034821073540793035,-0.026165949945906736,0.09685382322919964,48.12595698684454,-92.24360919585227,76.200527287817
2024-09-23 23:21:26.660642,39.81,59.933556,0.00034821073540793035,-0.026165949945906736,0.09670458680871308,24.06297849342227,-92.24360919585227,76.200527287817
2024-09-23 23:21:26.746978,39.81,59.933556,0.00034821073540793035,-0.026165949945906736,0.09670458680871308,24.06297849342227,-92.24360919585227,76.200527287817
2024-09-23 23:21:26.758476,39.81,59.933651,0.0,-0.026265436842293304,0.09635636444363997,24.06297849342227,-92.24360919585227,76.200527287817
2024-09-23 23:21:26.800934,39.81,59.933703,0.0004974468710863627,-0.026265436842293304,0.09635636444363997,52.137550501942634,-92.24360919585227,72.1922225099802
2024-09-23 23:21:26.813276,39.81,59.933703,0.0004974468710863627,-0.02676289258989962,0.09635636444363997,52.137550501942634,-92.24360919585227,72.1922225099802
2024-09-23 23:21:26.844898,39.81,59.933703,0.0004974468710863627,-0.02676289258989962,0.09615739065086683,48.12595698684454,-92.24360919585227,72.1922225099802
2024-09-23 23:21:26.856974,39.81,59.933753,0.0005471957306340564,-0.02676289258989962,0.09615739065086683,48.12595698684454,-84.22370748782159,76.200527287817
2024-09-23 23:21:26.900238,39.81,59.933804,0.0005471957306340564,-0.026514160159166435,0.0959086551821803,48.12595698684454,-88.23529758782387,76.200527287817
2024-09-23 23:21:26.943353,39.81,59.933804,-4.973845218406054e-05,-0.026514160159166435,0.09556044496892059,48.12595698684454,-88.23529758782387,76.200527287817
2024-09-23 23:21:26.955083,39.81,59.933804,-4.973845218406054e-05,-0.026514160159166435,0.09556044496892059,40.106058693909645,-88.23529758782387,76.200527287817
2024-09-23 23:21:26.998365,39.81,59.933944,-4.973845218406054e-05,-0.026514160159166435,0.09556044496892059,40.106058693909645,-88.23529758782387,76.200527287817
2024-09-23 23:21:27.041445,39.81,59.933944,0.0003979595949556242,-0.026364923738679876,0.09635636444363997,40.106058693909645,-88.23529758782387,76.200527287817
2024-09-23 23:21:27.053054,39.81,59.933944,0.0003979595949556242,-0.026364923738679876,0.09635636444363997,32.08287849390507,-84.22370748782159,84.22370748782159
2024-09-23 23:21:27.095845,39.81,59.933996,0.0007461703303635545,-0.026116200421806745,0.09685382322919964,44.11764879391193,-88.23529758782387,84.22370748782159
2024-09-23 23:21:27.137838,39.81,59.934046,0.0007461703303635545,-0.026116200421806745,0.09685382322919964,44.11764879391193,-88.23529758782387,76.200527287817
2024-09-23 23:21:27.191484,39.81,59.934046,0.0005969341946851222,-0.026514160159166435,0.0973512698629459,40.106058693909645,-88.23529758782387,76.200527287817
2024-09-23 23:21:27.203558,39.81,59.934046,0.0005969341946851222,-0.026514160159166435,0.0973512698629459,40.106058693909645,-88.23529758782387,76.200527287817
2024-09-23 23:21:27.287386,39.41,59.934097,-0.00024872343554318134,-0.026464422786879854,0.09655535038822652,40.106058693909645,-88.23529758782387,76.200527287817
2024-09-23 23:21:27.300651,39.41,59.934097,-0.00024872343554318134,-0.026464422786879854,0.09655535038822652,40.106058693909645,-88.23529758782387,76.200527287817
2024-09-23 23:21:27.384517,39.41,59.934148,0.0006964318663124887,-0.026464422786879854,0.09655535038822652,40.106058693909645,-88.23529758782387,72.1922225099802
2024-09-23 23:21:27.396074,39.41,59.934148,0.0006964318663124887,-0.026464422786879854,0.09695331012558621,44.11764879391193,-88.23529758782387,72.1922225099802
2024-09-23 23:21:27.429862,39.41,59.934148,0.0006964318663124887,-0.026464422786879854,0.09695331012558621,44.11764879391193,-88.23529758782387,72.1922225099802
2024-09-23 23:21:27.441448,39.41,59.934239,-0.00029846189959424716,-0.026464422786879854,0.09695331012558621,44.11764879391193,-88.23529758782387,72.1922225099802
2024-09-23 23:21:27.485300,39.41,59.934334,-0.00029846189959424716,-0.026364923738679876,0.09705279702197278,52.137550501942634,-96.25519929585457,72.1922225099802
2024-09-23 23:21:27.528729,39.41,59.934334,0.0005471957306340564,-0.026912129010386178,0.09605789160266685,52.137550501942634,-96.25519929585457,72.1922225099802
2024-09-23 23:21:27.540916,39.41,59.934334,0.0005471957306340564,-0.026912129010386178,0.09605789160266685,52.137550501942634,-96.25519929585457,72.1922225099802
2024-09-23 23:21:27.583957,39.41,59.934385,0.00014922575204880957,-0.026215699470006727,0.0962568775472534,40.106058693909645,-88.23529758782387,72.1922225099802
2024-09-23 23:21:27.625956,39.41,59.934529,-0.00029846189959424716,-0.026215699470006727,0.0962568775472534,40.106058693909645,-88.23529758782387,72.1922225099802
2024-09-23 23:21:27.678224,39.41,59.934529,-0.00029846189959424716,-0.02696186942062611,0.09640611396773996,52.137550501942634,-96.25519929585457,80.21211738781929
2024-09-23 23:21:27.690341,39.41,59.934627,-0.00029846189959424716,-0.02696186942062611,0.09640611396773996,52.137550501942634,-96.25519929585457,80.21211738781929
2024-09-23 23:21:27.722189,39.41,59.934627,-0.00044769805900669,-0.026464422786879854,0.09640611396773996,52.137550501942634,-96.25519929585457,80.21211738781929
2024-09-23 23:21:27.734072,39.41,59.934627,-0.00044769805900669,-0.026464422786879854,0.09640611396773996,48.12595698684454,-108.28669110388756,76.200527287817
2024-09-23 23:21:27.776656,39.41,59.934678,0.00044769805900669,-0.026265436842293304,0.09610764112676684,48.12595698684454,-108.28669110388756,76.200527287817
2024-09-23 23:21:27.788375,39.41,59.934678,0.00044769805900669,-0.026265436842293304,0.09610764112676684,48.12595698684454,-88.23529758782387,76.200527287817
2024-09-23 23:21:27.820825,39.41,59.934729,0.00044769805900669,-0.026265436842293304,0.09610764112676684,48.12595698684454,-88.23529758782387,76.200527287817
2024-09-23 23:21:27.832028,39.41,59.934729,0.00044769805900669,-0.026265436842293304,0.09655535038822652,44.11764879391193,-88.23529758782387,76.200527287817
2024-09-23 23:21:27.875860,39.41,59.934821,0.00029846189959424716,-0.026165949945906736,0.09665483728461309,44.11764879391193,-88.23529758782387,76.200527287817
2024-09-23 23:21:27.918608,39.41,59.934821,0.00029846189959424716,-0.026165949945906736,0.09665483728461309,48.12595698684454,-96.25519929585457,76.200527287817
2024-09-23 23:21:27.930406,39.41,59.934873,0.0001989745997294981,-0.026563909683266423,0.09665483728461309,48.12595698684454,-96.25519929585457,76.200527287817
2024-09-23 23:21:27.965027,39.41,59.934873,0.0001989745997294981,-0.026563909683266423,0.09695331012558621,48.12595698684454,-96.25519929585457,76.200527287817
2024-09-23 23:21:27.976988,39.41,59.934923,0.0006466830067647949,-0.026563909683266423,0.09695331012558621,52.137550501942634,-104.27510100388527,76.200527287817
2024-09-23 23:21:28.019759,39.41,59.934923,0.0006466830067647949,-0.026165949945906736,0.0973015264147526,52.137550501942634,-104.27510100388527,76.200527287817
2024-09-23 23:21:28.063352,39.41,59.934923,0.0006466830067647949,-0.026165949945906736,0.0973015264147526,60.15744537978172,-96.25519929585457,76.200527287817
2024-09-23 23:21:28.074300,39.41,59.935016,0.0,-0.02686238252423954,0.0973015264147526,60.15744537978172,-96.25519929585457,80.21211738781929
2024-09-23 23:21:28.117480,39.41,59.935068,0.0,-0.02686238252423954,0.09630662707135339,40.106058693909645,-92.24360919585227,80.21211738781929
2024-09-23 23:21:28.161070,39.41,59.935068,0.00024872343554318134,-0.02686238252423954,0.09630662707135339,40.106058693909645,-92.24360919585227,80.21211738781929
2024-09-23 23:21:28.172961,39.41,59.935068,0.00024872343554318134,-0.026663396579652995,0.09675432418099966,48.12595698684454,-88.23529758782387,72.1922225099802
2024-09-23 23:21:28.216051,39.41,59.935118,4.973845218406054e-05,-0.026912129010386178,0.09580916828579372,40.106058693909645,-88.23529758782387,72.1922225099802
2024-09-23 23:21:28.227505,39.41,59.935118,4.973845218406054e-05,-0.026912129010386178,0.09580916828579372,40.106058693909645,-92.24360919585227,72.1922225099802
2024-09-23 23:21:28.311286,39.34,59.935169,9.948729986474904e-05,-0.02711110584111267,0.09650560086412653,40.106058693909645,-92.24360919585227,72.1922225099802
2024-09-23 23:21:28.323333,39.34,59.935169,9.948729986474904e-05,-0.02711110584111267,0.09650560086412653,52.137550501942634,-92.24360919585227,72.1922225099802
2024-09-23 23:21:28.355692,39.34,59.935169,9.948729986474904e-05,-0.02711110584111267,0.09650560086412653,52.137550501942634,-96.25519929585457,80.21211738781929
2024-09-23 23:21:28.367074,39.34,59.935261,4.973845218406054e-05,-0.026215699470006727,0.09655535038822652,52.137550501942634,-96.25519929585457,80.21211738781929
2024-09-23 23:21:28.409583,39.34,59.935312,0.00029846189959424716,-0.026215699470006727,0.09655535038822652,52.137550501942634,-92.24360919585227,80.21211738781929
2024-09-23 23:21:28.452336,39.34,59.935312,0.00029846189959424716,-0.026265436842293304,0.09655535038822652,52.137550501942634,-92.24360919585227,80.21211738781929
2024-09-23 23:21:28.505454,39.34,59.935312,0.00029846189959424716,-0.026265436842293304,0.0962568775472534,44.11764879391193,-88.23529758782387,76.200527287817
2024-09-23 23:21:28.517061,39.34,59.935363,-4.973845218406054e-05,-0.026265436842293304,0.0962568775472534,44.11764879391193,-88.23529758782387,76.200527287817
2024-09-23 23:21:28.548753,39.34,59.935363,-4.973845218406054e-05,-0.025966964001320186,0.0962568775472534,44.11764879391193,-88.23529758782387,76.200527287817
2024-09-23 23:21:28.560027,39.34,59.935504,-4.973845218406054e-05,-0.025966964001320186,0.09705279702197278,48.12595698684454,-96.25519929585457,80.21211738781929
2024-09-23 23:21:28.602751,39.34,59.935504,0.0007461703303635545,-0.02676289258989962,0.09685382322919964,56.14914060194492,-96.25519929585457,80.21211738781929
2024-09-23 23:21:28.613959,39.34,59.935504,0.0007461703303635545,-0.02676289258989962,0.09685382322919964,56.14914060194492,-100.26678939585686,80.21211738781929
2024-09-23 23:21:28.646297,39.34,59.935555,0.0007461703303635545,-0.02676289258989962,0.09685382322919964,56.14914060194492,-100.26678939585686,80.21211738781929
2024-09-23 23:21:28.657423,39.34,59.935555,0.00034821073540793035,-0.026364923738679876,0.09675432418099966,32.08287849390507,-96.25519929585457,80.21211738781929
2024-09-23 23:21:28.699624,39.34,59.935606,0.0008954064660419869,-0.026165949945906736,0.09675432418099966,32.08287849390507,-96.25519929585457,76.200527287817
2024-09-23 23:21:28.711526,39.34,59.935606,0.0008954064660419869,-0.026165949945906736,0.09690356060148622,40.106058693909645,-96.25519929585457,76.200527287817
2024-09-23 23:21:28.743961,39.34,59.935606,0.0008954064660419869,-0.026165949945906736,0.09690356060148622,40.106058693909645,-88.23529758782387,76.200527287817
2024-09-23 23:21:28.755351,39.34,59.9357,0.0006466830067647949,-0.025917226629033608,0.09690356060148622,40.106058693909645,-88.23529758782387,76.200527287817
2024-09-23 23:21:28.797190,39.34,59.9357,0.0006466830067647949,-0.025917226629033608,0.0970030596496862,52.137550501942634,-88.23529758782387,76.200527287817
2024-09-23 23:21:28.808585,39.34,59.935751,0.0003979595949556242,-0.025917226629033608,0.0970030596496862,52.137550501942634,-88.23529758782387,76.200527287817
2024-09-23 23:21:28.841253,39.34,59.935751,0.0003979595949556242,-0.026315186366393295,0.0970030596496862,52.137550501942634,-88.23529758782387,76.200527287817
2024-09-23 23:21:28.852675,39.34,59.935802,0.0003979595949556242,-0.026315186366393295,0.09670458680871308,60.15744537978172,-88.23529758782387,84.22370748782159
2024-09-23 23:21:28.895525,39.34,59.935802,0.0009948937421727254,-0.026464422786879854,0.09635636444363997,44.11764879391193,-88.23529758782387,84.22370748782159
2024-09-23 23:21:28.907303,39.34,59.935802,0.0009948937421727254,-0.026464422786879854,0.09635636444363997,44.11764879391193,-92.24360919585227,76.200527287817
2024-09-23 23:21:28.939987,39.34,59.935894,0.0009948937421727254,-0.026464422786879854,0.09635636444363997,44.11764879391193,-92.24360919585227,76.200527287817
2024-09-23 23:21:28.952903,39.34,59.935894,0.00029846189959424716,-0.02576799020854705,0.09675432418099966,44.11764879391193,-96.25519929585457,76.200527287817
2024-09-23 23:21:28.995890,39.34,59.935945,9.948729986474904e-05,-0.026713146103752982,0.09635636444363997,44.11764879391193,-96.25519929585457,80.21211738781929
2024-09-23 23:21:29.038391,39.34,59.935945,9.948729986474904e-05,-0.026713146103752982,0.09635636444363997,44.11764879391193,-92.24360919585227,72.1922225099802
2024-09-23 23:21:29.050893,39.34,59.935996,0.00014922575204880957,-0.026713146103752982,0.09635636444363997,44.11764879391193,-92.24360919585227,72.1922225099802
2024-09-23 23:21:29.093323,39.34,59.936047,0.00014922575204880957,-0.02661365616941306,0.09670458680871308,52.137550501942634,-92.24360919585227,72.1922225099802
2024-09-23 23:21:29.238570,39.34,59.936047,0.00044769805900669,-0.026713146103752982,0.09630662707135339,36.09446859390736,-88.23529758782387,72.1922225099802
2024-09-23 23:21:29.250522,39.34,59.936047,0.00044769805900669,-0.026713146103752982,0.09630662707135339,36.09446859390736,-88.23529758782387,68.18063240997792
2024-09-23 23:21:29.283803,39.34,59.936097,0.0003979595949556242,-0.02701161590677275,0.09630662707135339,36.09446859390736,-88.23529758782387,68.18063240997792
2024-09-23 23:21:29.295271,39.34,59.936097,0.0003979595949556242,-0.02701161590677275,0.09665483728461309,20.05138839341998,-88.23529758782387,68.18063240997792
2024-09-23 23:21:29.337825,39.6,59.936186,0.0005969341946851222,-0.026563909683266423,0.0970030596496862,48.12595698684454,-88.23529758782387,76.200527287817
2024-09-23 23:21:29.380941,39.6,59.936238,0.0005969341946851222,-0.026563909683266423,0.0970030596496862,48.12595698684454,-88.23529758782387,68.18063240997792
2024-09-23 23:21:29.392723,39.6,59.936238,9.948729986474904e-05,-0.026713146103752982,0.09725178296655933,48.12595698684454,-88.23529758782387,68.18063240997792
2024-09-23 23:21:29.427086,39.6,59.936238,9.948729986474904e-05,-0.026713146103752982,0.09725178296655933,56.14914060194492,-88.23529758782387,68.18063240997792
2024-09-23 23:21:29.438205,39.6,59.936288,0.0,-0.02686238252423954,0.09725178296655933,56.14914060194492,-92.24360919585227,80.21211738781929
2024-09-23 23:21:29.481199,39.6,59.936433,0.0,-0.02686238252423954,0.09670458680871308,40.106058693909645,-92.24360919585227,76.200527287817
2024-09-23 23:21:29.493213,39.6,59.936433,4.973845218406054e-05,-0.02686238252423954,0.09670458680871308,40.106058693909645,-92.24360919585227,76.200527287817
2024-09-23 23:21:29.525922,39.6,59.936433,4.973845218406054e-05,-0.02711110584111267,0.09725178296655933,40.106058693909645,-92.24360919585227,76.200527287817
2024-09-23 23:21:29.537828,39.6,59.936527,4.973845218406054e-05,-0.02711110584111267,0.09725178296655933,40.106058693909645,-92.24360919585227,76.200527287817
2024-09-23 23:21:29.579934,39.6,59.936527,0.0006466830067647949,-0.02576799020854705,0.09650560086412653,52.137550501942634,-92.24360919585227,76.200527287817
2024-09-23 23:21:29.591136,39.6,59.936527,0.0006466830067647949,-0.02576799020854705,0.09650560086412653,52.137550501942634,-96.25519929585457,76.200527287817
2024-09-23 23:21:29.623867,39.6,59.936579,0.00034821073540793035,-0.02576799020854705,0.09650560086412653,52.137550501942634,-96.25519929585457,76.200527287817
2024-09-23 23:21:29.634774,39.6,59.936579,0.00034821073540793035,-0.02551925473986051,0.09645586349183995,48.12595698684454,-92.24360919585227,76.200527287817
2024-09-23 23:21:29.676722,39.6,59.93663,0.0003979595949556242,-0.02661365616941306,0.09655535038822652,48.12595698684454,-92.24360919585227,76.200527287817
2024-09-23 23:21:29.688430,39.6,59.93663,0.0003979595949556242,-0.02661365616941306,0.09655535038822652,48.12595698684454,-92.24360919585227,76.200527287817
2024-09-23 23:21:29.721273,39.6,59.93663,0.0003979595949556242,-0.02661365616941306,0.09655535038822652,48.12595698684454,-88.23529758782387,80.21211738781929
2024-09-23 23:21:29.733089,39.6,59.93668,0.0003979595949556242,-0.026265436842293304,0.09685382322919964,48.12595698684454,-88.23529758782387,80.21211738781929
2024-09-23 23:21:29.775881,39.6,59.936731,0.00014922575204880957,-0.026265436842293304,0.09685382322919964,52.137550501942634,-92.24360919585227,76.200527287817
2024-09-23 23:21:29.818368,39.6,59.936731,0.00014922575204880957,-0.026364923738679876,0.09685382322919964,52.137550501942634,-92.24360919585227,76.200527287817
2024-09-23 23:21:29.830269,39.6,59.936731,0.00014922575204880957,-0.026364923738679876,0.09685382322919964,48.12595698684454,-88.23529758782387,76.200527287817
2024-09-23 23:21:29.915721,39.6,59.936731,0.00014922575204880957,-0.026364923738679876,0.09685382322919964,48.12595698684454,-88.23529758782387,76.200527287817
2024-09-23 23:21:29.927567,39.6,59.936782,0.00029846189959424716,-0.026364923738679876,0.09685382322919964,48.12595698684454,-88.23529758782387,76.200527287817
2024-09-23 23:21:29.969756,39.6,59.936782,0.00029846189959424716,-0.026563909683266423,0.09665483728461309,36.09446859390736,-96.25519929585457,76.200527287817
2024-09-23 23:21:29.981929,39.6,59.936869,0.00029846189959424716,-0.026563909683266423,0.09665483728461309,36.09446859390736,-96.25519929585457,76.200527287817
2024-09-23 23:21:30.014500,39.6,59.936869,0.0005471957306340564,-0.02681263300013955,0.09665483728461309,36.09446859390736,-96.25519929585457,76.200527287817
2024-09-23 23:21:30.026210,39.6,59.936869,0.0005471957306340564,-0.02681263300013955,0.09565993186530716,40.106058693909645,-92.24360919585227,76.200527287817
2024-09-23 23:21:30.068829,39.6,59.93692,0.0,-0.026215699470006727,0.09565993186530716,40.106058693909645,-92.24360919585227,76.200527287817
2024-09-23 23:21:30.111182,39.6,59.93692,0.0,-0.026215699470006727,0.09650560086412653,56.14914060194492,-92.24360919585227,76.200527287817
2024-09-23 23:21:30.123210,39.6,59.936971,0.0005471957306340564,-0.026215699470006727,0.09650560086412653,56.14914060194492,-96.25519929585457,76.200527287817
2024-09-23 23:21:30.165789,39.6,59.936971,0.0005471957306340564,-0.02537003047118736,0.09670458680871308,48.12595698684454,-96.25519929585457,76.200527287817
2024-09-23 23:21:30.177619,39.6,59.937022,0.0005471957306340564,-0.02537003047118736,0.09670458680871308,48.12595698684454,-96.25519929585457,76.200527287817
2024-09-23 23:21:30.210356,39.6,59.937022,0.0005969341946851222,-0.026165949945906736,0.09710254654607277,48.12595698684454,-96.25519929585457,76.200527287817
2024-09-23 23:21:30.221597,39.6,59.937022,0.0005969341946851222,-0.026165949945906736,0.09710254654607277,52.137550501942634,-96.25519929585457,72.1922225099802
2024-09-23 23:21:30.265059,39.6,59.937163,0.0001989745997294981,-0.026315186366393295,0.0970030596496862,44.11764879391193,-92.24360919585227,72.1922225099802
2024-09-23 23:21:30.307598,39.6,59.937214,0.0001989745997294981,-0.026315186366393295,0.0970030596496862,44.11764879391193,-92.24360919585227,72.1922225099802
2024-09-23 23:21:30.319150,39.6,59.937214,-4.973845218406054e-05,-0.02676289258989962,0.09615739065086683,36.09446859390736,-92.24360919585227,72.1922225099802
2024-09-23 23:21:30.361837,40.08,59.937309,0.0,-0.026265436842293304,0.0973512698629459,36.09446859390736,-88.23529758782387,88.23529758782387
2024-09-23 23:21:30.405198,40.08,59.937309,0.0,-0.026265436842293304,0.0973512698629459,40.106058693909645,-92.24360919585227,84.22370748782159
2024-09-23 23:21:30.416858,40.08,59.93736,0.0007461703303635545,-0.026514160159166435,0.0973512698629459,40.106058693909645,-92.24360919585227,84.22370748782159
2024-09-23 23:21:30.459846,40.08,59.937411,0.00014922575204880957,-0.026514160159166435,0.0962568775472534,44.11764879391193,-84.22370748782159,76.200527287817
2024-09-23 23:21:30.502358,40.08,59.937411,0.00014922575204880957,-0.026066463049520167,0.09675432418099966,36.09446859390736,-84.22370748782159,76.200527287817
2024-09-23 23:21:30.514147,40.08,59.937503,0.00014922575204880957,-0.026066463049520167,0.09675432418099966,36.09446859390736,-88.23529758782387,76.200527287817
2024-09-23 23:21:30.557466,40.08,59.937503,0.0003979595949556242,-0.026414673262779863,0.09655535038822652,36.09446859390736,-88.23529758782387,80.21211738781929
2024-09-23 23:21:30.600073,40.08,59.937554,0.0005471957306340564,-0.026315186366393295,0.09655535038822652,36.09446859390736,-88.23529758782387,80.21211738781929
2024-09-23 23:21:30.611509,40.08,59.937554,0.0005471957306340564,-0.026315186366393295,0.09615739065086683,44.11764879391193,-96.25519929585457,80.21211738781929
2024-09-23 23:21:30.655216,40.08,59.937605,0.0004974468710863627,-0.026713146103752982,0.09580916828579372,40.106058693909645,-96.25519929585457,76.200527287817
2024-09-23 23:21:30.700164,40.08,59.937656,0.0004974468710863627,-0.026713146103752982,0.09580916828579372,40.106058693909645,-96.25519929585457,72.1922225099802
2024-09-23 23:21:30.711390,40.08,59.937656,0.00024872343554318134,-0.026116200421806745,0.0973015264147526,40.106058693909645,-96.25519929585457,72.1922225099802
2024-09-23 23:21:30.743758,40.08,59.937656,0.00024872343554318134,-0.026116200421806745,0.0973015264147526,44.11764879391193,-96.25519929585457,72.1922225099802
2024-09-23 23:21:30.755915,40.08,59.937707,0.0001989745997294981,-0.025917226629033608,0.0973015264147526,44.11764879391193,-92.24360919585227,76.200527287817
2024-09-23 23:21:30.798481,40.08,59.937707,0.0001989745997294981,-0.025917226629033608,0.09620712802315341,40.106058693909645,-88.23529758782387,72.1922225099802
2024-09-23 23:21:30.809920,40.08,59.937757,0.00024872343554318134,-0.025917226629033608,0.09620712802315341,40.106058693909645,-88.23529758782387,72.1922225099802
2024-09-23 23:21:30.841816,40.08,59.937757,0.00024872343554318134,-0.02681263300013955,0.09620712802315341,40.106058693909645,-88.23529758782387,72.1922225099802
2024-09-23 23:21:30.895137,40.08,59.937844,0.00024872343554318134,-0.02681263300013955,0.09600815423038027,44.11764879391193,-92.24360919585227,72.1922225099802
2024-09-23 23:21:30.907150,40.08,59.937844,0.0001989745997294981,-0.02681263300013955,0.09600815423038027,44.11764879391193,-92.24360919585227,72.1922225099802
2024-09-23 23:21:30.939328,40.08,59.937844,0.0001989745997294981,-0.026464422786879854,0.0966050877605131,44.11764879391193,-92.24360919585227,72.1922225099802
2024-09-23 23:21:30.950421,40.08,59.937895,0.0001989745997294981,-0.026464422786879854,0.0966050877605131,44.11764879391193,-92.24360919585227,76.200527287817
2024-09-23 23:21:30.993457,40.08,59.937895,0.0001989745997294981,-0.026713146103752982,0.09610764112676684,32.08287849390507,-92.24360919585227,76.200527287817
2024-09-23 23:21:31.005704,40.08,59.937895,0.0001989745997294981,-0.026713146103752982,0.09610764112676684,32.08287849390507,-92.24360919585227,72.1922225099802
2024-09-23 23:21:31.038687,40.08,59.937946,0.0008954064660419869,-0.026464422786879854,0.09610764112676684,32.08287849390507,-92.24360919585227,72.1922225099802
2024-09-23 23:21:31.091504,40.08,59.937946,0.0008954064660419869,-0.026464422786879854,0.09665483728461309,44.11764879391193,-88.23529758782387,76.200527287817
2024-09-23 23:21:31.134198,40.08,59.937997,0.0006964318663124887,-0.026464422786879854,0.09665483728461309,44.11764879391193,-88.23529758782387,76.200527287817
2024-09-23 23:21:31.146547,40.08,59.937997,0.0006964318663124887,-0.02581772758083363,0.09715228999426605,56.14914060194492,-96.25519929585457,76.200527287817
2024-09-23 23:21:31.189030,40.08,59.937997,0.0006964318663124887,-0.02581772758083363,0.09715228999426605,56.14914060194492,-96.25519929585457,68.18063240997792
2024-09-23 23:21:31.282558,40.08,59.938089,0.0006964318663124887,-0.026315186366393295,0.09715228999426605,56.14914060194492,-96.25519929585457,68.18063240997792
2024-09-23 23:21:31.294759,40.08,59.938089,0.0006964318663124887,-0.026315186366393295,0.09725178296655933,48.12595698684454,-92.24360919585227,68.18063240997792
2024-09-23 23:21:31.327646,40.08,59.938089,0.0006964318663124887,-0.026315186366393295,0.09725178296655933,48.12595698684454,-92.24360919585227,76.200527287817
2024-09-23 23:21:31.339521,40.08,59.93814,0.0,-0.02681263300013955,0.09585891780989371,44.11764879391193,-92.24360919585227,76.200527287817
2024-09-23 23:21:31.382554,39.97,59.938191,0.00044769805900669,-0.02661365616941306,0.09585891780989371,44.11764879391193,-96.25519929585457,76.200527287817
2024-09-23 23:21:31.394230,39.97,59.938191,0.00044769805900669,-0.02661365616941306,0.09645586349183995,44.11764879391193,-96.25519929585457,76.200527287817
2024-09-23 23:21:31.426683,39.97,59.938191,0.00044769805900669,-0.02661365616941306,0.09645586349183995,40.106058693909645,-100.26678939585686,76.200527287817
2024-09-23 23:21:31.438261,39.97,59.938284,0.0001989745997294981,-0.026016713525420176,0.09645586349183995,40.106058693909645,-100.26678939585686,76.200527287817
2024-09-23 23:21:31.522304,39.97,59.938284,0.0001989745997294981,-0.026016713525420176,0.0966050877605131,40.106058693909645,-100.26678939585686,76.200527287817
2024-09-23 23:21:31.534336,39.97,59.938284,0.0001989745997294981,-0.026016713525420176,0.0966050877605131,48.12595698684454,-92.24360919585227,76.200527287817
2024-09-23 23:21:31.577280,39.97,59.938284,0.0001989745997294981,-0.026016713525420176,0.0966050877605131,48.12595698684454,-92.24360919585227,76.200527287817
2024-09-23 23:21:31.671028,39.97,59.93838,0.00044769805900669,-0.026016713525420176,0.0966050877605131,48.12595698684454,-92.24360919585227,76.200527287817
2024-09-23 23:21:31.683211,39.97,59.93838,0.00044769805900669,-0.02701161590677275,0.0962568775472534,48.12595698684454,-92.24360919585227,76.200527287817
2024-09-23 23:21:31.718728,39.97,59.93838,0.00044769805900669,-0.02701161590677275,0.0962568775472534,44.11764879391193,-92.24360919585227,76.200527287817
2024-09-23 23:21:31.729921,39.97,59.938526,0.00044769805900669,-0.02686238252423954,0.0962568775472534,44.11764879391193,-96.25519929585457,76.200527287817
2024-09-23 23:21:31.772230,39.97,59.938526,0.00044769805900669,-0.02686238252423954,0.09595840470628028,40.106058693909645,-88.23529758782387,72.1922225099802
2024-09-23 23:21:31.783530,39.97,59.938578,0.0004974468710863627,-0.02686238252423954,0.09595840470628028,40.106058693909645,-88.23529758782387,72.1922225099802
2024-09-23 23:21:31.816444,39.97,59.938578,0.0004974468710863627,-0.026364923738679876,0.09595840470628028,40.106058693909645,-88.23529758782387,72.1922225099802
2024-09-23 23:21:31.828300,39.97,59.938628,0.0004974468710863627,-0.026364923738679876,0.09595840470628028,40.106058693909645,-92.24360919585227,76.200527287817
2024-09-23 23:21:31.870135,39.97,59.938628,0.0005969341946851222,-0.026912129010386178,0.09620712802315341,44.11764879391193,-96.25519929585457,76.200527287817
2024-09-23 23:21:31.912073,39.97,59.938628,0.0005969341946851222,-0.026912129010386178,0.09620712802315341,44.11764879391193,-96.25519929585457,76.200527287817
2024-09-23 23:21:31.923855,39.97,59.938723,0.0005969341946851222,-0.026116200421806745,0.09675432418099966,44.11764879391193,-96.25519929585457,76.200527287817
2024-09-23 23:21:31.966391,39.97,59.938917,0.00029846189959424716,-0.026116200421806745,0.09675432418099966,44.11764879391193,-92.24360919585227,72.1922225099802
2024-09-23 23:21:31.977554,39.97,59.938917,0.00029846189959424716,-0.026215699470006727,0.09665483728461309,44.11764879391193,-92.24360919585227,72.1922225099802
2024-09-23 23:21:32.061287,39.97,59.938917,0.00029846189959424716,-0.026215699470006727,0.09665483728461309,44.11764879391193,-84.22370748782159,72.1922225099802
2024-09-23 23:21:32.072546,39.97,59.938968,9.948729986474904e-05,-0.026315186366393295,0.09665483728461309,44.11764879391193,-84.22370748782159,80.21211738781929
2024-09-23 23:21:32.114907,39.97,59.938968,9.948729986474904e-05,-0.026315186366393295,0.0970030596496862,52.137550501942634,-92.24360919585227,76.200527287817
2024-09-23 23:21:32.157635,39.97,59.939019,9.948729986474904e-05,-0.026315186366393295,0.0970030596496862,52.137550501942634,-92.24360919585227,76.200527287817
2024-09-23 23:21:32.169411,39.97,59.939019,0.0005969341946851222,-0.026414673262779863,0.09630662707135339,44.11764879391193,-88.23529758782387,76.200527287817
2024-09-23 23:21:32.212386,39.97,59.93907,0.0005969341946851222,-0.02701161590677275,0.09690356060148622,44.11764879391193,-88.23529758782387,72.1922225099802
2024-09-23 23:21:32.224035,39.97,59.93907,0.0005969341946851222,-0.02701161590677275,0.09690356060148622,40.106058693909645,-88.23529758782387,72.1922225099802
2024-09-23 23:21:32.308226,39.97,59.93916,-4.973845218406054e-05,-0.02701161590677275,0.09690356060148622,40.106058693909645,-96.25519929585457,76.200527287817
2024-09-23 23:21:32.321575,39.97,59.93916,-4.973845218406054e-05,-0.026066463049520167,0.0962568775472534,40.106058693909645,-96.25519929585457,76.200527287817
2024-09-23 23:21:32.354770,39.97,59.93916,-4.973845218406054e-05,-0.026066463049520167,0.0962568775472534,48.12595698684454,-88.23529758782387,68.18063240997792
2024-09-23 23:21:32.366491,39.97,59.939259,-4.973845218406054e-05,-0.026066463049520167,0.0962568775472534,48.12595698684454,-88.23529758782387,68.18063240997792
2024-09-23 23:21:32.409008,39.75,59.939259,0.0007959191899112484,-0.026165949945906736,0.09615739065086683,48.12595698684454,-92.24360919585227,72.1922225099802
2024-09-23 23:21:32.452574,39.75,59.939309,4.973845218406054e-05,-0.026912129010386178,0.09615739065086683,48.12595698684454,-92.24360919585227,72.1922225099802
2024-09-23 23:21:32.463617,39.75,59.939309,4.973845218406054e-05,-0.026912129010386178,0.09645586349183995,52.137550501942634,-92.24360919585227,72.1922225099802
2024-09-23 23:21:32.505980,39.75,59.939404,4.973845218406054e-05,-0.026912129010386178,0.09645586349183995,52.137550501942634,-92.24360919585227,72.1922225099802
2024-09-23 23:21:32.547879,39.75,59.939404,-0.00014922575204880957,-0.026713146103752982,0.09645586349183995,52.137550501942634,-92.24360919585227,72.1922225099802
2024-09-23 23:21:32.559559,39.75,59.939404,-0.00014922575204880957,-0.026713146103752982,0.09675432418099966,40.106058693909645,-92.24360919585227,80.21211738781929
2024-09-23 23:21:32.602308,39.75,59.939502,0.0003979595949556242,-0.02686238252423954,0.09615739065086683,44.11764879391193,-92.24360919585227,80.21211738781929
2024-09-23 23:21:32.614632,39.75,59.939502,0.0003979595949556242,-0.02686238252423954,0.09615739065086683,44.11764879391193,-92.24360919585227,80.21211738781929
2024-09-23 23:21:32.647276,39.75,59.939553,0.0009451553255896806,-0.02686238252423954,0.09615739065086683,44.11764879391193,-92.24360919585227,68.18063240997792
2024-09-23 23:21:32.658872,39.75,59.939553,0.0009451553255896806,-0.026563909683266423,0.09665483728461309,40.106058693909645,-92.24360919585227,68.18063240997792
2024-09-23 23:21:32.702499,39.75,59.939603,0.0003979595949556242,-0.026464422786879854,0.09640611396773996,40.106058693909645,-100.26678939585686,72.1922225099802
2024-09-23 23:21:32.744316,39.75,59.939603,0.0003979595949556242,-0.026464422786879854,0.09640611396773996,48.12595698684454,-88.23529758782387,80.21211738781929
2024-09-23 23:21:32.755368,39.75,59.939696,0.0,-0.026315186366393295,0.09640611396773996,48.12595698684454,-88.23529758782387,80.21211738781929
2024-09-23 23:21:32.798161,39.75,59.939696,0.0,-0.026315186366393295,0.09615739065086683,52.137550501942634,-88.23529758782387,72.1922225099802
2024-09-23 23:21:32.840935,39.75,59.939748,0.0001989745997294981,-0.026315186366393295,0.09615739065086683,52.137550501942634,-88.23529758782387,72.1922225099802
2024-09-23 23:21:32.853098,39.75,59.939748,0.0001989745997294981,-0.02686238252423954,0.09645586349183995,48.12595698684454,-88.23529758782387,72.1922225099802
2024-09-23 23:21:32.896550,39.75,59.939842,0.0005969341946851222,-0.026563909683266423,0.09620712802315341,44.11764879391193,-88.23529758782387,72.1922225099802
2024-09-23 23:21:32.938558,39.75,59.939842,0.0005969341946851222,-0.026563909683266423,0.09620712802315341,44.11764879391193,-84.22370748782159,76.200527287817
2024-09-23 23:21:32.950642,39.75,59.939894,0.0006466830067647949,-0.026364923738679876,0.09635636444363997,44.11764879391193,-84.22370748782159,76.200527287817
2024-09-23 23:21:32.993894,39.75,59.939945,-0.00024872343554318134,-0.026364923738679876,0.09635636444363997,48.12595698684454,-88.23529758782387,76.200527287817
2024-09-23 23:21:33.087321,39.75,59.939945,-0.00024872343554318134,-0.026215699470006727,0.09580916828579372,40.106058693909645,-96.25519929585457,76.200527287817
2024-09-23 23:21:33.102018,39.75,59.939995,-0.00024872343554318134,-0.026215699470006727,0.09580916828579372,40.106058693909645,-96.25519929585457,72.1922225099802
2024-09-23 23:21:33.134886,39.75,59.939995,0.0003979595949556242,-0.026414673262779863,0.0962568775472534,40.106058693909645,-96.25519929585457,72.1922225099802
2024-09-23 23:21:33.146453,39.75,59.939995,0.0003979595949556242,-0.026414673262779863,0.0962568775472534,44.11764879391193,-92.24360919585227,72.1922225099802
2024-09-23 23:21:33.189339,39.75,59.940086,0.00029846189959424716,-0.026414673262779863,0.09650560086412653,48.12595698684454,-92.24360919585227,76.200527287817
2024-09-23 23:21:33.232234,39.75,59.940138,0.00029846189959424716,-0.026414673262779863,0.09650560086412653,48.12595698684454,-92.24360919585227,76.200527287817
2024-09-23 23:21:33.244575,39.75,59.940138,0.00044769805900669,-0.026713146103752982,0.09680407370509965,48.12595698684454,-92.24360919585227,76.200527287817
2024-09-23 23:21:33.328117,39.75,59.940138,0.00044769805900669,-0.026713146103752982,0.09680407370509965,40.106058693909645,-88.23529758782387,76.200527287817
2024-09-23 23:21:33.340605,39.75,59.940188,0.00034821073540793035,-0.02706135631701268,0.09680407370509965,40.106058693909645,-88.23529758782387,72.1922225099802
2024-09-23 23:21:33.383497,39.75,59.940283,0.00034821073540793035,-0.02706135631701268,0.09620712802315341,44.11764879391193,-92.24360919585227,72.1922225099802
2024-09-23 23:21:33.395327,39.75,59.940283,0.00044769805900669,-0.02706135631701268,0.09620712802315341,44.11764879391193,-92.24360919585227,72.1922225099802
2024-09-23 23:21:33.427557,39.61,59.940283,0.00044769805900669,-0.026414673262779863,0.09620712802315341,44.11764879391193,-92.24360919585227,72.1922225099802
2024-09-23 23:21:33.479801,39.61,59.940379,0.00044769805900669,-0.026414673262779863,0.09690356060148622,48.12595698684454,-88.23529758782387,80.21211738781929
2024-09-23 23:21:33.492000,39.61,59.940379,0.00034821073540793035,-0.026414673262779863,0.09690356060148622,48.12595698684454,-88.23529758782387,80.21211738781929
2024-09-23 23:21:33.524820,39.61,59.940379,0.00034821073540793035,-0.026265436842293304,0.0962568775472534,36.09446859390736,-88.23529758782387,80.21211738781929
2024-09-23 23:21:33.536349,39.61,59.94043,0.00034821073540793035,-0.026265436842293304,0.0962568775472534,36.09446859390736,-88.23529758782387,76.200527287817
2024-09-23 23:21:33.578934,39.61,59.94043,0.00024872343554318134,-0.02576799020854705,0.09695331012558621,44.11764879391193,-92.24360919585227,80.21211738781929
2024-09-23 23:21:33.620948,39.61,59.940526,0.0003979595949556242,-0.02576799020854705,0.09695331012558621,44.11764879391193,-92.24360919585227,80.21211738781929
2024-09-23 23:21:33.633030,39.61,59.940526,0.0003979595949556242,-0.026713146103752982,0.09680407370509965,52.137550501942634,-88.23529758782387,80.21211738781929
2024-09-23 23:21:33.676025,39.61,59.940577,-0.0001989745997294981,-0.02581772758083363,0.0970030596496862,52.137550501942634,-88.23529758782387,72.1922225099802
2024-09-23 23:21:33.687860,39.61,59.940577,-0.0001989745997294981,-0.02581772758083363,0.0970030596496862,52.137550501942634,-88.23529758782387,72.1922225099802
2024-09-23 23:21:33.720182,39.61,59.940577,-0.0001989745997294981,-0.02581772758083363,0.0970030596496862,52.137550501942634,-88.23529758782387,76.200527287817
2024-09-23 23:21:33.732019,39.61,59.940673,0.0004974468710863627,-0.026165949945906736,0.0970030596496862,52.137550501942634,-88.23529758782387,76.200527287817
2024-09-23 23:21:33.764429,39.61,59.940673,0.0004974468710863627,-0.026165949945906736,0.0970030596496862,40.106058693909645,-88.23529758782387,76.200527287817
2024-09-23 23:21:33.775771,39.61,59.940724,0.00029846189959424716,-0.026663396579652995,0.0970030596496862,40.106058693909645,-92.24360919585227,76.200527287817
2024-09-23 23:21:33.817682,39.61,59.940724,0.00029846189959424716,-0.026663396579652995,0.09705279702197278,52.137550501942634,-92.24360919585227,76.200527287817
2024-09-23 23:21:33.871608,39.61,59.940774,0.00024872343554318134,-0.026663396579652995,0.09615739065086683,52.137550501942634,-92.24360919585227,80.21211738781929
2024-09-23 23:21:33.914597,39.61,59.940866,0.00024872343554318134,-0.026663396579652995,0.09615739065086683,52.137550501942634,-96.25519929585457,76.200527287817
2024-09-23 23:21:33.926306,39.61,59.940866,0.0006964318663124887,-0.026464422786879854,0.09620712802315341,52.137550501942634,-96.25519929585457,76.200527287817
2024-09-23 23:21:33.969277,39.61,59.940918,0.00024872343554318134,-0.026563909683266423,0.09620712802315341,48.12595698684454,-92.24360919585227,80.21211738781929
2024-09-23 23:21:34.012866,39.61,59.940918,0.00024872343554318134,-0.026563909683266423,0.09665483728461309,44.11764879391193,-96.25519929585457,80.21211738781929
2024-09-23 23:21:34.024764,39.61,59.940968,0.0006466830067647949,-0.026563909683266423,0.09665483728461309,44.11764879391193,-96.25519929585457,76.200527287817
2024-09-23 23:21:34.108387,39.61,59.940968,0.0006466830067647949,-0.025867477104933617,0.09650560086412653,44.11764879391193,-96.25519929585457,76.200527287817
2024-09-23 23:21:34.120393,39.61,59.941019,0.0006466830067647949,-0.025867477104933617,0.09650560086412653,40.106058693909645,-100.26678939585686,80.21211738781929
2024-09-23 23:21:34.163434,39.61,59.941019,0.0004974468710863627,-0.026364923738679876,0.09630662707135339,44.11764879391193,-92.24360919585227,80.21211738781929
2024-09-23 23:21:34.206424,39.61,59.94111,0.0004974468710863627,-0.026364923738679876,0.09630662707135339,44.11764879391193,-92.24360919585227,72.1922225099802
2024-09-23 23:21:34.218213,39.61,59.94111,0.0008954064660419869,-0.026414673262779863,0.09695331012558621,44.11764879391193,-92.24360919585227,72.1922225099802
2024-09-23 23:21:34.260185,39.61,59.941162,0.0005969341946851222,-0.02686238252423954,0.09695331012558621,44.11764879391193,-92.24360919585227,76.200527287817
2024-09-23 23:21:34.272235,39.61,59.941162,0.0005969341946851222,-0.02686238252423954,0.09705279702197278,44.11764879391193,-92.24360919585227,76.200527287817
2024-09-23 23:21:34.355912,39.61,59.941213,0.0005969341946851222,-0.02686238252423954,0.09705279702197278,40.106058693909645,-96.25519929585457,80.21211738781929
2024-09-23 23:21:34.367149,39.61,59.941213,9.948729986474904e-05,-0.026265436842293304,0.09705279702197278,40.106058693909645,-96.25519929585457,80.21211738781929
2024-09-23 23:21:34.399977,39.61,59.941213,9.948729986474904e-05,-0.026265436842293304,0.09640611396773996,40.106058693909645,-96.25519929585457,80.21211738781929
2024-09-23 23:21:34.411962,39.61,59.941307,0.00034821073540793035,-0.026265436842293304,0.09640611396773996,44.11764879391193,-92.24360919585227,76.200527287817
2024-09-23 23:21:34.455134,39.68,59.941307,0.00034821073540793035,-0.026265436842293304,0.09645586349183995,52.137550501942634,-88.23529758782387,80.21211738781929
2024-09-23 23:21:34.466700,39.68,59.941358,0.00034821073540793035,-0.026265436842293304,0.09645586349183995,52.137550501942634,-88.23529758782387,80.21211738781929
2024-09-23 23:21:34.499042,39.68,59.941358,9.948729986474904e-05,-0.026265436842293304,0.09645586349183995,52.137550501942634,-88.23529758782387,80.21211738781929
2024-09-23 23:21:34.510820,39.68,59.941358,9.948729986474904e-05,-0.026265436842293304,0.09575943091350714,44.11764879391193,-96.25519929585457,80.21211738781929
2024-09-23 23:21:34.553623,39.68,59.941452,0.0005471957306340564,-0.026663396579652995,0.09715228999426605,36.09446859390736,-96.25519929585457,80.21211738781929
2024-09-23 23:21:34.565837,39.68,59.941452,0.0005471957306340564,-0.026663396579652995,0.09715228999426605,36.09446859390736,-88.23529758782387,80.21211738781929
2024-09-23 23:21:34.598139,39.68,59.94155,0.00044769805900669,-0.026663396579652995,0.09715228999426605,36.09446859390736,-88.23529758782387,72.1922225099802
2024-09-23 23:21:34.651275,39.68,59.941601,0.00044769805900669,-0.026713146103752982,0.09645586349183995,44.11764879391193,-88.23529758782387,76.200527287817
2024-09-23 23:21:34.694687,39.68,59.941601,0.0007461703303635545,-0.026464422786879854,0.09665483728461309,44.11764879391193,-88.23529758782387,76.200527287817
2024-09-23 23:21:34.706268,39.68,59.941601,0.0007461703303635545,-0.026464422786879854,0.09665483728461309,36.09446859390736,-88.23529758782387,72.1922225099802
2024-09-23 23:21:34.748260,39.68,59.941652,0.0007461703303635545,-0.026663396579652995,0.09655535038822652,44.11764879391193,-96.25519929585457,72.1922225099802
2024-09-23 23:21:34.790541,39.68,59.941702,0.0007461703303635545,-0.026663396579652995,0.09655535038822652,44.11764879391193,-96.25519929585457,80.21211738781929
2024-09-23 23:21:34.802812,39.68,59.941702,0.0006466830067647949,-0.026066463049520167,0.09620712802315341,48.12595698684454,-96.25519929585457,80.21211738781929
2024-09-23 23:21:34.845763,39.68,59.941792,0.00029846189959424716,-0.026464422786879854,0.09620712802315341,48.12595698684454,-92.24360919585227,80.21211738781929
2024-09-23 23:21:34.887718,39.68,59.941792,0.00029846189959424716,-0.026464422786879854,0.0962568775472534,40.106058693909645,-92.24360919585227,80.21211738781929
2024-09-23 23:21:34.899204,39.68,59.941844,0.0004974468710863627,-0.026464422786879854,0.0962568775472534,40.106058693909645,-92.24360919585227,80.21211738781929
2024-09-23 23:21:34.942124,39.68,59.941844,0.0004974468710863627,-0.026265436842293304,0.09715228999426605,48.12595698684454,-100.26678939585686,72.1922225099802
2024-09-23 23:21:34.953716,39.68,59.941895,0.0004974468710863627,-0.026265436842293304,0.09715228999426605,48.12595698684454,-100.26678939585686,72.1922225099802
2024-09-23 23:21:34.986332,39.68,59.941895,0.00014922575204880957,-0.026116200421806745,0.09715228999426605,48.12595698684454,-100.26678939585686,72.1922225099802
2024-09-23 23:21:34.997844,39.68,59.941895,0.00014922575204880957,-0.026116200421806745,0.09645586349183995,48.12595698684454,-88.23529758782387,72.1922225099802
2024-09-23 23:21:35.041023,39.68,59.941987,9.948729986474904e-05,-0.026165949945906736,0.0966050877605131,44.11764879391193,-88.23529758782387,72.1922225099802
2024-09-23 23:21:35.053325,39.68,59.941987,9.948729986474904e-05,-0.026165949945906736,0.0966050877605131,44.11764879391193,-88.23529758782387,72.1922225099802
2024-09-23 23:21:35.189179,39.68,59.942039,0.00014922575204880957,-0.026265436842293304,0.0966050877605131,44.11764879391193,-88.23529758782387,72.1922225099802
2024-09-23 23:21:35.231998,39.68,59.942039,0.00014922575204880957,-0.026265436842293304,0.0966050877605131,48.12595698684454,-84.22370748782159,72.1922225099802
2024-09-23 23:21:35.243992,39.68,59.942039,0.00014922575204880957,-0.026265436842293304,0.0966050877605131,48.12595698684454,-84.22370748782159,80.21211738781929
2024-09-23 23:21:35.275988,39.68,59.94209,0.00014922575204880957,-0.026265436842293304,0.0966050877605131,48.12595698684454,-84.22370748782159,80.21211738781929
2024-09-23 23:21:35.287720,39.68,59.94209,0.0006964318663124887,-0.026414673262779863,0.09605789160266685,48.12595698684454,-84.22370748782159,80.21211738781929
2024-09-23 23:21:35.330787,39.68,59.94209,0.0006964318663124887,-0.026414673262779863,0.09605789160266685,44.11764879391193,-84.22370748782159,80.21211738781929
2024-09-23 23:21:35.373988,39.68,59.94209,0.0006964318663124887,-0.026414673262779863,0.09605789160266685,44.11764879391193,-88.23529758782387,80.21211738781929
2024-09-23 23:21:35.385885,39.68,59.94214,0.00044769805900669,-0.026464422786879854,0.09605789160266685,44.11764879391193,-88.23529758782387,76.200527287817
2024-09-23 23:21:35.427828,39.68,59.94214,0.00044769805900669,-0.026464422786879854,0.09650560086412653,44.11764879391193,-88.23529758782387,76.200527287817
2024-09-23 23:21:35.481200,39.05,59.942191,0.00014922575204880957,-0.026215699470006727,0.09635636444363997,44.11764879391193,-92.24360919585227,76.200527287817
2024-09-23 23:21:35.575783,39.05,59.942329,0.0006466830067647949,-0.026215699470006727,0.09635636444363997,36.09446859390736,-92.24360919585227,72.1922225099802
2024-09-23 23:21:35.587805,39.05,59.942329,0.0006466830067647949,-0.026563909683266423,0.09635636444363997,36.09446859390736,-92.24360919585227,72.1922225099802
2024-09-23 23:21:35.619749,39.05,59.942329,0.0006466830067647949,-0.026563909683266423,0.0973015264147526,44.11764879391193,-92.24360919585227,72.1922225099802
2024-09-23 23:21:35.630775,39.05,59.942428,0.0004974468710863627,-0.026563909683266423,0.0973015264147526,44.11764879391193,-88.23529758782387,72.1922225099802
2024-09-23 23:21:35.672702,39.05,59.942428,0.0004974468710863627,-0.026215699470006727,0.09610764112676684,44.11764879391193,-92.24360919585227,72.1922225099802
2024-09-23 23:21:35.685037,39.05,59.942573,0.0004974468710863627,-0.026215699470006727,0.09610764112676684,44.11764879391193,-92.24360919585227,72.1922225099802
2024-09-23 23:21:35.716543,39.05,59.942573,-0.00014922575204880957,-0.02676289258989962,0.09610764112676684,44.11764879391193,-92.24360919585227,72.1922225099802
2024-09-23 23:21:35.728419,39.05,59.942573,-0.00014922575204880957,-0.02676289258989962,0.09655535038822652,40.106058693909645,-88.23529758782387,76.200527287817
2024-09-23 23:21:35.770872,39.05,59.94267,0.0006964318663124887,-0.026563909683266423,0.09635636444363997,44.11764879391193,-88.23529758782387,76.200527287817
2024-09-23 23:21:35.782604,39.05,59.94267,0.0006964318663124887,-0.026563909683266423,0.09635636444363997,44.11764879391193,-88.23529758782387,76.200527287817
2024-09-23 23:21:35.814646,39.05,59.942769,0.0006964318663124887,-0.026563909683266423,0.09635636444363997,44.11764879391193,-88.23529758782387,76.200527287817
2024-09-23 23:21:35.826017,39.05,59.942769,0.0007461703303635545,-0.026016713525420176,0.09635636444363997,52.137550501942634,-88.23529758782387,76.200527287817
2024-09-23 23:21:35.870186,39.05,59.94282,0.00024872343554318134,-0.02706135631701268,0.09680407370509965,52.137550501942634,-96.25519929585457,76.200527287817
2024-09-23 23:21:35.912956,39.05,59.94282,0.00024872343554318134,-0.02706135631701268,0.09680407370509965,40.106058693909645,-88.23529758782387,76.200527287817
2024-09-23 23:21:35.966496,39.05,59.94287,0.0005969341946851222,-0.026315186366393295,0.09685382322919964,44.11764879391193,-88.23529758782387,72.1922225099802
2024-09-23 23:21:36.061584,39.05,59.942921,9.948729986474904e-05,-0.026315186366393295,0.09685382322919964,44.11764879391193,-100.26678939585686,76.200527287817
2024-09-23 23:21:36.073556,39.05,59.942921,9.948729986474904e-05,-0.02721059273749924,0.09645586349183995,44.11764879391193,-100.26678939585686,76.200527287817
2024-09-23 23:21:36.158615,39.05,59.943011,9.948729986474904e-05,-0.02721059273749924,0.09645586349183995,40.106058693909645,-92.24360919585227,72.1922225099802
2024-09-23 23:21:36.170586,39.05,59.943011,0.0007461703303635545,-0.026414673262779863,0.09645586349183995,40.106058693909645,-92.24360919585227,72.1922225099802
2024-09-23 23:21:36.202484,39.05,59.943011,0.0007461703303635545,-0.026414673262779863,0.09680407370509965,40.106058693909645,-92.24360919585227,72.1922225099802
2024-09-23 23:21:36.214693,39.05,59.943063,0.0008954064660419869,-0.026414673262779863,0.09680407370509965,48.12595698684454,-96.25519929585457,72.1922225099802
2024-09-23 23:21:36.257963,39.05,59.943063,0.0008954064660419869,-0.026414673262779863,0.09680407370509965,40.106058693909645,-96.25519929585457,76.200527287817
2024-09-23 23:21:36.270146,39.05,59.943113,0.0008954064660419869,-0.026414673262779863,0.09680407370509965,40.106058693909645,-96.25519929585457,76.200527287817
2024-09-23 23:21:36.302260,39.05,59.943113,0.00029846189959424716,-0.02566849116034707,0.09680407370509965,40.106058693909645,-96.25519929585457,76.200527287817
2024-09-23 23:21:36.314057,39.05,59.943113,0.00029846189959424716,-0.02566849116034707,0.09640611396773996,40.106058693909645,-100.26678939585686,76.200527287817
2024-09-23 23:21:36.358184,39.05,59.943255,0.00029846189959424716,-0.02566849116034707,0.09640611396773996,40.106058693909645,-100.26678939585686,76.200527287817
2024-09-23 23:21:36.401348,39.05,59.943255,0.00034821073540793035,-0.026563909683266423,0.09665483728461309,40.106058693909645,-100.26678939585686,76.200527287817
2024-09-23 23:21:36.412779,39.05,59.943255,0.00034821073540793035,-0.026563909683266423,0.09665483728461309,52.137550501942634,-96.25519929585457,80.21211738781929
2024-09-23 23:21:36.455768,39.05,59.943354,4.973845218406054e-05,-0.026663396579652995,0.09650560086412653,52.137550501942634,-96.25519929585457,80.21211738781929
2024-09-23 23:21:36.498532,39.09,59.943354,4.973845218406054e-05,-0.026663396579652995,0.09650560086412653,52.137550501942634,-96.25519929585457,80.21211738781929
2024-09-23 23:21:36.550889,39.09,59.943405,0.0007959191899112484,-0.026265436842293304,0.09645586349183995,52.137550501942634,-96.25519929585457,76.200527287817
2024-09-23 23:21:36.563390,39.09,59.943405,0.0007959191899112484,-0.026265436842293304,0.09645586349183995,44.11764879391193,-96.25519929585457,76.200527287817
2024-09-23 23:21:36.596496,39.09,59.943455,0.0007959191899112484,-0.026265436842293304,0.09645586349183995,44.11764879391193,-92.24360919585227,72.1922225099802
2024-09-23 23:21:36.608074,39.09,59.943455,0.0005969341946851222,-0.026315186366393295,0.09690356060148622,44.11764879391193,-92.24360919585227,72.1922225099802
2024-09-23 23:21:36.651078,39.09,59.943506,0.0004974468710863627,-0.02661365616941306,0.09690356060148622,60.15744537978172,-92.24360919585227,76.200527287817
2024-09-23 23:21:36.744781,39.09,59.943506,0.0004974468710863627,-0.02661365616941306,0.09929132510155105,72.1922225099802,-92.24360919585227,68.18063240997792
2024-09-23 23:21:36.756775,39.09,59.943599,0.00029846189959424716,-0.02661365616941306,0.09929132510155105,72.1922225099802,-92.24360919585227,68.18063240997792
2024-09-23 23:21:36.789223,39.09,59.943599,0.00029846189959424716,-0.026563909683266423,0.09720203344245934,72.1922225099802,-92.24360919585227,68.18063240997792
2024-09-23 23:21:36.800901,39.09,59.943599,0.00029846189959424716,-0.026563909683266423,0.09720203344245934,52.137550501942634,-92.24360919585227,68.18063240997792
2024-09-23 23:21:36.842985,39.09,59.943599,0.00029846189959424716,-0.026563909683266423,0.09720203344245934,52.137550501942634,-92.24360919585227,68.18063240997792
2024-09-23 23:21:36.884851,39.09,59.943599,0.00029846189959424716,-0.026563909683266423,0.09720203344245934,52.137550501942634,-92.24360919585227,88.23529758782387
2024-09-23 23:21:36.896511,39.09,59.943695,0.00029846189959424716,-0.026315186366393295,0.09720203344245934,52.137550501942634,-92.24360919585227,88.23529758782387
2024-09-23 23:21:36.939362,39.09,59.943695,0.00029846189959424716,-0.026315186366393295,0.0962568775472534,52.137550501942634,-84.22370748782159,88.23529758782387
2024-09-23 23:21:36.994584,39.09,59.943792,0.00034821073540793035,-0.026414673262779863,0.0962568775472534,32.08287849390507,-84.22370748782159,80.21211738781929
2024-09-23 23:21:37.038515,39.09,59.943843,0.0004974468710863627,-0.026116200421806745,0.0962568775472534,32.08287849390507,-84.22370748782159,76.200527287817
2024-09-23 23:21:37.050189,39.09,59.943843,0.0004974468710863627,-0.026116200421806745,0.09570968138940715,32.08287849390507,-84.22370748782159,76.200527287817
2024-09-23 23:21:37.082782,39.09,59.943843,0.0004974468710863627,-0.026116200421806745,0.09570968138940715,48.12595698684454,-84.22370748782159,76.200527287817
2024-09-23 23:21:37.279369,39.09,59.943939,0.0004974468710863627,-0.026116200421806745,0.09570968138940715,48.12595698684454,-100.26678939585686,68.18063240997792
2024-09-23 23:21:37.291563,39.09,59.943939,0.0004974468710863627,-0.026265436842293304,0.0962568775472534,48.12595698684454,-100.26678939585686,68.18063240997792
2024-09-23 23:21:37.375309,39.09,59.943939,0.0004974468710863627,-0.026265436842293304,0.0962568775472534,48.12595698684454,-100.26678939585686,68.18063240997792
2024-09-23 23:21:37.479342,39.09,59.944035,0.00044769805900669,-0.026464422786879854,0.0970030596496862,48.12595698684454,-92.24360919585227,72.1922225099802
2024-09-23 23:21:37.574036,37.88,59.944134,0.00044769805900669,-0.026464422786879854,0.0970030596496862,52.137550501942634,-92.24360919585227,72.1922225099802
2024-09-23 23:21:37.586128,37.88,59.944134,0.00034821073540793035,-0.026464422786879854,0.0970030596496862,52.137550501942634,-92.24360919585227,72.1922225099802
2024-09-23 23:21:37.618142,37.88,59.944134,0.00034821073540793035,-0.026165949945906736,0.09670458680871308,52.137550501942634,-92.24360919585227,72.1922225099802
2024-09-23 23:21:37.629991,37.88,59.944134,0.00034821073540793035,-0.026165949945906736,0.09670458680871308,40.106058693909645,-92.24360919585227,72.1922225099802
2024-09-23 23:21:37.672649,37.88,59.944134,0.00034821073540793035,-0.026165949945906736,0.09670458680871308,40.106058693909645,-92.24360919585227,72.1922225099802
2024-09-23 23:21:37.714640,37.88,59.94423,0.00034821073540793035,-0.026165949945906736,0.09670458680871308,40.106058693909645,-92.24360919585227,72.1922225099802
2024-09-23 23:21:37.726808,37.88,59.94423,0.00014922575204880957,-0.026265436842293304,0.09680407370509965,44.11764879391193,-96.25519929585457,72.1922225099802
2024-09-23 23:21:37.769370,37.88,59.944474,4.973845218406054e-05,-0.026116200421806745,0.09640611396773996,44.11764879391193,-96.25519929585457,76.200527287817
2024-09-23 23:21:37.862994,37.88,59.944474,4.973845218406054e-05,-0.026116200421806745,0.09640611396773996,48.12595698684454,-92.24360919585227,76.200527287817
2024-09-23 23:21:37.916418,37.88,59.944669,9.948729986474904e-05,-0.026215699470006727,0.09665483728461309,48.12595698684454,-92.24360919585227,76.200527287817
2024-09-23 23:21:37.928969,37.88,59.944669,9.948729986474904e-05,-0.026215699470006727,0.09665483728461309,52.137550501942634,-92.24360919585227,76.200527287817
2024-09-23 23:21:37.961277,37.88,59.944767,9.948729986474904e-05,-0.026215699470006727,0.09665483728461309,52.137550501942634,-84.22370748782159,80.21211738781929
2024-09-23 23:21:38.013726,37.88,59.944767,0.0006466830067647949,-0.026364923738679876,0.09655535038822652,52.137550501942634,-84.22370748782159,80.21211738781929
2024-09-23 23:21:38.108711,37.88,59.944767,0.0006466830067647949,-0.026364923738679876,0.09655535038822652,48.12595698684454,-84.22370748782159,80.21211738781929
2024-09-23 23:21:38.305955,37.88,59.944767,0.0006466830067647949,-0.026364923738679876,0.09655535038822652,48.12595698684454,-100.26678939585686,80.21211738781929
2024-09-23 23:21:38.350302,37.88,59.944865,0.0006466830067647949,-0.026364923738679876,0.09655535038822652,48.12595698684454,-100.26678939585686,72.1922225099802
2024-09-23 23:21:38.361806,37.88,59.944865,0.0005471957306340564,-0.026563909683266423,0.09675432418099966,52.137550501942634,-100.26678939585686,72.1922225099802
2024-09-23 23:21:38.405917,37.88,59.944865,0.0005471957306340564,-0.026563909683266423,0.09675432418099966,52.137550501942634,-84.22370748782159,72.1922225099802
2024-09-23 23:21:38.449224,37.88,59.944961,9.948729986474904e-05,-0.026563909683266423,0.09675432418099966,52.137550501942634,-84.22370748782159,72.1922225099802
2024-09-23 23:21:38.461153,37.88,59.944961,9.948729986474904e-05,-0.02681263300013955,0.09670458680871308,48.12595698684454,-84.22370748782159,72.1922225099802
2024-09-23 23:21:38.493736,37.88,59.944961,9.948729986474904e-05,-0.02681263300013955,0.09670458680871308,48.12595698684454,-88.23529758782387,72.1922225099802
2024-09-23 23:21:38.504729,37.88,59.94506,9.948729986474904e-05,-0.02681263300013955,0.09670458680871308,48.12595698684454,-88.23529758782387,76.200527287817
2024-09-23 23:21:38.547806,37.88,59.94506,0.0004974468710863627,-0.02676289258989962,0.09715228999426605,44.11764879391193,-88.23529758782387,76.200527287817
2024-09-23 23:21:38.559826,37.88,59.94506,0.0004974468710863627,-0.02676289258989962,0.09715228999426605,44.11764879391193,-96.25519929585457,76.200527287817
2024-09-23 23:21:38.592500,37.01,59.94506,0.0004974468710863627,-0.02676289258989962,0.09715228999426605,44.11764879391193,-96.25519929585457,72.1922225099802
2024-09-23 23:21:38.604513,37.01,59.945157,0.0006964318663124887,-0.025966964001320186,0.09600815423038027,44.11764879391193,-96.25519929585457,72.1922225099802
2024-09-23 23:21:38.646973,37.01,59.945498,0.0005969341946851222,-0.02661365616941306,0.09600815423038027,44.11764879391193,-92.24360919585227,72.1922225099802
2024-09-23 23:21:38.658654,37.01,59.945498,0.0005969341946851222,-0.02661365616941306,0.09670458680871308,44.11764879391193,-92.24360919585227,72.1922225099802
2024-09-23 23:21:38.690965,37.01,59.945498,0.0005969341946851222,-0.02661365616941306,0.09670458680871308,44.11764879391193,-100.26678939585686,72.1922225099802
2024-09-23 23:21:38.702173,37.01,59.945596,0.00034821073540793035,-0.026414673262779863,0.09670458680871308,44.11764879391193,-100.26678939585686,72.1922225099802
2024-09-23 23:21:38.745183,37.01,59.945693,0.0006466830067647949,-0.026414673262779863,0.09640611396773996,52.137550501942634,-88.23529758782387,64.16903547978401
2024-09-23 23:21:38.788115,37.01,59.945693,0.0006466830067647949,-0.026563909683266423,0.09580916828579372,52.137550501942634,-88.23529758782387,64.16903547978401
2024-09-23 23:21:38.799553,37.01,59.945693,0.0006466830067647949,-0.026563909683266423,0.09580916828579372,40.106058693909645,-84.22370748782159,80.21211738781929
2024-09-23 23:21:38.883633,37.01,59.945744,0.0006466830067647949,-0.026563909683266423,0.09580916828579372,40.106058693909645,-84.22370748782159,80.21211738781929
2024-09-23 23:21:38.894767,37.01,59.945744,0.0004974468710863627,-0.026414673262779863,0.09645586349183995,44.11764879391193,-92.24360919585227,80.21211738781929
2024-09-23 23:21:38.937239,37.01,59.945744,0.0004974468710863627,-0.026414673262779863,0.09645586349183995,44.11764879391193,-92.24360919585227,76.200527287817
2024-09-23 23:21:38.991647,37.01,59.94584,0.0003979595949556242,-0.025966964001320186,0.09710254654607277,44.11764879391193,-92.24360919585227,76.200527287817
2024-09-23 23:21:39.033791,37.01,59.94584,0.0003979595949556242,-0.025966964001320186,0.09710254654607277,44.11764879391193,-92.24360919585227,84.22370748782159
2024-09-23 23:21:39.127167,37.01,59.945891,0.0003979595949556242,-0.025966964001320186,0.09710254654607277,44.11764879391193,-92.24360919585227,84.22370748782159
2024-09-23 23:21:39.232067,37.01,59.945891,0.00044769805900669,-0.025966964001320186,0.09710254654607277,44.11764879391193,-92.24360919585227,84.22370748782159
2024-09-23 23:21:39.276392,37.01,59.945891,0.00044769805900669,-0.026215699470006727,0.09650560086412653,44.11764879391193,-92.24360919585227,84.22370748782159
2024-09-23 23:21:39.287798,37.01,59.945941,0.00044769805900669,-0.026215699470006727,0.09650560086412653,36.09446859390736,-80.21211738781929,80.21211738781929
2024-09-23 23:21:39.331301,37.01,59.945941,0.00024872343554318134,-0.026265436842293304,0.09680407370509965,40.106058693909645,-88.23529758782387,76.200527287817
2024-09-23 23:21:39.373895,37.01,59.945992,-0.0001989745997294981,-0.026265436842293304,0.09680407370509965,40.106058693909645,-88.23529758782387,76.200527287817
2024-09-23 23:21:39.386127,37.01,59.945992,-0.0001989745997294981,-0.02661365616941306,0.09645586349183995,44.11764879391193,-92.24360919585227,76.200527287817
2024-09-23 23:21:39.429067,37.01,59.946131,0.0001989745997294981,-0.026464422786879854,0.09680407370509965,44.11764879391193,-92.24360919585227,76.200527287817
2024-09-23 23:21:39.523774,37.01,59.946229,0.00014922575204880957,-0.026364923738679876,0.09680407370509965,44.11764879391193,-88.23529758782387,76.200527287817
2024-09-23 23:21:39.535771,37.01,59.946229,0.00014922575204880957,-0.026364923738679876,0.09710254654607277,44.11764879391193,-88.23529758782387,76.200527287817
2024-09-23 23:21:39.567711,37.01,59.946229,0.00014922575204880957,-0.026364923738679876,0.09710254654607277,44.11764879391193,-92.24360919585227,76.200527287817
2024-09-23 23:21:39.579133,37.01,59.946475,0.00014922575204880957,-0.026364923738679876,0.09710254654607277,44.11764879391193,-92.24360919585227,76.200527287817
2024-09-23 23:21:39.621416,36.13,59.946475,0.0006466830067647949,-0.026663396579652995,0.0962568775472534,44.11764879391193,-92.24360919585227,76.200527287817
2024-09-23 23:21:39.663862,36.13,59.946475,0.0006466830067647949,-0.026663396579652995,0.0962568775472534,32.08287849390507,-92.24360919585227,76.200527287817
2024-09-23 23:21:39.675251,36.13,59.946525,0.00029846189959424716,-0.026663396579652995,0.0962568775472534,32.08287849390507,-92.24360919585227,72.1922225099802
2024-09-23 23:21:39.718617,36.13,59.946525,0.00029846189959424716,-0.026563909683266423,0.09665483728461309,44.11764879391193,-92.24360919585227,72.1922225099802
2024-09-23 23:21:39.729883,36.13,59.946619,0.00029846189959424716,-0.026563909683266423,0.09665483728461309,44.11764879391193,-92.24360919585227,72.1922225099802
2024-09-23 23:21:39.762353,36.13,59.946619,0.00034821073540793035,-0.026563909683266423,0.09665483728461309,44.11764879391193,-92.24360919585227,72.1922225099802
2024-09-23 23:21:39.773796,36.13,59.946619,0.00034821073540793035,-0.026514160159166435,0.09640611396773996,44.11764879391193,-88.23529758782387,76.200527287817
2024-09-23 23:21:39.816137,36.13,59.946717,0.000845657606494293,-0.026514160159166435,0.09640611396773996,44.11764879391193,-88.23529758782387,76.200527287817
2024-09-23 23:21:39.910124,36.13,59.946717,0.000845657606494293,-0.026165949945906736,0.09640611396773996,44.11764879391193,-88.23529758782387,76.200527287817
2024-09-23 23:21:39.963195,36.13,59.946768,0.000845657606494293,-0.026165949945906736,0.09635636444363997,40.106058693909645,-88.23529758782387,76.200527287817
2024-09-23 23:21:40.006297,36.13,59.946768,-9.948729986474904e-05,-0.026066463049520167,0.09635636444363997,40.106058693909645,-88.23529758782387,76.200527287817
2024-09-23 23:21:40.111305,36.13,59.946864,-9.948729986474904e-05,-0.026066463049520167,0.09675432418099966,40.106058693909645,-92.24360919585227,72.1922225099802
2024-09-23 23:21:40.123863,36.13,59.946864,0.0001989745997294981,-0.026066463049520167,0.09675432418099966,40.106058693909645,-92.24360919585227,72.1922225099802
2024-09-23 23:21:40.209848,36.13,59.946864,0.0001989745997294981,-0.026464422786879854,0.09675432418099966,40.106058693909645,-92.24360919585227,72.1922225099802
2024-09-23 23:21:40.303296,36.13,59.946864,0.0001989745997294981,-0.026464422786879854,0.09615739065086683,44.11764879391193,-92.24360919585227,76.200527287817
2024-09-23 23:21:40.315615,36.13,59.946915,0.0001989745997294981,-0.026464422786879854,0.09615739065086683,44.11764879391193,-92.24360919585227,76.200527287817
2024-09-23 23:21:40.348326,36.13,59.946915,0.0001989745997294981,-0.026464422786879854,0.09615739065086683,44.11764879391193,-92.24360919585227,76.200527287817
2024-09-23 23:21:40.452533,36.13,59.946965,0.0001989745997294981,-0.026265436842293304,0.0966050877605131,40.106058693909645,-92.24360919585227,76.200527287817
2024-09-23 23:21:40.546634,36.13,59.946965,0.0003979595949556242,-0.026265436842293304,0.09655535038822652,44.11764879391193,-92.24360919585227,76.200527287817
2024-09-23 23:21:40.558497,36.13,59.946965,0.0003979595949556242,-0.026265436842293304,0.09655535038822652,44.11764879391193,-96.25519929585457,68.18063240997792
2024-09-23 23:21:40.590789,36.13,59.947157,0.0003979595949556242,-0.026265436842293304,0.09655535038822652,44.11764879391193,-96.25519929585457,68.18063240997792
2024-09-23 23:21:40.643306,34.57,59.947157,9.948729986474904e-05,-0.026016713525420176,0.09655535038822652,44.11764879391193,-96.25519929585457,68.18063240997792
2024-09-23 23:21:40.697310,34.57,59.947157,9.948729986474904e-05,-0.026016713525420176,0.09690356060148622,44.11764879391193,-96.25519929585457,68.18063240997792
2024-09-23 23:21:40.791998,34.57,59.947303,4.973845218406054e-05,-0.026016713525420176,0.09690356060148622,44.11764879391193,-88.23529758782387,72.1922225099802
2024-09-23 23:21:40.803904,34.57,59.947303,4.973845218406054e-05,-0.026315186366393295,0.09690356060148622,44.11764879391193,-88.23529758782387,72.1922225099802
2024-09-23 23:21:40.836649,34.57,59.947303,4.973845218406054e-05,-0.026315186366393295,0.0970030596496862,40.106058693909645,-88.23529758782387,72.1922225099802
2024-09-23 23:21:41.084653,34.57,59.947303,4.973845218406054e-05,-0.026315186366393295,0.0970030596496862,40.106058693909645,-92.24360919585227,72.1922225099802
2024-09-23 23:21:41.128515,34.57,59.947498,4.973845218406054e-05,-0.026315186366393295,0.0970030596496862,40.106058693909645,-92.24360919585227,76.200527287817
2024-09-23 23:21:41.232893,34.57,59.947498,0.0007461703303635545,-0.026265436842293304,0.0970030596496862,40.106058693909645,-92.24360919585227,76.200527287817
2024-09-23 23:21:41.329743,34.57,59.947498,0.0007461703303635545,-0.026265436842293304,0.09695331012558621,44.11764879391193,-92.24360919585227,76.200527287817
2024-09-23 23:21:41.371729,34.57,59.947498,0.0007461703303635545,-0.026265436842293304,0.09695331012558621,44.11764879391193,-92.24360919585227,72.1922225099802
2024-09-23 23:21:41.477279,34.57,59.947645,0.0007461703303635545,-0.026265436842293304,0.09695331012558621,44.11764879391193,-92.24360919585227,72.1922225099802
2024-09-23 23:21:41.520039,34.57,59.947645,0.001044642601720419,-0.026265436842293304,0.09695331012558621,44.11764879391193,-92.24360919585227,72.1922225099802
2024-09-23 23:21:41.573864,34.57,59.947645,0.001044642601720419,-0.026165949945906736,0.09645586349183995,44.11764879391193,-92.24360919585227,72.1922225099802
2024-09-23 23:21:41.668788,32.51,59.947743,0.001044642601720419,-0.026165949945906736,0.09645586349183995,44.11764879391193,-96.25519929585457,80.21211738781929
2024-09-23 23:21:41.681073,32.51,59.947743,0.0003979595949556242,-0.026563909683266423,0.09645586349183995,44.11764879391193,-96.25519929585457,80.21211738781929
2024-09-23 23:21:41.765643,32.51,59.947743,0.0003979595949556242,-0.026563909683266423,0.09680407370509965,44.11764879391193,-96.25519929585457,80.21211738781929
2024-09-23 23:21:41.818858,32.51,59.947985,0.0005471957306340564,-0.026563909683266423,0.09680407370509965,44.11764879391193,-92.24360919585227,76.200527287817
2024-09-23 23:21:41.965321,32.51,59.947985,0.0005471957306340564,-0.026663396579652995,0.09680407370509965,44.11764879391193,-92.24360919585227,76.200527287817
2024-09-23 23:21:42.008921,32.51,59.947985,0.0005471957306340564,-0.026663396579652995,0.09635636444363997,40.106058693909645,-92.24360919585227,76.200527287817
2024-09-23 23:21:42.062070,32.51,59.948277,0.00029846189959424716,-0.026912129010386178,0.09630662707135339,40.106058693909645,-96.25519929585457,76.200527287817
2024-09-23 23:21:42.104377,32.51,59.948277,0.00029846189959424716,-0.026912129010386178,0.09630662707135339,40.106058693909645,-88.23529758782387,76.200527287817
2024-09-23 23:21:42.158581,32.51,59.948522,9.948729986474904e-05,-0.026364923738679876,0.09675432418099966,56.14914060194492,-96.25519929585457,76.200527287817
2024-09-23 23:21:42.201239,32.51,59.948522,9.948729986474904e-05,-0.026364923738679876,0.09675432418099966,56.14914060194492,-96.25519929585457,76.200527287817
2024-09-23 23:21:42.346199,32.51,59.948862,9.948729986474904e-05,-0.026364923738679876,0.09675432418099966,56.14914060194492,-96.25519929585457,76.200527287817
2024-09-23 23:21:42.358405,32.51,59.948862,-0.00014922575204880957,-0.02676289258989962,0.09675432418099966,56.14914060194492,-96.25519929585457,76.200527287817
2024-09-23 23:21:42.400772,32.51,59.948862,-0.00014922575204880957,-0.02676289258989962,0.09575943091350714,56.14914060194492,-96.25519929585457,76.200527287817
2024-09-23 23:21:42.494472,32.51,59.948862,-0.00014922575204880957,-0.02676289258989962,0.09575943091350714,44.11764879391193,-92.24360919585227,76.200527287817
2024-09-23 23:21:42.548094,32.51,59.949008,0.00044769805900669,-0.026315186366393295,0.09605789160266685,44.11764879391193,-92.24360919585227,76.200527287817
2024-09-23 23:21:42.560455,32.51,59.949008,0.00044769805900669,-0.026315186366393295,0.09605789160266685,44.11764879391193,-92.24360919585227,76.200527287817
2024-09-23 23:21:42.592242,32.51,59.949252,0.00044769805900669,-0.026315186366393295,0.09605789160266685,44.11764879391193,-92.24360919585227,72.1922225099802
2024-09-23 23:21:42.603856,32.51,59.949252,0.0007461703303635545,-0.026912129010386178,0.09600815423038027,44.11764879391193,-92.24360919585227,72.1922225099802
2024-09-23 23:21:42.647662,32.51,59.949303,0.0005969341946851222,-0.02706135631701268,0.09600815423038027,44.11764879391193,-84.22370748782159,76.200527287817
2024-09-23 23:21:42.690051,31.25,59.949303,0.0005969341946851222,-0.02706135631701268,0.09580916828579372,40.106058693909645,-92.24360919585227,76.200527287817
2024-09-23 23:21:42.701573,31.25,59.949398,4.973845218406054e-05,-0.02706135631701268,0.09580916828579372,40.106058693909645,-92.24360919585227,72.1922225099802
2024-09-23 23:21:42.744254,31.25,59.949691,4.973845218406054e-05,-0.02686238252423954,0.09675432418099966,44.11764879391193,-84.22370748782159,72.1922225099802
2024-09-23 23:21:42.787411,31.25,59.949691,0.0003979595949556242,-0.026265436842293304,0.09645586349183995,44.11764879391193,-84.22370748782159,72.1922225099802
2024-09-23 23:21:42.798751,31.25,59.949691,0.0003979595949556242,-0.026265436842293304,0.09645586349183995,44.11764879391193,-96.25519929585457,72.1922225099802
2024-09-23 23:21:42.933709,31.25,59.949691,0.0003979595949556242,-0.026265436842293304,0.09645586349183995,44.11764879391193,-96.25519929585457,76.200527287817
2024-09-23 23:21:42.988455,31.25,59.949788,0.0003979595949556242,-0.026265436842293304,0.09645586349183995,44.11764879391193,-96.25519929585457,76.200527287817
2024-09-23 23:21:43.030894,31.25,59.949788,0.0003979595949556242,-0.02681263300013955,0.0962568775472534,44.11764879391193,-96.25519929585457,76.200527287817
2024-09-23 23:21:43.042692,31.25,59.949788,0.0003979595949556242,-0.02681263300013955,0.0962568775472534,40.106058693909645,-96.25519929585457,76.200527287817
2024-09-23 23:21:43.086289,31.25,59.949839,0.0009451553255896806,-0.026514160159166435,0.09705279702197278,40.106058693909645,-92.24360919585227,76.200527287817
2024-09-23 23:21:43.128588,31.25,59.949839,0.0009451553255896806,-0.026514160159166435,0.09705279702197278,36.09446859390736,-96.25519929585457,72.1922225099802
2024-09-23 23:21:43.140189,31.25,59.94989,0.00044769805900669,-0.02681263300013955,0.09705279702197278,36.09446859390736,-96.25519929585457,72.1922225099802
2024-09-23 23:21:43.182256,31.25,59.949941,0.00044769805900669,-0.02681263300013955,0.09610764112676684,40.106058693909645,-96.25519929585457,72.1922225099802
2024-09-23 23:21:43.194377,31.25,59.949941,-0.00034821073540793035,-0.02681263300013955,0.09610764112676684,40.106058693909645,-96.25519929585457,72.1922225099802
2024-09-23 23:21:43.226563,31.25,59.949941,-0.00034821073540793035,-0.026713146103752982,0.09695331012558621,48.12595698684454,-92.24360919585227,72.1922225099802
2024-09-23 23:21:43.279845,31.25,59.949991,0.00044769805900669,-0.026563909683266423,0.0973015264147526,48.12595698684454,-92.24360919585227,76.200527287817
2024-09-23 23:21:43.321788,31.25,59.949991,0.00044769805900669,-0.026563909683266423,0.0973015264147526,48.12595698684454,-92.24360919585227,76.200527287817
2024-09-23 23:21:43.375599,31.25,59.950276,0.0007959191899112484,-0.026215699470006727,0.0966050877605131,40.106058693909645,-92.24360919585227,76.200527287817
2024-09-23 23:21:43.387677,31.25,59.950276,0.0007959191899112484,-0.026215699470006727,0.0966050877605131,40.106058693909645,-88.23529758782387,76.200527287817
2024-09-23 23:21:43.421160,31.25,59.950327,0.0006466830067647949,-0.026215699470006727,0.0966050877605131,40.106058693909645,-88.23529758782387,68.18063240997792
2024-09-23 23:21:43.432333,31.25,59.950327,0.0006466830067647949,-0.02686238252423954,0.09640611396773996,52.137550501942634,-88.23529758782387,68.18063240997792
2024-09-23 23:21:43.475290,31.25,59.950378,0.0001989745997294981,-0.026315186366393295,0.09665483728461309,52.137550501942634,-88.23529758782387,84.22370748782159
2024-09-23 23:21:43.518549,31.25,59.950378,0.0001989745997294981,-0.026315186366393295,0.09665483728461309,44.11764879391193,-88.23529758782387,80.21211738781929
2024-09-23 23:21:43.529960,31.25,59.950428,0.0007959191899112484,-0.026165949945906736,0.09665483728461309,44.11764879391193,-88.23529758782387,80.21211738781929
2024-09-23 23:21:43.572700,31.25,59.950519,0.00034821073540793035,-0.026165949945906736,0.09650560086412653,44.11764879391193,-92.24360919585227,76.200527287817
2024-09-23 23:21:43.615228,31.25,59.950519,0.00034821073540793035,-0.026315186366393295,0.09635636444363997,44.11764879391193,-92.24360919585227,76.200527287817
2024-09-23 23:21:43.626366,31.25,59.950616,0.00034821073540793035,-0.026315186366393295,0.09635636444363997,40.106058693909645,-96.25519929585457,72.1922225099802
2024-09-23 23:21:43.668815,31.25,59.950616,0.00024872343554318134,-0.02696186942062611,0.09725178296655933,48.12595698684454,-108.28669110388756,72.1922225099802
2024-09-23 23:21:43.680614,31.25,59.950616,0.00024872343554318134,-0.02696186942062611,0.09725178296655933,48.12595698684454,-108.28669110388756,76.200527287817
2024-09-23 23:21:43.712905,31.04,59.950668,0.0001989745997294981,-0.026315186366393295,0.09725178296655933,48.12595698684454,-108.28669110388756,76.200527287817
2024-09-23 23:21:43.724214,31.04,59.950668,0.0001989745997294981,-0.026315186366393295,0.09630662707135339,48.12595698684454,-100.26678939585686,76.200527287817
2024-09-23 23:21:43.766853,31.04,59.950718,0.00014922575204880957,-0.026713146103752982,0.09645586349183995,40.106058693909645,-100.26678939585686,76.200527287817
2024-09-23 23:21:43.809202,31.04,59.950718,0.00014922575204880957,-0.026713146103752982,0.09645586349183995,40.106058693909645,-92.24360919585227,80.21211738781929
2024-09-23 23:21:43.825835,31.04,59.950769,0.0005471957306340564,-0.026116200421806745,0.09665483728461309,40.106058693909645,-92.24360919585227,80.21211738781929
2024-09-23 23:21:43.857986,31.04,59.950769,0.0005471957306340564,-0.026116200421806745,0.09665483728461309,44.11764879391193,-88.23529758782387,80.21211738781929
2024-09-23 23:21:43.869670,31.04,59.95082,0.0006466830067647949,-0.026215699470006727,0.09665483728461309,44.11764879391193,-88.23529758782387,80.21211738781929
2024-09-23 23:21:44.055626,31.04,59.95082,0.0006466830067647949,-0.026215699470006727,0.09690356060148622,32.08287849390507,-92.24360919585227,80.21211738781929
2024-09-23 23:21:44.068023,31.04,59.95087,0.0007959191899112484,-0.026215699470006727,0.09690356060148622,32.08287849390507,-92.24360919585227,76.200527287817
2024-09-23 23:21:44.100865,31.04,59.95087,0.0007959191899112484,-0.026713146103752982,0.09690356060148622,32.08287849390507,-92.24360919585227,76.200527287817
2024-09-23 23:21:44.112165,31.04,59.950958,0.0007959191899112484,-0.026713146103752982,0.09685382322919964,44.11764879391193,-96.25519929585457,68.18063240997792
2024-09-23 23:21:44.154874,31.04,59.950958,4.973845218406054e-05,-0.026414673262779863,0.09680407370509965,48.12595698684454,-92.24360919585227,68.18063240997792
2024-09-23 23:21:44.249002,31.04,59.950958,4.973845218406054e-05,-0.026414673262779863,0.09680407370509965,48.12595698684454,-92.24360919585227,72.1922225099802
2024-09-23 23:21:44.301934,31.04,59.951009,9.948729986474904e-05,-0.026713146103752982,0.0970030596496862,48.12595698684454,-92.24360919585227,72.1922225099802
2024-09-23 23:21:44.313954,31.04,59.951009,9.948729986474904e-05,-0.026713146103752982,0.0970030596496862,48.12595698684454,-92.24360919585227,72.1922225099802
2024-09-23 23:21:44.347033,31.04,59.95106,0.0008954064660419869,-0.026713146103752982,0.0970030596496862,48.12595698684454,-92.24360919585227,76.200527287817
2024-09-23 23:21:44.399965,31.04,59.95106,0.0008954064660419869,-0.026364923738679876,0.09556044496892059,36.09446859390736,-88.23529758782387,84.22370748782159
2024-09-23 23:21:44.412147,31.04,59.951252,0.0008954064660419869,-0.026364923738679876,0.09556044496892059,36.09446859390736,-88.23529758782387,84.22370748782159
2024-09-23 23:21:44.445845,31.04,59.951252,0.001044642601720419,-0.02661365616941306,0.09650560086412653,36.09446859390736,-88.23529758782387,84.22370748782159
2024-09-23 23:21:44.457830,31.04,59.951252,0.001044642601720419,-0.02661365616941306,0.09650560086412653,52.137550501942634,-92.24360919585227,84.22370748782159
2024-09-23 23:21:44.489771,31.04,59.951302,0.001044642601720419,-0.02661365616941306,0.09650560086412653,52.137550501942634,-92.24360919585227,84.22370748782159
2024-09-23 23:21:44.500845,31.04,59.951302,4.973845218406054e-05,-0.02676289258989962,0.09640611396773996,40.106058693909645,-84.22370748782159,84.22370748782159
2024-09-23 23:21:44.543439,31.04,59.951353,0.00044769805900669,-0.02711110584111267,0.09640611396773996,40.106058693909645,-84.22370748782159,80.21211738781929
2024-09-23 23:21:44.555054,31.04,59.951353,0.00044769805900669,-0.02711110584111267,0.09585891780989371,36.09446859390736,-84.22370748782159,80.21211738781929
2024-09-23 23:21:44.587079,31.04,59.951353,0.00044769805900669,-0.02711110584111267,0.09585891780989371,36.09446859390736,-92.24360919585227,80.21211738781929
2024-09-23 23:21:44.598424,31.04,59.951544,0.00034821073540793035,-0.026514160159166435,0.0970030596496862,36.09446859390736,-92.24360919585227,76.200527287817
2024-09-23 23:21:44.640742,31.04,59.951595,0.00034821073540793035,-0.026514160159166435,0.0970030596496862,48.12595698684454,-96.25519929585457,76.200527287817
2024-09-23 23:21:44.652634,31.04,59.951595,0.0006964318663124887,-0.0255690042639605,0.0970030596496862,48.12595698684454,-96.25519929585457,76.200527287817
2024-09-23 23:21:44.684661,31.04,59.951595,0.0006964318663124887,-0.0255690042639605,0.09685382322919964,48.12595698684454,-96.25519929585457,76.200527287817
2024-09-23 23:21:44.696530,31.04,59.951645,0.00044769805900669,-0.0255690042639605,0.09685382322919964,48.12595698684454,-92.24360919585227,72.1922225099802
2024-09-23 23:21:44.739166,30.66,59.951645,0.00044769805900669,-0.026066463049520167,0.09655535038822652,44.11764879391193,-96.25519929585457,72.1922225099802
2024-09-23 23:21:44.750685,30.66,59.951738,0.00044769805900669,-0.026066463049520167,0.09655535038822652,44.11764879391193,-96.25519929585457,80.21211738781929
2024-09-23 23:21:44.783374,30.66,59.951738,0.00034821073540793035,-0.026066463049520167,0.09655535038822652,44.11764879391193,-96.25519929585457,80.21211738781929
2024-09-23 23:21:44.794901,30.66,59.951738,0.00034821073540793035,-0.026514160159166435,0.09665483728461309,40.106058693909645,-96.25519929585457,76.200527287817
2024-09-23 23:21:44.837576,30.66,59.951789,0.0003979595949556242,-0.026514160159166435,0.09705279702197278,40.106058693909645,-96.25519929585457,76.200527287817
2024-09-23 23:21:44.849324,30.66,59.951789,0.0003979595949556242,-0.026514160159166435,0.09705279702197278,40.106058693909645,-88.23529758782387,76.200527287817
2024-09-23 23:21:44.881616,30.66,59.95184,0.0003979595949556242,-0.026514160159166435,0.09705279702197278,40.106058693909645,-88.23529758782387,76.200527287817
2024-09-23 23:21:44.894739,30.66,59.95184,0.0005471957306340564,-0.026215699470006727,0.09705279702197278,40.106058693909645,-88.23529758782387,76.200527287817
2024-09-23 23:21:44.937909,30.66,59.951891,0.0003979595949556242,-0.026215699470006727,0.09635636444363997,44.11764879391193,-84.22370748782159,76.200527287817
2024-09-23 23:21:44.981649,30.66,59.951891,0.0003979595949556242,-0.02696186942062611,0.09630662707135339,48.12595698684454,-84.22370748782159,76.200527287817
2024-09-23 23:21:44.993536,30.66,59.951941,0.0003979595949556242,-0.02696186942062611,0.09630662707135339,48.12595698684454,-92.24360919585227,84.22370748782159
2024-09-23 23:21:45.025952,30.66,59.951941,4.973845218406054e-05,-0.02696186942062611,0.09630662707135339,48.12595698684454,-92.24360919585227,84.22370748782159
2024-09-23 23:21:45.037407,30.66,59.951941,4.973845218406054e-05,-0.026663396579652995,0.09640611396773996,48.12595698684454,-84.22370748782159,76.200527287817
2024-09-23 23:21:45.080309,30.66,59.951992,-9.948729986474904e-05,-0.026563909683266423,0.09675432418099966,48.12595698684454,-84.22370748782159,76.200527287817
2024-09-23 23:21:45.093012,30.66,59.951992,-9.948729986474904e-05,-0.026563909683266423,0.09675432418099966,32.08287849390507,-88.23529758782387,76.200527287817
2024-09-23 23:21:45.125668,30.66,59.952079,-9.948729986474904e-05,-0.026563909683266423,0.09675432418099966,32.08287849390507,-88.23529758782387,76.200527287817
2024-09-23 23:21:45.137236,30.66,59.952079,0.0008954064660419869,-0.026414673262779863,0.09645586349183995,48.12595698684454,-88.23529758782387,76.200527287817
2024-09-23 23:21:45.179495,30.66,59.95213,0.00029846189959424716,-0.02676289258989962,0.09645586349183995,48.12595698684454,-96.25519929585457,80.21211738781929
2024-09-23 23:21:45.191431,30.66,59.95213,0.00029846189959424716,-0.02676289258989962,0.09605789160266685,48.12595698684454,-96.25519929585457,80.21211738781929
2024-09-23 23:21:45.223809,30.66,59.95213,0.00029846189959424716,-0.02676289258989962,0.09605789160266685,44.11764879391193,-92.24360919585227,80.21211738781929
2024-09-23 23:21:45.276316,30.66,59.952181,0.00029846189959424716,-0.02676289258989962,0.09605789160266685,44.11764879391193,-92.24360919585227,76.200527287817
2024-09-23 23:21:45.320364,30.66,59.952181,0.00029846189959424716,-0.026265436842293304,0.09605789160266685,44.11764879391193,-92.24360919585227,76.200527287817
2024-09-23 23:21:45.425164,30.66,59.952232,0.00029846189959424716,-0.026265436842293304,0.09620712802315341,48.12595698684454,-92.24360919585227,76.200527287817
2024-09-23 23:21:45.664346,30.66,59.952232,0.0010943914612681128,-0.026414673262779863,0.0976994861521123,48.12595698684454,-92.24360919585227,76.200527287817
2024-09-23 23:21:45.676645,30.66,59.952232,0.0010943914612681128,-0.026414673262779863,0.0976994861521123,48.12595698684454,-100.26678939585686,80.21211738781929
2024-09-23 23:21:45.710354,30.66,59.952323,0.00034821073540793035,-0.026414673262779863,0.0976994861521123,48.12595698684454,-100.26678939585686,80.21211738781929
2024-09-23 23:21:45.722119,30.66,59.952323,0.00034821073540793035,-0.026165949945906736,0.0976994861521123,48.12595698684454,-100.26678939585686,80.21211738781929
2024-09-23 23:21:45.765012,30.27,59.952374,0.00034821073540793035,-0.026165949945906736,0.09630662707135339,40.106058693909645,-88.23529758782387,76.200527287817
2024-09-23 23:21:45.777133,30.27,59.952374,0.00014922575204880957,-0.026165949945906736,0.09630662707135339,40.106058693909645,-88.23529758782387,76.200527287817
2024-09-23 23:21:45.810453,30.27,59.952374,0.00014922575204880957,-0.026464422786879854,0.09675432418099966,48.12595698684454,-88.23529758782387,76.200527287817
2024-09-23 23:21:45.821627,30.27,59.952425,0.00014922575204880957,-0.026464422786879854,0.09675432418099966,48.12595698684454,-96.25519929585457,68.18063240997792
2024-09-23 23:21:45.864089,30.27,59.952425,0.00034821073540793035,-0.026315186366393295,0.09655535038822652,36.09446859390736,-96.25519929585457,72.1922225099802
2024-09-23 23:21:45.906082,30.27,59.952617,0.00014922575204880957,-0.026315186366393295,0.09655535038822652,36.09446859390736,-96.25519929585457,72.1922225099802
2024-09-23 23:21:45.918159,30.27,59.952617,0.00014922575204880957,-0.026713146103752982,0.0959086551821803,48.12595698684454,-92.24360919585227,72.1922225099802
2024-09-23 23:21:45.960483,30.27,59.952862,9.948729986474904e-05,-0.026663396579652995,0.0959086551821803,48.12595698684454,-92.24360919585227,76.200527287817
2024-09-23 23:21:46.003885,30.27,59.952862,9.948729986474904e-05,-0.026663396579652995,0.09610764112676684,40.106058693909645,-92.24360919585227,76.200527287817
2024-09-23 23:21:46.015089,30.27,59.952958,9.948729986474904e-05,-0.026663396579652995,0.09610764112676684,40.106058693909645,-88.23529758782387,84.22370748782159
2024-09-23 23:21:46.058894,30.27,59.952958,0.0006964318663124887,-0.026265436842293304,0.09695331012558621,48.12595698684454,-92.24360919585227,80.21211738781929
2024-09-23 23:21:46.101255,30.27,59.953009,0.00034821073540793035,-0.026265436842293304,0.09695331012558621,48.12595698684454,-92.24360919585227,80.21211738781929
2024-09-23 23:21:46.153732,30.27,59.953009,0.00034821073540793035,-0.026663396579652995,0.09665483728461309,44.11764879391193,-96.25519929585457,80.21211738781929
2024-09-23 23:21:46.165811,30.27,59.953059,0.00034821073540793035,-0.026663396579652995,0.09665483728461309,44.11764879391193,-96.25519929585457,80.21211738781929
2024-09-23 23:21:46.198288,30.27,59.953059,-0.0001989745997294981,-0.026165949945906736,0.09665483728461309,44.11764879391193,-96.25519929585457,80.21211738781929
2024-09-23 23:21:46.251339,30.27,59.953059,-0.0001989745997294981,-0.026165949945906736,0.09759999317981902,80.21211738781929,-96.25519929585457,80.21211738781929
2024-09-23 23:21:46.293194,30.27,59.953059,-0.0001989745997294981,-0.026165949945906736,0.09759999317981902,80.21211738781929,-96.25519929585457,64.16903547978401
2024-09-23 23:21:46.305579,30.27,59.953151,-0.0001989745997294981,-0.026165949945906736,0.09759999317981902,80.21211738781929,-96.25519929585457,64.16903547978401
2024-09-23 23:21:46.348063,30.27,59.953151,0.00044769805900669,-0.026713146103752982,0.09759999317981902,80.21211738781929,-96.25519929585457,64.16903547978401
2024-09-23 23:21:46.441274,30.27,59.953151,0.00044769805900669,-0.026713146103752982,0.09640611396773996,52.137550501942634,-96.25519929585457,64.16903547978401
2024-09-23 23:21:46.546210,30.27,59.953151,0.00044769805900669,-0.026713146103752982,0.09640611396773996,52.137550501942634,-92.24360919585227,72.1922225099802
2024-09-23 23:21:46.589831,30.27,59.953203,0.00044769805900669,-0.026713146103752982,0.09640611396773996,52.137550501942634,-92.24360919585227,72.1922225099802
2024-09-23 23:21:46.642624,30.27,59.953203,0.00044769805900669,-0.026713146103752982,0.09640611396773996,52.137550501942634,-92.24360919585227,72.1922225099802
2024-09-23 23:21:46.684433,30.27,59.953203,0.00044769805900669,-0.026364923738679876,0.09640611396773996,52.137550501942634,-92.24360919585227,72.1922225099802
2024-09-23 23:21:46.738268,30.27,59.953203,0.00044769805900669,-0.026364923738679876,0.09670458680871308,48.12595698684454,-92.24360919585227,72.1922225099802
2024-09-23 23:21:46.780859,29.68,59.953203,0.00044769805900669,-0.026364923738679876,0.09670458680871308,48.12595698684454,-92.24360919585227,72.1922225099802
2024-09-23 23:21:46.792730,29.68,59.953253,0.00044769805900669,-0.026364923738679876,0.09670458680871308,48.12595698684454,-92.24360919585227,76.200527287817
2024-09-23 23:21:46.836179,29.68,59.953253,0.0007461703303635545,-0.02711110584111267,0.09640611396773996,48.12595698684454,-92.24360919585227,76.200527287817
2024-09-23 23:21:46.929434,29.68,59.953253,0.0007461703303635545,-0.02711110584111267,0.09640611396773996,44.11764879391193,-100.26678939585686,76.200527287817
2024-09-23 23:21:46.942874,29.68,59.953348,0.0007461703303635545,-0.02711110584111267,0.09640611396773996,44.11764879391193,-100.26678939585686,72.1922225099802
2024-09-23 23:21:46.986355,29.68,59.953348,0.0001989745997294981,-0.02661365616941306,0.09710254654607277,44.11764879391193,-100.26678939585686,72.1922225099802
2024-09-23 23:21:47.029896,29.68,59.953445,0.00024872343554318134,-0.026364923738679876,0.09710254654607277,44.11764879391193,-100.26678939585686,72.1922225099802
2024-09-23 23:21:47.041111,29.68,59.953445,0.00024872343554318134,-0.026364923738679876,0.09615739065086683,44.11764879391193,-100.26678939585686,72.1922225099802
2024-09-23 23:21:47.073400,29.68,59.953445,0.00024872343554318134,-0.026364923738679876,0.09615739065086683,44.11764879391193,-88.23529758782387,72.1922225099802
2024-09-23 23:21:47.084806,29.68,59.953737,-0.00034821073540793035,-0.02696186942062611,0.09680407370509965,44.11764879391193,-88.23529758782387,80.21211738781929
2024-09-23 23:21:47.126862,29.68,59.953737,-0.00034821073540793035,-0.02696186942062611,0.09680407370509965,-28.07457030097246,-88.23529758782387,80.21211738781929
2024-09-23 23:21:47.179839,29.68,59.953981,4.973845218406054e-05,-0.0273598291579858,0.0973512698629459,-28.07457030097246,-108.28669110388756,92.24360919585227
2024-09-23 23:21:47.223557,29.68,59.953981,4.973845218406054e-05,-0.0273598291579858,0.0973512698629459,36.09446859390736,-92.24360919585227,92.24360919585227
2024-09-23 23:21:47.275822,29.68,59.954127,0.0010943914612681128,-0.02676289258989962,0.09595840470628028,36.09446859390736,-92.24360919585227,72.1922225099802
2024-09-23 23:21:47.287880,29.68,59.954127,0.0010943914612681128,-0.02676289258989962,0.09595840470628028,44.11764879391193,-92.24360919585227,72.1922225099802
2024-09-23 23:21:47.320206,29.68,59.954127,0.0010943914612681128,-0.02676289258989962,0.09595840470628028,44.11764879391193,-100.26678939585686,48.12595698684454
2024-09-23 23:21:47.332224,29.68,59.954178,0.0003979595949556242,-0.027310088747745865,0.09670458680871308,44.11764879391193,-100.26678939585686,48.12595698684454
2024-09-23 23:21:47.374468,29.68,59.954178,0.0003979595949556242,-0.027310088747745865,0.09670458680871308,36.09446859390736,-100.26678939585686,48.12595698684454
2024-09-23 23:21:47.415954,29.68,59.954273,0.0003979595949556242,-0.027310088747745865,0.09670458680871308,36.09446859390736,-100.26678939585686,72.1922225099802
2024-09-23 23:21:47.469144,29.68,59.954273,0.00024872343554318134,-0.02696186942062611,0.09665483728461309,36.09446859390736,-100.26678939585686,72.1922225099802
2024-09-23 23:21:47.522193,29.68,59.954273,0.00024872343554318134,-0.02696186942062611,0.09665483728461309,48.12595698684454,-100.26678939585686,72.1922225099802
2024-09-23 23:21:47.564702,29.68,59.954273,0.00024872343554318134,-0.02696186942062611,0.09665483728461309,48.12595698684454,-92.24360919585227,76.200527287817
2024-09-23 23:21:47.617657,29.68,59.954371,0.00029846189959424716,-0.02696186942062611,0.09665483728461309,48.12595698684454,-92.24360919585227,76.200527287817
2024-09-23 23:21:47.660208,29.68,59.954371,0.00029846189959424716,-0.026563909683266423,0.09665483728461309,48.12595698684454,-92.24360919585227,76.200527287817
2024-09-23 23:21:47.672145,29.68,59.954371,0.00029846189959424716,-0.026563909683266423,0.09665483728461309,40.106058693909645,-92.24360919585227,72.1922225099802
2024-09-23 23:21:48.107419,29.57,59.954421,0.00029846189959424716,-0.026563909683266423,0.09665483728461309,40.106058693909645,-92.24360919585227,72.1922225099802
2024-09-23 23:21:48.150660,29.57,59.954421,-0.00029846189959424716,-0.027160852327259306,0.09655535038822652,40.106058693909645,-92.24360919585227,72.1922225099802
2024-09-23 23:21:48.161923,29.57,59.954421,-0.00029846189959424716,-0.027160852327259306,0.09655535038822652,48.12595698684454,-88.23529758782387,72.1922225099802
2024-09-23 23:21:48.204973,29.57,59.954517,0.0005471957306340564,-0.02711110584111267,0.09695331012558621,44.11764879391193,-92.24360919585227,72.1922225099802
2024-09-23 23:21:48.247152,29.57,59.954567,0.00024872343554318134,-0.02711110584111267,0.09695331012558621,44.11764879391193,-92.24360919585227,72.1922225099802
2024-09-23 23:21:48.258907,29.57,59.954567,0.00024872343554318134,-0.026912129010386178,0.09655535038822652,44.11764879391193,-92.24360919585227,72.1922225099802
2024-09-23 23:21:48.301828,29.57,59.954761,0.00024872343554318134,-0.026912129010386178,0.09655535038822652,44.11764879391193,-96.25519929585457,76.200527287817
2024-09-23 23:21:48.344271,29.57,59.954761,0.00024872343554318134,-0.027260339223645878,0.0962568775472534,44.11764879391193,-96.25519929585457,76.200527287817
2024-09-23 23:21:48.396433,29.57,59.95486,0.00024872343554318134,-0.027260339223645878,0.0962568775472534,40.106058693909645,-92.24360919585227,72.1922225099802
2024-09-23 23:21:48.408402,29.57,59.95486,0.0006964318663124887,-0.02701161590677275,0.0962568775472534,40.106058693909645,-92.24360919585227,72.1922225099802
2024-09-23 23:21:48.440346,29.57,59.95486,0.0006964318663124887,-0.02701161590677275,0.09615739065086683,40.106058693909645,-92.24360919585227,72.1922225099802
2024-09-23 23:21:48.451755,29.57,59.955348,0.0006964318663124887,-0.02701161590677275,0.09615739065086683,40.106058693909645,-88.23529758782387,84.22370748782159
2024-09-23 23:21:48.494048,29.57,59.955348,0.00024872343554318134,-0.02676289258989962,0.09665483728461309,44.11764879391193,-88.23529758782387,84.22370748782159
2024-09-23 23:21:48.506229,29.57,59.955348,0.00024872343554318134,-0.02676289258989962,0.09665483728461309,44.11764879391193,-88.23529758782387,76.200527287817
2024-09-23 23:21:48.538752,29.57,59.955443,0.0005969341946851222,-0.02676289258989962,0.09665483728461309,44.11764879391193,-88.23529758782387,76.200527287817
2024-09-23 23:21:48.591609,29.57,59.955443,0.0005969341946851222,-0.026912129010386178,0.09665483728461309,44.11764879391193,-88.23529758782387,76.200527287817
2024-09-23 23:21:48.635055,29.57,59.955443,0.0005969341946851222,-0.026912129010386178,0.0962568775472534,48.12595698684454,-88.23529758782387,76.200527287817
2024-09-23 23:21:48.687781,29.57,59.955494,0.0005969341946851222,-0.026912129010386178,0.0962568775472534,48.12595698684454,-92.24360919585227,68.18063240997792
2024-09-23 23:21:48.699537,29.57,59.955494,0.0005969341946851222,-0.026414673262779863,0.0966050877605131,48.12595698684454,-92.24360919585227,68.18063240997792
2024-09-23 23:21:48.732643,29.57,59.955494,0.0005969341946851222,-0.026414673262779863,0.0966050877605131,48.12595698684454,-92.24360919585227,68.18063240997792
2024-09-23 23:21:48.786564,29.57,59.95559,0.0,-0.02721059273749924,0.09620712802315341,48.12595698684454,-92.24360919585227,72.1922225099802
2024-09-23 23:21:48.798815,29.57,59.95559,0.0,-0.02721059273749924,0.09620712802315341,44.11764879391193,-92.24360919585227,72.1922225099802
2024-09-23 23:21:48.830924,29.57,59.95559,0.0,-0.02721059273749924,0.09620712802315341,44.11764879391193,-96.25519929585457,76.200527287817
2024-09-23 23:21:48.842860,29.57,59.955641,0.0007461703303635545,-0.026713146103752982,0.09720203344245934,44.11764879391193,-96.25519929585457,76.200527287817
2024-09-23 23:21:48.885180,29.57,59.955691,0.0003979595949556242,-0.026713146103752982,0.09720203344245934,40.106058693909645,-92.24360919585227,76.200527287817
2024-09-23 23:21:48.928063,29.57,59.955691,0.0003979595949556242,-0.02686238252423954,0.09610764112676684,40.106058693909645,-92.24360919585227,76.200527287817
2024-09-23 23:21:48.939395,29.57,59.955882,0.0003979595949556242,-0.02686238252423954,0.09610764112676684,40.106058693909645,-88.23529758782387,76.200527287817
2024-09-23 23:21:48.981831,29.57,59.955882,0.0,-0.02701161590677275,0.09630662707135339,48.12595698684454,-88.23529758782387,76.200527287817
2024-09-23 23:21:48.993767,29.57,59.955882,0.0,-0.02701161590677275,0.09630662707135339,48.12595698684454,-88.23529758782387,72.1922225099802
2024-09-23 23:21:49.026452,29.57,59.955933,9.948729986474904e-05,-0.02696186942062611,0.09630662707135339,48.12595698684454,-88.23529758782387,72.1922225099802
2024-09-23 23:21:49.037998,29.57,59.955933,9.948729986474904e-05,-0.02696186942062611,0.09600815423038027,40.106058693909645,-92.24360919585227,72.1922225099802
2024-09-23 23:21:49.080421,29.57,59.956028,0.0006964318663124887,-0.027160852327259306,0.09615739065086683,44.11764879391193,-92.24360919585227,72.1922225099802
2024-09-23 23:21:49.123144,30.46,59.956028,0.0006964318663124887,-0.027160852327259306,0.09615739065086683,44.11764879391193,-76.200527287817,88.23529758782387
2024-09-23 23:21:49.134511,30.46,59.95608,0.000845657606494293,-0.027160852327259306,0.09610764112676684,44.11764879391193,-76.200527287817,88.23529758782387
2024-09-23 23:21:49.177629,30.46,59.95613,0.00024872343554318134,-0.027160852327259306,0.09610764112676684,48.12595698684454,-84.22370748782159,72.1922225099802
2024-09-23 23:21:49.189713,30.46,59.95613,0.00024872343554318134,-0.027956771801978683,0.09610764112676684,48.12595698684454,-84.22370748782159,72.1922225099802
2024-09-23 23:21:49.221602,30.46,59.95613,0.00024872343554318134,-0.027956771801978683,0.09650560086412653,48.12595698684454,-92.24360919585227,72.1922225099802
2024-09-23 23:21:49.233543,30.46,59.956181,0.0005471957306340564,-0.027956771801978683,0.09650560086412653,48.12595698684454,-92.24360919585227,72.1922225099802
2024-09-23 23:21:49.276624,30.46,59.956271,0.0005471957306340564,-0.026563909683266423,0.09655535038822652,44.11764879391193,-84.22370748782159,80.21211738781929
2024-09-23 23:21:49.318301,30.46,59.956271,0.00044769805900669,-0.027160852327259306,0.09655535038822652,44.11764879391193,-84.22370748782159,80.21211738781929
2024-09-23 23:21:49.330503,30.46,59.956271,0.00044769805900669,-0.027160852327259306,0.09675432418099966,44.11764879391193,-88.23529758782387,76.200527287817
2024-09-23 23:21:49.415853,30.46,59.956324,0.00029846189959424716,-0.027160852327259306,0.09675432418099966,44.11764879391193,-88.23529758782387,76.200527287817
2024-09-23 23:21:49.426995,30.46,59.956324,0.00029846189959424716,-0.02676289258989962,0.09630662707135339,48.12595698684454,-92.24360919585227,76.200527287817
2024-09-23 23:21:49.469349,30.46,59.956374,0.0,-0.02696186942062611,0.09585891780989371,48.12595698684454,-92.24360919585227,72.1922225099802
2024-09-23 23:21:49.512589,30.46,59.956374,0.0,-0.02696186942062611,0.09585891780989371,44.11764879391193,-88.23529758782387,72.1922225099802
2024-09-23 23:21:49.524414,30.46,59.956425,0.00044769805900669,-0.026414673262779863,0.09585891780989371,44.11764879391193,-88.23529758782387,80.21211738781929
2024-09-23 23:21:49.567603,30.46,59.956476,0.00029846189959424716,-0.026414673262779863,0.09575943091350714,48.12595698684454,-88.23529758782387,76.200527287817
2024-09-23 23:21:49.610776,30.46,59.956476,0.00029846189959424716,-0.027160852327259306,0.09630662707135339,48.12595698684454,-88.23529758782387,76.200527287817
2024-09-23 23:21:49.662981,30.46,59.956526,0.000845657606494293,-0.027160852327259306,0.09630662707135339,44.11764879391193,-96.25519929585457,80.21211738781929
2024-09-23 23:21:49.674531,30.46,59.956526,0.000845657606494293,-0.027608561588718983,0.09630662707135339,44.11764879391193,-96.25519929585457,80.21211738781929
2024-09-23 23:21:49.707250,30.46,59.956526,0.000845657606494293,-0.027608561588718983,0.09605789160266685,44.11764879391193,-96.25519929585457,80.21211738781929
2024-09-23 23:21:49.718478,30.46,59.956661,0.00044769805900669,-0.027608561588718983,0.09605789160266685,44.11764879391193,-88.23529758782387,72.1922225099802
2024-09-23 23:21:49.760649,30.46,59.956661,0.00044769805900669,-0.02686238252423954,0.09655535038822652,48.12595698684454,-88.23529758782387,72.1922225099802
2024-09-23 23:21:49.772119,30.46,59.956713,0.00044769805900669,-0.02686238252423954,0.09655535038822652,48.12595698684454,-88.23529758782387,68.18063240997792
2024-09-23 23:21:49.805287,30.46,59.956713,0.0004974468710863627,-0.026514160159166435,0.09655535038822652,48.12595698684454,-88.23529758782387,68.18063240997792
2024-09-23 23:21:49.816895,30.46,59.956713,0.0004974468710863627,-0.026514160159166435,0.09620712802315341,44.11764879391193,-92.24360919585227,68.18063240997792
2024-09-23 23:21:49.859246,30.46,59.956764,0.0006964318663124887,-0.027160852327259306,0.0962568775472534,48.12595698684454,-92.24360919585227,68.18063240997792
2024-09-23 23:21:49.871040,30.46,59.956764,0.0006964318663124887,-0.027160852327259306,0.0962568775472534,48.12595698684454,-96.25519929585457,68.18063240997792
2024-09-23 23:21:49.904473,30.46,59.956857,0.0008954064660419869,-0.027160852327259306,0.0962568775472534,48.12595698684454,-96.25519929585457,68.18063240997792
2024-09-23 23:21:49.915569,30.46,59.956857,0.0008954064660419869,-0.02676289258989962,0.09635636444363997,40.106058693909645,-96.25519929585457,68.18063240997792
2024-09-23 23:21:49.958992,30.46,59.956909,0.0007461703303635545,-0.02696186942062611,0.09610764112676684,40.106058693909645,-88.23529758782387,80.21211738781929
2024-09-23 23:21:50.001851,30.46,59.956909,0.0007461703303635545,-0.02696186942062611,0.09610764112676684,36.09446859390736,-84.22370748782159,76.200527287817
2024-09-23 23:21:50.013346,30.46,59.956959,0.0007461703303635545,-0.02696186942062611,0.09610764112676684,36.09446859390736,-84.22370748782159,76.200527287817
2024-09-23 23:21:50.056137,30.46,59.95701,0.0007461703303635545,-0.027459325168232424,0.09605789160266685,48.12595698684454,-96.25519929585457,76.200527287817
