Ayaan's Suite
Timestamp,Sample Rate (Hz),Time,Ax,Ay,Az,Gx,Gy,Gz
2024-09-23 16:19:17.944241,0,34.604347,-0.002636491424507565,-0.02338022115155219,0.09670458680871308,32.08287849390507,-100.26678939585686,80.21211738781929
2024-09-23 16:19:17.987751,0,34.604398,-0.0032831742888682963,-0.02338022115155219,0.0973512698629459,24.06297849342227,-104.27510100388527,80.21211738781929
2024-09-23 16:19:18.030252,0,34.604398,-0.0032831742888682963,-0.02308174982955575,0.09779897304849887,36.09446859390736,-104.27510100388527,80.21211738781929
2024-09-23 16:19:18.041392,0,34.604485,-0.0032831742888682963,-0.02308174982955575,0.09779897304849887,36.09446859390736,-100.26678939585686,80.21211738781929
2024-09-23 16:19:18.084828,0,34.604485,-0.0028354659767690416,-0.02308174982955575,0.09779897304849887,36.09446859390736,-100.26678939585686,80.21211738781929
2024-09-23 16:19:18.127437,0,34.604485,-0.0028354659767690416,-0.023280723622328886,0.09725178296655933,36.09446859390736,-100.26678939585686,80.21211738781929
2024-09-23 16:19:18.139548,0,34.604536,-0.0028354659767690416,-0.023280723622328886,0.09725178296655933,32.08287849390507,-100.26678939585686,80.21211738781929
2024-09-23 16:19:18.182574,0,34.604536,-0.0028354659767690416,-0.023280723622328886,0.09774922960030558,32.08287849390507,-100.26678939585686,80.21211738781929
2024-09-23 16:19:18.225753,0,34.604536,-0.0028354659767690416,-0.023280723622328886,0.09774922960030558,36.09446859390736,-92.24360919585227,80.21211738781929
2024-09-23 16:19:18.237054,0,34.604587,-0.0024872551938930902,-0.02367869399252531,0.09774922960030558,36.09446859390736,-92.24360919585227,84.22370748782159
2024-09-23 16:19:18.270196,0,34.604587,-0.0024872551938930902,-0.02367869399252531,0.0970030596496862,36.09446859390736,-92.24360919585227,84.22370748782159
2024-09-23 16:19:18.281802,0,34.604638,-0.0028852147413806935,-0.02367869399252531,0.0970030596496862,32.08287849390507,-92.24360919585227,80.21211738781929
2024-09-23 16:19:18.323712,0,34.604638,-0.0028852147413806935,-0.02293251340906919,0.09715228999426605,32.08287849390507,-100.26678939585686,80.21211738781929
2024-09-23 16:19:18.335029,0,34.604688,-0.0028852147413806935,-0.02293251340906919,0.09715228999426605,32.08287849390507,-100.26678939585686,80.21211738781929
2024-09-23 16:19:18.376932,0,34.604688,-0.003233425524256645,-0.023479709566915436,0.09740101331113918,32.08287849390507,-100.26678939585686,80.21211738781929
2024-09-23 16:19:18.420535,0,34.604779,-0.002785727465249955,-0.023230986250042305,0.09740101331113918,32.08287849390507,-100.26678939585686,80.21211738781929
2024-09-23 16:19:18.432439,0,34.604779,-0.002785727465249955,-0.023230986250042305,0.0970030596496862,44.11764879391193,-96.25519929585457,80.21211738781929
2024-09-23 16:19:18.474826,0,34.604876,-0.0027359787006383035,-0.02308174982955575,0.09690356060148622,40.106058693909645,-96.25519929585457,80.21211738781929
2024-09-23 16:19:18.518437,0,34.604927,-0.0027359787006383035,-0.02308174982955575,0.09690356060148622,40.106058693909645,-96.25519929585457,80.21211738781929
2024-09-23 16:19:18.531271,0,34.604927,-0.003233425524256645,-0.023280723622328886,0.0970030596496862,40.106058693909645,-96.25519929585457,80.21211738781929
2024-09-23 16:19:18.563897,0,34.604927,-0.003233425524256645,-0.023280723622328886,0.0970030596496862,44.11764879391193,-96.25519929585457,80.21211738781929
2024-09-23 16:19:18.575023,0,34.604978,-0.0028354659767690416,-0.023230986250042305,0.0970030596496862,44.11764879391193,-88.23529758782387,80.21211738781929
2024-09-23 16:19:18.617824,0,34.605028,-0.0028354659767690416,-0.023230986250042305,0.09685382322919964,44.11764879391193,-100.26678939585686,76.200527287817
2024-09-23 16:19:18.629547,0,34.605028,-0.0031836870127375577,-0.023230986250042305,0.09685382322919964,44.11764879391193,-100.26678939585686,76.200527287817
2024-09-23 16:19:18.662519,0,34.605028,-0.0031836870127375577,-0.022982261414192504,0.09740101331113918,44.11764879391193,-100.26678939585686,76.200527287817
2024-09-23 16:19:18.673704,0,34.605118,-0.0031836870127375577,-0.022982261414192504,0.09740101331113918,36.09446859390736,-92.24360919585227,76.200527287817
2024-09-23 16:19:18.716118,0,34.605118,-0.0028354659767690416,-0.023479709566915436,0.09695331012558621,36.09446859390736,-96.25519929585457,76.200527287817
2024-09-23 16:19:18.728015,0,34.605118,-0.0028354659767690416,-0.023479709566915436,0.09695331012558621,36.09446859390736,-96.25519929585457,92.24360919585227
2024-09-23 16:19:18.760653,0,34.60517,-0.0031836870127375577,-0.023230986250042305,0.09695331012558621,36.09446859390736,-96.25519929585457,92.24360919585227
2024-09-23 16:19:18.772807,0,34.60517,-0.0031836870127375577,-0.023230986250042305,0.0973015264147526,28.07457030097246,-96.25519929585457,92.24360919585227
2024-09-23 16:19:18.815631,0,34.605221,-0.0028354659767690416,-0.023579196463302005,0.09655535038822652,36.09446859390736,-96.25519929585457,80.21211738781929
2024-09-23 16:19:18.858277,0,34.605271,-0.0028354659767690416,-0.023579196463302005,0.09655535038822652,36.09446859390736,-100.26678939585686,76.200527287817
2024-09-23 16:19:18.869591,0,34.605271,-0.0031339382481259063,-0.023280723622328886,0.09705279702197278,36.09446859390736,-100.26678939585686,76.200527287817
2024-09-23 16:19:18.913010,0,34.605322,-0.003233425524256645,-0.023479709566915436,0.09705279702197278,40.106058693909645,-96.25519929585457,80.21211738781929
2024-09-23 16:19:18.955884,42.03,34.605322,-0.003233425524256645,-0.023479709566915436,0.09745075675933246,32.08287849390507,-88.23529758782387,80.21211738781929
2024-09-23 16:19:18.967128,42.03,34.605373,-0.003382661564999035,-0.023479709566915436,0.09745075675933246,32.08287849390507,-88.23529758782387,80.21211738781929
2024-09-23 16:19:19.009222,42.03,34.60546,-0.003382661564999035,-0.023330473146428877,0.09690356060148622,40.106058693909645,-92.24360919585227,80.21211738781929
2024-09-23 16:19:19.052831,42.03,34.60546,-0.002785727465249955,-0.023280723622328886,0.09690356060148622,40.106058693909645,-92.24360919585227,80.21211738781929
2024-09-23 16:19:19.064623,42.03,34.60546,-0.002785727465249955,-0.023280723622328886,0.09665483728461309,32.08287849390507,-100.26678939585686,84.22370748782159
2024-09-23 16:19:19.106930,42.03,34.605511,-0.002586742470023829,-0.023479709566915436,0.09720203344245934,40.106058693909645,-104.27510100388527,84.22370748782159
2024-09-23 16:19:19.148977,42.03,34.605511,-0.002586742470023829,-0.023479709566915436,0.09720203344245934,40.106058693909645,-104.27510100388527,80.21211738781929
2024-09-23 16:19:19.160705,42.03,34.605562,-0.0035318979854855937,-0.023280723622328886,0.09725178296655933,40.106058693909645,-104.27510100388527,80.21211738781929
2024-09-23 16:19:19.203148,42.03,34.605613,-0.0029847020175114316,-0.023280723622328886,0.09725178296655933,40.106058693909645,-92.24360919585227,80.21211738781929
2024-09-23 16:19:19.246423,42.03,34.605613,-0.0029847020175114316,-0.02308174982955575,0.09725178296655933,40.106058693909645,-92.24360919585227,80.21211738781929
2024-09-23 16:19:19.258127,42.03,34.605663,-0.0029847020175114316,-0.02308174982955575,0.09740101331113918,32.08287849390507,-92.24360919585227,76.200527287817
2024-09-23 16:19:19.301115,42.03,34.605663,-0.0035318979854855937,-0.023728432883788564,0.09745075675933246,44.11764879391193,-96.25519929585457,76.200527287817
2024-09-23 16:19:19.313305,42.03,34.605663,-0.0035318979854855937,-0.023728432883788564,0.09745075675933246,44.11764879391193,-96.25519929585457,76.200527287817
2024-09-23 16:19:19.345746,42.03,34.605714,-0.0031339382481259063,-0.023728432883788564,0.09745075675933246,44.11764879391193,-96.25519929585457,76.200527287817
2024-09-23 16:19:19.357059,42.03,34.605714,-0.0031339382481259063,-0.023330473146428877,0.09695331012558621,40.106058693909645,-100.26678939585686,76.200527287817
2024-09-23 16:19:19.399764,42.03,34.605801,-0.0029349636958644295,-0.02308174982955575,0.09740101331113918,44.11764879391193,-100.26678939585686,80.21211738781929
2024-09-23 16:19:19.443532,42.03,34.605852,-0.0029349636958644295,-0.02308174982955575,0.09740101331113918,44.11764879391193,-92.24360919585227,88.23529758782387
2024-09-23 16:19:19.455405,42.03,34.605852,-0.0031339382481259063,-0.023330473146428877,0.09695331012558621,44.11764879391193,-92.24360919585227,88.23529758782387
2024-09-23 16:19:19.498003,42.03,34.605903,-0.002785727465249955,-0.023479709566915436,0.09695331012558621,52.137550501942634,-96.25519929585457,68.18063240997792
2024-09-23 16:19:19.541370,42.03,34.605903,-0.002785727465249955,-0.023479709566915436,0.09720203344245934,48.12595698684454,-96.25519929585457,68.18063240997792
2024-09-23 16:19:19.553201,42.03,34.605954,-0.003482159473966507,-0.023479709566915436,0.09720203344245934,48.12595698684454,-96.25519929585457,68.18063240997792
2024-09-23 16:19:19.596625,42.03,34.606045,-0.003482159473966507,-0.023230986250042305,0.0973015264147526,40.106058693909645,-92.24360919585227,76.200527287817
2024-09-23 16:19:19.638821,42.03,34.606045,-0.0030344509719951677,-0.02338022115155219,0.0973015264147526,40.106058693909645,-92.24360919585227,76.200527287817
2024-09-23 16:19:19.650500,42.03,34.606045,-0.0030344509719951677,-0.02338022115155219,0.09715228999426605,44.11764879391193,-100.26678939585686,76.200527287817
2024-09-23 16:19:19.693318,42.03,34.606096,-0.0028354659767690416,-0.023429960042815445,0.09745075675933246,40.106058693909645,-100.26678939585686,76.200527287817
2024-09-23 16:19:19.736559,42.03,34.606147,-0.0031836870127375577,-0.023429960042815445,0.09745075675933246,40.106058693909645,-100.26678939585686,72.1922225099802
2024-09-23 16:19:19.747851,42.03,34.606147,-0.0031836870127375577,-0.022833026512682618,0.09645586349183995,40.106058693909645,-100.26678939585686,72.1922225099802
2024-09-23 16:19:19.790436,42.03,34.606147,-0.0031836870127375577,-0.022833026512682618,0.09645586349183995,40.106058693909645,-100.26678939585686,80.21211738781929
2024-09-23 16:19:19.834177,42.03,34.606198,-0.0030344509719951677,-0.023479709566915436,0.09645586349183995,40.106058693909645,-100.26678939585686,80.21211738781929
2024-09-23 16:19:19.845728,42.03,34.606198,-0.0030344509719951677,-0.023479709566915436,0.09690356060148622,36.09446859390736,-96.25519929585457,80.21211738781929
2024-09-23 16:19:19.888261,42.03,34.606248,-0.0038303700669703737,-0.023181236725942318,0.09774922960030558,28.07457030097246,-96.25519929585457,80.21211738781929
2024-09-23 16:19:19.931552,42.03,34.606299,-0.0038303700669703737,-0.023181236725942318,0.09774922960030558,28.07457030097246,-104.27510100388527,80.21211738781929
2024-09-23 16:19:19.943042,42.03,34.606299,-0.0028354659767690416,-0.023728432883788564,0.09685382322919964,28.07457030097246,-104.27510100388527,80.21211738781929
2024-09-23 16:19:19.985719,40.92,34.606386,-0.0026862297461545674,-0.02308174982955575,0.09685382322919964,24.06297849342227,-96.25519929585457,84.22370748782159
2024-09-23 16:19:20.029996,40.92,34.606386,-0.0026862297461545674,-0.02308174982955575,0.09685382322919964,32.08287849390507,-100.26678939585686,84.22370748782159
2024-09-23 16:19:20.041272,40.92,34.606437,-0.003233425524256645,-0.02308174982955575,0.09685382322919964,32.08287849390507,-100.26678939585686,80.21211738781929
2024-09-23 16:19:20.073790,40.92,34.606437,-0.003233425524256645,-0.023579196463302005,0.09685382322919964,32.08287849390507,-100.26678939585686,80.21211738781929
2024-09-23 16:19:20.085391,40.92,34.606532,-0.003233425524256645,-0.023579196463302005,0.09725178296655933,36.09446859390736,-104.27510100388527,76.200527287817
2024-09-23 16:19:20.127447,40.92,34.606532,-0.003382661564999035,-0.02278327698858263,0.09680407370509965,36.09446859390736,-104.27510100388527,76.200527287817
2024-09-23 16:19:20.139156,40.92,34.606532,-0.003382661564999035,-0.02278327698858263,0.09680407370509965,36.09446859390736,-100.26678939585686,80.21211738781929
2024-09-23 16:19:20.181684,40.92,34.606584,-0.0029847020175114316,-0.023230986250042305,0.09745075675933246,32.08287849390507,-92.24360919585227,80.21211738781929
2024-09-23 16:19:20.224892,40.92,34.606634,-0.002636491424507565,-0.02313149783467906,0.09745075675933246,32.08287849390507,-92.24360919585227,84.22370748782159
2024-09-23 16:19:20.278023,40.92,34.606685,-0.0028852147413806935,-0.02313149783467906,0.09710254654607277,32.08287849390507,-96.25519929585457,80.21211738781929
2024-09-23 16:19:20.320397,40.92,34.606685,-0.0028852147413806935,-0.023429960042815445,0.09705279702197278,32.08287849390507,-96.25519929585457,80.21211738781929
2024-09-23 16:19:20.332648,40.92,34.606736,-0.0028852147413806935,-0.023429960042815445,0.09705279702197278,40.106058693909645,-104.27510100388527,80.21211738781929
2024-09-23 16:19:20.375751,40.92,34.606736,-0.0029847020175114316,-0.02308174982955575,0.09720203344245934,52.137550501942634,-100.26678939585686,84.22370748782159
2024-09-23 16:19:20.418778,40.92,34.606786,-0.0031836870127375577,-0.02308174982955575,0.09720203344245934,52.137550501942634,-100.26678939585686,84.22370748782159
2024-09-23 16:19:20.430939,40.92,34.606786,-0.0031836870127375577,-0.023827930413011865,0.09720203344245934,36.09446859390736,-96.25519929585457,84.22370748782159
2024-09-23 16:19:20.474545,40.92,34.606873,-0.0026862297461545674,-0.023330473146428877,0.0970030596496862,44.11764879391193,-96.25519929585457,84.22370748782159
2024-09-23 16:19:20.517701,40.92,34.606925,-0.0030841997366068195,-0.023330473146428877,0.0970030596496862,44.11764879391193,-92.24360919585227,80.21211738781929
2024-09-23 16:19:20.529212,40.92,34.606925,-0.0030841997366068195,-0.02338022115155219,0.09705279702197278,44.11764879391193,-92.24360919585227,80.21211738781929
2024-09-23 16:19:20.561153,40.92,34.606925,-0.0030841997366068195,-0.02338022115155219,0.09705279702197278,40.106058693909645,-92.24360919585227,80.21211738781929
2024-09-23 16:19:20.573893,40.92,34.606976,-0.002387757474797703,-0.023230986250042305,0.09705279702197278,40.106058693909645,-100.26678939585686,80.21211738781929
2024-09-23 16:19:20.617230,40.92,34.607026,-0.002387757474797703,-0.023230986250042305,0.09740101331113918,28.07457030097246,-100.26678939585686,80.21211738781929
2024-09-23 16:19:20.629481,40.92,34.607026,-0.0034324103296106863,-0.023230986250042305,0.09740101331113918,28.07457030097246,-100.26678939585686,80.21211738781929
2024-09-23 16:19:20.661080,40.92,34.607026,-0.0034324103296106863,-0.023579196463302005,0.09745075675933246,28.07457030097246,-100.26678939585686,80.21211738781929
2024-09-23 16:19:20.672990,40.92,34.607117,-0.0034324103296106863,-0.023579196463302005,0.09745075675933246,36.09446859390736,-100.26678939585686,80.21211738781929
2024-09-23 16:19:20.715823,40.92,34.607117,-0.0031836870127375577,-0.023429960042815445,0.09690356060148622,44.11764879391193,-104.27510100388527,76.200527287817
2024-09-23 16:19:20.758041,40.92,34.607169,-0.0033329230534799477,-0.023429960042815445,0.09690356060148622,44.11764879391193,-104.27510100388527,76.200527287817
2024-09-23 16:19:20.769464,40.92,34.607169,-0.0033329230534799477,-0.02338022115155219,0.09720203344245934,28.07457030097246,-96.25519929585457,76.200527287817
2024-09-23 16:19:20.812183,40.92,34.607219,-0.003382661564999035,-0.022733528983459317,0.09720203344245934,28.07457030097246,-96.25519929585457,88.23529758782387
2024-09-23 16:19:20.824386,40.92,34.607219,-0.003382661564999035,-0.022733528983459317,0.09720203344245934,32.08287849390507,-96.25519929585457,88.23529758782387
2024-09-23 16:19:20.856252,40.92,34.607219,-0.003382661564999035,-0.022733528983459317,0.09720203344245934,32.08287849390507,-96.25519929585457,80.21211738781929
2024-09-23 16:19:20.868160,40.92,34.60727,-0.003482159473966507,-0.023479709566915436,0.09695331012558621,32.08287849390507,-96.25519929585457,80.21211738781929
2024-09-23 16:19:20.910013,40.92,34.607321,-0.0030841997366068195,-0.023479709566915436,0.09695331012558621,36.09446859390736,-92.24360919585227,80.21211738781929
2024-09-23 16:19:20.922714,40.92,34.607321,-0.0030841997366068195,-0.02303200030545576,0.09695331012558621,36.09446859390736,-92.24360919585227,80.21211738781929
2024-09-23 16:19:20.955549,40.92,34.607321,-0.0030841997366068195,-0.02303200030545576,0.09715228999426605,36.09446859390736,-96.25519929585457,80.21211738781929
2024-09-23 16:19:20.967095,40.92,34.607371,-0.0032831742888682963,-0.02303200030545576,0.09715228999426605,36.09446859390736,-96.25519929585457,80.21211738781929
2024-09-23 16:19:21.010214,41.27,34.607458,-0.0032831742888682963,-0.023280723622328886,0.09745075675933246,48.12595698684454,-96.25519929585457,72.1922225099802
2024-09-23 16:19:21.052282,41.27,34.607458,-0.0029847020175114316,-0.02352945757203875,0.09750050628343246,48.12595698684454,-96.25519929585457,72.1922225099802
2024-09-23 16:19:21.063447,41.27,34.607458,-0.0029847020175114316,-0.02352945757203875,0.09750050628343246,44.11764879391193,-92.24360919585227,80.21211738781929
2024-09-23 16:19:21.105877,41.27,34.60751,-0.0026862297461545674,-0.02278327698858263,0.09685382322919964,32.08287849390507,-92.24360919585227,80.21211738781929
2024-09-23 16:19:21.117295,41.27,34.60751,-0.0026862297461545674,-0.02278327698858263,0.09685382322919964,32.08287849390507,-100.26678939585686,80.21211738781929
2024-09-23 16:19:21.150160,41.27,34.607561,-0.0033329230534799477,-0.02278327698858263,0.09685382322919964,32.08287849390507,-100.26678939585686,80.21211738781929
2024-09-23 16:19:21.161858,41.27,34.607561,-0.0033329230534799477,-0.02367869399252531,0.09695331012558621,36.09446859390736,-100.26678939585686,80.21211738781929
2024-09-23 16:19:21.204525,41.27,34.607611,-0.0028852147413806935,-0.02308174982955575,0.0973015264147526,36.09446859390736,-96.25519929585457,84.22370748782159
2024-09-23 16:19:21.246945,41.27,34.607611,-0.0028852147413806935,-0.02308174982955575,0.0973015264147526,56.14914060194492,-100.26678939585686,80.21211738781929
2024-09-23 16:19:21.258631,41.27,34.607662,-0.0031339382481259063,-0.02308174982955575,0.0973015264147526,56.14914060194492,-100.26678939585686,80.21211738781929
2024-09-23 16:19:21.300436,41.27,34.607662,-0.0031339382481259063,-0.02268379009219606,0.0973015264147526,56.14914060194492,-100.26678939585686,80.21211738781929
2024-09-23 16:19:21.343520,41.27,34.607662,-0.0031339382481259063,-0.02268379009219606,0.09665483728461309,56.14914060194492,-100.26678939585686,80.21211738781929
2024-09-23 16:19:21.354420,41.27,34.607713,-0.0031339382481259063,-0.02268379009219606,0.09665483728461309,32.08287849390507,-92.24360919585227,84.22370748782159
2024-09-23 16:19:21.396417,41.27,34.607713,-0.0031339382481259063,-0.023429960042815445,0.09665483728461309,32.08287849390507,-92.24360919585227,84.22370748782159
2024-09-23 16:19:21.441004,41.27,34.607713,-0.0031339382481259063,-0.023429960042815445,0.09710254654607277,32.08287849390507,-92.24360919585227,84.22370748782159
2024-09-23 16:19:21.452842,41.27,34.6078,-0.0031339382481259063,-0.023429960042815445,0.09710254654607277,36.09446859390736,-92.24360919585227,80.21211738781929
2024-09-23 16:19:21.495225,41.27,34.6078,-0.0031339382481259063,-0.023230986250042305,0.09715228999426605,36.09446859390736,-96.25519929585457,80.21211738781929
2024-09-23 16:19:21.507159,41.27,34.607851,-0.0031339382481259063,-0.023230986250042305,0.09715228999426605,36.09446859390736,-96.25519929585457,80.21211738781929
2024-09-23 16:19:21.538497,41.27,34.607851,-0.0029847020175114316,-0.023280723622328886,0.09715228999426605,36.09446859390736,-96.25519929585457,80.21211738781929
2024-09-23 16:19:21.549769,41.27,34.607851,-0.0029847020175114316,-0.023280723622328886,0.09705279702197278,36.09446859390736,-100.26678939585686,76.200527287817
2024-09-23 16:19:21.592964,41.27,34.607902,-0.0032831742888682963,-0.023230986250042305,0.09720203344245934,40.106058693909645,-88.23529758782387,76.200527287817
2024-09-23 16:19:21.636347,41.27,34.607996,-0.0032831742888682963,-0.023230986250042305,0.09720203344245934,40.106058693909645,-88.23529758782387,84.22370748782159
2024-09-23 16:19:21.647456,41.27,34.607996,-0.0034324103296106863,-0.023429960042815445,0.09755024973162574,28.07457030097246,-88.23529758782387,84.22370748782159
2024-09-23 16:19:21.689284,41.27,34.608094,-0.0030841997366068195,-0.02313149783467906,0.09755024973162574,28.07457030097246,-96.25519929585457,76.200527287817
2024-09-23 16:19:21.701160,41.27,34.608094,-0.0030841997366068195,-0.02313149783467906,0.09774922960030558,28.07457030097246,-96.25519929585457,76.200527287817
2024-09-23 16:19:21.733644,41.27,34.608094,-0.0030841997366068195,-0.02313149783467906,0.09774922960030558,36.09446859390736,-100.26678939585686,76.200527287817
2024-09-23 16:19:21.745430,41.27,34.608145,-0.0026862297461545674,-0.022982261414192504,0.09774922960030558,36.09446859390736,-100.26678939585686,76.200527287817
2024-09-23 16:19:21.788172,41.27,34.608195,-0.0031339382481259063,-0.022982261414192504,0.09750050628343246,44.11764879391193,-96.25519929585457,76.200527287817
2024-09-23 16:19:21.830841,41.27,34.608195,-0.0031339382481259063,-0.02313149783467906,0.0973512698629459,44.11764879391193,-96.25519929585457,76.200527287817
2024-09-23 16:19:21.843030,41.27,34.608195,-0.0031339382481259063,-0.02313149783467906,0.0973512698629459,44.11764879391193,-96.25519929585457,76.200527287817
2024-09-23 16:19:21.885288,41.27,34.608287,-0.0025369937054121774,-0.02303200030545576,0.0973512698629459,44.11764879391193,-108.28669110388756,80.21211738781929
2024-09-23 16:19:21.897081,41.27,34.608287,-0.0025369937054121774,-0.02303200030545576,0.09764974270391902,44.11764879391193,-108.28669110388756,80.21211738781929
2024-09-23 16:19:21.930542,41.27,34.608287,-0.0025369937054121774,-0.02303200030545576,0.09764974270391902,52.137550501942634,-96.25519929585457,80.21211738781929
2024-09-23 16:19:21.941678,41.27,34.608339,-0.0031836870127375577,-0.023230986250042305,0.09764974270391902,52.137550501942634,-96.25519929585457,80.21211738781929
2024-09-23 16:19:21.985269,41.27,34.608389,-0.0030344509719951677,-0.023230986250042305,0.09725178296655933,44.11764879391193,-96.25519929585457,80.21211738781929
2024-09-23 16:19:22.027513,41.52,34.608389,-0.0030344509719951677,-0.023479709566915436,0.09665483728461309,36.09446859390736,-96.25519929585457,80.21211738781929
2024-09-23 16:19:22.038552,41.52,34.60844,-0.0030344509719951677,-0.023479709566915436,0.09665483728461309,36.09446859390736,-100.26678939585686,84.22370748782159
2024-09-23 16:19:22.080909,41.52,34.60844,-0.0028852147413806935,-0.022982261414192504,0.0973015264147526,36.09446859390736,-96.25519929585457,76.200527287817
2024-09-23 16:19:22.125389,41.52,34.608532,-0.003631395514708897,-0.02362894446842532,0.0973015264147526,36.09446859390736,-96.25519929585457,76.200527287817
2024-09-23 16:19:22.136768,41.52,34.608532,-0.003631395514708897,-0.02362894446842532,0.09745075675933246,36.09446859390736,-100.26678939585686,76.200527287817
2024-09-23 16:19:22.179523,41.52,34.608583,-0.003482159473966507,-0.02362894446842532,0.09690356060148622,40.106058693909645,-100.26678939585686,80.21211738781929
2024-09-23 16:19:22.221138,41.52,34.608583,-0.003482159473966507,-0.02362894446842532,0.09690356060148622,40.106058693909645,-88.23529758782387,84.22370748782159
2024-09-23 16:19:22.233352,41.52,34.608634,-0.0029349636958644295,-0.023877669304275123,0.09764974270391902,40.106058693909645,-88.23529758782387,84.22370748782159
2024-09-23 16:19:22.276768,41.52,34.608684,-0.003233425524256645,-0.02278327698858263,0.09764974270391902,48.12595698684454,-92.24360919585227,88.23529758782387
2024-09-23 16:19:22.318653,41.52,34.608684,-0.003233425524256645,-0.02278327698858263,0.09764974270391902,44.11764879391193,-92.24360919585227,88.23529758782387
2024-09-23 16:19:22.330614,41.52,34.608735,-0.0029349636958644295,-0.02278327698858263,0.09764974270391902,44.11764879391193,-100.26678939585686,84.22370748782159
2024-09-23 16:19:22.374143,41.52,34.608824,-0.0029349636958644295,-0.023280723622328886,0.09675432418099966,32.08287849390507,-96.25519929585457,84.22370748782159
2024-09-23 16:19:22.416991,41.52,34.608824,-0.0025369937054121774,-0.023280723622328886,0.09675432418099966,32.08287849390507,-96.25519929585457,84.22370748782159
2024-09-23 16:19:22.469990,41.52,34.608824,-0.0025369937054121774,-0.02313149783467906,0.09695331012558621,44.11764879391193,-100.26678939585686,76.200527287817
2024-09-23 16:19:22.482406,41.52,34.608875,-0.0025369937054121774,-0.02313149783467906,0.09695331012558621,44.11764879391193,-100.26678939585686,76.200527287817
2024-09-23 16:19:22.515541,41.52,34.608875,-0.0032831742888682963,-0.023429960042815445,0.09705279702197278,44.11764879391193,-100.26678939585686,76.200527287817
2024-09-23 16:19:22.527053,41.52,34.608875,-0.0032831742888682963,-0.023429960042815445,0.09705279702197278,32.08287849390507,-92.24360919585227,76.200527287817
2024-09-23 16:19:22.569658,41.52,34.608926,-0.0028852147413806935,-0.02308174982955575,0.09764974270391902,36.09446859390736,-96.25519929585457,76.200527287817
2024-09-23 16:19:22.614448,41.52,34.608976,-0.0029349636958644295,-0.02308174982955575,0.09764974270391902,36.09446859390736,-96.25519929585457,80.21211738781929
2024-09-23 16:19:22.626222,41.52,34.608976,-0.0029349636958644295,-0.022982261414192504,0.09715228999426605,44.11764879391193,-96.25519929585457,80.21211738781929
2024-09-23 16:19:22.658963,41.52,34.608976,-0.0029349636958644295,-0.022982261414192504,0.09715228999426605,44.11764879391193,-96.25519929585457,80.21211738781929
2024-09-23 16:19:22.669958,41.52,34.609027,-0.0025369937054121774,-0.022982261414192504,0.09680407370509965,44.11764879391193,-96.25519929585457,84.22370748782159
2024-09-23 16:19:22.711981,41.52,34.609027,-0.0025369937054121774,-0.022982261414192504,0.09680407370509965,44.11764879391193,-104.27510100388527,80.21211738781929
2024-09-23 16:19:22.723453,41.52,34.609118,-0.0030841997366068195,-0.02313149783467906,0.09680407370509965,44.11764879391193,-104.27510100388527,80.21211738781929
2024-09-23 16:19:22.756097,41.52,34.609118,-0.0030841997366068195,-0.02313149783467906,0.0970030596496862,44.11764879391193,-104.27510100388527,80.21211738781929
2024-09-23 16:19:22.767574,41.52,34.609169,-0.0028852147413806935,-0.02313149783467906,0.0970030596496862,36.09446859390736,-100.26678939585686,80.21211738781929
2024-09-23 16:19:22.810391,41.52,34.609169,-0.0028852147413806935,-0.023230986250042305,0.0966050877605131,44.11764879391193,-96.25519929585457,76.200527287817
2024-09-23 16:19:22.822083,41.52,34.609262,-0.0028852147413806935,-0.023230986250042305,0.0966050877605131,44.11764879391193,-96.25519929585457,76.200527287817
2024-09-23 16:19:22.854935,41.52,34.609262,-0.002785727465249955,-0.022982261414192504,0.0966050877605131,44.11764879391193,-96.25519929585457,76.200527287817
2024-09-23 16:19:22.867223,41.52,34.609262,-0.002785727465249955,-0.022982261414192504,0.09725178296655933,40.106058693909645,-92.24360919585227,80.21211738781929
2024-09-23 16:19:22.911046,41.52,34.609314,-0.0031339382481259063,-0.023479709566915436,0.09670458680871308,36.09446859390736,-92.24360919585227,80.21211738781929
2024-09-23 16:19:22.953924,41.52,34.609364,-0.0030841997366068195,-0.023479709566915436,0.09670458680871308,36.09446859390736,-92.24360919585227,84.22370748782159
2024-09-23 16:19:23.006872,41.52,34.609415,-0.0030841997366068195,-0.02352945757203875,0.09745075675933246,36.09446859390736,-104.27510100388527,80.21211738781929
2024-09-23 16:19:23.050178,41.24,34.609415,-0.003482159473966507,-0.02367869399252531,0.09745075675933246,36.09446859390736,-104.27510100388527,80.21211738781929
2024-09-23 16:19:23.061238,41.24,34.609415,-0.003482159473966507,-0.02367869399252531,0.09705279702197278,36.09446859390736,-108.28669110388756,76.200527287817
2024-09-23 16:19:23.103786,41.24,34.609466,-0.0029847020175114316,-0.023429960042815445,0.0973015264147526,36.09446859390736,-108.28669110388756,76.200527287817
2024-09-23 16:19:23.115388,41.24,34.609466,-0.0029847020175114316,-0.023429960042815445,0.0973015264147526,36.09446859390736,-104.27510100388527,76.200527287817
2024-09-23 16:19:23.147456,41.24,34.609516,-0.0029847020175114316,-0.023429960042815445,0.0973015264147526,36.09446859390736,-104.27510100388527,76.200527287817
2024-09-23 16:19:23.159361,41.24,34.609516,-0.0031836870127375577,-0.02352945757203875,0.09665483728461309,32.08287849390507,-104.27510100388527,76.200527287817
2024-09-23 16:19:23.242418,41.24,34.609516,-0.0031836870127375577,-0.02352945757203875,0.09665483728461309,32.08287849390507,-104.27510100388527,76.200527287817
2024-09-23 16:19:23.254077,41.24,34.609604,-0.002785727465249955,-0.023330473146428877,0.09710254654607277,32.08287849390507,-104.27510100388527,80.21211738781929
2024-09-23 16:19:23.297095,41.24,34.609655,-0.002785727465249955,-0.023330473146428877,0.09710254654607277,32.08287849390507,-100.26678939585686,84.22370748782159
2024-09-23 16:19:23.309045,41.24,34.609655,-0.002785727465249955,-0.023181236725942318,0.09710254654607277,32.08287849390507,-100.26678939585686,84.22370748782159
2024-09-23 16:19:23.342240,41.24,34.609655,-0.002785727465249955,-0.023181236725942318,0.09745075675933246,44.11764879391193,-100.26678939585686,84.22370748782159
2024-09-23 16:19:23.353399,41.24,34.609706,-0.0025369937054121774,-0.023181236725942318,0.09745075675933246,44.11764879391193,-96.25519929585457,80.21211738781929
2024-09-23 16:19:23.396742,41.24,34.609799,-0.0025369937054121774,-0.02308174982955575,0.0973015264147526,40.106058693909645,-96.25519929585457,80.21211738781929
2024-09-23 16:19:23.439593,41.24,34.609799,-0.002636491424507565,-0.023280723622328886,0.0973015264147526,40.106058693909645,-96.25519929585457,80.21211738781929
2024-09-23 16:19:23.451284,41.24,34.609799,-0.002636491424507565,-0.023280723622328886,0.09725178296655933,32.08287849390507,-100.26678939585686,84.22370748782159
2024-09-23 16:19:23.494011,41.24,34.609897,-0.0030841997366068195,-0.02362894446842532,0.09755024973162574,32.08287849390507,-100.26678939585686,84.22370748782159
2024-09-23 16:19:23.536971,41.24,34.609897,-0.0030841997366068195,-0.02362894446842532,0.09755024973162574,32.08287849390507,-100.26678939585686,84.22370748782159
2024-09-23 16:19:23.548720,41.24,34.609948,-0.0029847020175114316,-0.02308174982955575,0.09755024973162574,32.08287849390507,-96.25519929585457,80.21211738781929
2024-09-23 16:19:23.590884,41.24,34.609999,-0.0029847020175114316,-0.02308174982955575,0.09725178296655933,48.12595698684454,-96.25519929585457,84.22370748782159
2024-09-23 16:19:23.602802,41.24,34.609999,-0.0029847020175114316,-0.02308174982955575,0.09725178296655933,48.12595698684454,-96.25519929585457,84.22370748782159
2024-09-23 16:19:23.635734,41.24,34.609999,-0.0029847020175114316,-0.023181236725942318,0.09715228999426605,48.12595698684454,-96.25519929585457,84.22370748782159
2024-09-23 16:19:23.647301,41.24,34.610049,-0.0029847020175114316,-0.023181236725942318,0.09715228999426605,36.09446859390736,-96.25519929585457,76.200527287817
2024-09-23 16:19:23.690621,41.24,34.610049,-0.0028354659767690416,-0.02313149783467906,0.09720203344245934,32.08287849390507,-100.26678939585686,80.21211738781929
2024-09-23 16:19:23.734445,41.24,34.6101,-0.0029349636958644295,-0.02303200030545576,0.09720203344245934,32.08287849390507,-100.26678939585686,80.21211738781929
2024-09-23 16:19:23.745709,41.24,34.6101,-0.0029349636958644295,-0.02303200030545576,0.0973512698629459,36.09446859390736,-100.26678939585686,80.21211738781929
2024-09-23 16:19:23.788168,41.24,34.61019,-0.0030344509719951677,-0.024176140626271565,0.09715228999426605,36.09446859390736,-100.26678939585686,80.21211738781929
2024-09-23 16:19:23.831007,41.24,34.610241,-0.0030344509719951677,-0.024176140626271565,0.09715228999426605,36.09446859390736,-92.24360919585227,80.21211738781929
2024-09-23 16:19:23.842020,41.24,34.610241,-0.0024872551938930902,-0.023330473146428877,0.09695331012558621,36.09446859390736,-92.24360919585227,80.21211738781929
2024-09-23 16:19:23.885289,41.24,34.610291,-0.0028852147413806935,-0.02352945757203875,0.09695331012558621,36.09446859390736,-96.25519929585457,80.21211738781929
2024-09-23 16:19:23.927536,41.24,34.610291,-0.0028852147413806935,-0.02352945757203875,0.09740101331113918,44.11764879391193,-96.25519929585457,80.21211738781929
2024-09-23 16:19:23.939462,41.24,34.610342,-0.0024872551938930902,-0.02352945757203875,0.09740101331113918,44.11764879391193,-88.23529758782387,76.200527287817
2024-09-23 16:19:23.982369,41.24,34.610342,-0.0024872551938930902,-0.023479709566915436,0.09650560086412653,28.07457030097246,-96.25519929585457,88.23529758782387
2024-09-23 16:19:23.994112,41.24,34.610432,-0.0024872551938930902,-0.023479709566915436,0.09650560086412653,28.07457030097246,-96.25519929585457,88.23529758782387
2024-09-23 16:19:24.027441,41.24,34.610432,-0.0028354659767690416,-0.024176140626271565,0.09690356060148622,28.07457030097246,-96.25519929585457,88.23529758782387
2024-09-23 16:19:24.038762,41.24,34.610432,-0.0028354659767690416,-0.024176140626271565,0.09690356060148622,24.06297849342227,-96.25519929585457,80.21211738781929
2024-09-23 16:19:24.081227,41.31,34.610484,-0.0030344509719951677,-0.02338022115155219,0.09670458680871308,36.09446859390736,-104.27510100388527,80.21211738781929
2024-09-23 16:19:24.123108,41.31,34.610535,-0.002586742470023829,-0.02338022115155219,0.09670458680871308,36.09446859390736,-104.27510100388527,76.200527287817
2024-09-23 16:19:24.176962,41.31,34.610585,-0.002586742470023829,-0.023429960042815445,0.09764974270391902,40.106058693909645,-100.26678939585686,76.200527287817
2024-09-23 16:19:24.270433,41.31,34.610585,-0.0030344509719951677,-0.02293251340906919,0.09745075675933246,40.106058693909645,-100.26678939585686,76.200527287817
2024-09-23 16:19:24.281843,41.31,34.610585,-0.0030344509719951677,-0.02293251340906919,0.09745075675933246,36.09446859390736,-100.26678939585686,80.21211738781929
2024-09-23 16:19:24.324476,41.31,34.610636,-0.0038303700669703737,-0.02367869399252531,0.09710254654607277,44.11764879391193,-96.25519929585457,80.21211738781929
2024-09-23 16:19:24.367769,41.31,34.610686,-0.0029847020175114316,-0.02367869399252531,0.09710254654607277,44.11764879391193,-96.25519929585457,76.200527287817
2024-09-23 16:19:24.379222,41.31,34.610686,-0.0029847020175114316,-0.022982261414192504,0.09690356060148622,48.12595698684454,-96.25519929585457,76.200527287817
2024-09-23 16:19:24.422170,41.31,34.610774,-0.0028852147413806935,-0.02278327698858263,0.09695331012558621,48.12595698684454,-88.23529758782387,76.200527287817
2024-09-23 16:19:24.465274,41.31,34.610774,-0.0028852147413806935,-0.02278327698858263,0.09695331012558621,44.11764879391193,-92.24360919585227,76.200527287817
2024-09-23 16:19:24.476462,41.31,34.610825,-0.0029349636958644295,-0.02352945757203875,0.09695331012558621,44.11764879391193,-92.24360919585227,76.200527287817
2024-09-23 16:19:24.518771,41.31,34.610923,-0.0030344509719951677,-0.02352945757203875,0.09705279702197278,40.106058693909645,-96.25519929585457,76.200527287817
2024-09-23 16:19:24.560833,41.31,34.610923,-0.0030344509719951677,-0.022982261414192504,0.09720203344245934,40.106058693909645,-96.25519929585457,76.200527287817
2024-09-23 16:19:24.571864,41.31,34.611017,-0.0030344509719951677,-0.022982261414192504,0.09720203344245934,36.09446859390736,-92.24360919585227,76.200527287817
2024-09-23 16:19:24.613881,41.31,34.611017,-0.0030841997366068195,-0.022982261414192504,0.09759999317981902,44.11764879391193,-92.24360919585227,76.200527287817
2024-09-23 16:19:24.625802,41.31,34.611017,-0.0030841997366068195,-0.022982261414192504,0.09759999317981902,44.11764879391193,-92.24360919585227,80.21211738781929
2024-09-23 16:19:24.659276,41.31,34.611069,-0.0032831742888682963,-0.022982261414192504,0.09759999317981902,44.11764879391193,-92.24360919585227,80.21211738781929
2024-09-23 16:19:24.670354,41.31,34.611069,-0.0032831742888682963,-0.02308174982955575,0.09655535038822652,44.11764879391193,-100.26678939585686,80.21211738781929
2024-09-23 16:19:24.712929,41.31,34.611119,-0.0031836870127375577,-0.023479709566915436,0.09720203344245934,44.11764879391193,-100.26678939585686,80.21211738781929
2024-09-23 16:19:24.724728,41.31,34.611119,-0.0031836870127375577,-0.023479709566915436,0.09720203344245934,40.106058693909645,-100.26678939585686,80.21211738781929
2024-09-23 16:19:24.756810,41.31,34.61117,-0.0031836870127375577,-0.023479709566915436,0.09720203344245934,40.106058693909645,-96.25519929585457,80.21211738781929
2024-09-23 16:19:24.767978,41.31,34.61117,-0.0032831742888682963,-0.022982261414192504,0.09710254654607277,40.106058693909645,-96.25519929585457,80.21211738781929
2024-09-23 16:19:24.812478,41.31,34.611221,-0.0029847020175114316,-0.023330473146428877,0.09710254654607277,36.09446859390736,-96.25519929585457,80.21211738781929
2024-09-23 16:19:24.855809,41.31,34.611221,-0.0029847020175114316,-0.023330473146428877,0.09764974270391902,36.09446859390736,-92.24360919585227,80.21211738781929
2024-09-23 16:19:24.867665,41.31,34.611271,-0.002785727465249955,-0.023330473146428877,0.09764974270391902,36.09446859390736,-92.24360919585227,84.22370748782159
2024-09-23 16:19:24.900428,41.31,34.611271,-0.002785727465249955,-0.023230986250042305,0.09764974270391902,36.09446859390736,-92.24360919585227,84.22370748782159
2024-09-23 16:19:24.911791,41.31,34.611359,-0.002785727465249955,-0.023230986250042305,0.09725178296655933,44.11764879391193,-100.26678939585686,80.21211738781929
2024-09-23 16:19:24.954581,41.31,34.611359,-0.003233425524256645,-0.023429960042815445,0.0970030596496862,36.09446859390736,-100.26678939585686,80.21211738781929
2024-09-23 16:19:24.966400,41.31,34.611359,-0.003233425524256645,-0.023429960042815445,0.0970030596496862,36.09446859390736,-96.25519929585457,84.22370748782159
2024-09-23 16:19:24.999931,41.31,34.61141,-0.0033329230534799477,-0.023429960042815445,0.0970030596496862,36.09446859390736,-96.25519929585457,84.22370748782159
2024-09-23 16:19:25.012141,41.31,34.61141,-0.0033329230534799477,-0.023429960042815445,0.0973015264147526,44.11764879391193,-92.24360919585227,84.22370748782159
2024-09-23 16:19:25.055694,41.31,34.611461,-0.0027359787006383035,-0.02303200030545576,0.09740101331113918,36.09446859390736,-92.24360919585227,80.21211738781929
2024-09-23 16:19:25.098258,41.03,34.611461,-0.0027359787006383035,-0.02303200030545576,0.09740101331113918,36.09446859390736,-96.25519929585457,80.21211738781929
2024-09-23 16:19:25.110002,41.03,34.611511,-0.002785727465249955,-0.023479709566915436,0.09784872257259886,36.09446859390736,-96.25519929585457,80.21211738781929
2024-09-23 16:19:25.152940,41.03,34.611562,-0.003233425524256645,-0.023778180888911878,0.09784872257259886,32.08287849390507,-104.27510100388527,80.21211738781929
2024-09-23 16:19:25.195855,41.03,34.611562,-0.003233425524256645,-0.023778180888911878,0.09685382322919964,44.11764879391193,-84.22370748782159,80.21211738781929
2024-09-23 16:19:25.206745,41.03,34.611613,-0.0027359787006383035,-0.023778180888911878,0.09685382322919964,44.11764879391193,-84.22370748782159,88.23529758782387
2024-09-23 16:19:25.289924,41.03,34.611613,-0.0027359787006383035,-0.02338022115155219,0.09685382322919964,44.11764879391193,-84.22370748782159,88.23529758782387
2024-09-23 16:19:25.301653,41.03,34.6117,-0.0027359787006383035,-0.02338022115155219,0.09685382322919964,36.09446859390736,-96.25519929585457,80.21211738781929
2024-09-23 16:19:25.345004,41.03,34.6117,-0.0028852147413806935,-0.023429960042815445,0.09740101331113918,32.08287849390507,-96.25519929585457,80.21211738781929
2024-09-23 16:19:25.356151,41.03,34.6117,-0.0028852147413806935,-0.023429960042815445,0.09740101331113918,32.08287849390507,-96.25519929585457,80.21211738781929
2024-09-23 16:19:25.387723,41.03,34.611751,-0.0028852147413806935,-0.023429960042815445,0.09740101331113918,32.08287849390507,-96.25519929585457,80.21211738781929
2024-09-23 16:19:25.399514,41.03,34.611751,-0.0029349636958644295,-0.023579196463302005,0.09645586349183995,32.08287849390507,-100.26678939585686,80.21211738781929
2024-09-23 16:19:25.441841,41.03,34.611802,-0.0035318979854855937,-0.02278327698858263,0.09645586349183995,32.08287849390507,-100.26678939585686,88.23529758782387
2024-09-23 16:19:25.454625,41.03,34.611802,-0.0035318979854855937,-0.02278327698858263,0.09755024973162574,24.06297849342227,-100.26678939585686,88.23529758782387
2024-09-23 16:19:25.486815,41.03,34.611802,-0.0035318979854855937,-0.02278327698858263,0.09755024973162574,24.06297849342227,-100.26678939585686,84.22370748782159
2024-09-23 16:19:25.498353,41.03,34.611853,-0.0028852147413806935,-0.02308174982955575,0.09715228999426605,24.06297849342227,-100.26678939585686,84.22370748782159
2024-09-23 16:19:25.541961,41.03,34.611946,-0.003233425524256645,-0.02308174982955575,0.09715228999426605,24.06297849342227,-100.26678939585686,88.23529758782387
2024-09-23 16:19:25.554094,41.03,34.611946,-0.003233425524256645,-0.02308174982955575,0.09715228999426605,24.06297849342227,-100.26678939585686,88.23529758782387
2024-09-23 16:19:25.587275,41.03,34.611946,-0.003233425524256645,-0.02308174982955575,0.09680407370509965,32.08287849390507,-96.25519929585457,88.23529758782387
2024-09-23 16:19:25.598931,41.03,34.611996,-0.0031339382481259063,-0.02308174982955575,0.09680407370509965,32.08287849390507,-96.25519929585457,76.200527287817
2024-09-23 16:19:25.640953,41.03,34.61209,-0.0031339382481259063,-0.022833026512682618,0.09755024973162574,44.11764879391193,-100.26678939585686,80.21211738781929
2024-09-23 16:19:25.682721,41.03,34.61209,-0.0031339382481259063,-0.023429960042815445,0.09755024973162574,44.11764879391193,-100.26678939585686,80.21211738781929
2024-09-23 16:19:25.694012,41.03,34.61209,-0.0031339382481259063,-0.023429960042815445,0.09725178296655933,40.106058693909645,-92.24360919585227,80.21211738781929
2024-09-23 16:19:25.736648,41.03,34.612141,-0.002586742470023829,-0.02362894446842532,0.09715228999426605,0.0,-92.24360919585227,80.21211738781929
2024-09-23 16:19:25.748682,41.03,34.612141,-0.002586742470023829,-0.02362894446842532,0.09715228999426605,0.0,-100.26678939585686,80.21211738781929
2024-09-23 16:19:25.780263,41.03,34.612192,-0.002586742470023829,-0.02362894446842532,0.09715228999426605,0.0,-100.26678939585686,84.22370748782159
2024-09-23 16:19:25.791923,41.03,34.612192,-0.0028852147413806935,-0.023280723622328886,0.09755024973162574,24.06297849342227,-100.26678939585686,84.22370748782159
2024-09-23 16:19:25.834489,41.03,34.612243,-0.0027359787006383035,-0.023330473146428877,0.09755024973162574,24.06297849342227,-96.25519929585457,80.21211738781929
2024-09-23 16:19:25.846913,41.03,34.612243,-0.0027359787006383035,-0.023330473146428877,0.09740101331113918,24.06297849342227,-96.25519929585457,80.21211738781929
2024-09-23 16:19:25.879673,41.03,34.612243,-0.0027359787006383035,-0.023330473146428877,0.09740101331113918,36.09446859390736,-96.25519929585457,80.21211738781929
2024-09-23 16:19:25.891138,41.03,34.612293,-0.0031836870127375577,-0.02268379009219606,0.09740101331113918,36.09446859390736,-96.25519929585457,80.21211738781929
2024-09-23 16:19:25.933888,41.03,34.612344,-0.0032831742888682963,-0.02268379009219606,0.09705279702197278,52.137550501942634,-92.24360919585227,80.21211738781929
2024-09-23 16:19:25.977363,41.03,34.612344,-0.0032831742888682963,-0.02367869399252531,0.09710254654607277,36.09446859390736,-92.24360919585227,80.21211738781929
2024-09-23 16:19:25.988638,41.03,34.612431,-0.0032831742888682963,-0.02367869399252531,0.09710254654607277,36.09446859390736,-104.27510100388527,80.21211738781929
2024-09-23 16:19:26.032350,41.03,34.612431,-0.0030344509719951677,-0.0225345536717095,0.0973015264147526,36.09446859390736,-104.27510100388527,72.1922225099802
2024-09-23 16:19:26.075411,41.03,34.612483,-0.003233425524256645,-0.023330473146428877,0.0973015264147526,36.09446859390736,-104.27510100388527,72.1922225099802
2024-09-23 16:19:26.087514,41.03,34.612483,-0.003233425524256645,-0.023330473146428877,0.0973015264147526,28.07457030097246,-84.22370748782159,72.1922225099802
2024-09-23 16:19:26.120349,41.28,34.612483,-0.003233425524256645,-0.023330473146428877,0.0973015264147526,28.07457030097246,-84.22370748782159,80.21211738781929
2024-09-23 16:19:26.131470,41.28,34.612533,-0.0028852147413806935,-0.02278327698858263,0.09725178296655933,44.11764879391193,-84.22370748782159,80.21211738781929
2024-09-23 16:19:26.174073,41.28,34.612584,-0.0034324103296106863,-0.023429960042815445,0.09725178296655933,44.11764879391193,-84.22370748782159,84.22370748782159
2024-09-23 16:19:26.185984,41.28,34.612584,-0.0034324103296106863,-0.023429960042815445,0.09705279702197278,44.11764879391193,-84.22370748782159,84.22370748782159
2024-09-23 16:19:26.218736,41.28,34.612584,-0.0034324103296106863,-0.023429960042815445,0.09705279702197278,36.09446859390736,-92.24360919585227,84.22370748782159
2024-09-23 16:19:26.230126,41.28,34.612635,-0.0028354659767690416,-0.023330473146428877,0.09705279702197278,36.09446859390736,-92.24360919585227,84.22370748782159
2024-09-23 16:19:26.324352,41.28,34.612635,-0.0028354659767690416,-0.023330473146428877,0.09740101331113918,32.08287849390507,-96.25519929585457,84.22370748782159
2024-09-23 16:19:26.368382,41.28,34.612685,-0.0032831742888682963,-0.023330473146428877,0.09740101331113918,32.08287849390507,-96.25519929585457,76.200527287817
2024-09-23 16:19:26.379704,41.28,34.612685,-0.0032831742888682963,-0.023579196463302005,0.09695331012558621,44.11764879391193,-96.25519929585457,76.200527287817
2024-09-23 16:19:26.413715,41.28,34.612685,-0.0032831742888682963,-0.023579196463302005,0.09695331012558621,44.11764879391193,-92.24360919585227,76.200527287817
2024-09-23 16:19:26.424987,41.28,34.612773,-0.0028354659767690416,-0.023181236725942318,0.09680407370509965,44.11764879391193,-92.24360919585227,76.200527287817
2024-09-23 16:19:26.468024,41.28,34.612824,-0.0035318979854855937,-0.023330473146428877,0.09680407370509965,40.106058693909645,-100.26678939585686,80.21211738781929
2024-09-23 16:19:26.510284,41.28,34.612824,-0.0035318979854855937,-0.023330473146428877,0.09750050628343246,36.09446859390736,-100.26678939585686,80.21211738781929
2024-09-23 16:19:26.522084,41.28,34.612875,-0.0035318979854855937,-0.023330473146428877,0.09750050628343246,36.09446859390736,-96.25519929585457,80.21211738781929
2024-09-23 16:19:26.564634,41.28,34.612875,-0.0035318979854855937,-0.0224350561424862,0.09774922960030558,36.09446859390736,-100.26678939585686,80.21211738781929
2024-09-23 16:19:26.577406,41.28,34.612969,-0.0035318979854855937,-0.0224350561424862,0.09774922960030558,36.09446859390736,-100.26678939585686,72.1922225099802
2024-09-23 16:19:26.610170,41.28,34.612969,-0.002785727465249955,-0.022982261414192504,0.09774922960030558,36.09446859390736,-100.26678939585686,72.1922225099802
2024-09-23 16:19:26.621773,41.28,34.612969,-0.002785727465249955,-0.022982261414192504,0.09774922960030558,36.09446859390736,-96.25519929585457,76.200527287817
2024-09-23 16:19:26.664307,41.28,34.613065,-0.0029349636958644295,-0.022982261414192504,0.09685382322919964,44.11764879391193,-96.25519929585457,76.200527287817
2024-09-23 16:19:26.706459,41.28,34.613117,-0.0029349636958644295,-0.022982261414192504,0.09685382322919964,44.11764879391193,-96.25519929585457,76.200527287817
2024-09-23 16:19:26.718381,41.28,34.613117,-0.0032831742888682963,-0.02367869399252531,0.09720203344245934,36.09446859390736,-96.25519929585457,76.200527287817
2024-09-23 16:19:26.761849,41.28,34.613167,-0.0031339382481259063,-0.02367869399252531,0.09784872257259886,36.09446859390736,-88.23529758782387,80.21211738781929
2024-09-23 16:19:26.804192,41.28,34.613167,-0.0031339382481259063,-0.02367869399252531,0.09784872257259886,28.07457030097246,-96.25519929585457,80.21211738781929
2024-09-23 16:19:26.815613,41.28,34.613218,-0.0031836870127375577,-0.023181236725942318,0.09784872257259886,28.07457030097246,-96.25519929585457,80.21211738781929
2024-09-23 16:19:26.858479,41.28,34.613269,-0.0031836870127375577,-0.023181236725942318,0.09745075675933246,32.08287849390507,-100.26678939585686,68.18063240997792
2024-09-23 16:19:26.900868,41.28,34.613269,-0.003233425524256645,-0.023181236725942318,0.09745075675933246,32.08287849390507,-100.26678939585686,68.18063240997792
2024-09-23 16:19:26.954347,41.28,34.613269,-0.003233425524256645,-0.022733528983459317,0.09710254654607277,44.11764879391193,-104.27510100388527,68.18063240997792
2024-09-23 16:19:26.966989,41.28,34.613357,-0.003233425524256645,-0.022733528983459317,0.09710254654607277,44.11764879391193,-104.27510100388527,84.22370748782159
2024-09-23 16:19:27.000213,41.28,34.613357,-0.0029349636958644295,-0.02362894446842532,0.09789846602079214,44.11764879391193,-104.27510100388527,84.22370748782159
2024-09-23 16:19:27.011699,41.28,34.613357,-0.0029349636958644295,-0.02362894446842532,0.09789846602079214,40.106058693909645,-96.25519929585457,80.21211738781929
2024-09-23 16:19:27.054065,41.28,34.613409,-0.0028354659767690416,-0.022982261414192504,0.09705279702197278,44.11764879391193,-100.26678939585686,80.21211738781929
2024-09-23 16:19:27.097189,41.28,34.61346,-0.0029847020175114316,-0.022982261414192504,0.09705279702197278,44.11764879391193,-100.26678939585686,80.21211738781929
2024-09-23 16:19:27.109344,41.28,34.61346,-0.0029847020175114316,-0.023479709566915436,0.09685382322919964,36.09446859390736,-100.26678939585686,80.21211738781929
2024-09-23 16:19:27.151757,41.11,34.61351,-0.0029847020175114316,-0.023181236725942318,0.0970030596496862,36.09446859390736,-100.26678939585686,80.21211738781929
2024-09-23 16:19:27.195347,41.11,34.61351,-0.0029847020175114316,-0.023181236725942318,0.0970030596496862,40.106058693909645,-92.24360919585227,80.21211738781929
2024-09-23 16:19:27.206735,41.11,34.613603,-0.003382661564999035,-0.023280723622328886,0.0970030596496862,40.106058693909645,-92.24360919585227,80.21211738781929
2024-09-23 16:19:27.250438,41.11,34.613654,-0.0031339382481259063,-0.023280723622328886,0.09685382322919964,24.06297849342227,-96.25519929585457,80.21211738781929
2024-09-23 16:19:27.344718,41.11,34.613654,-0.0031339382481259063,-0.023230986250042305,0.09720203344245934,36.09446859390736,-96.25519929585457,80.21211738781929
2024-09-23 16:19:27.356429,41.11,34.613747,-0.0031339382481259063,-0.023230986250042305,0.09720203344245934,36.09446859390736,-96.25519929585457,80.21211738781929
2024-09-23 16:19:27.388598,41.11,34.613747,-0.002586742470023829,-0.023181236725942318,0.09720203344245934,36.09446859390736,-96.25519929585457,80.21211738781929
2024-09-23 16:19:27.399730,41.11,34.613747,-0.002586742470023829,-0.023181236725942318,0.09665483728461309,36.09446859390736,-92.24360919585227,76.200527287817
2024-09-23 16:19:27.442294,41.11,34.613799,-0.0028354659767690416,-0.023579196463302005,0.09710254654607277,36.09446859390736,-92.24360919585227,76.200527287817
2024-09-23 16:19:27.454305,41.11,34.613799,-0.0028354659767690416,-0.023579196463302005,0.09710254654607277,36.09446859390736,-96.25519929585457,76.200527287817
2024-09-23 16:19:27.486891,41.11,34.61385,-0.0028354659767690416,-0.023579196463302005,0.09710254654607277,36.09446859390736,-96.25519929585457,80.21211738781929
2024-09-23 16:19:27.498674,41.11,34.61385,-0.002288270198666964,-0.023330473146428877,0.09665483728461309,44.11764879391193,-96.25519929585457,80.21211738781929
2024-09-23 16:19:27.541925,41.11,34.6139,-0.0035816467500972456,-0.02293251340906919,0.0973015264147526,44.11764879391193,-92.24360919585227,80.21211738781929
2024-09-23 16:19:27.584387,41.11,34.6139,-0.0035816467500972456,-0.02293251340906919,0.0973015264147526,40.106058693909645,-96.25519929585457,80.21211738781929
2024-09-23 16:19:27.596401,41.11,34.613993,-0.0030344509719951677,-0.023579196463302005,0.0973015264147526,40.106058693909645,-96.25519929585457,76.200527287817
2024-09-23 16:19:27.639583,41.11,34.614044,-0.0030841997366068195,-0.023579196463302005,0.0973015264147526,32.08287849390507,-96.25519929585457,76.200527287817
2024-09-23 16:19:27.682132,41.11,34.614044,-0.0030841997366068195,-0.02308174982955575,0.09740101331113918,36.09446859390736,-96.25519929585457,76.200527287817
2024-09-23 16:19:27.693342,41.11,34.614137,-0.0030841997366068195,-0.02308174982955575,0.09740101331113918,36.09446859390736,-100.26678939585686,80.21211738781929
2024-09-23 16:19:27.736970,41.11,34.614137,-0.0030841997366068195,-0.023479709566915436,0.09705279702197278,40.106058693909645,-96.25519929585457,72.1922225099802
2024-09-23 16:19:27.778788,41.11,34.614189,-0.0029847020175114316,-0.023479709566915436,0.09705279702197278,40.106058693909645,-96.25519929585457,72.1922225099802
2024-09-23 16:19:27.789785,41.11,34.614189,-0.0029847020175114316,-0.023479709566915436,0.09715228999426605,32.08287849390507,-96.25519929585457,72.1922225099802
2024-09-23 16:19:27.831750,41.11,34.614239,-0.0029349636958644295,-0.023479709566915436,0.09715228999426605,32.08287849390507,-96.25519929585457,76.200527287817
2024-09-23 16:19:27.843815,41.11,34.614239,-0.0029349636958644295,-0.023479709566915436,0.09715228999426605,40.106058693909645,-96.25519929585457,76.200527287817
2024-09-23 16:19:27.876217,41.11,34.614239,-0.0029349636958644295,-0.023479709566915436,0.09715228999426605,40.106058693909645,-96.25519929585457,80.21211738781929
2024-09-23 16:19:27.887295,41.11,34.61429,-0.002387757474797703,-0.02303200030545576,0.09745075675933246,40.106058693909645,-96.25519929585457,80.21211738781929
2024-09-23 16:19:27.980934,41.11,34.614341,-0.0033329230534799477,-0.0228827638849692,0.09745075675933246,48.12595698684454,-96.25519929585457,76.200527287817
2024-09-23 16:19:28.025644,41.11,34.614341,-0.0033329230534799477,-0.0228827638849692,0.09665483728461309,48.12595698684454,-100.26678939585686,76.200527287817
2024-09-23 16:19:28.037135,41.11,34.614392,-0.002636491424507565,-0.0228827638849692,0.09665483728461309,48.12595698684454,-100.26678939585686,76.200527287817
2024-09-23 16:19:28.069209,41.11,34.614392,-0.002636491424507565,-0.02338022115155219,0.09665483728461309,48.12595698684454,-100.26678939585686,76.200527287817
2024-09-23 16:19:28.081177,41.11,34.614479,-0.002636491424507565,-0.02338022115155219,0.09695331012558621,32.08287849390507,-100.26678939585686,80.21211738781929
2024-09-23 16:19:28.123636,41.11,34.614479,-0.0031339382481259063,-0.022733528983459317,0.09720203344245934,32.08287849390507,-100.26678939585686,80.21211738781929
2024-09-23 16:19:28.137257,41.11,34.614479,-0.0031339382481259063,-0.022733528983459317,0.09720203344245934,32.08287849390507,-100.26678939585686,84.22370748782159
2024-09-23 16:19:28.169465,40.93,34.61453,-0.0030841997366068195,-0.022982261414192504,0.09720203344245934,32.08287849390507,-100.26678939585686,84.22370748782159
2024-09-23 16:19:28.181325,40.93,34.61453,-0.0030841997366068195,-0.022982261414192504,0.09725178296655933,36.09446859390736,-100.26678939585686,84.22370748782159
2024-09-23 16:19:28.224376,40.93,34.614626,-0.0034324103296106863,-0.023230986250042305,0.09710254654607277,32.08287849390507,-100.26678939585686,80.21211738781929
2024-09-23 16:19:28.267087,40.93,34.614677,-0.0034324103296106863,-0.023230986250042305,0.09710254654607277,32.08287849390507,-104.27510100388527,84.22370748782159
2024-09-23 16:19:28.279399,40.93,34.614677,-0.0028354659767690416,-0.023579196463302005,0.0973512698629459,32.08287849390507,-104.27510100388527,84.22370748782159
2024-09-23 16:19:28.364154,40.93,34.614677,-0.0028354659767690416,-0.023579196463302005,0.0973512698629459,40.106058693909645,-108.28669110388756,84.22370748782159
2024-09-23 16:19:28.375370,40.93,34.614728,-0.0031836870127375577,-0.022833026512682618,0.0973512698629459,40.106058693909645,-108.28669110388756,76.200527287817
2024-09-23 16:19:28.419205,40.93,34.614778,-0.0025369937054121774,-0.022833026512682618,0.09725178296655933,28.07457030097246,-100.26678939585686,80.21211738781929
2024-09-23 16:19:28.462674,40.93,34.614778,-0.0025369937054121774,-0.023280723622328886,0.09695331012558621,36.09446859390736,-100.26678939585686,80.21211738781929
2024-09-23 16:19:28.474490,40.93,34.614869,-0.0025369937054121774,-0.023280723622328886,0.09695331012558621,36.09446859390736,-96.25519929585457,76.200527287817
2024-09-23 16:19:28.516820,40.93,34.614869,-0.0027359787006383035,-0.023429960042815445,0.09725178296655933,28.07457030097246,-92.24360919585227,80.21211738781929
2024-09-23 16:19:28.560035,40.93,34.61492,-0.003382661564999035,-0.02352945757203875,0.09725178296655933,28.07457030097246,-92.24360919585227,80.21211738781929
2024-09-23 16:19:28.571802,40.93,34.61492,-0.003382661564999035,-0.02352945757203875,0.09745075675933246,40.106058693909645,-92.24360919585227,80.21211738781929
2024-09-23 16:19:28.614948,40.93,34.61492,-0.003382661564999035,-0.02352945757203875,0.09745075675933246,40.106058693909645,-104.27510100388527,80.21211738781929
2024-09-23 16:19:28.657699,40.93,34.615016,-0.0026862297461545674,-0.02352945757203875,0.09745075675933246,40.106058693909645,-104.27510100388527,80.21211738781929
2024-09-23 16:19:28.669306,40.93,34.615016,-0.0026862297461545674,-0.023230986250042305,0.09740101331113918,40.106058693909645,-104.27510100388527,80.21211738781929
2024-09-23 16:19:28.713024,40.93,34.615067,-0.0028354659767690416,-0.023230986250042305,0.09655535038822652,40.106058693909645,-100.26678939585686,76.200527287817
2024-09-23 16:19:28.755237,40.93,34.615067,-0.0028354659767690416,-0.023230986250042305,0.09655535038822652,48.12595698684454,-92.24360919585227,76.200527287817
2024-09-23 16:19:28.766580,40.93,34.615118,-0.0030344509719951677,-0.02313149783467906,0.09655535038822652,48.12595698684454,-92.24360919585227,76.200527287817
2024-09-23 16:19:28.810280,40.93,34.615168,-0.0030841997366068195,-0.02313149783467906,0.09725178296655933,40.106058693909645,-100.26678939585686,76.200527287817
2024-09-23 16:19:28.852158,40.93,34.615168,-0.0030841997366068195,-0.02352945757203875,0.09680407370509965,32.08287849390507,-100.26678939585686,76.200527287817
2024-09-23 16:19:28.863333,40.93,34.615259,-0.0030841997366068195,-0.02352945757203875,0.09680407370509965,32.08287849390507,-92.24360919585227,80.21211738781929
2024-09-23 16:19:28.906163,40.93,34.615259,-0.0030841997366068195,-0.023181236725942318,0.09759999317981902,40.106058693909645,-100.26678939585686,80.21211738781929
2024-09-23 16:19:28.951199,40.93,34.615357,-0.0028354659767690416,-0.023280723622328886,0.09759999317981902,40.106058693909645,-100.26678939585686,80.21211738781929
2024-09-23 16:19:28.962710,40.93,34.615357,-0.0028354659767690416,-0.023280723622328886,0.09745075675933246,40.106058693909645,-104.27510100388527,80.21211738781929
2024-09-23 16:19:29.005260,40.93,34.615408,-0.0029349636958644295,-0.023280723622328886,0.09725178296655933,32.08287849390507,-104.27510100388527,80.21211738781929
2024-09-23 16:19:29.047151,40.93,34.615459,-0.0029349636958644295,-0.023280723622328886,0.09725178296655933,32.08287849390507,-104.27510100388527,76.200527287817
2024-09-23 16:19:29.058458,40.93,34.615459,-0.0030344509719951677,-0.0228827638849692,0.09680407370509965,32.08287849390507,-104.27510100388527,76.200527287817
2024-09-23 16:19:29.101190,40.93,34.61551,-0.003631395514708897,-0.022833026512682618,0.09680407370509965,28.07457030097246,-100.26678939585686,80.21211738781929
2024-09-23 16:19:29.143514,40.93,34.61551,-0.003631395514708897,-0.022833026512682618,0.09710254654607277,32.08287849390507,-100.26678939585686,80.21211738781929
2024-09-23 16:19:29.196540,40.33,34.61556,-0.0032831742888682963,-0.023181236725942318,0.09710254654607277,32.08287849390507,-100.26678939585686,80.21211738781929
2024-09-23 16:19:29.208639,40.33,34.61556,-0.0032831742888682963,-0.023181236725942318,0.09710254654607277,32.08287849390507,-100.26678939585686,80.21211738781929
2024-09-23 16:19:29.242055,40.33,34.61556,-0.0032831742888682963,-0.023181236725942318,0.09710254654607277,44.11764879391193,-100.26678939585686,80.21211738781929
2024-09-23 16:19:29.253213,40.33,34.615649,-0.0030344509719951677,-0.023181236725942318,0.09710254654607277,44.11764879391193,-100.26678939585686,84.22370748782159
2024-09-23 16:19:29.295895,40.33,34.6157,-0.0030344509719951677,-0.023181236725942318,0.09750050628343246,40.106058693909645,-96.25519929585457,76.200527287817
2024-09-23 16:19:29.307855,40.33,34.6157,-0.0030841997366068195,-0.023181236725942318,0.09750050628343246,40.106058693909645,-96.25519929585457,76.200527287817
2024-09-23 16:19:29.391443,40.33,34.6157,-0.0030841997366068195,-0.023230986250042305,0.09635636444363997,36.09446859390736,-92.24360919585227,84.22370748782159
2024-09-23 16:19:29.403623,40.33,34.615751,-0.0030841997366068195,-0.023230986250042305,0.09635636444363997,36.09446859390736,-92.24360919585227,84.22370748782159
2024-09-23 16:19:29.436091,40.33,34.615751,-0.0035318979854855937,-0.02303200030545576,0.09635636444363997,36.09446859390736,-92.24360919585227,84.22370748782159
2024-09-23 16:19:29.447826,40.33,34.615751,-0.0035318979854855937,-0.02303200030545576,0.09680407370509965,48.12595698684454,-108.28669110388756,68.18063240997792
2024-09-23 16:19:29.490594,40.33,34.615844,-0.0035318979854855937,-0.02352945757203875,0.0973512698629459,40.106058693909645,-108.28669110388756,68.18063240997792
2024-09-23 16:19:29.502653,40.33,34.615844,-0.0035318979854855937,-0.02352945757203875,0.0973512698629459,40.106058693909645,-100.26678939585686,68.18063240997792
2024-09-23 16:19:29.534820,40.33,34.615896,-0.003233425524256645,-0.02352945757203875,0.0973512698629459,40.106058693909645,-100.26678939585686,76.200527287817
2024-09-23 16:19:29.545990,40.33,34.615896,-0.003233425524256645,-0.023330473146428877,0.0970030596496862,40.106058693909645,-100.26678939585686,76.200527287817
2024-09-23 16:19:29.589481,40.33,34.615947,-0.0032831742888682963,-0.023230986250042305,0.09705279702197278,40.106058693909645,-100.26678939585686,84.22370748782159
2024-09-23 16:19:29.631458,40.33,34.615947,-0.0032831742888682963,-0.023230986250042305,0.09705279702197278,36.09446859390736,-100.26678939585686,84.22370748782159
2024-09-23 16:19:29.643064,40.33,34.616041,-0.0028354659767690416,-0.023230986250042305,0.09705279702197278,36.09446859390736,-100.26678939585686,76.200527287817
2024-09-23 16:19:29.685594,40.33,34.616041,-0.0028354659767690416,-0.023230986250042305,0.0970030596496862,40.106058693909645,-92.24360919585227,76.200527287817
2024-09-23 16:19:29.728185,40.33,34.616091,-0.0028354659767690416,-0.023230986250042305,0.0970030596496862,40.106058693909645,-92.24360919585227,76.200527287817
2024-09-23 16:19:29.781467,40.33,34.616091,-0.0030344509719951677,-0.0228827638849692,0.09670458680871308,44.11764879391193,-96.25519929585457,76.200527287817
2024-09-23 16:19:29.793239,40.33,34.616091,-0.0030344509719951677,-0.0228827638849692,0.09670458680871308,44.11764879391193,-96.25519929585457,76.200527287817
2024-09-23 16:19:29.826608,40.33,34.616185,-0.0030344509719951677,-0.0228827638849692,0.09670458680871308,44.11764879391193,-96.25519929585457,76.200527287817
2024-09-23 16:19:29.837846,40.33,34.616185,-0.0030344509719951677,-0.02338022115155219,0.09710254654607277,44.11764879391193,-96.25519929585457,76.200527287817
2024-09-23 16:19:29.879980,40.33,34.616236,-0.0030344509719951677,-0.02362894446842532,0.09670458680871308,44.11764879391193,-96.25519929585457,76.200527287817
2024-09-23 16:19:29.891995,40.33,34.616236,-0.0030344509719951677,-0.02362894446842532,0.09670458680871308,44.11764879391193,-96.25519929585457,76.200527287817
2024-09-23 16:19:29.923629,40.33,34.616236,-0.0030344509719951677,-0.02362894446842532,0.09670458680871308,44.11764879391193,-92.24360919585227,80.21211738781929
2024-09-23 16:19:29.935812,40.33,34.616287,-0.0030841997366068195,-0.022733528983459317,0.09755024973162574,44.11764879391193,-92.24360919585227,80.21211738781929
2024-09-23 16:19:29.978602,40.33,34.616338,-0.0033329230534799477,-0.022733528983459317,0.09755024973162574,40.106058693909645,-92.24360919585227,80.21211738781929
2024-09-23 16:19:29.990452,40.33,34.616338,-0.0033329230534799477,-0.023330473146428877,0.09755024973162574,40.106058693909645,-92.24360919585227,80.21211738781929
2024-09-23 16:19:30.022006,40.33,34.616338,-0.0033329230534799477,-0.023330473146428877,0.09715228999426605,32.08287849390507,-92.24360919585227,80.21211738781929
2024-09-23 16:19:30.033567,40.33,34.616431,-0.0026862297461545674,-0.023330473146428877,0.09715228999426605,32.08287849390507,-92.24360919585227,80.21211738781929
2024-09-23 16:19:30.076887,40.33,34.616526,-0.0026862297461545674,-0.02303200030545576,0.0973512698629459,44.11764879391193,-100.26678939585686,80.21211738781929
2024-09-23 16:19:30.170680,40.33,34.616526,-0.0035816467500972456,-0.02268379009219606,0.09655535038822652,28.07457030097246,-100.26678939585686,80.21211738781929
2024-09-23 16:19:30.182486,40.33,34.616526,-0.0035816467500972456,-0.02268379009219606,0.09655535038822652,28.07457030097246,-96.25519929585457,80.21211738781929
2024-09-23 16:19:30.216273,40.57,34.616578,-0.0031339382481259063,-0.02268379009219606,0.09655535038822652,28.07457030097246,-96.25519929585457,80.21211738781929
2024-09-23 16:19:30.227315,40.57,34.616578,-0.0031339382481259063,-0.023429960042815445,0.09680407370509965,28.07457030097246,-100.26678939585686,80.21211738781929
2024-09-23 16:19:30.269612,40.57,34.616628,-0.0034324103296106863,-0.02278327698858263,0.09764974270391902,28.07457030097246,-100.26678939585686,80.21211738781929
2024-09-23 16:19:30.281210,40.57,34.616628,-0.0034324103296106863,-0.02278327698858263,0.09764974270391902,36.09446859390736,-100.26678939585686,80.21211738781929
2024-09-23 16:19:30.313284,40.57,34.616628,-0.0034324103296106863,-0.02278327698858263,0.09764974270391902,36.09446859390736,-96.25519929585457,72.1922225099802
2024-09-23 16:19:30.324729,40.57,34.616679,-0.0030344509719951677,-0.02313149783467906,0.09750050628343246,36.09446859390736,-96.25519929585457,72.1922225099802
2024-09-23 16:19:30.367721,40.57,34.61673,-0.0031836870127375577,-0.02313149783467906,0.09750050628343246,44.11764879391193,-100.26678939585686,80.21211738781929
2024-09-23 16:19:30.379562,40.57,34.61673,-0.0031836870127375577,-0.02308174982955575,0.09750050628343246,44.11764879391193,-100.26678939585686,80.21211738781929
2024-09-23 16:19:30.411119,40.57,34.61673,-0.0031836870127375577,-0.02308174982955575,0.09740101331113918,48.12595698684454,-100.26678939585686,80.21211738781929
2024-09-23 16:19:30.423133,40.57,34.616821,-0.002785727465249955,-0.02308174982955575,0.09740101331113918,48.12595698684454,-100.26678939585686,80.21211738781929
2024-09-23 16:19:30.465989,40.57,34.616916,-0.002785727465249955,-0.023330473146428877,0.09710254654607277,32.08287849390507,-96.25519929585457,84.22370748782159
2024-09-23 16:19:30.507941,40.57,34.616916,-0.0033329230534799477,-0.02308174982955575,0.09710254654607277,32.08287849390507,-96.25519929585457,84.22370748782159
2024-09-23 16:19:30.519458,40.57,34.616916,-0.0033329230534799477,-0.02308174982955575,0.09794820946898543,36.09446859390736,-108.28669110388756,76.200527287817
2024-09-23 16:19:30.562544,40.57,34.616968,-0.002785727465249955,-0.023728432883788564,0.09630662707135339,40.106058693909645,-108.28669110388756,76.200527287817
2024-09-23 16:19:30.574509,40.57,34.616968,-0.002785727465249955,-0.023728432883788564,0.09630662707135339,40.106058693909645,-100.26678939585686,76.200527287817
2024-09-23 16:19:30.606214,40.57,34.617018,-0.002785727465249955,-0.023728432883788564,0.09630662707135339,40.106058693909645,-100.26678939585686,80.21211738781929
2024-09-23 16:19:30.618024,40.57,34.617018,-0.0035318979854855937,-0.02313149783467906,0.09690356060148622,40.106058693909645,-100.26678939585686,80.21211738781929
2024-09-23 16:19:30.659903,40.57,34.617069,-0.0035318979854855937,-0.02313149783467906,0.09690356060148622,40.106058693909645,-100.26678939585686,80.21211738781929
2024-09-23 16:19:30.671211,40.57,34.617069,-0.0035318979854855937,-0.02313149783467906,0.09695331012558621,40.106058693909645,-100.26678939585686,80.21211738781929
2024-09-23 16:19:30.703667,40.57,34.617069,-0.0035318979854855937,-0.02313149783467906,0.09695331012558621,40.106058693909645,-96.25519929585457,80.21211738781929
2024-09-23 16:19:30.715572,40.57,34.61712,-0.0030841997366068195,-0.02278327698858263,0.09695331012558621,40.106058693909645,-96.25519929585457,84.22370748782159
2024-09-23 16:19:30.758659,40.57,34.61717,-0.0028852147413806935,-0.02278327698858263,0.09779897304849887,40.106058693909645,-100.26678939585686,80.21211738781929
2024-09-23 16:19:30.800802,40.57,34.61717,-0.0028852147413806935,-0.023280723622328886,0.09750050628343246,40.106058693909645,-100.26678939585686,80.21211738781929
2024-09-23 16:19:30.812465,40.57,34.617257,-0.0028852147413806935,-0.023280723622328886,0.09750050628343246,40.106058693909645,-92.24360919585227,80.21211738781929
2024-09-23 16:19:30.855852,40.57,34.617257,-0.0028852147413806935,-0.023230986250042305,0.09750050628343246,40.106058693909645,-96.25519929585457,80.21211738781929
2024-09-23 16:19:30.867336,40.57,34.617257,-0.0028852147413806935,-0.023230986250042305,0.09750050628343246,40.106058693909645,-96.25519929585457,84.22370748782159
2024-09-23 16:19:30.899688,40.57,34.617309,-0.002785727465249955,-0.023280723622328886,0.09750050628343246,40.106058693909645,-96.25519929585457,84.22370748782159
2024-09-23 16:19:30.910801,40.57,34.617309,-0.002785727465249955,-0.023280723622328886,0.09725178296655933,44.11764879391193,-92.24360919585227,84.22370748782159
2024-09-23 16:19:30.953218,40.57,34.61736,-0.0026862297461545674,-0.023280723622328886,0.09705279702197278,44.11764879391193,-92.24360919585227,76.200527287817
2024-09-23 16:19:30.996095,40.57,34.61736,-0.0026862297461545674,-0.023280723622328886,0.09705279702197278,44.11764879391193,-96.25519929585457,76.200527287817
2024-09-23 16:19:31.007176,40.57,34.617411,-0.0033329230534799477,-0.023230986250042305,0.09665483728461309,44.11764879391193,-96.25519929585457,76.200527287817
2024-09-23 16:19:31.049688,40.57,34.617461,-0.003233425524256645,-0.023230986250042305,0.09665483728461309,44.11764879391193,-96.25519929585457,80.21211738781929
2024-09-23 16:19:31.061431,40.57,34.617461,-0.003233425524256645,-0.02367869399252531,0.09665483728461309,44.11764879391193,-96.25519929585457,80.21211738781929
2024-09-23 16:19:31.094189,40.57,34.617461,-0.003233425524256645,-0.02367869399252531,0.09745075675933246,40.106058693909645,-96.25519929585457,80.21211738781929
2024-09-23 16:19:31.106125,40.57,34.617512,-0.003382661564999035,-0.02367869399252531,0.09745075675933246,40.106058693909645,-88.23529758782387,80.21211738781929
2024-09-23 16:19:31.149563,40.57,34.617599,-0.003382661564999035,-0.02313149783467906,0.09759999317981902,40.106058693909645,-92.24360919585227,80.21211738781929
2024-09-23 16:19:31.191994,40.57,34.617599,-0.0029847020175114316,-0.02338022115155219,0.0973015264147526,40.106058693909645,-92.24360919585227,80.21211738781929
2024-09-23 16:19:31.204233,40.57,34.617599,-0.0029847020175114316,-0.02338022115155219,0.0973015264147526,36.09446859390736,-100.26678939585686,84.22370748782159
2024-09-23 16:19:31.247366,40.83,34.61765,-0.0029847020175114316,-0.023181236725942318,0.09690356060148622,32.08287849390507,-104.27510100388527,84.22370748782159
2024-09-23 16:19:31.290118,40.83,34.617701,-0.002586742470023829,-0.023181236725942318,0.09690356060148622,32.08287849390507,-104.27510100388527,76.200527287817
2024-09-23 16:19:31.301705,40.83,34.617701,-0.002586742470023829,-0.022982261414192504,0.09725178296655933,36.09446859390736,-104.27510100388527,76.200527287817
2024-09-23 16:19:31.344361,40.83,34.617751,-0.0029349636958644295,-0.023579196463302005,0.09759999317981902,36.09446859390736,-100.26678939585686,80.21211738781929
2024-09-23 16:19:31.387907,40.83,34.617751,-0.0029349636958644295,-0.023579196463302005,0.09759999317981902,44.11764879391193,-96.25519929585457,76.200527287817
2024-09-23 16:19:31.399113,40.83,34.617802,-0.0027359787006383035,-0.023181236725942318,0.09759999317981902,44.11764879391193,-96.25519929585457,76.200527287817
2024-09-23 16:19:31.441750,40.83,34.617853,-0.0027359787006383035,-0.023181236725942318,0.09675432418099966,40.106058693909645,-92.24360919585227,72.1922225099802
2024-09-23 16:19:31.453848,40.83,34.617853,-0.0031836870127375577,-0.023181236725942318,0.09675432418099966,40.106058693909645,-92.24360919585227,72.1922225099802
2024-09-23 16:19:31.487190,40.83,34.617853,-0.0031836870127375577,-0.023429960042815445,0.09695331012558621,28.07457030097246,-100.26678939585686,72.1922225099802
2024-09-23 16:19:31.499661,40.83,34.61794,-0.0031836870127375577,-0.023429960042815445,0.09695331012558621,28.07457030097246,-100.26678939585686,88.23529758782387
2024-09-23 16:19:31.532060,40.83,34.61794,-0.003482159473966507,-0.023579196463302005,0.09695331012558621,28.07457030097246,-100.26678939585686,88.23529758782387
2024-09-23 16:19:31.544772,40.83,34.61794,-0.003482159473966507,-0.023579196463302005,0.09670458680871308,28.07457030097246,-100.26678939585686,84.22370748782159
2024-09-23 16:19:31.588268,40.83,34.617991,-0.0030344509719951677,-0.0228827638849692,0.09764974270391902,24.06297849342227,-100.26678939585686,84.22370748782159
2024-09-23 16:19:31.630862,40.83,34.618042,-0.0029847020175114316,-0.0228827638849692,0.09764974270391902,24.06297849342227,-100.26678939585686,80.21211738781929
2024-09-23 16:19:31.641939,40.83,34.618042,-0.0029847020175114316,-0.02313149783467906,0.0973512698629459,28.07457030097246,-100.26678939585686,80.21211738781929
2024-09-23 16:19:31.685087,40.83,34.618093,-0.0027359787006383035,-0.023927417309398437,0.09789846602079214,28.07457030097246,-96.25519929585457,80.21211738781929
2024-09-23 16:19:31.727800,40.83,34.618093,-0.0027359787006383035,-0.023927417309398437,0.09789846602079214,32.08287849390507,-104.27510100388527,80.21211738781929
2024-09-23 16:19:31.738981,40.83,34.618143,-0.0027359787006383035,-0.023778180888911878,0.09789846602079214,32.08287849390507,-104.27510100388527,80.21211738781929
2024-09-23 16:19:31.782388,40.83,34.618194,-0.0031339382481259063,-0.023778180888911878,0.09690356060148622,36.09446859390736,-100.26678939585686,76.200527287817
2024-09-23 16:19:31.824685,40.83,34.618194,-0.0031339382481259063,-0.023181236725942318,0.09665483728461309,36.09446859390736,-100.26678939585686,76.200527287817
2024-09-23 16:19:31.836276,40.83,34.618281,-0.0031339382481259063,-0.023181236725942318,0.09665483728461309,40.106058693909645,-108.28669110388756,72.1922225099802
2024-09-23 16:19:31.879540,40.83,34.618281,-0.0026862297461545674,-0.023230986250042305,0.09705279702197278,40.106058693909645,-92.24360919585227,76.200527287817
2024-09-23 16:19:31.921611,40.83,34.618333,-0.0026862297461545674,-0.023230986250042305,0.09705279702197278,40.106058693909645,-92.24360919585227,76.200527287817
2024-09-23 16:19:31.932651,40.83,34.618333,-0.0032831742888682963,-0.02338022115155219,0.09655535038822652,40.106058693909645,-96.25519929585457,76.200527287817
2024-09-23 16:19:31.976493,40.83,34.618383,-0.003233425524256645,-0.02338022115155219,0.09715228999426605,40.106058693909645,-96.25519929585457,80.21211738781929
2024-09-23 16:19:31.988378,40.83,34.618383,-0.003233425524256645,-0.02338022115155219,0.09715228999426605,36.09446859390736,-96.25519929585457,80.21211738781929
2024-09-23 16:19:32.020558,40.83,34.618383,-0.003233425524256645,-0.02338022115155219,0.09715228999426605,36.09446859390736,-96.25519929585457,80.21211738781929
2024-09-23 16:19:32.032295,40.83,34.618434,-0.0035318979854855937,-0.023280723622328886,0.09720203344245934,36.09446859390736,-96.25519929585457,80.21211738781929
2024-09-23 16:19:32.075446,40.83,34.618485,-0.002636491424507565,-0.023230986250042305,0.09720203344245934,36.09446859390736,-100.26678939585686,76.200527287817
2024-09-23 16:19:32.119079,40.83,34.618485,-0.002636491424507565,-0.023230986250042305,0.09715228999426605,44.11764879391193,-96.25519929585457,76.200527287817
2024-09-23 16:19:32.130563,40.83,34.618535,-0.0029847020175114316,-0.023230986250042305,0.09715228999426605,44.11764879391193,-96.25519929585457,76.200527287817
2024-09-23 16:19:32.173067,40.83,34.618622,-0.0029847020175114316,-0.023181236725942318,0.09685382322919964,32.08287849390507,-104.27510100388527,76.200527287817
2024-09-23 16:19:32.215183,40.83,34.618622,-0.0029847020175114316,-0.0228827638849692,0.09685382322919964,32.08287849390507,-104.27510100388527,76.200527287817
2024-09-23 16:19:32.227951,40.83,34.618622,-0.0029847020175114316,-0.0228827638849692,0.09705279702197278,36.09446859390736,-100.26678939585686,76.200527287817
2024-09-23 16:19:32.270421,40.71,34.618674,-0.0028852147413806935,-0.02303200030545576,0.09705279702197278,44.11764879391193,-96.25519929585457,76.200527287817
2024-09-23 16:19:32.313173,40.71,34.618725,-0.0031339382481259063,-0.02303200030545576,0.09705279702197278,44.11764879391193,-96.25519929585457,80.21211738781929
2024-09-23 16:19:32.324356,40.71,34.618725,-0.0031339382481259063,-0.02303200030545576,0.09725178296655933,32.08287849390507,-96.25519929585457,80.21211738781929
2024-09-23 16:19:32.366783,40.71,34.618775,-0.0026862297461545674,-0.023280723622328886,0.0970030596496862,32.08287849390507,-96.25519929585457,76.200527287817
2024-09-23 16:19:32.409228,40.71,34.618775,-0.0026862297461545674,-0.023280723622328886,0.0970030596496862,40.106058693909645,-100.26678939585686,76.200527287817
2024-09-23 16:19:32.420689,40.71,34.618826,-0.0034324103296106863,-0.02308174982955575,0.0970030596496862,40.106058693909645,-100.26678939585686,76.200527287817
2024-09-23 16:19:32.464173,40.71,34.618877,-0.0034324103296106863,-0.02308174982955575,0.09705279702197278,40.106058693909645,-100.26678939585686,80.21211738781929
2024-09-23 16:19:32.476778,40.71,34.618877,-0.002586742470023829,-0.02308174982955575,0.09705279702197278,40.106058693909645,-100.26678939585686,80.21211738781929
2024-09-23 16:19:32.510442,40.71,34.618877,-0.002586742470023829,-0.02313149783467906,0.0973512698629459,44.11764879391193,-100.26678939585686,80.21211738781929
2024-09-23 16:19:32.521579,40.71,34.618964,-0.002586742470023829,-0.02313149783467906,0.0973512698629459,44.11764879391193,-100.26678939585686,76.200527287817
2024-09-23 16:19:32.553421,40.71,34.618964,-0.0022385316871478774,-0.02313149783467906,0.0973512698629459,44.11764879391193,-100.26678939585686,76.200527287817
2024-09-23 16:19:32.564677,40.71,34.618964,-0.0022385316871478774,-0.02308174982955575,0.09720203344245934,48.12595698684454,-88.23529758782387,80.21211738781929
2024-09-23 16:19:32.606927,40.71,34.619015,-0.0028852147413806935,-0.02293251340906919,0.09720203344245934,48.12595698684454,-88.23529758782387,80.21211738781929
2024-09-23 16:19:32.618405,40.71,34.619015,-0.0028852147413806935,-0.02293251340906919,0.09680407370509965,48.12595698684454,-92.24360919585227,80.21211738781929
2024-09-23 16:19:32.661389,40.71,34.619066,-0.002636491424507565,-0.023579196463302005,0.0973512698629459,40.106058693909645,-92.24360919585227,80.21211738781929
2024-09-23 16:19:32.703598,40.71,34.619066,-0.002636491424507565,-0.023579196463302005,0.0973512698629459,40.106058693909645,-96.25519929585457,80.21211738781929
2024-09-23 16:19:32.714731,40.71,34.619117,-0.0026862297461545674,-0.022982261414192504,0.09685382322919964,40.106058693909645,-96.25519929585457,80.21211738781929
2024-09-23 16:19:32.758510,40.71,34.619167,-0.003233425524256645,-0.022982261414192504,0.09685382322919964,32.08287849390507,-100.26678939585686,76.200527287817
2024-09-23 16:19:32.800680,40.71,34.619167,-0.003233425524256645,-0.02293251340906919,0.09745075675933246,36.09446859390736,-100.26678939585686,76.200527287817
2024-09-23 16:19:32.811651,40.71,34.619218,-0.003233425524256645,-0.02293251340906919,0.09745075675933246,36.09446859390736,-100.26678939585686,80.21211738781929
2024-09-23 16:19:32.854442,40.71,34.619218,-0.0028354659767690416,-0.0228827638849692,0.09705279702197278,40.106058693909645,-96.25519929585457,80.21211738781929
2024-09-23 16:19:32.897668,40.71,34.619305,-0.003382661564999035,-0.0228827638849692,0.09705279702197278,40.106058693909645,-96.25519929585457,80.21211738781929
2024-09-23 16:19:32.908677,40.71,34.619305,-0.003382661564999035,-0.02367869399252531,0.09705279702197278,44.11764879391193,-100.26678939585686,80.21211738781929
2024-09-23 16:19:32.950734,40.71,34.619356,-0.0034324103296106863,-0.0228827638849692,0.09705279702197278,44.11764879391193,-100.26678939585686,80.21211738781929
2024-09-23 16:19:32.963171,40.71,34.619356,-0.0034324103296106863,-0.0228827638849692,0.09650560086412653,28.07457030097246,-100.26678939585686,80.21211738781929
2024-09-23 16:19:32.995591,40.71,34.619356,-0.0034324103296106863,-0.0228827638849692,0.09650560086412653,28.07457030097246,-100.26678939585686,80.21211738781929
2024-09-23 16:19:33.006807,40.71,34.619407,-0.0030841997366068195,-0.023181236725942318,0.09695331012558621,28.07457030097246,-100.26678939585686,80.21211738781929
2024-09-23 16:19:33.048991,40.71,34.619458,-0.0030841997366068195,-0.023728432883788564,0.09695331012558621,40.106058693909645,-100.26678939585686,76.200527287817
2024-09-23 16:19:33.091144,40.71,34.619458,-0.0030841997366068195,-0.023728432883788564,0.0973015264147526,40.106058693909645,-100.26678939585686,76.200527287817
2024-09-23 16:19:33.103135,40.71,34.619508,-0.0031836870127375577,-0.023728432883788564,0.0973015264147526,40.106058693909645,-96.25519929585457,84.22370748782159
2024-09-23 16:19:33.146752,40.71,34.619597,-0.0031836870127375577,-0.023429960042815445,0.09740101331113918,40.106058693909645,-96.25519929585457,80.21211738781929
2024-09-23 16:19:33.189453,40.71,34.619597,-0.0033329230534799477,-0.02278327698858263,0.09740101331113918,40.106058693909645,-96.25519929585457,80.21211738781929
2024-09-23 16:19:33.200927,40.71,34.619597,-0.0033329230534799477,-0.02278327698858263,0.09740101331113918,48.12595698684454,-100.26678939585686,76.200527287817
2024-09-23 16:19:33.243874,40.71,34.619649,-0.0030841997366068195,-0.02293251340906919,0.09725178296655933,40.106058693909645,-100.26678939585686,76.200527287817
2024-09-23 16:19:33.255547,40.71,34.619649,-0.0030841997366068195,-0.02293251340906919,0.09725178296655933,40.106058693909645,-100.26678939585686,76.200527287817
2024-09-23 16:19:33.287314,40.93,34.6197,-0.0030841997366068195,-0.02293251340906919,0.09725178296655933,40.106058693909645,-100.26678939585686,80.21211738781929
2024-09-23 16:19:33.299276,40.93,34.6197,-0.0033329230534799477,-0.02293251340906919,0.09774922960030558,44.11764879391193,-100.26678939585686,80.21211738781929
2024-09-23 16:19:33.341708,40.93,34.61975,-0.0033329230534799477,-0.02352945757203875,0.09695331012558621,44.11764879391193,-104.27510100388527,84.22370748782159
2024-09-23 16:19:33.384432,40.93,34.61975,-0.0033329230534799477,-0.02352945757203875,0.09695331012558621,44.11764879391193,-96.25519929585457,84.22370748782159
2024-09-23 16:19:33.395844,40.93,34.619801,-0.0028354659767690416,-0.023230986250042305,0.09695331012558621,44.11764879391193,-96.25519929585457,84.22370748782159
2024-09-23 16:19:33.438180,40.93,34.619852,-0.0028354659767690416,-0.023230986250042305,0.0973015264147526,40.106058693909645,-100.26678939585686,84.22370748782159
2024-09-23 16:19:33.450292,40.93,34.619852,-0.003631395514708897,-0.023230986250042305,0.0973015264147526,40.106058693909645,-100.26678939585686,84.22370748782159
2024-09-23 16:19:33.484260,40.93,34.619852,-0.003631395514708897,-0.023330473146428877,0.09764974270391902,40.106058693909645,-100.26678939585686,84.22370748782159
2024-09-23 16:19:33.495554,40.93,34.619939,-0.003631395514708897,-0.023330473146428877,0.09764974270391902,40.106058693909645,-100.26678939585686,76.200527287817
2024-09-23 16:19:33.538280,40.93,34.619939,-0.0031339382481259063,-0.023330473146428877,0.09720203344245934,36.09446859390736,-92.24360919585227,80.21211738781929
2024-09-23 16:19:33.580622,40.93,34.61999,-0.003233425524256645,-0.02352945757203875,0.09720203344245934,36.09446859390736,-92.24360919585227,80.21211738781929
2024-09-23 16:19:33.592017,40.93,34.61999,-0.003233425524256645,-0.02352945757203875,0.09715228999426605,40.106058693909645,-100.26678939585686,80.21211738781929
2024-09-23 16:19:33.635626,40.93,34.620041,-0.0028852147413806935,-0.02293251340906919,0.09740101331113918,36.09446859390736,-100.26678939585686,80.21211738781929
2024-09-23 16:19:33.678415,40.93,34.620041,-0.0028852147413806935,-0.02293251340906919,0.09740101331113918,36.09446859390736,-96.25519929585457,80.21211738781929
2024-09-23 16:19:33.690023,40.93,34.620091,-0.002636491424507565,-0.023280723622328886,0.09655535038822652,36.09446859390736,-96.25519929585457,80.21211738781929
2024-09-23 16:19:33.732806,40.93,34.620142,-0.0032831742888682963,-0.02338022115155219,0.09655535038822652,28.07457030097246,-96.25519929585457,84.22370748782159
2024-09-23 16:19:33.774443,40.93,34.620142,-0.0032831742888682963,-0.02338022115155219,0.09725178296655933,28.07457030097246,-96.25519929585457,84.22370748782159
2024-09-23 16:19:33.785798,40.93,34.620193,-0.0031836870127375577,-0.02338022115155219,0.09725178296655933,28.07457030097246,-100.26678939585686,80.21211738781929
2024-09-23 16:19:33.828171,40.93,34.620193,-0.0031836870127375577,-0.02313149783467906,0.09685382322919964,28.07457030097246,-96.25519929585457,72.1922225099802
2024-09-23 16:19:33.840365,40.93,34.62028,-0.0031836870127375577,-0.02313149783467906,0.09685382322919964,28.07457030097246,-96.25519929585457,72.1922225099802
2024-09-23 16:19:33.872714,40.93,34.62028,-0.0027359787006383035,-0.02268379009219606,0.09685382322919964,28.07457030097246,-96.25519929585457,72.1922225099802
2024-09-23 16:19:33.883890,40.93,34.62028,-0.0027359787006383035,-0.02268379009219606,0.09755024973162574,36.09446859390736,-96.25519929585457,76.200527287817
2024-09-23 16:19:33.926556,40.93,34.620331,-0.002586742470023829,-0.0228827638849692,0.09725178296655933,28.07457030097246,-96.25519929585457,76.200527287817
2024-09-23 16:19:33.938349,40.93,34.620331,-0.002586742470023829,-0.0228827638849692,0.09725178296655933,28.07457030097246,-96.25519929585457,76.200527287817
2024-09-23 16:19:33.971487,40.93,34.620382,-0.0030344509719951677,-0.0228827638849692,0.09725178296655933,28.07457030097246,-96.25519929585457,76.200527287817
2024-09-23 16:19:33.983052,40.93,34.620382,-0.0030344509719951677,-0.023230986250042305,0.09715228999426605,44.11764879391193,-96.25519929585457,76.200527287817
2024-09-23 16:19:34.026374,40.93,34.620433,-0.003482159473966507,-0.023429960042815445,0.09715228999426605,44.11764879391193,-100.26678939585686,80.21211738781929
2024-09-23 16:19:34.069095,40.93,34.620433,-0.003482159473966507,-0.023429960042815445,0.09715228999426605,32.08287849390507,-92.24360919585227,80.21211738781929
2024-09-23 16:19:34.081590,40.93,34.620483,-0.0027359787006383035,-0.023230986250042305,0.09715228999426605,32.08287849390507,-92.24360919585227,80.21211738781929
2024-09-23 16:19:34.124895,40.93,34.620534,-0.0031339382481259063,-0.023230986250042305,0.09695331012558621,32.08287849390507,-100.26678939585686,84.22370748782159
2024-09-23 16:19:34.168181,40.93,34.620534,-0.0031339382481259063,-0.023429960042815445,0.09755024973162574,40.106058693909645,-96.25519929585457,84.22370748782159
2024-09-23 16:19:34.180911,40.93,34.620621,-0.0031339382481259063,-0.023429960042815445,0.09755024973162574,40.106058693909645,-96.25519929585457,80.21211738781929
2024-09-23 16:19:34.214183,40.93,34.620621,-0.0029349636958644295,-0.023429960042815445,0.09680407370509965,40.106058693909645,-96.25519929585457,80.21211738781929
2024-09-23 16:19:34.225233,40.93,34.620621,-0.0029349636958644295,-0.023429960042815445,0.09680407370509965,36.09446859390736,-96.25519929585457,76.200527287817
2024-09-23 16:19:34.267569,40.93,34.620673,-0.0030344509719951677,-0.023479709566915436,0.09750050628343246,32.08287849390507,-96.25519929585457,76.200527287817
2024-09-23 16:19:34.279503,40.93,34.620673,-0.0030344509719951677,-0.023479709566915436,0.09750050628343246,32.08287849390507,-104.27510100388527,76.200527287817
2024-09-23 16:19:34.311398,41.05,34.620723,-0.0030344509719951677,-0.023479709566915436,0.09750050628343246,32.08287849390507,-104.27510100388527,80.21211738781929
2024-09-23 16:19:34.323120,41.05,34.620723,-0.0032831742888682963,-0.023181236725942318,0.09705279702197278,40.106058693909645,-104.27510100388527,80.21211738781929
2024-09-23 16:19:34.366696,41.05,34.620774,-0.0028354659767690416,-0.02352945757203875,0.09675432418099966,40.106058693909645,-96.25519929585457,84.22370748782159
2024-09-23 16:19:34.409992,41.05,34.620774,-0.0028354659767690416,-0.02352945757203875,0.09675432418099966,36.09446859390736,-100.26678939585686,76.200527287817
2024-09-23 16:19:34.421580,41.05,34.620825,-0.0030344509719951677,-0.02352945757203875,0.09675432418099966,36.09446859390736,-100.26678939585686,76.200527287817
2024-09-23 16:19:34.464517,41.05,34.620875,-0.0030344509719951677,-0.022982261414192504,0.09720203344245934,40.106058693909645,-104.27510100388527,76.200527287817
2024-09-23 16:19:34.507419,41.05,34.620875,-0.0028354659767690416,-0.02293251340906919,0.09745075675933246,40.106058693909645,-104.27510100388527,76.200527287817
2024-09-23 16:19:34.519900,41.05,34.620875,-0.0028354659767690416,-0.02293251340906919,0.09745075675933246,36.09446859390736,-92.24360919585227,80.21211738781929
2024-09-23 16:19:34.562041,41.05,34.620962,-0.0030344509719951677,-0.023429960042815445,0.09705279702197278,32.08287849390507,-100.26678939585686,80.21211738781929
2024-09-23 16:19:34.604840,41.05,34.621014,-0.0031339382481259063,-0.023429960042815445,0.09705279702197278,32.08287849390507,-100.26678939585686,80.21211738781929
2024-09-23 16:19:34.616160,41.05,34.621014,-0.0031339382481259063,-0.02303200030545576,0.09705279702197278,28.07457030097246,-100.26678939585686,80.21211738781929
2024-09-23 16:19:34.658196,41.05,34.621065,-0.0028852147413806935,-0.023330473146428877,0.09745075675933246,28.07457030097246,-100.26678939585686,84.22370748782159
2024-09-23 16:19:34.701199,41.05,34.621065,-0.0028852147413806935,-0.023330473146428877,0.09745075675933246,32.08287849390507,-100.26678939585686,84.22370748782159
2024-09-23 16:19:34.712978,41.05,34.621115,-0.0029847020175114316,-0.02352945757203875,0.09745075675933246,32.08287849390507,-100.26678939585686,84.22370748782159
2024-09-23 16:19:34.755694,41.05,34.621166,-0.0030841997366068195,-0.02352945757203875,0.09710254654607277,36.09446859390736,-96.25519929585457,84.22370748782159
2024-09-23 16:19:34.798519,41.05,34.621166,-0.0030841997366068195,-0.02308174982955575,0.09745075675933246,36.09446859390736,-96.25519929585457,84.22370748782159
2024-09-23 16:19:34.809804,41.05,34.621255,-0.0030841997366068195,-0.02308174982955575,0.09745075675933246,44.11764879391193,-92.24360919585227,76.200527287817
2024-09-23 16:19:34.852948,41.05,34.621255,-0.0024872551938930902,-0.023280723622328886,0.09685382322919964,48.12595698684454,-104.27510100388527,84.22370748782159
2024-09-23 16:19:34.896114,41.05,34.621306,-0.0029349636958644295,-0.023280723622328886,0.09685382322919964,48.12595698684454,-104.27510100388527,84.22370748782159
2024-09-23 16:19:34.907777,41.05,34.621306,-0.0029349636958644295,-0.023579196463302005,0.09675432418099966,40.106058693909645,-96.25519929585457,84.22370748782159
2024-09-23 16:19:34.949307,41.05,34.621357,-0.0029847020175114316,-0.022833026512682618,0.09690356060148622,40.106058693909645,-96.25519929585457,80.21211738781929
2024-09-23 16:19:34.961418,41.05,34.621357,-0.0029847020175114316,-0.022833026512682618,0.09690356060148622,36.09446859390736,-96.25519929585457,80.21211738781929
2024-09-23 16:19:34.994826,41.05,34.621357,-0.0029847020175114316,-0.022833026512682618,0.09690356060148622,36.09446859390736,-108.28669110388756,76.200527287817
2024-09-23 16:19:35.006166,41.05,34.621408,-0.0029847020175114316,-0.023280723622328886,0.0966050877605131,36.09446859390736,-108.28669110388756,76.200527287817
2024-09-23 16:19:35.049726,41.05,34.621458,-0.003233425524256645,-0.023579196463302005,0.0966050877605131,32.08287849390507,-100.26678939585686,80.21211738781929
2024-09-23 16:19:35.092595,41.05,34.621458,-0.003233425524256645,-0.023579196463302005,0.09725178296655933,36.09446859390736,-96.25519929585457,80.21211738781929
2024-09-23 16:19:35.104133,41.05,34.621509,-0.0028852147413806935,-0.023579196463302005,0.09725178296655933,36.09446859390736,-96.25519929585457,80.21211738781929
2024-09-23 16:19:35.146763,41.05,34.621596,-0.0028852147413806935,-0.022733528983459317,0.09670458680871308,40.106058693909645,-100.26678939585686,76.200527287817
2024-09-23 16:19:35.190060,41.05,34.621596,-0.0033329230534799477,-0.02303200030545576,0.09750050628343246,40.106058693909645,-100.26678939585686,76.200527287817
2024-09-23 16:19:35.202580,41.05,34.621596,-0.0033329230534799477,-0.02303200030545576,0.09750050628343246,36.09446859390736,-100.26678939585686,80.21211738781929
2024-09-23 16:19:35.235172,41.05,34.621648,-0.0033329230534799477,-0.02303200030545576,0.09750050628343246,36.09446859390736,-100.26678939585686,80.21211738781929
2024-09-23 16:19:35.247147,41.05,34.621648,-0.0030841997366068195,-0.023280723622328886,0.0970030596496862,32.08287849390507,-100.26678939585686,80.21211738781929
2024-09-23 16:19:35.289291,41.05,34.621698,-0.0026862297461545674,-0.02303200030545576,0.0970030596496862,32.08287849390507,-100.26678939585686,80.21211738781929
2024-09-23 16:19:35.300901,41.05,34.621698,-0.0026862297461545674,-0.02303200030545576,0.0973512698629459,44.11764879391193,-100.26678939585686,80.21211738781929
2024-09-23 16:19:35.334062,41.33,34.621698,-0.0026862297461545674,-0.02303200030545576,0.0973512698629459,44.11764879391193,-92.24360919585227,80.21211738781929
2024-09-23 16:19:35.345193,41.33,34.621749,-0.002785727465249955,-0.02308174982955575,0.09715228999426605,44.11764879391193,-92.24360919585227,76.200527287817
2024-09-23 16:19:35.388403,41.33,34.6218,-0.0030841997366068195,-0.02308174982955575,0.09715228999426605,48.12595698684454,-92.24360919585227,80.21211738781929
2024-09-23 16:19:35.400699,41.33,34.6218,-0.0030841997366068195,-0.02303200030545576,0.09715228999426605,48.12595698684454,-92.24360919585227,80.21211738781929
2024-09-23 16:19:35.432420,41.33,34.6218,-0.0030841997366068195,-0.02303200030545576,0.09720203344245934,44.11764879391193,-92.24360919585227,80.21211738781929
2024-09-23 16:19:35.444855,41.33,34.62185,-0.0030344509719951677,-0.02303200030545576,0.09720203344245934,44.11764879391193,-96.25519929585457,84.22370748782159
2024-09-23 16:19:35.488397,41.33,34.621937,-0.0030344509719951677,-0.023280723622328886,0.09759999317981902,36.09446859390736,-108.28669110388756,76.200527287817
2024-09-23 16:19:35.531032,41.33,34.621937,-0.0029847020175114316,-0.023330473146428877,0.09680407370509965,36.09446859390736,-108.28669110388756,76.200527287817
2024-09-23 16:19:35.542742,41.33,34.621937,-0.0029847020175114316,-0.023330473146428877,0.09680407370509965,36.09446859390736,-104.27510100388527,76.200527287817
2024-09-23 16:19:35.585635,41.33,34.621989,-0.0027359787006383035,-0.022982261414192504,0.09725178296655933,36.09446859390736,-100.26678939585686,76.200527287817
2024-09-23 16:19:35.628456,41.33,34.62204,-0.0031836870127375577,-0.022982261414192504,0.09725178296655933,36.09446859390736,-100.26678939585686,84.22370748782159
2024-09-23 16:19:35.640167,41.33,34.62204,-0.0031836870127375577,-0.02338022115155219,0.0973015264147526,36.09446859390736,-100.26678939585686,84.22370748782159
2024-09-23 16:19:35.682249,41.33,34.62209,-0.002636491424507565,-0.0228827638849692,0.09710254654607277,36.09446859390736,-108.28669110388756,76.200527287817
2024-09-23 16:19:35.726916,41.33,34.62209,-0.002636491424507565,-0.0228827638849692,0.09710254654607277,40.106058693909645,-92.24360919585227,76.200527287817
2024-09-23 16:19:35.738871,41.33,34.622141,-0.0030841997366068195,-0.023579196463302005,0.09710254654607277,40.106058693909645,-92.24360919585227,76.200527287817
2024-09-23 16:19:35.781596,41.33,34.622192,-0.0035318979854855937,-0.023579196463302005,0.09740101331113918,36.09446859390736,-92.24360919585227,76.200527287817
2024-09-23 16:19:35.823270,41.33,34.622192,-0.0035318979854855937,-0.023181236725942318,0.09705279702197278,32.08287849390507,-92.24360919585227,76.200527287817
2024-09-23 16:19:35.835339,41.33,34.622279,-0.0035318979854855937,-0.023181236725942318,0.09705279702197278,32.08287849390507,-96.25519929585457,80.21211738781929
2024-09-23 16:19:35.878159,41.33,34.622279,-0.0028354659767690416,-0.023181236725942318,0.09745075675933246,36.09446859390736,-104.27510100388527,80.21211738781929
2024-09-23 16:19:35.920736,41.33,34.62233,-0.0027359787006383035,-0.023280723622328886,0.09745075675933246,36.09446859390736,-104.27510100388527,80.21211738781929
2024-09-23 16:19:35.932467,41.33,34.62233,-0.0027359787006383035,-0.023280723622328886,0.09745075675933246,36.09446859390736,-96.25519929585457,80.21211738781929
2024-09-23 16:19:35.975431,41.33,34.622381,-0.0030344509719951677,-0.02303200030545576,0.09745075675933246,44.11764879391193,-96.25519929585457,80.21211738781929
2024-09-23 16:19:36.019138,41.33,34.622432,-0.0030344509719951677,-0.02303200030545576,0.09745075675933246,44.11764879391193,-92.24360919585227,80.21211738781929
2024-09-23 16:19:36.030484,41.33,34.622432,-0.0027359787006383035,-0.023280723622328886,0.09670458680871308,44.11764879391193,-92.24360919585227,80.21211738781929
2024-09-23 16:19:36.072635,41.33,34.622432,-0.0027359787006383035,-0.023280723622328886,0.09670458680871308,32.08287849390507,-100.26678939585686,84.22370748782159
2024-09-23 16:19:36.115204,41.33,34.622482,-0.002387757474797703,-0.023280723622328886,0.09670458680871308,32.08287849390507,-100.26678939585686,84.22370748782159
2024-09-23 16:19:36.126896,41.33,34.622482,-0.002387757474797703,-0.022982261414192504,0.09715228999426605,32.08287849390507,-100.26678939585686,84.22370748782159
2024-09-23 16:19:36.170329,41.33,34.622533,-0.0028852147413806935,-0.02263404056809607,0.0973015264147526,36.09446859390736,-100.26678939585686,84.22370748782159
2024-09-23 16:19:36.213747,41.33,34.62262,-0.0028852147413806935,-0.02263404056809607,0.0973015264147526,36.09446859390736,-96.25519929585457,80.21211738781929
2024-09-23 16:19:36.225308,41.33,34.62262,-0.0030841997366068195,-0.0228827638849692,0.09750050628343246,36.09446859390736,-96.25519929585457,80.21211738781929
2024-09-23 16:19:36.267975,41.33,34.622671,-0.002636491424507565,-0.02303200030545576,0.09750050628343246,36.09446859390736,-100.26678939585686,76.200527287817
2024-09-23 16:19:36.311343,41.33,34.622671,-0.002636491424507565,-0.02303200030545576,0.09759999317981902,32.08287849390507,-104.27510100388527,76.200527287817
2024-09-23 16:19:36.322918,41.33,34.622722,-0.0028852147413806935,-0.02303200030545576,0.09759999317981902,32.08287849390507,-104.27510100388527,80.21211738781929
2024-09-23 16:19:36.365683,41.0,34.622815,-0.0028852147413806935,-0.022982261414192504,0.09740101331113918,44.11764879391193,-100.26678939585686,84.22370748782159
2024-09-23 16:19:36.407714,41.0,34.622815,-0.0032831742888682963,-0.02352945757203875,0.09740101331113918,44.11764879391193,-100.26678939585686,84.22370748782159
2024-09-23 16:19:36.419028,41.0,34.622815,-0.0032831742888682963,-0.02352945757203875,0.09670458680871308,28.07457030097246,-104.27510100388527,80.21211738781929
2024-09-23 16:19:36.461800,41.0,34.622866,-0.0029349636958644295,-0.023330473146428877,0.09705279702197278,40.106058693909645,-104.27510100388527,80.21211738781929
2024-09-23 16:19:36.473890,41.0,34.622866,-0.0029349636958644295,-0.023330473146428877,0.09705279702197278,40.106058693909645,-92.24360919585227,80.21211738781929
2024-09-23 16:19:36.506207,41.0,34.622917,-0.0028354659767690416,-0.023330473146428877,0.09705279702197278,40.106058693909645,-92.24360919585227,80.21211738781929
2024-09-23 16:19:36.517225,41.0,34.622917,-0.0028354659767690416,-0.023579196463302005,0.0966050877605131,44.11764879391193,-92.24360919585227,80.21211738781929
2024-09-23 16:19:36.559577,41.0,34.622968,-0.0031836870127375577,-0.023429960042815445,0.09745075675933246,44.11764879391193,-92.24360919585227,80.21211738781929
2024-09-23 16:19:36.601707,41.0,34.622968,-0.0031836870127375577,-0.023429960042815445,0.09745075675933246,36.09446859390736,-92.24360919585227,80.21211738781929
2024-09-23 16:19:36.613193,41.0,34.623018,-0.0031836870127375577,-0.023429960042815445,0.09745075675933246,36.09446859390736,-92.24360919585227,88.23529758782387
2024-09-23 16:19:36.655392,41.0,34.623018,-0.0029847020175114316,-0.02308174982955575,0.09680407370509965,48.12595698684454,-92.24360919585227,88.23529758782387
2024-09-23 16:19:36.666704,41.0,34.623018,-0.0029847020175114316,-0.02308174982955575,0.09680407370509965,48.12595698684454,-96.25519929585457,80.21211738781929
2024-09-23 16:19:36.698299,41.0,34.623069,-0.0029847020175114316,-0.02308174982955575,0.09680407370509965,48.12595698684454,-96.25519929585457,80.21211738781929
2024-09-23 16:19:36.709661,41.0,34.623069,-0.0032831742888682963,-0.02352945757203875,0.0973512698629459,52.137550501942634,-100.26678939585686,80.21211738781929
2024-09-23 16:19:36.752824,41.0,34.623156,-0.003233425524256645,-0.02313149783467906,0.09720203344245934,52.137550501942634,-100.26678939585686,84.22370748782159
2024-09-23 16:19:36.764635,41.0,34.623156,-0.003233425524256645,-0.02313149783467906,0.09720203344245934,48.12595698684454,-100.26678939585686,84.22370748782159
2024-09-23 16:19:36.797617,41.0,34.623156,-0.003233425524256645,-0.02313149783467906,0.09720203344245934,48.12595698684454,-108.28669110388756,76.200527287817
2024-09-23 16:19:36.808710,41.0,34.623208,-0.0032831742888682963,-0.02313149783467906,0.09745075675933246,48.12595698684454,-108.28669110388756,76.200527287817
2024-09-23 16:19:36.851694,41.0,34.623258,-0.003382661564999035,-0.023280723622328886,0.09745075675933246,40.106058693909645,-96.25519929585457,76.200527287817
2024-09-23 16:19:36.894448,41.0,34.623258,-0.003382661564999035,-0.023280723622328886,0.09755024973162574,32.08287849390507,-96.25519929585457,76.200527287817
2024-09-23 16:19:36.905974,41.0,34.623309,-0.003382661564999035,-0.023280723622328886,0.09755024973162574,32.08287849390507,-96.25519929585457,80.21211738781929
2024-09-23 16:19:36.948305,41.0,34.623309,-0.003382661564999035,-0.023181236725942318,0.09685382322919964,40.106058693909645,-92.24360919585227,80.21211738781929
2024-09-23 16:19:36.960393,41.0,34.6234,-0.003382661564999035,-0.023181236725942318,0.09685382322919964,40.106058693909645,-92.24360919585227,72.1922225099802
2024-09-23 16:19:36.992883,41.0,34.6234,-0.0031339382481259063,-0.023230986250042305,0.09685382322919964,40.106058693909645,-92.24360919585227,72.1922225099802
2024-09-23 16:19:37.004477,41.0,34.6234,-0.0031339382481259063,-0.023230986250042305,0.09695331012558621,28.07457030097246,-96.25519929585457,80.21211738781929
2024-09-23 16:19:37.046437,41.0,34.623451,-0.0030344509719951677,-0.022982261414192504,0.09720203344245934,40.106058693909645,-96.25519929585457,80.21211738781929
2024-09-23 16:19:37.058223,41.0,34.623451,-0.0030344509719951677,-0.022982261414192504,0.09720203344245934,40.106058693909645,-100.26678939585686,80.21211738781929
2024-09-23 16:19:37.089934,41.0,34.623502,-0.0030344509719951677,-0.022982261414192504,0.09720203344245934,40.106058693909645,-100.26678939585686,76.200527287817
2024-09-23 16:19:37.101946,41.0,34.623502,-0.0028354659767690416,-0.023230986250042305,0.09750050628343246,36.09446859390736,-100.26678939585686,76.200527287817
2024-09-23 16:19:37.145356,41.0,34.623553,-0.003382661564999035,-0.02313149783467906,0.09745075675933246,36.09446859390736,-104.27510100388527,72.1922225099802
2024-09-23 16:19:37.188134,41.0,34.623553,-0.003382661564999035,-0.02313149783467906,0.09745075675933246,40.106058693909645,-104.27510100388527,72.1922225099802
2024-09-23 16:19:37.241044,41.0,34.623603,-0.0032831742888682963,-0.023579196463302005,0.09745075675933246,40.106058693909645,-100.26678939585686,80.21211738781929
2024-09-23 16:19:37.253398,41.0,34.623603,-0.0032831742888682963,-0.023579196463302005,0.09715228999426605,40.106058693909645,-100.26678939585686,80.21211738781929
2024-09-23 16:19:37.286386,41.0,34.623603,-0.0032831742888682963,-0.023579196463302005,0.09715228999426605,36.09446859390736,-96.25519929585457,84.22370748782159
2024-09-23 16:19:37.297943,41.0,34.623654,-0.0028354659767690416,-0.023429960042815445,0.09715228999426605,36.09446859390736,-96.25519929585457,84.22370748782159
2024-09-23 16:19:37.339972,41.0,34.623741,-0.0030344509719951677,-0.023429960042815445,0.0973015264147526,40.106058693909645,-96.25519929585457,76.200527287817
2024-09-23 16:19:37.382612,41.25,34.623741,-0.0030344509719951677,-0.023429960042815445,0.0973015264147526,40.106058693909645,-96.25519929585457,76.200527287817
2024-09-23 16:19:37.394590,41.25,34.623793,-0.0030344509719951677,-0.023429960042815445,0.0973015264147526,32.08287849390507,-96.25519929585457,80.21211738781929
2024-09-23 16:19:37.438458,41.25,34.623793,-0.0031836870127375577,-0.023579196463302005,0.09745075675933246,32.08287849390507,-96.25519929585457,88.23529758782387
2024-09-23 16:19:37.481388,41.25,34.623888,-0.002636491424507565,-0.02338022115155219,0.09745075675933246,32.08287849390507,-96.25519929585457,88.23529758782387
2024-09-23 16:19:37.492768,41.25,34.623888,-0.002636491424507565,-0.02338022115155219,0.09764974270391902,52.137550501942634,-108.28669110388756,88.23529758782387
2024-09-23 16:19:37.535750,41.25,34.623939,-0.0029847020175114316,-0.02338022115155219,0.09655535038822652,44.11764879391193,-108.28669110388756,76.200527287817
2024-09-23 16:19:37.577358,41.25,34.623939,-0.0029847020175114316,-0.02338022115155219,0.09655535038822652,44.11764879391193,-96.25519929585457,80.21211738781929
2024-09-23 16:19:37.589388,41.25,34.62399,-0.0029847020175114316,-0.023230986250042305,0.09750050628343246,44.11764879391193,-96.25519929585457,80.21211738781929
2024-09-23 16:19:37.631737,41.25,34.624041,-0.003233425524256645,-0.023429960042815445,0.09750050628343246,48.12595698684454,-96.25519929585457,80.21211738781929
2024-09-23 16:19:37.725996,41.25,34.624041,-0.003233425524256645,-0.023429960042815445,0.09655535038822652,40.106058693909645,-96.25519929585457,80.21211738781929
2024-09-23 16:19:37.737730,41.25,34.624091,-0.0029349636958644295,-0.023429960042815445,0.09655535038822652,40.106058693909645,-96.25519929585457,80.21211738781929
2024-09-23 16:19:37.770300,41.25,34.624091,-0.0029349636958644295,-0.0228827638849692,0.09655535038822652,40.106058693909645,-96.25519929585457,80.21211738781929
2024-09-23 16:19:37.781430,41.25,34.62418,-0.0029349636958644295,-0.0228827638849692,0.09685382322919964,32.08287849390507,-92.24360919585227,76.200527287817
2024-09-23 16:19:37.824166,41.25,34.62418,-0.003233425524256645,-0.02308174982955575,0.09710254654607277,44.11764879391193,-92.24360919585227,76.200527287817
2024-09-23 16:19:37.836094,41.25,34.62418,-0.003233425524256645,-0.02308174982955575,0.09710254654607277,44.11764879391193,-96.25519929585457,80.21211738781929
2024-09-23 16:19:37.867688,41.25,34.624232,-0.003233425524256645,-0.02308174982955575,0.09710254654607277,44.11764879391193,-96.25519929585457,80.21211738781929
2024-09-23 16:19:37.879156,41.25,34.624232,-0.0026862297461545674,-0.023778180888911878,0.09740101331113918,44.11764879391193,-96.25519929585457,80.21211738781929
2024-09-23 16:19:37.922237,41.25,34.624282,-0.0027359787006383035,-0.023778180888911878,0.09740101331113918,44.11764879391193,-96.25519929585457,76.200527287817
2024-09-23 16:19:37.933452,41.25,34.624282,-0.0027359787006383035,-0.023827930413011865,0.09750050628343246,28.07457030097246,-96.25519929585457,76.200527287817
2024-09-23 16:19:37.965170,41.25,34.624282,-0.0027359787006383035,-0.023827930413011865,0.09750050628343246,28.07457030097246,-100.26678939585686,76.200527287817
2024-09-23 16:19:37.977108,41.25,34.624377,-0.003233425524256645,-0.02308174982955575,0.09725178296655933,28.07457030097246,-100.26678939585686,80.21211738781929
2024-09-23 16:19:38.019783,41.25,34.624427,-0.003233425524256645,-0.02308174982955575,0.09725178296655933,28.07457030097246,-96.25519929585457,80.21211738781929
2024-09-23 16:19:38.031629,41.25,34.624427,-0.0033329230534799477,-0.023230986250042305,0.09725178296655933,28.07457030097246,-96.25519929585457,80.21211738781929
2024-09-23 16:19:38.064343,41.25,34.624427,-0.0033329230534799477,-0.023230986250042305,0.0973015264147526,32.08287849390507,-96.25519929585457,80.21211738781929
2024-09-23 16:19:38.076042,41.25,34.624478,-0.0030841997366068195,-0.023230986250042305,0.0973015264147526,32.08287849390507,-100.26678939585686,76.200527287817
2024-09-23 16:19:38.118181,41.25,34.624478,-0.0030841997366068195,-0.02303200030545576,0.0973015264147526,40.106058693909645,-96.25519929585457,72.1922225099802
2024-09-23 16:19:38.130253,41.25,34.62457,-0.0030841997366068195,-0.02303200030545576,0.0973015264147526,40.106058693909645,-96.25519929585457,72.1922225099802
2024-09-23 16:19:38.162314,41.25,34.62457,-0.003233425524256645,-0.023479709566915436,0.0973015264147526,40.106058693909645,-96.25519929585457,72.1922225099802
2024-09-23 16:19:38.173734,41.25,34.62457,-0.003233425524256645,-0.023479709566915436,0.0973512698629459,32.08287849390507,-96.25519929585457,76.200527287817
2024-09-23 16:19:38.215701,41.25,34.624622,-0.0034324103296106863,-0.023479709566915436,0.0973512698629459,32.08287849390507,-96.25519929585457,76.200527287817
2024-09-23 16:19:38.310201,41.25,34.624622,-0.0034324103296106863,-0.023429960042815445,0.09764974270391902,48.12595698684454,-96.25519929585457,76.200527287817
2024-09-23 16:19:38.321854,41.25,34.624672,-0.0034324103296106863,-0.023429960042815445,0.09764974270391902,48.12595698684454,-88.23529758782387,88.23529758782387
2024-09-23 16:19:38.364779,41.25,34.624672,-0.002785727465249955,-0.0228827638849692,0.0973512698629459,44.11764879391193,-92.24360919585227,80.21211738781929
2024-09-23 16:19:38.408096,41.32,34.624723,-0.002636491424507565,-0.023479709566915436,0.0973512698629459,44.11764879391193,-92.24360919585227,80.21211738781929
2024-09-23 16:19:38.419187,41.32,34.624723,-0.002636491424507565,-0.023479709566915436,0.09740101331113918,44.11764879391193,-100.26678939585686,80.21211738781929
2024-09-23 16:19:38.461863,41.32,34.624774,-0.0031836870127375577,-0.023280723622328886,0.0973512698629459,40.106058693909645,-100.26678939585686,76.200527287817
2024-09-23 16:19:38.503725,41.32,34.624774,-0.0031836870127375577,-0.023280723622328886,0.0973512698629459,40.106058693909645,-100.26678939585686,80.21211738781929
2024-09-23 16:19:38.515080,41.32,34.624824,-0.0030344509719951677,-0.023181236725942318,0.09680407370509965,40.106058693909645,-100.26678939585686,80.21211738781929
2024-09-23 16:19:38.556650,41.32,34.624962,-0.0031836870127375577,-0.023181236725942318,0.09680407370509965,32.08287849390507,-100.26678939585686,76.200527287817
2024-09-23 16:19:38.568618,41.32,34.624962,-0.0031836870127375577,-0.02303200030545576,0.09680407370509965,32.08287849390507,-100.26678939585686,76.200527287817
2024-09-23 16:19:38.601906,41.32,34.624962,-0.0031836870127375577,-0.02303200030545576,0.09645586349183995,28.07457030097246,-100.26678939585686,76.200527287817
2024-09-23 16:19:38.613102,41.32,34.625013,-0.0029349636958644295,-0.02303200030545576,0.09645586349183995,28.07457030097246,-96.25519929585457,76.200527287817
2024-09-23 16:19:38.656526,41.32,34.625106,-0.0029349636958644295,-0.0228827638849692,0.0973512698629459,32.08287849390507,-88.23529758782387,84.22370748782159
2024-09-23 16:19:38.699045,41.32,34.625106,-0.0032831742888682963,-0.02338022115155219,0.0973512698629459,32.08287849390507,-88.23529758782387,84.22370748782159
2024-09-23 16:19:38.710697,41.32,34.625106,-0.0032831742888682963,-0.02338022115155219,0.09680407370509965,32.08287849390507,-92.24360919585227,84.22370748782159
2024-09-23 16:19:38.753071,41.32,34.625158,-0.0031836870127375577,-0.02308174982955575,0.09750050628343246,36.09446859390736,-92.24360919585227,84.22370748782159
2024-09-23 16:19:38.846415,41.32,34.625209,-0.0031339382481259063,-0.02308174982955575,0.09750050628343246,36.09446859390736,-92.24360919585227,84.22370748782159
2024-09-23 16:19:38.858127,41.32,34.625209,-0.0031339382481259063,-0.02293251340906919,0.0973015264147526,32.08287849390507,-92.24360919585227,84.22370748782159
2024-09-23 16:19:38.902601,41.32,34.625259,-0.0029847020175114316,-0.023429960042815445,0.09715228999426605,32.08287849390507,-96.25519929585457,84.22370748782159
2024-09-23 16:19:38.945621,41.32,34.625259,-0.0029847020175114316,-0.023429960042815445,0.09715228999426605,32.08287849390507,-92.24360919585227,80.21211738781929
2024-09-23 16:19:38.956907,41.32,34.62531,-0.003233425524256645,-0.0228827638849692,0.09715228999426605,32.08287849390507,-92.24360919585227,80.21211738781929
2024-09-23 16:19:38.989258,41.32,34.62531,-0.003233425524256645,-0.0228827638849692,0.0973512698629459,32.08287849390507,-92.24360919585227,80.21211738781929
2024-09-23 16:19:39.001192,41.32,34.625361,-0.0030344509719951677,-0.0228827638849692,0.0973512698629459,28.07457030097246,-100.26678939585686,80.21211738781929
2024-09-23 16:19:39.044708,41.32,34.625361,-0.0030344509719951677,-0.023330473146428877,0.09665483728461309,44.11764879391193,-92.24360919585227,80.21211738781929
2024-09-23 16:19:39.056896,41.32,34.625496,-0.0030344509719951677,-0.023330473146428877,0.09665483728461309,44.11764879391193,-92.24360919585227,80.21211738781929
2024-09-23 16:19:39.088665,41.32,34.625496,-0.0028354659767690416,-0.023429960042815445,0.09665483728461309,44.11764879391193,-92.24360919585227,80.21211738781929
2024-09-23 16:19:39.100634,41.32,34.625496,-0.0028354659767690416,-0.023429960042815445,0.09675432418099966,32.08287849390507,-92.24360919585227,80.21211738781929
2024-09-23 16:19:39.144558,41.32,34.625548,-0.002785727465249955,-0.02313149783467906,0.09685382322919964,40.106058693909645,-100.26678939585686,80.21211738781929
2024-09-23 16:19:39.187642,41.32,34.625598,-0.0029349636958644295,-0.02313149783467906,0.09685382322919964,40.106058693909645,-100.26678939585686,76.200527287817
2024-09-23 16:19:39.198555,41.32,34.625598,-0.0029349636958644295,-0.023181236725942318,0.09745075675933246,36.09446859390736,-100.26678939585686,76.200527287817
2024-09-23 16:19:39.241900,41.32,34.625649,-0.0029847020175114316,-0.023330473146428877,0.09764974270391902,36.09446859390736,-100.26678939585686,76.200527287817
2024-09-23 16:19:39.284567,41.32,34.625649,-0.0029847020175114316,-0.023330473146428877,0.09764974270391902,36.09446859390736,-96.25519929585457,76.200527287817
2024-09-23 16:19:39.295667,41.32,34.6257,-0.0028852147413806935,-0.0228827638849692,0.09764974270391902,36.09446859390736,-96.25519929585457,76.200527287817
2024-09-23 16:19:39.338262,41.32,34.62575,-0.0029847020175114316,-0.0228827638849692,0.09685382322919964,40.106058693909645,-96.25519929585457,80.21211738781929
2024-09-23 16:19:39.382083,41.32,34.62575,-0.0029847020175114316,-0.02338022115155219,0.09725178296655933,44.11764879391193,-96.25519929585457,80.21211738781929
2024-09-23 16:19:39.393312,41.32,34.625838,-0.0029847020175114316,-0.02338022115155219,0.09725178296655933,44.11764879391193,-100.26678939585686,80.21211738781929
2024-09-23 16:19:39.435913,41.7,34.625838,-0.0031836870127375577,-0.023280723622328886,0.0966050877605131,44.11764879391193,-100.26678939585686,80.21211738781929
2024-09-23 16:19:39.447465,41.7,34.625838,-0.0031836870127375577,-0.023280723622328886,0.0966050877605131,44.11764879391193,-100.26678939585686,76.200527287817
2024-09-23 16:19:39.480570,41.7,34.625889,-0.0032831742888682963,-0.023280723622328886,0.0966050877605131,44.11764879391193,-100.26678939585686,76.200527287817
2024-09-23 16:19:39.491799,41.7,34.625889,-0.0032831742888682963,-0.023280723622328886,0.09774922960030558,40.106058693909645,-88.23529758782387,76.200527287817
2024-09-23 16:19:39.534055,41.7,34.62594,-0.0035318979854855937,-0.0228827638849692,0.09745075675933246,44.11764879391193,-88.23529758782387,76.200527287817
2024-09-23 16:19:39.575696,41.7,34.62594,-0.0035318979854855937,-0.0228827638849692,0.09745075675933246,44.11764879391193,-96.25519929585457,80.21211738781929
2024-09-23 16:19:39.587336,41.7,34.62599,-0.0030841997366068195,-0.02278327698858263,0.09745075675933246,44.11764879391193,-96.25519929585457,80.21211738781929
2024-09-23 16:19:39.629744,41.7,34.626041,-0.0033329230534799477,-0.02278327698858263,0.09745075675933246,36.09446859390736,-96.25519929585457,80.21211738781929
2024-09-23 16:19:39.641890,41.7,34.626041,-0.0033329230534799477,-0.02278327698858263,0.09745075675933246,36.09446859390736,-96.25519929585457,80.21211738781929
2024-09-23 16:19:39.673570,41.7,34.626041,-0.0033329230534799477,-0.02278327698858263,0.09745075675933246,28.07457030097246,-96.25519929585457,80.21211738781929
2024-09-23 16:19:39.684599,41.7,34.626092,-0.0029349636958644295,-0.02278327698858263,0.09745075675933246,28.07457030097246,-96.25519929585457,84.22370748782159
2024-09-23 16:19:39.728978,41.7,34.626092,-0.0029349636958644295,-0.023778180888911878,0.09680407370509965,40.106058693909645,-92.24360919585227,84.22370748782159
2024-09-23 16:19:39.741562,41.7,34.626179,-0.0029349636958644295,-0.023778180888911878,0.09680407370509965,40.106058693909645,-92.24360919585227,84.22370748782159
2024-09-23 16:19:39.774232,41.7,34.626179,-0.003631395514708897,-0.02308174982955575,0.0970030596496862,36.09446859390736,-92.24360919585227,84.22370748782159
2024-09-23 16:19:39.786177,41.7,34.626179,-0.003631395514708897,-0.02308174982955575,0.0970030596496862,36.09446859390736,-100.26678939585686,80.21211738781929
2024-09-23 16:19:39.819207,41.7,34.62623,-0.003631395514708897,-0.02308174982955575,0.0970030596496862,36.09446859390736,-100.26678939585686,80.21211738781929
2024-09-23 16:19:39.830346,41.7,34.62623,-0.003233425524256645,-0.023330473146428877,0.09690356060148622,32.08287849390507,-92.24360919585227,80.21211738781929
2024-09-23 16:19:39.872915,41.7,34.626281,-0.0033329230534799477,-0.023479709566915436,0.09690356060148622,32.08287849390507,-92.24360919585227,72.1922225099802
2024-09-23 16:19:39.885443,41.7,34.626281,-0.0033329230534799477,-0.023479709566915436,0.0973512698629459,36.09446859390736,-92.24360919585227,72.1922225099802
2024-09-23 16:19:39.917320,41.7,34.626281,-0.0033329230534799477,-0.023479709566915436,0.0973512698629459,36.09446859390736,-92.24360919585227,88.23529758782387
2024-09-23 16:19:39.929646,41.7,34.626332,-0.002785727465249955,-0.023429960042815445,0.09715228999426605,36.09446859390736,-92.24360919585227,88.23529758782387
2024-09-23 16:19:39.971996,41.7,34.626382,-0.0028852147413806935,-0.023429960042815445,0.09715228999426605,40.106058693909645,-92.24360919585227,80.21211738781929
