Ayaan's Suite
Timestamp,Sample Rate (Hz),Time,Ax,Ay,Az,Gx,Gy,Gz
2024-09-23 17:27:18.907216,0,38.685409,-0.0026862297461545674,-0.023280723622328886,0.0973015264147526,44.11764879391193,-96.25519929585457,72.1922225099802
2024-09-23 17:27:18.919454,0,38.685409,-0.0026862297461545674,-0.023280723622328886,0.09680407370509965,44.11764879391193,-96.25519929585457,72.1922225099802
2024-09-23 17:27:18.951260,0,38.685409,-0.0026862297461545674,-0.023280723622328886,0.09680407370509965,44.11764879391193,-100.26678939585686,72.1922225099802
2024-09-23 17:27:18.962354,0,38.68546,-0.0034324103296106863,-0.02308174982955575,0.09750050628343246,44.11764879391193,-100.26678939585686,76.200527287817
2024-09-23 17:27:19.005611,0,38.68551,-0.003482159473966507,-0.02308174982955575,0.09750050628343246,44.11764879391193,-96.25519929585457,80.21211738781929
2024-09-23 17:27:19.017406,0,38.68551,-0.003482159473966507,-0.023728432883788564,0.09750050628343246,44.11764879391193,-96.25519929585457,80.21211738781929
2024-09-23 17:27:19.050499,0,38.68551,-0.003482159473966507,-0.023728432883788564,0.09685382322919964,40.106058693909645,-96.25519929585457,80.21211738781929
2024-09-23 17:27:19.061553,0,38.685561,-0.0030841997366068195,-0.023728432883788564,0.09685382322919964,40.106058693909645,-100.26678939585686,76.200527287817
2024-09-23 17:27:19.103807,0,38.685561,-0.0030841997366068195,-0.02293251340906919,0.09710254654607277,44.11764879391193,-96.25519929585457,76.200527287817
2024-09-23 17:27:19.114865,0,38.685648,-0.0030841997366068195,-0.02293251340906919,0.09710254654607277,44.11764879391193,-96.25519929585457,80.21211738781929
2024-09-23 17:27:19.146405,0,38.685648,-0.0028852147413806935,-0.02293251340906919,0.09710254654607277,44.11764879391193,-96.25519929585457,80.21211738781929
2024-09-23 17:27:19.158118,0,38.685648,-0.0028852147413806935,-0.023579196463302005,0.09740101331113918,44.11764879391193,-96.25519929585457,84.22370748782159
2024-09-23 17:27:19.200913,0,38.6857,-0.0030841997366068195,-0.023330473146428877,0.09675432418099966,36.09446859390736,-96.25519929585457,84.22370748782159
2024-09-23 17:27:19.212855,0,38.6857,-0.0030841997366068195,-0.023330473146428877,0.09675432418099966,36.09446859390736,-96.25519929585457,84.22370748782159
2024-09-23 17:27:19.296472,0,38.68575,-0.002785727465249955,-0.02362894446842532,0.09675432418099966,36.09446859390736,-96.25519929585457,80.21211738781929
2024-09-23 17:27:19.308716,0,38.68575,-0.002785727465249955,-0.02362894446842532,0.09690356060148622,36.09446859390736,-96.25519929585457,80.21211738781929
2024-09-23 17:27:19.392195,0,38.68575,-0.002785727465249955,-0.02362894446842532,0.09690356060148622,36.09446859390736,-96.25519929585457,76.200527287817
2024-09-23 17:27:19.403537,0,38.685801,-0.0029847020175114316,-0.023877669304275123,0.09774922960030558,36.09446859390736,-96.25519929585457,76.200527287817
2024-09-23 17:27:19.447150,0,38.685852,-0.0031339382481259063,-0.02293251340906919,0.09774922960030558,48.12595698684454,-96.25519929585457,68.18063240997792
2024-09-23 17:27:19.489088,0,38.685852,-0.0031339382481259063,-0.02293251340906919,0.0973015264147526,36.09446859390736,-96.25519929585457,68.18063240997792
2024-09-23 17:27:19.500196,0,38.685902,-0.0028852147413806935,-0.02293251340906919,0.0973015264147526,36.09446859390736,-100.26678939585686,76.200527287817
2024-09-23 17:27:19.542238,0,38.685902,-0.0028852147413806935,-0.023479709566915436,0.09755024973162574,44.11764879391193,-92.24360919585227,72.1922225099802
2024-09-23 17:27:19.554177,0,38.686038,-0.0028852147413806935,-0.023479709566915436,0.09755024973162574,44.11764879391193,-92.24360919585227,72.1922225099802
2024-09-23 17:27:19.586955,0,38.686038,-0.0030841997366068195,-0.024275627522658133,0.09755024973162574,44.11764879391193,-92.24360919585227,72.1922225099802
2024-09-23 17:27:19.598382,0,38.686038,-0.0030841997366068195,-0.024275627522658133,0.09695331012558621,48.12595698684454,-100.26678939585686,76.200527287817
2024-09-23 17:27:19.640369,0,38.686136,-0.0028354659767690416,-0.024275627522658133,0.09695331012558621,48.12595698684454,-100.26678939585686,76.200527287817
2024-09-23 17:27:19.682898,0,38.686136,-0.0028354659767690416,-0.023479709566915436,0.09695331012558621,48.12595698684454,-100.26678939585686,76.200527287817
2024-09-23 17:27:19.694440,0,38.686188,-0.0028354659767690416,-0.023479709566915436,0.09685382322919964,44.11764879391193,-96.25519929585457,76.200527287817
2024-09-23 17:27:19.737706,0,38.686188,-0.002387757474797703,-0.02293251340906919,0.09725178296655933,40.106058693909645,-92.24360919585227,76.200527287817
2024-09-23 17:27:19.750511,0,38.686188,-0.002387757474797703,-0.02293251340906919,0.09725178296655933,40.106058693909645,-92.24360919585227,72.1922225099802
2024-09-23 17:27:19.782747,0,38.686238,-0.0033329230534799477,-0.023280723622328886,0.09725178296655933,40.106058693909645,-92.24360919585227,72.1922225099802
2024-09-23 17:27:19.794266,0,38.686238,-0.0033329230534799477,-0.023280723622328886,0.09675432418099966,40.106058693909645,-96.25519929585457,72.1922225099802
2024-09-23 17:27:19.837105,0,38.686289,-0.0031339382481259063,-0.02352945757203875,0.09745075675933246,40.106058693909645,-96.25519929585457,72.1922225099802
2024-09-23 17:27:19.848621,0,38.686289,-0.0031339382481259063,-0.02352945757203875,0.09745075675933246,40.106058693909645,-96.25519929585457,72.1922225099802
2024-09-23 17:27:19.880618,42.34,38.68634,-0.0031339382481259063,-0.02352945757203875,0.09745075675933246,40.106058693909645,-92.24360919585227,76.200527287817
2024-09-23 17:27:19.892303,42.34,38.68634,-0.0035816467500972456,-0.023429960042815445,0.09755024973162574,40.106058693909645,-92.24360919585227,76.200527287817
2024-09-23 17:27:19.934779,42.34,38.68643,-0.0027359787006383035,-0.023429960042815445,0.09755024973162574,32.08287849390507,-88.23529758782387,80.21211738781929
2024-09-23 17:27:20.030220,42.34,38.686481,-0.0027359787006383035,-0.023429960042815445,0.09675432418099966,40.106058693909645,-104.27510100388527,72.1922225099802
2024-09-23 17:27:20.042161,42.34,38.686481,-0.0028852147413806935,-0.023429960042815445,0.09675432418099966,40.106058693909645,-104.27510100388527,72.1922225099802
2024-09-23 17:27:20.075900,42.34,38.686481,-0.0028852147413806935,-0.02308174982955575,0.0973512698629459,44.11764879391193,-104.27510100388527,72.1922225099802
2024-09-23 17:27:20.087284,42.34,38.686574,-0.0028852147413806935,-0.02308174982955575,0.0973512698629459,44.11764879391193,-96.25519929585457,76.200527287817
2024-09-23 17:27:20.130201,42.34,38.686574,-0.0024872551938930902,-0.023330473146428877,0.0976994861521123,40.106058693909645,-88.23529758782387,72.1922225099802
2024-09-23 17:27:20.174319,42.34,38.686626,-0.0033329230534799477,-0.023330473146428877,0.0976994861521123,40.106058693909645,-88.23529758782387,72.1922225099802
2024-09-23 17:27:20.186646,42.34,38.686626,-0.0033329230534799477,-0.023330473146428877,0.09680407370509965,44.11764879391193,-92.24360919585227,72.1922225099802
2024-09-23 17:27:20.220331,42.34,38.686677,-0.0033329230534799477,-0.023330473146428877,0.09680407370509965,44.11764879391193,-92.24360919585227,84.22370748782159
2024-09-23 17:27:20.231325,42.34,38.686677,-0.0028354659767690416,-0.023230986250042305,0.09650560086412653,44.11764879391193,-92.24360919585227,84.22370748782159
2024-09-23 17:27:20.274301,42.34,38.686771,-0.002636491424507565,-0.023579196463302005,0.09650560086412653,44.11764879391193,-104.27510100388527,76.200527287817
2024-09-23 17:27:20.286107,42.34,38.686771,-0.002636491424507565,-0.023579196463302005,0.09725178296655933,44.11764879391193,-104.27510100388527,76.200527287817
2024-09-23 17:27:20.319003,42.34,38.686771,-0.002636491424507565,-0.023579196463302005,0.09725178296655933,36.09446859390736,-100.26678939585686,76.200527287817
2024-09-23 17:27:20.330001,42.34,38.686822,-0.0028852147413806935,-0.02313149783467906,0.09725178296655933,36.09446859390736,-100.26678939585686,76.200527287817
2024-09-23 17:27:20.373148,42.34,38.686873,-0.002437506429281439,-0.02313149783467906,0.0976994861521123,36.09446859390736,-100.26678939585686,76.200527287817
2024-09-23 17:27:20.416600,42.34,38.686873,-0.002437506429281439,-0.02367869399252531,0.0973015264147526,44.11764879391193,-100.26678939585686,76.200527287817
2024-09-23 17:27:20.428323,42.34,38.686964,-0.002437506429281439,-0.02367869399252531,0.0973015264147526,44.11764879391193,-100.26678939585686,76.200527287817
2024-09-23 17:27:20.470887,42.34,38.686964,-0.0030841997366068195,-0.023181236725942318,0.09725178296655933,36.09446859390736,-96.25519929585457,84.22370748782159
2024-09-23 17:27:20.514198,42.34,38.687016,-0.0027359787006383035,-0.023230986250042305,0.09725178296655933,36.09446859390736,-96.25519929585457,84.22370748782159
2024-09-23 17:27:20.525780,42.34,38.687016,-0.0027359787006383035,-0.023230986250042305,0.09715228999426605,40.106058693909645,-92.24360919585227,84.22370748782159
2024-09-23 17:27:20.568790,42.34,38.687067,-0.0034324103296106863,-0.023280723622328886,0.09755024973162574,36.09446859390736,-92.24360919585227,76.200527287817
2024-09-23 17:27:20.611754,42.34,38.687117,-0.0034324103296106863,-0.023280723622328886,0.09755024973162574,36.09446859390736,-88.23529758782387,80.21211738781929
2024-09-23 17:27:20.623387,42.34,38.687117,-0.0031339382481259063,-0.023330473146428877,0.09725178296655933,36.09446859390736,-88.23529758782387,80.21211738781929
2024-09-23 17:27:20.666013,42.34,38.687168,-0.0028852147413806935,-0.023479709566915436,0.09725178296655933,40.106058693909645,-88.23529758782387,80.21211738781929
2024-09-23 17:27:20.708768,42.34,38.687168,-0.0028852147413806935,-0.023479709566915436,0.09670458680871308,44.11764879391193,-104.27510100388527,80.21211738781929
2024-09-23 17:27:20.719804,42.34,38.687219,-0.0029349636958644295,-0.023479709566915436,0.09670458680871308,44.11764879391193,-104.27510100388527,68.18063240997792
2024-09-23 17:27:20.762191,42.34,38.687306,-0.0029349636958644295,-0.02338022115155219,0.09680407370509965,40.106058693909645,-100.26678939585686,80.21211738781929
2024-09-23 17:27:20.805789,42.34,38.687306,-0.002785727465249955,-0.023330473146428877,0.09680407370509965,40.106058693909645,-100.26678939585686,80.21211738781929
2024-09-23 17:27:20.817606,42.34,38.687306,-0.002785727465249955,-0.023330473146428877,0.09779897304849887,44.11764879391193,-96.25519929585457,76.200527287817
2024-09-23 17:27:20.860663,42.34,38.687357,-0.002586742470023829,-0.023230986250042305,0.09759999317981902,40.106058693909645,-100.26678939585686,76.200527287817
2024-09-23 17:27:20.902790,40.74,38.687357,-0.002586742470023829,-0.023230986250042305,0.09759999317981902,40.106058693909645,-100.26678939585686,72.1922225099802
2024-09-23 17:27:20.955263,40.74,38.687408,-0.002586742470023829,-0.023230986250042305,0.09759999317981902,40.106058693909645,-100.26678939585686,72.1922225099802
2024-09-23 17:27:20.998263,40.74,38.687408,-0.0031836870127375577,-0.023230986250042305,0.09759999317981902,40.106058693909645,-100.26678939585686,72.1922225099802
2024-09-23 17:27:21.009462,40.74,38.687408,-0.0031836870127375577,-0.02303200030545576,0.09710254654607277,44.11764879391193,-104.27510100388527,76.200527287817
2024-09-23 17:27:21.052507,40.74,38.687459,-0.0030344509719951677,-0.02278327698858263,0.09675432418099966,44.11764879391193,-104.27510100388527,76.200527287817
2024-09-23 17:27:21.064263,40.74,38.687459,-0.0030344509719951677,-0.02278327698858263,0.09675432418099966,40.106058693909645,-100.26678939585686,76.200527287817
2024-09-23 17:27:21.098441,40.74,38.687509,-0.0030344509719951677,-0.02278327698858263,0.09675432418099966,40.106058693909645,-100.26678939585686,76.200527287817
2024-09-23 17:27:21.110360,40.74,38.687509,-0.0034324103296106863,-0.023330473146428877,0.09705279702197278,44.11764879391193,-100.26678939585686,76.200527287817
2024-09-23 17:27:21.152202,40.74,38.68756,-0.0031339382481259063,-0.02367869399252531,0.09715228999426605,44.11764879391193,-96.25519929585457,76.200527287817
2024-09-23 17:27:21.194468,40.74,38.68756,-0.0031339382481259063,-0.02367869399252531,0.09715228999426605,40.106058693909645,-96.25519929585457,76.200527287817
2024-09-23 17:27:21.248550,40.74,38.687647,-0.0029349636958644295,-0.023429960042815445,0.09715228999426605,40.106058693909645,-96.25519929585457,80.21211738781929
2024-09-23 17:27:21.260454,40.74,38.687647,-0.0029349636958644295,-0.023429960042815445,0.0970030596496862,40.106058693909645,-96.25519929585457,80.21211738781929
2024-09-23 17:27:21.292786,40.74,38.687647,-0.0029349636958644295,-0.023429960042815445,0.0970030596496862,40.106058693909645,-96.25519929585457,80.21211738781929
2024-09-23 17:27:21.304786,40.74,38.687747,-0.0029349636958644295,-0.02367869399252531,0.09759999317981902,40.106058693909645,-96.25519929585457,80.21211738781929
2024-09-23 17:27:21.348370,40.74,38.687842,-0.002288270198666964,-0.02303200030545576,0.09759999317981902,32.08287849390507,-92.24360919585227,88.23529758782387
2024-09-23 17:27:21.390977,40.74,38.687842,-0.002288270198666964,-0.02303200030545576,0.09720203344245934,36.09446859390736,-92.24360919585227,88.23529758782387
2024-09-23 17:27:21.444136,40.74,38.687893,-0.0026862297461545674,-0.02362894446842532,0.09720203344245934,36.09446859390736,-92.24360919585227,80.21211738781929
2024-09-23 17:27:21.455496,40.74,38.687893,-0.0026862297461545674,-0.02362894446842532,0.098047696365372,40.106058693909645,-92.24360919585227,80.21211738781929
2024-09-23 17:27:21.487777,40.74,38.687893,-0.0026862297461545674,-0.02362894446842532,0.098047696365372,40.106058693909645,-100.26678939585686,80.21211738781929
2024-09-23 17:27:21.498903,40.74,38.687944,-0.002636491424507565,-0.023429960042815445,0.09710254654607277,40.106058693909645,-100.26678939585686,80.21211738781929
2024-09-23 17:27:21.540956,40.74,38.688037,-0.0024872551938930902,-0.023429960042815445,0.09710254654607277,44.11764879391193,-100.26678939585686,76.200527287817
2024-09-23 17:27:21.552830,40.74,38.688037,-0.0024872551938930902,-0.023280723622328886,0.09710254654607277,44.11764879391193,-100.26678939585686,76.200527287817
2024-09-23 17:27:21.585122,40.74,38.688037,-0.0024872551938930902,-0.023280723622328886,0.09710254654607277,36.09446859390736,-100.26678939585686,76.200527287817
2024-09-23 17:27:21.596508,40.74,38.688089,-0.0025369937054121774,-0.023280723622328886,0.09710254654607277,36.09446859390736,-92.24360919585227,76.200527287817
2024-09-23 17:27:21.638353,40.74,38.688089,-0.0025369937054121774,-0.02338022115155219,0.09750050628343246,20.05138839341998,-96.25519929585457,76.200527287817
2024-09-23 17:27:21.649673,40.74,38.688183,-0.0025369937054121774,-0.02338022115155219,0.09750050628343246,20.05138839341998,-96.25519929585457,80.21211738781929
2024-09-23 17:27:21.682399,40.74,38.688183,-0.0035318979854855937,-0.02313149783467906,0.09750050628343246,20.05138839341998,-96.25519929585457,80.21211738781929
2024-09-23 17:27:21.693854,40.74,38.688183,-0.0035318979854855937,-0.02313149783467906,0.09774922960030558,48.12595698684454,-96.25519929585457,76.200527287817
2024-09-23 17:27:21.737151,40.74,38.688235,-0.0030344509719951677,-0.022982261414192504,0.09750050628343246,48.12595698684454,-96.25519929585457,76.200527287817
2024-09-23 17:27:21.779620,40.74,38.688285,-0.0030344509719951677,-0.022982261414192504,0.09750050628343246,48.12595698684454,-96.25519929585457,76.200527287817
2024-09-23 17:27:21.791137,40.74,38.688285,-0.002785727465249955,-0.023280723622328886,0.09710254654607277,36.09446859390736,-96.25519929585457,76.200527287817
2024-09-23 17:27:21.833591,40.74,38.688336,-0.002387757474797703,-0.023181236725942318,0.09710254654607277,36.09446859390736,-92.24360919585227,80.21211738781929
2024-09-23 17:27:21.845759,40.74,38.688336,-0.002387757474797703,-0.023181236725942318,0.09715228999426605,36.09446859390736,-92.24360919585227,80.21211738781929
2024-09-23 17:27:21.877448,40.74,38.688336,-0.002387757474797703,-0.023181236725942318,0.09715228999426605,44.11764879391193,-88.23529758782387,80.21211738781929
2024-09-23 17:27:21.888774,40.74,38.688387,-0.003233425524256645,-0.02338022115155219,0.09715228999426605,44.11764879391193,-88.23529758782387,80.21211738781929
2024-09-23 17:27:21.932153,41.08,38.688437,-0.0025369937054121774,-0.02338022115155219,0.09710254654607277,44.11764879391193,-88.23529758782387,72.1922225099802
2024-09-23 17:27:21.975344,41.08,38.688437,-0.0025369937054121774,-0.023429960042815445,0.0973015264147526,44.11764879391193,-88.23529758782387,72.1922225099802
2024-09-23 17:27:21.987210,41.08,38.688524,-0.0025369937054121774,-0.023429960042815445,0.0973015264147526,40.106058693909645,-92.24360919585227,76.200527287817
2024-09-23 17:27:22.030161,41.08,38.688524,-0.0029349636958644295,-0.023181236725942318,0.09764974270391902,40.106058693909645,-96.25519929585457,76.200527287817
2024-09-23 17:27:22.072550,41.08,38.688524,-0.0029349636958644295,-0.023181236725942318,0.09764974270391902,40.106058693909645,-96.25519929585457,80.21211738781929
2024-09-23 17:27:22.126540,41.08,38.688576,-0.0024872551938930902,-0.023330473146428877,0.09750050628343246,40.106058693909645,-96.25519929585457,80.21211738781929
2024-09-23 17:27:22.138331,41.08,38.688576,-0.0024872551938930902,-0.023330473146428877,0.09750050628343246,40.106058693909645,-100.26678939585686,80.21211738781929
2024-09-23 17:27:22.170852,41.08,38.688627,-0.0024872551938930902,-0.023330473146428877,0.09750050628343246,40.106058693909645,-100.26678939585686,76.200527287817
2024-09-23 17:27:22.182077,41.08,38.688627,-0.0030344509719951677,-0.02293251340906919,0.09725178296655933,44.11764879391193,-100.26678939585686,76.200527287817
2024-09-23 17:27:22.225903,41.08,38.688677,-0.0031339382481259063,-0.023778180888911878,0.09725178296655933,44.11764879391193,-96.25519929585457,80.21211738781929
2024-09-23 17:27:22.237329,41.08,38.688677,-0.0031339382481259063,-0.023778180888911878,0.09745075675933246,44.11764879391193,-96.25519929585457,80.21211738781929
2024-09-23 17:27:22.268780,41.08,38.688677,-0.0031339382481259063,-0.023778180888911878,0.09745075675933246,44.11764879391193,-92.24360919585227,76.200527287817
2024-09-23 17:27:22.279720,41.08,38.688728,-0.0033329230534799477,-0.023330473146428877,0.09745075675933246,44.11764879391193,-92.24360919585227,76.200527287817
2024-09-23 17:27:22.322098,41.08,38.688817,-0.0033329230534799477,-0.023330473146428877,0.09670458680871308,40.106058693909645,-92.24360919585227,84.22370748782159
2024-09-23 17:27:22.334026,41.08,38.688817,-0.0032831742888682963,-0.023330473146428877,0.09670458680871308,40.106058693909645,-92.24360919585227,84.22370748782159
2024-09-23 17:27:22.366357,41.08,38.688817,-0.0032831742888682963,-0.02338022115155219,0.09755024973162574,32.08287849390507,-92.24360919585227,84.22370748782159
2024-09-23 17:27:22.378175,41.08,38.688914,-0.0032831742888682963,-0.02338022115155219,0.09755024973162574,32.08287849390507,-104.27510100388527,72.1922225099802
2024-09-23 17:27:22.421147,41.08,38.688914,-0.0026862297461545674,-0.023330473146428877,0.0966050877605131,36.09446859390736,-96.25519929585457,76.200527287817
2024-09-23 17:27:22.463650,41.08,38.688966,-0.003382661564999035,-0.02338022115155219,0.0966050877605131,36.09446859390736,-96.25519929585457,76.200527287817
2024-09-23 17:27:22.475896,41.08,38.688966,-0.003382661564999035,-0.02338022115155219,0.09725178296655933,44.11764879391193,-96.25519929585457,76.200527287817
2024-09-23 17:27:22.519857,41.08,38.689017,-0.0030841997366068195,-0.02362894446842532,0.09720203344245934,36.09446859390736,-96.25519929585457,84.22370748782159
2024-09-23 17:27:22.562419,41.08,38.689067,-0.0030841997366068195,-0.02362894446842532,0.09720203344245934,36.09446859390736,-100.26678939585686,72.1922225099802
2024-09-23 17:27:22.573572,41.08,38.689067,-0.0031339382481259063,-0.02338022115155219,0.09705279702197278,36.09446859390736,-100.26678939585686,72.1922225099802
2024-09-23 17:27:22.616199,41.08,38.689118,-0.0035816467500972456,-0.023778180888911878,0.09705279702197278,40.106058693909645,-100.26678939585686,80.21211738781929
2024-09-23 17:27:22.658771,41.08,38.689118,-0.0035816467500972456,-0.023778180888911878,0.0970030596496862,44.11764879391193,-96.25519929585457,80.21211738781929
2024-09-23 17:27:22.670630,41.08,38.689169,-0.002636491424507565,-0.023778180888911878,0.0970030596496862,44.11764879391193,-96.25519929585457,80.21211738781929
2024-09-23 17:27:22.712559,41.08,38.689169,-0.002636491424507565,-0.02313149783467906,0.09695331012558621,32.08287849390507,-96.25519929585457,80.21211738781929
2024-09-23 17:27:22.756082,41.08,38.689256,-0.002636491424507565,-0.02313149783467906,0.09695331012558621,32.08287849390507,-96.25519929585457,80.21211738781929
2024-09-23 17:27:22.768050,41.08,38.689256,-0.0030344509719951677,-0.02352945757203875,0.09784872257259886,32.08287849390507,-96.25519929585457,80.21211738781929
2024-09-23 17:27:22.810491,41.08,38.689307,-0.003233425524256645,-0.02352945757203875,0.09784872257259886,36.09446859390736,-92.24360919585227,84.22370748782159
2024-09-23 17:27:22.821952,41.08,38.689307,-0.003233425524256645,-0.02352945757203875,0.09784872257259886,36.09446859390736,-92.24360919585227,84.22370748782159
2024-09-23 17:27:22.854574,41.08,38.689307,-0.003233425524256645,-0.02352945757203875,0.09789846602079214,36.09446859390736,-92.24360919585227,84.22370748782159
2024-09-23 17:27:22.906864,41.08,38.689358,-0.0031339382481259063,-0.02308174982955575,0.09789846602079214,36.09446859390736,-92.24360919585227,76.200527287817
2024-09-23 17:27:22.918633,41.08,38.689358,-0.0031339382481259063,-0.02308174982955575,0.09695331012558621,36.09446859390736,-92.24360919585227,76.200527287817
2024-09-23 17:27:22.950284,41.12,38.689358,-0.0031339382481259063,-0.02308174982955575,0.09695331012558621,44.11764879391193,-100.26678939585686,76.200527287817
2024-09-23 17:27:22.962229,41.12,38.689409,-0.002785727465249955,-0.022833026512682618,0.09695331012558621,44.11764879391193,-100.26678939585686,72.1922225099802
2024-09-23 17:27:23.004715,41.12,38.6895,-0.0031836870127375577,-0.022833026512682618,0.09635636444363997,40.106058693909645,-92.24360919585227,72.1922225099802
2024-09-23 17:27:23.047228,41.12,38.6895,-0.0031836870127375577,-0.02352945757203875,0.09740101331113918,40.106058693909645,-92.24360919585227,72.1922225099802
2024-09-23 17:27:23.058654,41.12,38.689551,-0.0031836870127375577,-0.02352945757203875,0.09740101331113918,40.106058693909645,-100.26678939585686,76.200527287817
2024-09-23 17:27:23.102786,41.12,38.689551,-0.0030344509719951677,-0.023778180888911878,0.09690356060148622,44.11764879391193,-96.25519929585457,76.200527287817
2024-09-23 17:27:23.114295,41.12,38.689551,-0.0030344509719951677,-0.023778180888911878,0.09690356060148622,44.11764879391193,-96.25519929585457,72.1922225099802
2024-09-23 17:27:23.146470,41.12,38.689646,-0.0030841997366068195,-0.02367869399252531,0.09690356060148622,44.11764879391193,-96.25519929585457,72.1922225099802
2024-09-23 17:27:23.158906,41.12,38.689646,-0.0030841997366068195,-0.02367869399252531,0.09690356060148622,44.11764879391193,-92.24360919585227,72.1922225099802
2024-09-23 17:27:23.192068,41.12,38.689646,-0.0030841997366068195,-0.02367869399252531,0.09690356060148622,44.11764879391193,-92.24360919585227,80.21211738781929
2024-09-23 17:27:23.203237,41.12,38.689698,-0.003482159473966507,-0.023330473146428877,0.09705279702197278,40.106058693909645,-92.24360919585227,80.21211738781929
2024-09-23 17:27:23.244812,41.12,38.689748,-0.0030841997366068195,-0.023330473146428877,0.09705279702197278,40.106058693909645,-88.23529758782387,76.200527287817
2024-09-23 17:27:23.256382,41.12,38.689748,-0.0030841997366068195,-0.02313149783467906,0.0966050877605131,40.106058693909645,-88.23529758782387,76.200527287817
2024-09-23 17:27:23.298394,41.12,38.689799,-0.0031836870127375577,-0.023280723622328886,0.0966050877605131,40.106058693909645,-92.24360919585227,80.21211738781929
2024-09-23 17:27:23.342386,41.12,38.689799,-0.0031836870127375577,-0.023280723622328886,0.09764974270391902,36.09446859390736,-96.25519929585457,80.21211738781929
2024-09-23 17:27:23.353778,41.12,38.68985,-0.0029847020175114316,-0.023280723622328886,0.09764974270391902,36.09446859390736,-96.25519929585457,76.200527287817
2024-09-23 17:27:23.397092,41.12,38.689938,-0.0029847020175114316,-0.02308174982955575,0.09695331012558621,32.08287849390507,-96.25519929585457,76.200527287817
2024-09-23 17:27:23.439602,41.12,38.689938,-0.002785727465249955,-0.0228827638849692,0.09690356060148622,32.08287849390507,-96.25519929585457,76.200527287817
2024-09-23 17:27:23.450980,41.12,38.689938,-0.002785727465249955,-0.0228827638849692,0.09690356060148622,40.106058693909645,-104.27510100388527,80.21211738781929
2024-09-23 17:27:23.485619,41.12,38.68999,-0.002785727465249955,-0.0228827638849692,0.09690356060148622,40.106058693909645,-104.27510100388527,80.21211738781929
2024-09-23 17:27:23.496880,41.12,38.68999,-0.0031339382481259063,-0.02352945757203875,0.09710254654607277,36.09446859390736,-92.24360919585227,80.21211738781929
2024-09-23 17:27:23.540007,41.12,38.69004,-0.0030841997366068195,-0.023429960042815445,0.09710254654607277,36.09446859390736,-92.24360919585227,80.21211738781929
2024-09-23 17:27:23.551948,41.12,38.69004,-0.0030841997366068195,-0.023429960042815445,0.09710254654607277,36.09446859390736,-92.24360919585227,80.21211738781929
2024-09-23 17:27:23.584585,41.12,38.69004,-0.0030841997366068195,-0.023429960042815445,0.09710254654607277,36.09446859390736,-96.25519929585457,76.200527287817
2024-09-23 17:27:23.596397,41.12,38.690091,-0.0029847020175114316,-0.023230986250042305,0.09759999317981902,36.09446859390736,-96.25519929585457,76.200527287817
2024-09-23 17:27:23.638533,41.12,38.690142,-0.0034324103296106863,-0.02362894446842532,0.09759999317981902,40.106058693909645,-96.25519929585457,72.1922225099802
2024-09-23 17:27:23.680696,41.12,38.690142,-0.0034324103296106863,-0.02362894446842532,0.09725178296655933,40.106058693909645,-96.25519929585457,72.1922225099802
2024-09-23 17:27:23.692015,41.12,38.690192,-0.003233425524256645,-0.02362894446842532,0.09725178296655933,40.106058693909645,-96.25519929585457,68.18063240997792
2024-09-23 17:27:23.735148,41.12,38.690192,-0.003233425524256645,-0.02303200030545576,0.09705279702197278,44.11764879391193,-96.25519929585457,76.200527287817
2024-09-23 17:27:23.747108,41.12,38.690279,-0.003233425524256645,-0.02303200030545576,0.09705279702197278,44.11764879391193,-96.25519929585457,76.200527287817
2024-09-23 17:27:23.779606,41.12,38.690279,-0.0029349636958644295,-0.02263404056809607,0.09705279702197278,44.11764879391193,-96.25519929585457,76.200527287817
2024-09-23 17:27:23.790661,41.12,38.690279,-0.0029349636958644295,-0.02263404056809607,0.09690356060148622,48.12595698684454,-92.24360919585227,76.200527287817
2024-09-23 17:27:23.833309,41.12,38.690331,-0.0027359787006383035,-0.023230986250042305,0.09745075675933246,44.11764879391193,-92.24360919585227,76.200527287817
2024-09-23 17:27:23.876566,41.12,38.690382,-0.0027359787006383035,-0.023230986250042305,0.09745075675933246,44.11764879391193,-92.24360919585227,76.200527287817
2024-09-23 17:27:23.887668,41.12,38.690382,-0.002586742470023829,-0.02313149783467906,0.0973512698629459,44.11764879391193,-92.24360919585227,76.200527287817
2024-09-23 17:27:23.929816,41.12,38.690382,-0.002586742470023829,-0.02313149783467906,0.0973512698629459,44.11764879391193,-96.25519929585457,76.200527287817
2024-09-23 17:27:23.972861,41.7,38.690382,-0.002586742470023829,-0.02313149783467906,0.0973512698629459,44.11764879391193,-96.25519929585457,76.200527287817
2024-09-23 17:27:23.984130,41.7,38.690432,-0.0029349636958644295,-0.023479709566915436,0.09715228999426605,40.106058693909645,-96.25519929585457,76.200527287817
2024-09-23 17:27:24.026456,41.7,38.690432,-0.0029349636958644295,-0.023479709566915436,0.09715228999426605,40.106058693909645,-104.27510100388527,76.200527287817
2024-09-23 17:27:24.079737,41.7,38.690483,-0.0031836870127375577,-0.023877669304275123,0.09740101331113918,40.106058693909645,-104.27510100388527,76.200527287817
2024-09-23 17:27:24.123578,41.7,38.690534,-0.0025369937054121774,-0.023877669304275123,0.09740101331113918,40.106058693909645,-108.28669110388756,64.16903547978401
2024-09-23 17:27:24.134571,41.7,38.690534,-0.0025369937054121774,-0.02352945757203875,0.09710254654607277,40.106058693909645,-108.28669110388756,64.16903547978401
2024-09-23 17:27:24.177313,41.7,38.690621,-0.0029847020175114316,-0.023280723622328886,0.09710254654607277,48.12595698684454,-92.24360919585227,76.200527287817
2024-09-23 17:27:24.220873,41.7,38.690621,-0.0029847020175114316,-0.023280723622328886,0.09750050628343246,44.11764879391193,-96.25519929585457,72.1922225099802
2024-09-23 17:27:24.232244,41.7,38.690671,-0.0028354659767690416,-0.023280723622328886,0.09750050628343246,44.11764879391193,-96.25519929585457,72.1922225099802
2024-09-23 17:27:24.265891,41.7,38.690671,-0.0028354659767690416,-0.023181236725942318,0.09755024973162574,44.11764879391193,-96.25519929585457,72.1922225099802
2024-09-23 17:27:24.277546,41.7,38.690767,-0.0028354659767690416,-0.023181236725942318,0.09755024973162574,40.106058693909645,-92.24360919585227,76.200527287817
2024-09-23 17:27:24.319795,41.7,38.690767,-0.0034324103296106863,-0.02303200030545576,0.09715228999426605,48.12595698684454,-92.24360919585227,76.200527287817
2024-09-23 17:27:24.330825,41.7,38.690767,-0.0034324103296106863,-0.02303200030545576,0.09715228999426605,48.12595698684454,-92.24360919585227,76.200527287817
2024-09-23 17:27:24.363825,41.7,38.690865,-0.0031836870127375577,-0.02303200030545576,0.09715228999426605,48.12595698684454,-92.24360919585227,76.200527287817
2024-09-23 17:27:24.374935,41.7,38.690865,-0.0031836870127375577,-0.02338022115155219,0.09720203344245934,44.11764879391193,-92.24360919585227,76.200527287817
2024-09-23 17:27:24.417924,41.7,38.690916,-0.0029847020175114316,-0.02352945757203875,0.09705279702197278,44.11764879391193,-92.24360919585227,76.200527287817
2024-09-23 17:27:24.429078,41.7,38.690916,-0.0029847020175114316,-0.02352945757203875,0.09705279702197278,40.106058693909645,-92.24360919585227,76.200527287817
2024-09-23 17:27:24.461026,41.7,38.690916,-0.0029847020175114316,-0.02352945757203875,0.09705279702197278,40.106058693909645,-96.25519929585457,72.1922225099802
2024-09-23 17:27:24.472345,41.7,38.690967,-0.0031339382481259063,-0.023230986250042305,0.0973015264147526,40.106058693909645,-96.25519929585457,72.1922225099802
2024-09-23 17:27:24.514521,41.7,38.691018,-0.0031339382481259063,-0.023230986250042305,0.0973015264147526,40.106058693909645,-100.26678939585686,68.18063240997792
2024-09-23 17:27:24.525567,41.7,38.691018,-0.003482159473966507,-0.02338022115155219,0.0973015264147526,40.106058693909645,-100.26678939585686,68.18063240997792
2024-09-23 17:27:24.557245,41.7,38.691018,-0.003482159473966507,-0.02338022115155219,0.09720203344245934,40.106058693909645,-100.26678939585686,68.18063240997792
2024-09-23 17:27:24.568541,41.7,38.691068,-0.0027359787006383035,-0.02338022115155219,0.09720203344245934,40.106058693909645,-96.25519929585457,76.200527287817
2024-09-23 17:27:24.612372,41.7,38.691068,-0.0027359787006383035,-0.023778180888911878,0.09685382322919964,32.08287849390507,-92.24360919585227,76.200527287817
2024-09-23 17:27:24.624391,41.7,38.691157,-0.0027359787006383035,-0.023778180888911878,0.09685382322919964,32.08287849390507,-92.24360919585227,76.200527287817
2024-09-23 17:27:24.656484,41.7,38.691157,-0.0029349636958644295,-0.02268379009219606,0.09685382322919964,32.08287849390507,-92.24360919585227,76.200527287817
2024-09-23 17:27:24.668413,41.7,38.691157,-0.0029349636958644295,-0.02268379009219606,0.09740101331113918,40.106058693909645,-96.25519929585457,72.1922225099802
2024-09-23 17:27:24.710343,41.7,38.691208,-0.0032831742888682963,-0.02362894446842532,0.0973015264147526,32.08287849390507,-96.25519929585457,72.1922225099802
2024-09-23 17:27:24.722331,41.7,38.691208,-0.0032831742888682963,-0.02362894446842532,0.0973015264147526,32.08287849390507,-96.25519929585457,72.1922225099802
2024-09-23 17:27:24.754191,41.7,38.691259,-0.0032831742888682963,-0.02362894446842532,0.0973015264147526,32.08287849390507,-96.25519929585457,80.21211738781929
2024-09-23 17:27:24.766358,41.7,38.691259,-0.0026862297461545674,-0.023280723622328886,0.09710254654607277,40.106058693909645,-96.25519929585457,80.21211738781929
2024-09-23 17:27:24.808858,41.7,38.69131,-0.0035816467500972456,-0.023728432883788564,0.09680407370509965,40.106058693909645,-92.24360919585227,72.1922225099802
2024-09-23 17:27:24.851320,41.7,38.69131,-0.0035816467500972456,-0.023728432883788564,0.09680407370509965,40.106058693909645,-88.23529758782387,72.1922225099802
2024-09-23 17:27:24.863150,41.7,38.69136,-0.0031836870127375577,-0.023429960042815445,0.09680407370509965,40.106058693909645,-88.23529758782387,72.1922225099802
2024-09-23 17:27:24.905036,41.7,38.691411,-0.0031836870127375577,-0.023429960042815445,0.09680407370509965,40.106058693909645,-92.24360919585227,80.21211738781929
2024-09-23 17:27:24.916900,41.7,38.691411,-0.0030841997366068195,-0.023429960042815445,0.09680407370509965,40.106058693909645,-92.24360919585227,80.21211738781929
2024-09-23 17:27:24.949832,41.7,38.691411,-0.0030841997366068195,-0.023330473146428877,0.09720203344245934,40.106058693909645,-92.24360919585227,80.21211738781929
2024-09-23 17:27:24.961089,41.7,38.691498,-0.0030841997366068195,-0.023330473146428877,0.09720203344245934,40.106058693909645,-84.22370748782159,76.200527287817
2024-09-23 17:27:25.004696,42.18,38.691498,-0.0035816467500972456,-0.02293251340906919,0.09710254654607277,40.106058693909645,-92.24360919585227,76.200527287817
2024-09-23 17:27:25.047860,42.18,38.69155,-0.0028354659767690416,-0.023827930413011865,0.09710254654607277,40.106058693909645,-92.24360919585227,76.200527287817
2024-09-23 17:27:25.059587,42.18,38.69155,-0.0028354659767690416,-0.023827930413011865,0.09710254654607277,36.09446859390736,-96.25519929585457,76.200527287817
2024-09-23 17:27:25.102386,42.18,38.6916,-0.0028852147413806935,-0.023827930413011865,0.09759999317981902,48.12595698684454,-96.25519929585457,80.21211738781929
2024-09-23 17:27:25.145325,42.18,38.691651,-0.0028852147413806935,-0.023827930413011865,0.09759999317981902,48.12595698684454,-92.24360919585227,72.1922225099802
2024-09-23 17:27:25.156974,42.18,38.691651,-0.0032831742888682963,-0.02338022115155219,0.09690356060148622,48.12595698684454,-92.24360919585227,72.1922225099802
2024-09-23 17:27:25.199774,42.18,38.691702,-0.0025369937054121774,-0.02303200030545576,0.09690356060148622,40.106058693909645,-92.24360919585227,76.200527287817
2024-09-23 17:27:25.243571,42.18,38.691702,-0.0025369937054121774,-0.02303200030545576,0.09710254654607277,44.11764879391193,-96.25519929585457,76.200527287817
2024-09-23 17:27:25.255510,42.18,38.691752,-0.0030344509719951677,-0.02303200030545576,0.09710254654607277,44.11764879391193,-96.25519929585457,76.200527287817
2024-09-23 17:27:25.288271,42.18,38.691752,-0.0030344509719951677,-0.02338022115155219,0.09710254654607277,44.11764879391193,-96.25519929585457,76.200527287817
2024-09-23 17:27:25.300007,42.18,38.691839,-0.0030344509719951677,-0.02338022115155219,0.09695331012558621,44.11764879391193,-96.25519929585457,80.21211738781929
2024-09-23 17:27:25.343287,42.18,38.691839,-0.0033329230534799477,-0.02313149783467906,0.09740101331113918,40.106058693909645,-92.24360919585227,80.21211738781929
2024-09-23 17:27:25.355385,42.18,38.691839,-0.0033329230534799477,-0.02313149783467906,0.09740101331113918,40.106058693909645,-92.24360919585227,84.22370748782159
2024-09-23 17:27:25.387436,42.18,38.691891,-0.0030344509719951677,-0.02313149783467906,0.09740101331113918,40.106058693909645,-92.24360919585227,84.22370748782159
2024-09-23 17:27:25.399164,42.18,38.691891,-0.0030344509719951677,-0.02313149783467906,0.09725178296655933,36.09446859390736,-88.23529758782387,84.22370748782159
2024-09-23 17:27:25.441667,42.18,38.691942,-0.0034324103296106863,-0.02313149783467906,0.09740101331113918,36.09446859390736,-88.23529758782387,80.21211738781929
2024-09-23 17:27:25.453731,42.18,38.691942,-0.0034324103296106863,-0.02313149783467906,0.09740101331113918,40.106058693909645,-88.23529758782387,80.21211738781929
2024-09-23 17:27:25.486028,42.18,38.691942,-0.0034324103296106863,-0.02313149783467906,0.09740101331113918,40.106058693909645,-88.23529758782387,80.21211738781929
2024-09-23 17:27:25.498340,42.18,38.691992,-0.0029349636958644295,-0.023429960042815445,0.09725178296655933,40.106058693909645,-88.23529758782387,80.21211738781929
2024-09-23 17:27:25.541665,42.18,38.692043,-0.0029349636958644295,-0.02352945757203875,0.09725178296655933,44.11764879391193,-96.25519929585457,76.200527287817
2024-09-23 17:27:25.583924,42.18,38.692043,-0.0029349636958644295,-0.02352945757203875,0.09725178296655933,40.106058693909645,-92.24360919585227,76.200527287817
2024-09-23 17:27:25.596054,42.18,38.692094,-0.0029349636958644295,-0.02352945757203875,0.09725178296655933,40.106058693909645,-92.24360919585227,80.21211738781929
2024-09-23 17:27:25.638631,42.18,38.692181,-0.0029349636958644295,-0.02352945757203875,0.09740101331113918,40.106058693909645,-92.24360919585227,80.21211738781929
2024-09-23 17:27:25.681062,42.18,38.692181,-0.0033329230534799477,-0.023728432883788564,0.09764974270391902,40.106058693909645,-92.24360919585227,80.21211738781929
2024-09-23 17:27:25.692339,42.18,38.692181,-0.0033329230534799477,-0.023728432883788564,0.09764974270391902,44.11764879391193,-96.25519929585457,72.1922225099802
2024-09-23 17:27:25.734687,42.18,38.692232,-0.002785727465249955,-0.02338022115155219,0.09720203344245934,36.09446859390736,-96.25519929585457,72.1922225099802
2024-09-23 17:27:25.746679,42.18,38.692232,-0.002785727465249955,-0.02338022115155219,0.09720203344245934,36.09446859390736,-96.25519929585457,72.1922225099802
2024-09-23 17:27:25.779226,42.18,38.692283,-0.0030344509719951677,-0.02338022115155219,0.09720203344245934,36.09446859390736,-96.25519929585457,84.22370748782159
2024-09-23 17:27:25.791093,42.18,38.692283,-0.0030344509719951677,-0.02278327698858263,0.09720203344245934,36.09446859390736,-96.25519929585457,84.22370748782159
2024-09-23 17:27:25.834260,42.18,38.692283,-0.0030344509719951677,-0.02278327698858263,0.09710254654607277,36.09446859390736,-96.25519929585457,84.22370748782159
2024-09-23 17:27:25.876381,42.18,38.692283,-0.0030344509719951677,-0.02278327698858263,0.09710254654607277,32.08287849390507,-88.23529758782387,80.21211738781929
2024-09-23 17:27:25.888542,42.18,38.692334,-0.0029349636958644295,-0.02367869399252531,0.09710254654607277,32.08287849390507,-88.23529758782387,80.21211738781929
2024-09-23 17:27:25.931710,42.18,38.692384,-0.0026862297461545674,-0.02367869399252531,0.09764974270391902,40.106058693909645,-104.27510100388527,76.200527287817
2024-09-23 17:27:25.974348,42.18,38.692384,-0.0026862297461545674,-0.023479709566915436,0.09705279702197278,36.09446859390736,-104.27510100388527,76.200527287817
2024-09-23 17:27:25.985478,42.18,38.692435,-0.0026862297461545674,-0.023479709566915436,0.09705279702197278,36.09446859390736,-96.25519929585457,76.200527287817
2024-09-23 17:27:26.029038,42.15,38.692435,-0.002785727465249955,-0.024026904205785005,0.09690356060148622,40.106058693909645,-100.26678939585686,80.21211738781929
2024-09-23 17:27:26.071239,42.15,38.692522,-0.0030344509719951677,-0.023330473146428877,0.09690356060148622,40.106058693909645,-100.26678939585686,80.21211738781929
2024-09-23 17:27:26.083100,42.15,38.692522,-0.0030344509719951677,-0.023330473146428877,0.09759999317981902,32.08287849390507,-92.24360919585227,80.21211738781929
2024-09-23 17:27:26.126208,42.15,38.692621,-0.0028852147413806935,-0.02338022115155219,0.0970030596496862,44.11764879391193,-92.24360919585227,80.21211738781929
2024-09-23 17:27:26.169313,42.15,38.692672,-0.0028852147413806935,-0.02338022115155219,0.0970030596496862,44.11764879391193,-96.25519929585457,76.200527287817
2024-09-23 17:27:26.181210,42.15,38.692672,-0.002785727465249955,-0.02338022115155219,0.09705279702197278,44.11764879391193,-96.25519929585457,76.200527287817
2024-09-23 17:27:26.224394,42.15,38.692722,-0.0030344509719951677,-0.023429960042815445,0.09705279702197278,40.106058693909645,-100.26678939585686,76.200527287817
2024-09-23 17:27:26.267871,42.15,38.692722,-0.0030344509719951677,-0.023429960042815445,0.09710254654607277,48.12595698684454,-96.25519929585457,80.21211738781929
2024-09-23 17:27:26.279603,42.15,38.692774,-0.0029349636958644295,-0.023429960042815445,0.09710254654607277,48.12595698684454,-96.25519929585457,80.21211738781929
2024-09-23 17:27:26.311501,42.15,38.692774,-0.0029349636958644295,-0.023330473146428877,0.09710254654607277,48.12595698684454,-96.25519929585457,80.21211738781929
2024-09-23 17:27:26.323106,42.15,38.692863,-0.0029349636958644295,-0.023330473146428877,0.09680407370509965,28.07457030097246,-96.25519929585457,72.1922225099802
2024-09-23 17:27:26.365271,42.15,38.692863,-0.0029847020175114316,-0.02338022115155219,0.09710254654607277,28.07457030097246,-96.25519929585457,72.1922225099802
2024-09-23 17:27:26.377067,42.15,38.692863,-0.0029847020175114316,-0.02338022115155219,0.09710254654607277,36.09446859390736,-96.25519929585457,68.18063240997792
2024-09-23 17:27:26.409339,42.15,38.692915,-0.0029847020175114316,-0.02338022115155219,0.09710254654607277,36.09446859390736,-96.25519929585457,68.18063240997792
2024-09-23 17:27:26.421783,42.15,38.692915,-0.0027359787006383035,-0.02338022115155219,0.09710254654607277,36.09446859390736,-96.25519929585457,68.18063240997792
2024-09-23 17:27:26.464801,42.15,38.692915,-0.0027359787006383035,-0.02352945757203875,0.09710254654607277,44.11764879391193,-104.27510100388527,68.18063240997792
2024-09-23 17:27:26.477232,42.15,38.692966,-0.0027359787006383035,-0.02352945757203875,0.09710254654607277,44.11764879391193,-104.27510100388527,68.18063240997792
2024-09-23 17:27:26.509015,42.15,38.692966,-0.002586742470023829,-0.023280723622328886,0.09710254654607277,44.11764879391193,-104.27510100388527,68.18063240997792
2024-09-23 17:27:26.520596,42.15,38.692966,-0.002586742470023829,-0.023280723622328886,0.09740101331113918,28.07457030097246,-100.26678939585686,72.1922225099802
2024-09-23 17:27:26.565853,42.15,38.693017,-0.0034324103296106863,-0.023330473146428877,0.09740101331113918,36.09446859390736,-92.24360919585227,72.1922225099802
2024-09-23 17:27:26.608886,42.15,38.693067,-0.0028354659767690416,-0.022833026512682618,0.09740101331113918,36.09446859390736,-92.24360919585227,76.200527287817
2024-09-23 17:27:26.620469,42.15,38.693067,-0.0028354659767690416,-0.022833026512682618,0.09750050628343246,48.12595698684454,-92.24360919585227,76.200527287817
2024-09-23 17:27:26.652840,42.15,38.693067,-0.0028354659767690416,-0.022833026512682618,0.09750050628343246,48.12595698684454,-96.25519929585457,76.200527287817
2024-09-23 17:27:26.664182,42.15,38.693118,-0.0029349636958644295,-0.02313149783467906,0.09779897304849887,48.12595698684454,-96.25519929585457,76.200527287817
2024-09-23 17:27:26.706932,42.15,38.693118,-0.0029349636958644295,-0.02313149783467906,0.09779897304849887,44.11764879391193,-96.25519929585457,80.21211738781929
2024-09-23 17:27:26.718581,42.15,38.693207,-0.0031339382481259063,-0.02338022115155219,0.09779897304849887,44.11764879391193,-96.25519929585457,80.21211738781929
2024-09-23 17:27:26.750672,42.15,38.693207,-0.0031339382481259063,-0.02338022115155219,0.09705279702197278,44.11764879391193,-96.25519929585457,80.21211738781929
2024-09-23 17:27:26.762076,42.15,38.693257,-0.0028852147413806935,-0.02338022115155219,0.09705279702197278,40.106058693909645,-96.25519929585457,76.200527287817
2024-09-23 17:27:26.804916,42.15,38.693257,-0.0028852147413806935,-0.023330473146428877,0.09695331012558621,36.09446859390736,-100.26678939585686,76.200527287817
2024-09-23 17:27:26.816824,42.15,38.693351,-0.0028852147413806935,-0.023330473146428877,0.09695331012558621,36.09446859390736,-100.26678939585686,80.21211738781929
2024-09-23 17:27:26.850316,42.15,38.693351,-0.0033329230534799477,-0.022982261414192504,0.09695331012558621,36.09446859390736,-100.26678939585686,80.21211738781929
2024-09-23 17:27:26.861626,42.15,38.693351,-0.0033329230534799477,-0.022982261414192504,0.09794820946898543,44.11764879391193,-92.24360919585227,80.21211738781929
2024-09-23 17:27:26.905195,42.15,38.693402,-0.002785727465249955,-0.02308174982955575,0.09715228999426605,40.106058693909645,-92.24360919585227,80.21211738781929
2024-09-23 17:27:26.947464,42.15,38.693453,-0.002785727465249955,-0.02308174982955575,0.09715228999426605,40.106058693909645,-92.24360919585227,80.21211738781929
2024-09-23 17:27:26.959565,42.15,38.693453,-0.0029847020175114316,-0.023827930413011865,0.09705279702197278,36.09446859390736,-92.24360919585227,80.21211738781929
2024-09-23 17:27:27.002153,42.15,38.693504,-0.0031339382481259063,-0.02367869399252531,0.09755024973162574,36.09446859390736,-96.25519929585457,76.200527287817
2024-09-23 17:27:27.045820,42.29,38.693504,-0.0031339382481259063,-0.02367869399252531,0.09755024973162574,48.12595698684454,-92.24360919585227,76.200527287817
2024-09-23 17:27:27.057479,42.29,38.693554,-0.002636491424507565,-0.023330473146428877,0.09755024973162574,48.12595698684454,-92.24360919585227,72.1922225099802
2024-09-23 17:27:27.100895,42.29,38.693605,-0.003482159473966507,-0.023330473146428877,0.09755024973162574,48.12595698684454,-96.25519929585457,76.200527287817
2024-09-23 17:27:27.143298,42.29,38.693605,-0.003482159473966507,-0.023280723622328886,0.0973512698629459,48.12595698684454,-96.25519929585457,76.200527287817
2024-09-23 17:27:27.155025,42.29,38.693692,-0.003482159473966507,-0.023280723622328886,0.0973512698629459,40.106058693909645,-92.24360919585227,72.1922225099802
2024-09-23 17:27:27.198348,42.29,38.693692,-0.0024872551938930902,-0.0225345536717095,0.09725178296655933,40.106058693909645,-96.25519929585457,80.21211738781929
2024-09-23 17:27:27.240450,42.29,38.693744,-0.0029349636958644295,-0.0225345536717095,0.09725178296655933,40.106058693909645,-96.25519929585457,80.21211738781929
2024-09-23 17:27:27.251818,42.29,38.693744,-0.0029349636958644295,-0.023778180888911878,0.09715228999426605,52.137550501942634,-100.26678939585686,80.21211738781929
2024-09-23 17:27:27.295792,42.29,38.693794,-0.0031339382481259063,-0.023330473146428877,0.09715228999426605,40.106058693909645,-100.26678939585686,80.21211738781929
2024-09-23 17:27:27.337845,42.29,38.693794,-0.0031339382481259063,-0.023330473146428877,0.09715228999426605,40.106058693909645,-84.22370748782159,84.22370748782159
2024-09-23 17:27:27.349053,42.29,38.693845,-0.003631395514708897,-0.02303200030545576,0.09665483728461309,40.106058693909645,-84.22370748782159,84.22370748782159
2024-09-23 17:27:27.391908,42.29,38.693896,-0.003631395514708897,-0.02303200030545576,0.09665483728461309,40.106058693909645,-88.23529758782387,84.22370748782159
2024-09-23 17:27:27.404709,42.29,38.693896,-0.0029847020175114316,-0.023181236725942318,0.09665483728461309,40.106058693909645,-88.23529758782387,84.22370748782159
2024-09-23 17:27:27.437476,42.29,38.693896,-0.0029847020175114316,-0.023181236725942318,0.09695331012558621,48.12595698684454,-92.24360919585227,84.22370748782159
2024-09-23 17:27:27.448616,42.29,38.693946,-0.002586742470023829,-0.023181236725942318,0.09695331012558621,48.12595698684454,-92.24360919585227,80.21211738781929
2024-09-23 17:27:27.490983,42.29,38.694034,-0.002586742470023829,-0.023778180888911878,0.09695331012558621,40.106058693909645,-96.25519929585457,76.200527287817
2024-09-23 17:27:27.532820,42.29,38.694034,-0.0029847020175114316,-0.02367869399252531,0.09695331012558621,40.106058693909645,-96.25519929585457,76.200527287817
2024-09-23 17:27:27.544364,42.29,38.694034,-0.0029847020175114316,-0.02367869399252531,0.09690356060148622,48.12595698684454,-100.26678939585686,76.200527287817
2024-09-23 17:27:27.587968,42.29,38.694085,-0.0030344509719951677,-0.023429960042815445,0.0970030596496862,40.106058693909645,-92.24360919585227,76.200527287817
2024-09-23 17:27:27.630618,42.29,38.694136,-0.0030344509719951677,-0.023429960042815445,0.0970030596496862,40.106058693909645,-92.24360919585227,76.200527287817
2024-09-23 17:27:27.641839,42.29,38.694136,-0.0030841997366068195,-0.023778180888911878,0.09685382322919964,36.09446859390736,-92.24360919585227,76.200527287817
2024-09-23 17:27:27.685031,42.29,38.694187,-0.0030344509719951677,-0.02308174982955575,0.09755024973162574,36.09446859390736,-96.25519929585457,76.200527287817
2024-09-23 17:27:27.727413,42.29,38.694187,-0.0030344509719951677,-0.02308174982955575,0.09755024973162574,36.09446859390736,-104.27510100388527,76.200527287817
2024-09-23 17:27:27.738797,42.29,38.694238,-0.002785727465249955,-0.02278327698858263,0.09755024973162574,36.09446859390736,-104.27510100388527,84.22370748782159
2024-09-23 17:27:27.781443,42.29,38.694289,-0.002785727465249955,-0.02278327698858263,0.09690356060148622,36.09446859390736,-92.24360919585227,84.22370748782159
2024-09-23 17:27:27.793739,42.29,38.694289,-0.002636491424507565,-0.02278327698858263,0.09690356060148622,36.09446859390736,-92.24360919585227,84.22370748782159
2024-09-23 17:27:27.827085,42.29,38.694289,-0.002636491424507565,-0.024076653729884996,0.09725178296655933,48.12595698684454,-92.24360919585227,84.22370748782159
2024-09-23 17:27:27.838672,42.29,38.694375,-0.002636491424507565,-0.024076653729884996,0.09725178296655933,48.12595698684454,-96.25519929585457,76.200527287817
2024-09-23 17:27:27.872688,42.29,38.694375,-0.0029847020175114316,-0.024076653729884996,0.09725178296655933,48.12595698684454,-96.25519929585457,76.200527287817
2024-09-23 17:27:27.883523,42.29,38.694375,-0.0029847020175114316,-0.023429960042815445,0.09725178296655933,40.106058693909645,-92.24360919585227,72.1922225099802
2024-09-23 17:27:27.926927,42.29,38.694426,-0.0028852147413806935,-0.0228827638849692,0.09720203344245934,40.106058693909645,-92.24360919585227,72.1922225099802
2024-09-23 17:27:27.938114,42.29,38.694426,-0.0028852147413806935,-0.0228827638849692,0.09720203344245934,32.08287849390507,-96.25519929585457,72.1922225099802
2024-09-23 17:27:27.970229,42.29,38.694426,-0.0028852147413806935,-0.0228827638849692,0.09720203344245934,32.08287849390507,-96.25519929585457,76.200527287817
2024-09-23 17:27:27.981264,42.29,38.694477,-0.003382661564999035,-0.02352945757203875,0.09720203344245934,28.07457030097246,-96.25519929585457,76.200527287817
2024-09-23 17:27:28.023453,42.29,38.694527,-0.002785727465249955,-0.02352945757203875,0.09720203344245934,28.07457030097246,-96.25519929585457,80.21211738781929
2024-09-23 17:27:28.036287,42.29,38.694527,-0.002785727465249955,-0.02308174982955575,0.09745075675933246,28.07457030097246,-96.25519929585457,80.21211738781929
2024-09-23 17:27:28.069578,42.37,38.694527,-0.002785727465249955,-0.02308174982955575,0.09745075675933246,36.09446859390736,-108.28669110388756,80.21211738781929
2024-09-23 17:27:28.081223,42.37,38.694578,-0.0028354659767690416,-0.02338022115155219,0.09745075675933246,36.09446859390736,-108.28669110388756,72.1922225099802
2024-09-23 17:27:28.123869,42.37,38.694629,-0.0028354659767690416,-0.02338022115155219,0.09725178296655933,40.106058693909645,-92.24360919585227,76.200527287817
2024-09-23 17:27:28.135635,42.37,38.694629,-0.0030344509719951677,-0.02338022115155219,0.09725178296655933,40.106058693909645,-92.24360919585227,76.200527287817
2024-09-23 17:27:28.170455,42.37,38.694629,-0.0030344509719951677,-0.023429960042815445,0.09705279702197278,40.106058693909645,-92.24360919585227,76.200527287817
2024-09-23 17:27:28.182156,42.37,38.694716,-0.0030344509719951677,-0.023429960042815445,0.09705279702197278,40.106058693909645,-96.25519929585457,80.21211738781929
2024-09-23 17:27:28.215192,42.37,38.694716,-0.0029847020175114316,-0.023579196463302005,0.09705279702197278,40.106058693909645,-96.25519929585457,80.21211738781929
2024-09-23 17:27:28.226193,42.37,38.694716,-0.0029847020175114316,-0.023579196463302005,0.09675432418099966,40.106058693909645,-96.25519929585457,76.200527287817
2024-09-23 17:27:28.269899,42.37,38.694767,-0.0024872551938930902,-0.0228827638849692,0.09759999317981902,44.11764879391193,-92.24360919585227,76.200527287817
2024-09-23 17:27:28.312507,42.37,38.694818,-0.0024872551938930902,-0.0228827638849692,0.09759999317981902,44.11764879391193,-92.24360919585227,80.21211738781929
2024-09-23 17:27:28.324220,42.37,38.694818,-0.0031836870127375577,-0.022833026512682618,0.09750050628343246,36.09446859390736,-92.24360919585227,80.21211738781929
2024-09-23 17:27:28.366815,42.37,38.694869,-0.0030841997366068195,-0.02367869399252531,0.09750050628343246,36.09446859390736,-92.24360919585227,80.21211738781929
2024-09-23 17:27:28.379545,42.37,38.694869,-0.0030841997366068195,-0.02367869399252531,0.0973512698629459,36.09446859390736,-92.24360919585227,80.21211738781929
2024-09-23 17:27:28.411622,42.37,38.694869,-0.0030841997366068195,-0.02367869399252531,0.0973512698629459,44.11764879391193,-96.25519929585457,80.21211738781929
2024-09-23 17:27:28.422563,42.37,38.694919,-0.0031339382481259063,-0.022584292562972758,0.0973512698629459,44.11764879391193,-96.25519929585457,76.200527287817
2024-09-23 17:27:28.465134,42.37,38.69497,-0.0036811340262279837,-0.022584292562972758,0.09715228999426605,48.12595698684454,-96.25519929585457,76.200527287817
2024-09-23 17:27:28.508138,42.37,38.69497,-0.0036811340262279837,-0.023280723622328886,0.09720203344245934,48.12595698684454,-96.25519929585457,76.200527287817
2024-09-23 17:27:28.519510,42.37,38.695057,-0.0036811340262279837,-0.023280723622328886,0.09720203344245934,40.106058693909645,-92.24360919585227,80.21211738781929
2024-09-23 17:27:28.561854,42.37,38.695057,-0.002785727465249955,-0.023330473146428877,0.09740101331113918,48.12595698684454,-104.27510100388527,80.21211738781929
2024-09-23 17:27:28.573933,42.37,38.695057,-0.002785727465249955,-0.023330473146428877,0.09740101331113918,48.12595698684454,-104.27510100388527,76.200527287817
2024-09-23 17:27:28.606313,42.37,38.695109,-0.0030344509719951677,-0.023280723622328886,0.09740101331113918,48.12595698684454,-104.27510100388527,76.200527287817
2024-09-23 17:27:28.617293,42.37,38.695109,-0.0030344509719951677,-0.023280723622328886,0.0973015264147526,40.106058693909645,-96.25519929585457,76.200527287817
2024-09-23 17:27:28.660021,42.37,38.695159,-0.0036811340262279837,-0.023230986250042305,0.09670458680871308,32.08287849390507,-96.25519929585457,76.200527287817
2024-09-23 17:27:28.702267,42.37,38.695159,-0.0036811340262279837,-0.023230986250042305,0.09670458680871308,32.08287849390507,-92.24360919585227,76.200527287817
2024-09-23 17:27:28.713807,42.37,38.69521,-0.002586742470023829,-0.023479709566915436,0.09764974270391902,32.08287849390507,-92.24360919585227,76.200527287817
2024-09-23 17:27:28.755861,42.37,38.695261,-0.0038303700669703737,-0.023479709566915436,0.09764974270391902,40.106058693909645,-100.26678939585686,80.21211738781929
2024-09-23 17:27:28.767967,42.37,38.695261,-0.0038303700669703737,-0.02338022115155219,0.09764974270391902,40.106058693909645,-100.26678939585686,80.21211738781929
2024-09-23 17:27:28.800329,42.37,38.695261,-0.0038303700669703737,-0.02338022115155219,0.09764974270391902,40.106058693909645,-100.26678939585686,80.21211738781929
2024-09-23 17:27:28.811461,42.37,38.695311,-0.003233425524256645,-0.02338022115155219,0.09764974270391902,44.11764879391193,-100.26678939585686,72.1922225099802
2024-09-23 17:27:28.854532,42.37,38.695311,-0.003233425524256645,-0.02367869399252531,0.09715228999426605,44.11764879391193,-92.24360919585227,72.1922225099802
2024-09-23 17:27:28.866452,42.37,38.695398,-0.003233425524256645,-0.02367869399252531,0.09715228999426605,44.11764879391193,-92.24360919585227,72.1922225099802
2024-09-23 17:27:28.899168,42.37,38.695398,-0.0030344509719951677,-0.0228827638849692,0.0970030596496862,44.11764879391193,-92.24360919585227,72.1922225099802
2024-09-23 17:27:28.910637,42.37,38.695398,-0.0030344509719951677,-0.0228827638849692,0.0970030596496862,40.106058693909645,-96.25519929585457,72.1922225099802
2024-09-23 17:27:28.953481,42.37,38.69545,-0.002636491424507565,-0.023330473146428877,0.0970030596496862,44.11764879391193,-104.27510100388527,72.1922225099802
2024-09-23 17:27:28.996026,42.37,38.695501,-0.0027359787006383035,-0.023330473146428877,0.0970030596496862,44.11764879391193,-104.27510100388527,64.16903547978401
2024-09-23 17:27:29.008132,42.37,38.695501,-0.0027359787006383035,-0.0228827638849692,0.09755024973162574,36.09446859390736,-104.27510100388527,64.16903547978401
2024-09-23 17:27:29.052201,42.37,38.695551,-0.0023380189632786156,-0.023579196463302005,0.0973512698629459,36.09446859390736,-96.25519929585457,72.1922225099802
2024-09-23 17:27:29.094614,42.52,38.695551,-0.0023380189632786156,-0.023579196463302005,0.0973512698629459,40.106058693909645,-92.24360919585227,80.21211738781929
2024-09-23 17:27:29.105834,42.52,38.695602,-0.0030344509719951677,-0.02313149783467906,0.0973512698629459,40.106058693909645,-92.24360919585227,80.21211738781929
2024-09-23 17:27:29.148894,42.52,38.695653,-0.0029349636958644295,-0.02313149783467906,0.09705279702197278,40.106058693909645,-96.25519929585457,84.22370748782159
2024-09-23 17:27:29.191935,42.52,38.695653,-0.0029349636958644295,-0.02352945757203875,0.09710254654607277,52.137550501942634,-96.25519929585457,84.22370748782159
2024-09-23 17:27:29.203058,42.52,38.69574,-0.0029349636958644295,-0.02352945757203875,0.09710254654607277,52.137550501942634,-100.26678939585686,72.1922225099802
2024-09-23 17:27:29.245786,42.52,38.69574,-0.0029349636958644295,-0.023429960042815445,0.09705279702197278,52.137550501942634,-100.26678939585686,76.200527287817
2024-09-23 17:27:29.289244,42.52,38.695791,-0.0030344509719951677,-0.023429960042815445,0.09705279702197278,52.137550501942634,-100.26678939585686,76.200527287817
2024-09-23 17:27:29.300307,42.52,38.695791,-0.0030344509719951677,-0.023230986250042305,0.09745075675933246,48.12595698684454,-100.26678939585686,76.200527287817
2024-09-23 17:27:29.342776,42.52,38.695842,-0.0028852147413806935,-0.02352945757203875,0.09715228999426605,44.11764879391193,-100.26678939585686,76.200527287817
2024-09-23 17:27:29.384531,42.52,38.695842,-0.0028852147413806935,-0.02352945757203875,0.09715228999426605,44.11764879391193,-92.24360919585227,80.21211738781929
2024-09-23 17:27:29.396459,42.52,38.695892,-0.0028354659767690416,-0.023479709566915436,0.09774922960030558,44.11764879391193,-92.24360919585227,80.21211738781929
2024-09-23 17:27:29.439290,42.52,38.695943,-0.0030344509719951677,-0.023479709566915436,0.09774922960030558,44.11764879391193,-88.23529758782387,84.22370748782159
2024-09-23 17:27:29.451080,42.52,38.695943,-0.0030344509719951677,-0.02338022115155219,0.09774922960030558,44.11764879391193,-88.23529758782387,84.22370748782159
2024-09-23 17:27:29.482866,42.52,38.695943,-0.0030344509719951677,-0.02338022115155219,0.09705279702197278,36.09446859390736,-88.23529758782387,84.22370748782159
2024-09-23 17:27:29.494875,42.52,38.695994,-0.0027359787006383035,-0.02338022115155219,0.09705279702197278,36.09446859390736,-92.24360919585227,80.21211738781929
2024-09-23 17:27:29.538293,42.52,38.696081,-0.0027359787006383035,-0.023827930413011865,0.09715228999426605,28.07457030097246,-100.26678939585686,80.21211738781929
2024-09-23 17:27:29.579980,42.52,38.696081,-0.0030344509719951677,-0.023429960042815445,0.09715228999426605,28.07457030097246,-100.26678939585686,80.21211738781929
2024-09-23 17:27:29.591227,42.52,38.696081,-0.0030344509719951677,-0.023429960042815445,0.09695331012558621,40.106058693909645,-92.24360919585227,76.200527287817
2024-09-23 17:27:29.632988,42.52,38.696132,-0.0030344509719951677,-0.023479709566915436,0.09685382322919964,40.106058693909645,-92.24360919585227,76.200527287817
2024-09-23 17:27:29.645067,42.52,38.696132,-0.0030344509719951677,-0.023479709566915436,0.09685382322919964,40.106058693909645,-100.26678939585686,76.200527287817
2024-09-23 17:27:29.678109,42.52,38.696183,-0.0030344509719951677,-0.023479709566915436,0.09685382322919964,40.106058693909645,-100.26678939585686,76.200527287817
2024-09-23 17:27:29.689060,42.52,38.696183,-0.003382661564999035,-0.023230986250042305,0.09655535038822652,40.106058693909645,-100.26678939585686,76.200527287817
2024-09-23 17:27:29.731476,42.52,38.696234,-0.0028354659767690416,-0.023579196463302005,0.09655535038822652,40.106058693909645,-88.23529758782387,92.24360919585227
2024-09-23 17:27:29.743301,42.52,38.696234,-0.0028354659767690416,-0.023579196463302005,0.09670458680871308,40.106058693909645,-88.23529758782387,92.24360919585227
2024-09-23 17:27:29.776227,42.52,38.696234,-0.0028354659767690416,-0.023579196463302005,0.09670458680871308,36.09446859390736,-96.25519929585457,92.24360919585227
2024-09-23 17:27:29.787416,42.52,38.696284,-0.0028354659767690416,-0.022982261414192504,0.09670458680871308,36.09446859390736,-96.25519929585457,84.22370748782159
2024-09-23 17:27:29.830114,42.52,38.696335,-0.0029847020175114316,-0.022982261414192504,0.0973512698629459,44.11764879391193,-104.27510100388527,76.200527287817
2024-09-23 17:27:29.872786,42.52,38.696335,-0.0029847020175114316,-0.022982261414192504,0.09715228999426605,44.11764879391193,-104.27510100388527,76.200527287817
2024-09-23 17:27:29.884898,42.52,38.696422,-0.0029847020175114316,-0.022982261414192504,0.09715228999426605,44.11764879391193,-88.23529758782387,84.22370748782159
2024-09-23 17:27:29.927650,42.52,38.696422,-0.0033329230534799477,-0.02278327698858263,0.09705279702197278,44.11764879391193,-88.23529758782387,76.200527287817
2024-09-23 17:27:29.969742,42.52,38.696474,-0.0033329230534799477,-0.02278327698858263,0.09705279702197278,44.11764879391193,-88.23529758782387,76.200527287817
2024-09-23 17:27:29.981066,42.52,38.696474,-0.0033329230534799477,-0.02303200030545576,0.09759999317981902,44.11764879391193,-96.25519929585457,76.200527287817
2024-09-23 17:27:30.024077,42.52,38.696525,-0.0032831742888682963,-0.023181236725942318,0.09690356060148622,44.11764879391193,-96.25519929585457,72.1922225099802
2024-09-23 17:27:30.035773,42.52,38.696525,-0.0032831742888682963,-0.023181236725942318,0.09690356060148622,44.11764879391193,-96.25519929585457,72.1922225099802
2024-09-23 17:27:30.067314,42.52,38.696525,-0.0032831742888682963,-0.023181236725942318,0.09690356060148622,44.11764879391193,-96.25519929585457,80.21211738781929
2024-09-23 17:27:30.078919,42.52,38.696576,-0.003382661564999035,-0.02352945757203875,0.09695331012558621,44.11764879391193,-96.25519929585457,80.21211738781929
2024-09-23 17:27:30.121290,42.57,38.696626,-0.0028852147413806935,-0.02352945757203875,0.09695331012558621,40.106058693909645,-92.24360919585227,76.200527287817
2024-09-23 17:27:30.133543,42.57,38.696626,-0.0028852147413806935,-0.022733528983459317,0.09695331012558621,40.106058693909645,-92.24360919585227,76.200527287817
2024-09-23 17:27:30.166800,42.57,38.696626,-0.0028852147413806935,-0.022733528983459317,0.0970030596496862,40.106058693909645,-100.26678939585686,76.200527287817
2024-09-23 17:27:30.178359,42.57,38.696677,-0.0028852147413806935,-0.022733528983459317,0.0970030596496862,40.106058693909645,-100.26678939585686,72.1922225099802
2024-09-23 17:27:30.220610,42.57,38.696677,-0.003482159473966507,-0.023479709566915436,0.09725178296655933,40.106058693909645,-96.25519929585457,72.1922225099802
2024-09-23 17:27:30.262711,42.57,38.696763,-0.0031339382481259063,-0.023479709566915436,0.09725178296655933,40.106058693909645,-96.25519929585457,72.1922225099802
2024-09-23 17:27:30.274181,42.57,38.696763,-0.0031339382481259063,-0.023230986250042305,0.09755024973162574,44.11764879391193,-96.25519929585457,72.1922225099802
2024-09-23 17:27:30.316876,42.57,38.696815,-0.002785727465249955,-0.023330473146428877,0.09705279702197278,48.12595698684454,-96.25519929585457,72.1922225099802
2024-09-23 17:27:30.360265,42.57,38.696815,-0.002785727465249955,-0.023330473146428877,0.09705279702197278,48.12595698684454,-104.27510100388527,76.200527287817
2024-09-23 17:27:30.371484,42.57,38.696866,-0.0034324103296106863,-0.023280723622328886,0.0973015264147526,48.12595698684454,-104.27510100388527,76.200527287817
2024-09-23 17:27:30.416011,42.57,38.696916,-0.002785727465249955,-0.023181236725942318,0.0973015264147526,40.106058693909645,-96.25519929585457,72.1922225099802
2024-09-23 17:27:30.458700,42.57,38.696916,-0.002785727465249955,-0.023181236725942318,0.09759999317981902,48.12595698684454,-92.24360919585227,72.1922225099802
2024-09-23 17:27:30.470790,42.57,38.696967,-0.0029847020175114316,-0.023181236725942318,0.09759999317981902,48.12595698684454,-92.24360919585227,72.1922225099802
2024-09-23 17:27:30.513429,42.57,38.697056,-0.0029847020175114316,-0.023280723622328886,0.0973512698629459,36.09446859390736,-92.24360919585227,76.200527287817
2024-09-23 17:27:30.558183,42.57,38.697056,-0.002785727465249955,-0.022982261414192504,0.09695331012558621,36.09446859390736,-92.24360919585227,76.200527287817
2024-09-23 17:27:30.569362,42.57,38.697056,-0.002785727465249955,-0.022982261414192504,0.09695331012558621,48.12595698684454,-92.24360919585227,72.1922225099802
2024-09-23 17:27:30.601716,42.57,38.697107,-0.002785727465249955,-0.022982261414192504,0.09695331012558621,48.12595698684454,-92.24360919585227,72.1922225099802
2024-09-23 17:27:30.613261,42.57,38.697107,-0.0027359787006383035,-0.023330473146428877,0.09715228999426605,44.11764879391193,-100.26678939585686,72.1922225099802
2024-09-23 17:27:30.656064,42.57,38.697158,-0.002288270198666964,-0.023330473146428877,0.09715228999426605,44.11764879391193,-100.26678939585686,76.200527287817
2024-09-23 17:27:30.699360,42.57,38.697158,-0.002288270198666964,-0.023728432883788564,0.09715228999426605,44.11764879391193,-100.26678939585686,76.200527287817
2024-09-23 17:27:30.710933,42.57,38.697209,-0.002288270198666964,-0.023728432883788564,0.09740101331113918,48.12595698684454,-92.24360919585227,76.200527287817
2024-09-23 17:27:30.753972,42.57,38.697209,-0.002785727465249955,-0.02308174982955575,0.09690356060148622,40.106058693909645,-92.24360919585227,76.200527287817
2024-09-23 17:27:30.765481,42.57,38.697209,-0.002785727465249955,-0.02308174982955575,0.09690356060148622,40.106058693909645,-96.25519929585457,72.1922225099802
2024-09-23 17:27:30.799224,42.57,38.697259,-0.002785727465249955,-0.02308174982955575,0.09690356060148622,40.106058693909645,-96.25519929585457,72.1922225099802
2024-09-23 17:27:30.810455,42.57,38.697259,-0.0027359787006383035,-0.022733528983459317,0.09685382322919964,40.106058693909645,-92.24360919585227,72.1922225099802
2024-09-23 17:27:30.852660,42.57,38.69731,-0.004128842528199323,-0.022982261414192504,0.09685382322919964,40.106058693909645,-92.24360919585227,76.200527287817
2024-09-23 17:27:30.864196,42.57,38.69731,-0.004128842528199323,-0.022982261414192504,0.09670458680871308,32.08287849390507,-92.24360919585227,76.200527287817
2024-09-23 17:27:30.896723,42.57,38.69731,-0.004128842528199323,-0.022982261414192504,0.09670458680871308,32.08287849390507,-92.24360919585227,80.21211738781929
2024-09-23 17:27:30.908625,42.57,38.697397,-0.0030841997366068195,-0.02313149783467906,0.09764974270391902,32.08287849390507,-92.24360919585227,80.21211738781929
2024-09-23 17:27:30.951572,42.57,38.697449,-0.0033329230534799477,-0.023280723622328886,0.09764974270391902,40.106058693909645,-96.25519929585457,80.21211738781929
2024-09-23 17:27:30.993628,42.57,38.697449,-0.0033329230534799477,-0.023280723622328886,0.0966050877605131,44.11764879391193,-96.25519929585457,80.21211738781929
2024-09-23 17:27:31.004675,42.57,38.697499,-0.002785727465249955,-0.023280723622328886,0.0966050877605131,44.11764879391193,-92.24360919585227,84.22370748782159
2024-09-23 17:27:31.047191,42.57,38.697499,-0.002785727465249955,-0.02367869399252531,0.09710254654607277,44.11764879391193,-100.26678939585686,72.1922225099802
2024-09-23 17:27:31.058948,42.57,38.697592,-0.002785727465249955,-0.02367869399252531,0.09710254654607277,44.11764879391193,-100.26678939585686,72.1922225099802
2024-09-23 17:27:31.091492,42.57,38.697592,-0.003382661564999035,-0.02362894446842532,0.09710254654607277,44.11764879391193,-100.26678939585686,72.1922225099802
2024-09-23 17:27:31.103205,42.57,38.697592,-0.003382661564999035,-0.02362894446842532,0.09715228999426605,44.11764879391193,-96.25519929585457,72.1922225099802
2024-09-23 17:27:31.145295,42.96,38.697644,-0.0029349636958644295,-0.023579196463302005,0.09725178296655933,48.12595698684454,-96.25519929585457,72.1922225099802
2024-09-23 17:27:31.157271,42.96,38.697644,-0.0029349636958644295,-0.023579196463302005,0.09725178296655933,48.12595698684454,-100.26678939585686,72.1922225099802
2024-09-23 17:27:31.190234,42.96,38.697694,-0.0023380189632786156,-0.023579196463302005,0.09725178296655933,48.12595698684454,-100.26678939585686,76.200527287817
2024-09-23 17:27:31.202023,42.96,38.697694,-0.0023380189632786156,-0.023280723622328886,0.09745075675933246,40.106058693909645,-100.26678939585686,76.200527287817
2024-09-23 17:27:31.245792,42.96,38.697745,-0.0028354659767690416,-0.023579196463302005,0.09725178296655933,40.106058693909645,-96.25519929585457,72.1922225099802
2024-09-23 17:27:31.289005,42.96,38.697796,-0.0028354659767690416,-0.023579196463302005,0.09725178296655933,40.106058693909645,-92.24360919585227,76.200527287817
2024-09-23 17:27:31.300333,42.96,38.697796,-0.0031339382481259063,-0.023778180888911878,0.09725178296655933,40.106058693909645,-92.24360919585227,76.200527287817
2024-09-23 17:27:31.342397,42.96,38.697847,-0.0036811340262279837,-0.023778180888911878,0.09740101331113918,40.106058693909645,-96.25519929585457,72.1922225099802
2024-09-23 17:27:31.386628,42.96,38.697847,-0.0036811340262279837,-0.023429960042815445,0.09755024973162574,40.106058693909645,-96.25519929585457,72.1922225099802
2024-09-23 17:27:31.398066,42.96,38.697933,-0.0036811340262279837,-0.023429960042815445,0.09755024973162574,40.106058693909645,-96.25519929585457,80.21211738781929
2024-09-23 17:27:31.430227,42.96,38.697933,-0.0028354659767690416,-0.023429960042815445,0.09755024973162574,40.106058693909645,-96.25519929585457,80.21211738781929
2024-09-23 17:27:31.441733,42.96,38.697933,-0.0028354659767690416,-0.02313149783467906,0.0973512698629459,36.09446859390736,-100.26678939585686,76.200527287817
2024-09-23 17:27:31.484602,42.96,38.697985,-0.0030841997366068195,-0.022733528983459317,0.0973512698629459,36.09446859390736,-100.26678939585686,76.200527287817
2024-09-23 17:27:31.496470,42.96,38.697985,-0.0030841997366068195,-0.022733528983459317,0.0973512698629459,44.11764879391193,-96.25519929585457,76.200527287817
2024-09-23 17:27:31.529247,42.96,38.697985,-0.0030841997366068195,-0.022733528983459317,0.0973512698629459,44.11764879391193,-96.25519929585457,76.200527287817
2024-09-23 17:27:31.540825,42.96,38.698036,-0.002785727465249955,-0.022982261414192504,0.09705279702197278,36.09446859390736,-96.25519929585457,76.200527287817
2024-09-23 17:27:31.583420,42.96,38.698086,-0.0030841997366068195,-0.023429960042815445,0.09705279702197278,36.09446859390736,-88.23529758782387,72.1922225099802
2024-09-23 17:27:31.594963,42.96,38.698086,-0.0030841997366068195,-0.023429960042815445,0.09715228999426605,36.09446859390736,-88.23529758782387,72.1922225099802
2024-09-23 17:27:31.627898,42.96,38.698086,-0.0030841997366068195,-0.023429960042815445,0.09715228999426605,40.106058693909645,-92.24360919585227,72.1922225099802
2024-09-23 17:27:31.639328,42.96,38.698137,-0.0032831742888682963,-0.023280723622328886,0.09715228999426605,40.106058693909645,-92.24360919585227,72.1922225099802
2024-09-23 17:27:31.683304,42.96,38.698188,-0.0027359787006383035,-0.023280723622328886,0.09715228999426605,48.12595698684454,-100.26678939585686,72.1922225099802
2024-09-23 17:27:31.725033,42.96,38.698188,-0.0027359787006383035,-0.02313149783467906,0.09745075675933246,48.12595698684454,-100.26678939585686,72.1922225099802
2024-09-23 17:27:31.736150,42.96,38.698275,-0.0027359787006383035,-0.02313149783467906,0.09745075675933246,44.11764879391193,-92.24360919585227,76.200527287817
2024-09-23 17:27:31.778752,42.96,38.698275,-0.0028852147413806935,-0.02338022115155219,0.09740101331113918,40.106058693909645,-96.25519929585457,76.200527287817
2024-09-23 17:27:31.790327,42.96,38.698275,-0.0028852147413806935,-0.02338022115155219,0.09740101331113918,40.106058693909645,-96.25519929585457,76.200527287817
2024-09-23 17:27:31.822404,42.96,38.698326,-0.0029847020175114316,-0.02338022115155219,0.09740101331113918,40.106058693909645,-96.25519929585457,76.200527287817
2024-09-23 17:27:31.833843,42.96,38.698326,-0.0029847020175114316,-0.023429960042815445,0.09710254654607277,40.106058693909645,-92.24360919585227,76.200527287817
2024-09-23 17:27:31.878195,42.96,38.698377,-0.0028852147413806935,-0.023230986250042305,0.09720203344245934,36.09446859390736,-92.24360919585227,76.200527287817
2024-09-23 17:27:31.921876,42.96,38.698427,-0.0028852147413806935,-0.023230986250042305,0.09720203344245934,36.09446859390736,-96.25519929585457,84.22370748782159
2024-09-23 17:27:31.933462,42.96,38.698427,-0.0027359787006383035,-0.02362894446842532,0.09755024973162574,36.09446859390736,-96.25519929585457,84.22370748782159
2024-09-23 17:27:31.975825,42.96,38.698478,-0.0032831742888682963,-0.023579196463302005,0.09755024973162574,40.106058693909645,-96.25519929585457,80.21211738781929
2024-09-23 17:27:32.019208,42.96,38.698478,-0.0032831742888682963,-0.023579196463302005,0.0973015264147526,36.09446859390736,-96.25519929585457,80.21211738781929
2024-09-23 17:27:32.030783,42.96,38.698529,-0.002636491424507565,-0.023579196463302005,0.0973015264147526,36.09446859390736,-96.25519929585457,72.1922225099802
2024-09-23 17:27:32.073705,42.96,38.698616,-0.002636491424507565,-0.023429960042815445,0.09685382322919964,36.09446859390736,-96.25519929585457,76.200527287817
2024-09-23 17:27:32.116131,42.96,38.698616,-0.0035318979854855937,-0.0228827638849692,0.0970030596496862,36.09446859390736,-96.25519929585457,76.200527287817
2024-09-23 17:27:32.127337,42.96,38.698616,-0.0035318979854855937,-0.0228827638849692,0.0970030596496862,40.106058693909645,-96.25519929585457,80.21211738781929
2024-09-23 17:27:32.171187,43.17,38.698667,-0.0029847020175114316,-0.023429960042815445,0.09675432418099966,40.106058693909645,-96.25519929585457,80.21211738781929
2024-09-23 17:27:32.215139,43.17,38.698718,-0.003233425524256645,-0.023429960042815445,0.09675432418099966,40.106058693909645,-96.25519929585457,76.200527287817
2024-09-23 17:27:32.226831,43.17,38.698718,-0.003233425524256645,-0.023280723622328886,0.09715228999426605,36.09446859390736,-96.25519929585457,76.200527287817
2024-09-23 17:27:32.269285,43.17,38.698769,-0.003233425524256645,-0.023330473146428877,0.0973015264147526,36.09446859390736,-96.25519929585457,72.1922225099802
2024-09-23 17:27:32.311735,43.17,38.698769,-0.003233425524256645,-0.023330473146428877,0.0973015264147526,40.106058693909645,-92.24360919585227,84.22370748782159
2024-09-23 17:27:32.323394,43.17,38.698819,-0.0030841997366068195,-0.02308174982955575,0.0973015264147526,40.106058693909645,-92.24360919585227,84.22370748782159
2024-09-23 17:27:32.366032,43.17,38.69887,-0.0031836870127375577,-0.02308174982955575,0.09755024973162574,36.09446859390736,-96.25519929585457,80.21211738781929
2024-09-23 17:27:32.409773,43.17,38.69887,-0.0031836870127375577,-0.02362894446842532,0.0966050877605131,44.11764879391193,-96.25519929585457,80.21211738781929
2024-09-23 17:27:32.421422,43.17,38.698957,-0.0031836870127375577,-0.02362894446842532,0.0966050877605131,44.11764879391193,-96.25519929585457,80.21211738781929
2024-09-23 17:27:32.463980,43.17,38.698957,-0.0032831742888682963,-0.023280723622328886,0.09685382322919964,36.09446859390736,-96.25519929585457,76.200527287817
2024-09-23 17:27:32.507150,43.17,38.699009,-0.0032831742888682963,-0.022982261414192504,0.09685382322919964,36.09446859390736,-96.25519929585457,76.200527287817
2024-09-23 17:27:32.518875,43.17,38.699009,-0.0032831742888682963,-0.022982261414192504,0.09720203344245934,36.09446859390736,-96.25519929585457,76.200527287817
2024-09-23 17:27:32.552809,43.17,38.699009,-0.0032831742888682963,-0.022982261414192504,0.09720203344245934,36.09446859390736,-96.25519929585457,76.200527287817
2024-09-23 17:27:32.564660,43.17,38.699059,-0.002785727465249955,-0.023230986250042305,0.0973015264147526,36.09446859390736,-96.25519929585457,76.200527287817
2024-09-23 17:27:32.606936,43.17,38.69911,-0.0029349636958644295,-0.023230986250042305,0.0973015264147526,36.09446859390736,-100.26678939585686,72.1922225099802
2024-09-23 17:27:32.619971,43.17,38.69911,-0.0029349636958644295,-0.023280723622328886,0.09705279702197278,36.09446859390736,-100.26678939585686,72.1922225099802
2024-09-23 17:27:32.652452,43.17,38.69911,-0.0029349636958644295,-0.023280723622328886,0.09705279702197278,36.09446859390736,-100.26678939585686,72.1922225099802
2024-09-23 17:27:32.663723,43.17,38.699161,-0.003382661564999035,-0.023728432883788564,0.09705279702197278,36.09446859390736,-100.26678939585686,72.1922225099802
2024-09-23 17:27:32.706484,43.17,38.699211,-0.0029349636958644295,-0.023728432883788564,0.09705279702197278,44.11764879391193,-100.26678939585686,72.1922225099802
2024-09-23 17:27:32.748351,43.17,38.699211,-0.0029349636958644295,-0.023181236725942318,0.09630662707135339,44.11764879391193,-100.26678939585686,72.1922225099802
2024-09-23 17:27:32.760058,43.17,38.699298,-0.0029349636958644295,-0.023181236725942318,0.09630662707135339,36.09446859390736,-92.24360919585227,80.21211738781929
2024-09-23 17:27:32.802475,43.17,38.699298,-0.003382661564999035,-0.02362894446842532,0.09755024973162574,32.08287849390507,-96.25519929585457,80.21211738781929
2024-09-23 17:27:32.814045,43.17,38.699298,-0.003382661564999035,-0.02362894446842532,0.09755024973162574,32.08287849390507,-96.25519929585457,76.200527287817
2024-09-23 17:27:32.845809,43.17,38.69935,-0.002586742470023829,-0.02362894446842532,0.09755024973162574,32.08287849390507,-96.25519929585457,76.200527287817
2024-09-23 17:27:32.857415,43.17,38.69935,-0.002586742470023829,-0.023877669304275123,0.09705279702197278,40.106058693909645,-92.24360919585227,76.200527287817
2024-09-23 17:27:32.901024,43.17,38.699401,-0.0031836870127375577,-0.023330473146428877,0.09680407370509965,44.11764879391193,-92.24360919585227,72.1922225099802
2024-09-23 17:27:32.943565,43.17,38.699401,-0.0031836870127375577,-0.023330473146428877,0.09680407370509965,44.11764879391193,-96.25519929585457,76.200527287817
2024-09-23 17:27:32.955081,43.17,38.699451,-0.0031339382481259063,-0.02338022115155219,0.09715228999426605,44.11764879391193,-96.25519929585457,76.200527287817
2024-09-23 17:27:32.996824,43.17,38.699502,-0.002785727465249955,-0.02338022115155219,0.09715228999426605,44.11764879391193,-104.27510100388527,76.200527287817
2024-09-23 17:27:33.008963,43.17,38.699502,-0.002785727465249955,-0.023230986250042305,0.09715228999426605,44.11764879391193,-104.27510100388527,76.200527287817
2024-09-23 17:27:33.041113,43.17,38.699502,-0.002785727465249955,-0.023230986250042305,0.09705279702197278,40.106058693909645,-104.27510100388527,76.200527287817
2024-09-23 17:27:33.052797,43.17,38.699552,-0.0031836870127375577,-0.023230986250042305,0.09705279702197278,40.106058693909645,-108.28669110388756,64.16903547978401
2024-09-23 17:27:33.095028,43.17,38.699552,-0.0031836870127375577,-0.023280723622328886,0.09750050628343246,44.11764879391193,-96.25519929585457,76.200527287817
2024-09-23 17:27:33.106592,43.17,38.69964,-0.0031836870127375577,-0.023280723622328886,0.09750050628343246,44.11764879391193,-96.25519929585457,76.200527287817
2024-09-23 17:27:33.138957,43.17,38.69964,-0.0034324103296106863,-0.023280723622328886,0.09750050628343246,44.11764879391193,-96.25519929585457,76.200527287817
2024-09-23 17:27:33.150851,43.17,38.69964,-0.0034324103296106863,-0.02338022115155219,0.0973015264147526,36.09446859390736,-88.23529758782387,80.21211738781929
2024-09-23 17:27:33.192973,43.35,38.699691,-0.0031836870127375577,-0.023280723622328886,0.09720203344245934,36.09446859390736,-88.23529758782387,80.21211738781929
2024-09-23 17:27:33.205133,43.35,38.699691,-0.0031836870127375577,-0.023280723622328886,0.09720203344245934,36.09446859390736,-104.27510100388527,80.21211738781929
2024-09-23 17:27:33.237398,43.35,38.699742,-0.0030841997366068195,-0.023280723622328886,0.09720203344245934,36.09446859390736,-104.27510100388527,72.1922225099802
2024-09-23 17:27:33.248750,43.35,38.699742,-0.0030841997366068195,-0.023330473146428877,0.09720203344245934,36.09446859390736,-104.27510100388527,72.1922225099802
2024-09-23 17:27:33.291520,43.35,38.699742,-0.0030841997366068195,-0.023330473146428877,0.09720203344245934,36.09446859390736,-96.25519929585457,76.200527287817
2024-09-23 17:27:33.334493,43.35,38.699792,-0.0028852147413806935,-0.023330473146428877,0.09720203344245934,36.09446859390736,-96.25519929585457,76.200527287817
2024-09-23 17:27:33.345697,43.35,38.699792,-0.0028852147413806935,-0.0224350561424862,0.09695331012558621,40.106058693909645,-92.24360919585227,76.200527287817
2024-09-23 17:27:33.389854,43.35,38.699843,-0.0027359787006383035,-0.02352945757203875,0.0973512698629459,36.09446859390736,-92.24360919585227,80.21211738781929
2024-09-23 17:27:33.432427,43.35,38.699894,-0.0027359787006383035,-0.02352945757203875,0.0973512698629459,36.09446859390736,-96.25519929585457,72.1922225099802
2024-09-23 17:27:33.443696,43.35,38.699894,-0.0029349636958644295,-0.02303200030545576,0.09690356060148622,36.09446859390736,-96.25519929585457,72.1922225099802
2024-09-23 17:27:33.486176,43.35,38.699981,-0.0031836870127375577,-0.02308174982955575,0.09690356060148622,40.106058693909645,-96.25519929585457,80.21211738781929
2024-09-23 17:27:33.530529,43.35,38.699981,-0.0031836870127375577,-0.02308174982955575,0.09705279702197278,40.106058693909645,-92.24360919585227,80.21211738781929
2024-09-23 17:27:33.541785,43.35,38.700031,-0.0031339382481259063,-0.02308174982955575,0.09705279702197278,40.106058693909645,-92.24360919585227,80.21211738781929
2024-09-23 17:27:33.585224,43.35,38.700127,-0.0031339382481259063,-0.023181236725942318,0.09764974270391902,52.137550501942634,-92.24360919585227,80.21211738781929
2024-09-23 17:27:33.627849,43.35,38.700127,-0.0029847020175114316,-0.02367869399252531,0.09720203344245934,52.137550501942634,-92.24360919585227,80.21211738781929
2024-09-23 17:27:33.639779,43.35,38.700127,-0.0029847020175114316,-0.02367869399252531,0.09720203344245934,48.12595698684454,-100.26678939585686,80.21211738781929
2024-09-23 17:27:33.683052,43.35,38.700179,-0.0029349636958644295,-0.02303200030545576,0.0970030596496862,48.12595698684454,-92.24360919585227,80.21211738781929
2024-09-23 17:27:33.725696,43.35,38.700229,-0.0031836870127375577,-0.02303200030545576,0.0970030596496862,48.12595698684454,-92.24360919585227,80.21211738781929
2024-09-23 17:27:33.737147,43.35,38.700229,-0.0031836870127375577,-0.02308174982955575,0.09725178296655933,40.106058693909645,-92.24360919585227,80.21211738781929
2024-09-23 17:27:33.780248,43.35,38.70028,-0.0029349636958644295,-0.023230986250042305,0.09695331012558621,40.106058693909645,-92.24360919585227,84.22370748782159
2024-09-23 17:27:33.822864,43.35,38.70028,-0.0029349636958644295,-0.023230986250042305,0.09695331012558621,36.09446859390736,-96.25519929585457,80.21211738781929
2024-09-23 17:27:33.834076,43.35,38.700331,-0.002636491424507565,-0.02338022115155219,0.09695331012558621,36.09446859390736,-96.25519929585457,80.21211738781929
2024-09-23 17:27:33.875943,43.35,38.700381,-0.0028354659767690416,-0.02338022115155219,0.09695331012558621,40.106058693909645,-96.25519929585457,76.200527287817
2024-09-23 17:27:33.918757,43.35,38.700381,-0.0028354659767690416,-0.023181236725942318,0.09615739065086683,40.106058693909645,-96.25519929585457,76.200527287817
2024-09-23 17:27:33.930237,43.35,38.700468,-0.0028354659767690416,-0.023181236725942318,0.09615739065086683,36.09446859390736,-100.26678939585686,76.200527287817
2024-09-23 17:27:33.973351,43.35,38.700468,-0.0025369937054121774,-0.023579196463302005,0.0970030596496862,36.09446859390736,-92.24360919585227,80.21211738781929
2024-09-23 17:27:34.015692,43.35,38.700521,-0.002586742470023829,-0.023579196463302005,0.0970030596496862,36.09446859390736,-92.24360919585227,80.21211738781929
2024-09-23 17:27:34.026907,43.35,38.700521,-0.002586742470023829,-0.023230986250042305,0.09705279702197278,32.08287849390507,-92.24360919585227,80.21211738781929
2024-09-23 17:27:34.069574,43.35,38.700571,-0.0031339382481259063,-0.02362894446842532,0.09705279702197278,32.08287849390507,-92.24360919585227,80.21211738781929
2024-09-23 17:27:34.081256,43.35,38.700571,-0.0031339382481259063,-0.02362894446842532,0.09705279702197278,40.106058693909645,-92.24360919585227,80.21211738781929
2024-09-23 17:27:34.113828,43.35,38.700571,-0.0031339382481259063,-0.02362894446842532,0.09705279702197278,40.106058693909645,-100.26678939585686,72.1922225099802
2024-09-23 17:27:34.125384,43.35,38.700622,-0.0031836870127375577,-0.023330473146428877,0.09705279702197278,40.106058693909645,-100.26678939585686,72.1922225099802
2024-09-23 17:27:34.168017,43.35,38.700673,-0.0031836870127375577,-0.023330473146428877,0.09705279702197278,44.11764879391193,-96.25519929585457,72.1922225099802
2024-09-23 17:27:34.179663,43.35,38.700673,-0.0031836870127375577,-0.02338022115155219,0.09705279702197278,44.11764879391193,-96.25519929585457,72.1922225099802
2024-09-23 17:27:34.211230,43.07,38.700673,-0.0031836870127375577,-0.02338022115155219,0.09695331012558621,48.12595698684454,-96.25519929585457,72.1922225099802
2024-09-23 17:27:34.222283,43.07,38.700723,-0.0030841997366068195,-0.02338022115155219,0.09695331012558621,48.12595698684454,-92.24360919585227,76.200527287817
2024-09-23 17:27:34.265170,43.07,38.700723,-0.0030841997366068195,-0.02308174982955575,0.09740101331113918,32.08287849390507,-96.25519929585457,76.200527287817
2024-09-23 17:27:34.277574,43.07,38.70081,-0.0030841997366068195,-0.02308174982955575,0.09740101331113918,32.08287849390507,-96.25519929585457,76.200527287817
2024-09-23 17:27:34.311090,43.07,38.70081,-0.0030841997366068195,-0.023330473146428877,0.09695331012558621,32.08287849390507,-96.25519929585457,76.200527287817
2024-09-23 17:27:34.322783,43.07,38.70081,-0.0030841997366068195,-0.023330473146428877,0.09695331012558621,36.09446859390736,-96.25519929585457,80.21211738781929
2024-09-23 17:27:34.365869,43.07,38.700861,-0.003233425524256645,-0.02303200030545576,0.09720203344245934,40.106058693909645,-96.25519929585457,80.21211738781929
2024-09-23 17:27:34.408893,43.07,38.700912,-0.0030841997366068195,-0.02303200030545576,0.09720203344245934,40.106058693909645,-96.25519929585457,72.1922225099802
2024-09-23 17:27:34.420824,43.07,38.700912,-0.0030841997366068195,-0.023579196463302005,0.09755024973162574,44.11764879391193,-96.25519929585457,72.1922225099802
2024-09-23 17:27:34.452478,43.07,38.700912,-0.0030841997366068195,-0.023579196463302005,0.09755024973162574,44.11764879391193,-100.26678939585686,72.1922225099802
2024-09-23 17:27:34.463589,43.07,38.700962,-0.0031339382481259063,-0.02303200030545576,0.09710254654607277,44.11764879391193,-100.26678939585686,76.200527287817
2024-09-23 17:27:34.505983,43.07,38.700962,-0.0031339382481259063,-0.02303200030545576,0.09710254654607277,44.11764879391193,-96.25519929585457,76.200527287817
2024-09-23 17:27:34.517847,43.07,38.701013,-0.0031339382481259063,-0.02308174982955575,0.09710254654607277,44.11764879391193,-96.25519929585457,76.200527287817
2024-09-23 17:27:34.550458,43.07,38.701013,-0.0031339382481259063,-0.02308174982955575,0.09755024973162574,44.11764879391193,-96.25519929585457,76.200527287817
2024-09-23 17:27:34.562316,43.07,38.701013,-0.0031339382481259063,-0.02308174982955575,0.09755024973162574,44.11764879391193,-92.24360919585227,76.200527287817
2024-09-23 17:27:34.604619,43.07,38.701064,-0.003382661564999035,-0.02308174982955575,0.09755024973162574,44.11764879391193,-92.24360919585227,72.1922225099802
2024-09-23 17:27:34.616045,43.07,38.701064,-0.003382661564999035,-0.023280723622328886,0.09725178296655933,48.12595698684454,-92.24360919585227,72.1922225099802
2024-09-23 17:27:34.650631,43.07,38.701064,-0.003382661564999035,-0.023280723622328886,0.09725178296655933,48.12595698684454,-96.25519929585457,80.21211738781929
2024-09-23 17:27:34.662397,43.07,38.701151,-0.002636491424507565,-0.023330473146428877,0.09750050628343246,48.12595698684454,-96.25519929585457,80.21211738781929
2024-09-23 17:27:34.705481,43.07,38.701202,-0.003382661564999035,-0.02313149783467906,0.09750050628343246,40.106058693909645,-104.27510100388527,64.16903547978401
2024-09-23 17:27:34.749080,43.07,38.701202,-0.003382661564999035,-0.02313149783467906,0.09680407370509965,36.09446859390736,-92.24360919585227,64.16903547978401
2024-09-23 17:27:34.760714,43.07,38.701253,-0.0035816467500972456,-0.02313149783467906,0.09680407370509965,36.09446859390736,-92.24360919585227,72.1922225099802
2024-09-23 17:27:34.803036,43.07,38.701304,-0.0035816467500972456,-0.0228827638849692,0.09774922960030558,32.08287849390507,-96.25519929585457,76.200527287817
2024-09-23 17:27:34.844918,43.07,38.701304,-0.0032831742888682963,-0.023280723622328886,0.09774922960030558,32.08287849390507,-96.25519929585457,76.200527287817
2024-09-23 17:27:34.856296,43.07,38.701304,-0.0032831742888682963,-0.023280723622328886,0.09755024973162574,40.106058693909645,-100.26678939585686,84.22370748782159
2024-09-23 17:27:34.899811,43.07,38.701395,-0.0029847020175114316,-0.0228827638849692,0.09690356060148622,52.137550501942634,-100.26678939585686,84.22370748782159
2024-09-23 17:27:34.911366,43.07,38.701395,-0.0029847020175114316,-0.0228827638849692,0.09690356060148622,52.137550501942634,-96.25519929585457,84.22370748782159
2024-09-23 17:27:34.942851,43.07,38.701447,-0.0029847020175114316,-0.0228827638849692,0.09690356060148622,52.137550501942634,-96.25519929585457,76.200527287817
2024-09-23 17:27:34.954317,43.07,38.701447,-0.0033329230534799477,-0.023181236725942318,0.09720203344245934,44.11764879391193,-96.25519929585457,76.200527287817
2024-09-23 17:27:34.997244,43.07,38.701497,-0.0028852147413806935,-0.023280723622328886,0.09680407370509965,44.11764879391193,-92.24360919585227,76.200527287817
2024-09-23 17:27:35.040316,43.07,38.701497,-0.0028852147413806935,-0.023280723622328886,0.09680407370509965,40.106058693909645,-96.25519929585457,76.200527287817
2024-09-23 17:27:35.051540,43.07,38.701548,-0.0030344509719951677,-0.023429960042815445,0.09680407370509965,40.106058693909645,-96.25519929585457,76.200527287817
2024-09-23 17:27:35.094059,43.07,38.701599,-0.0030344509719951677,-0.023429960042815445,0.0973015264147526,40.106058693909645,-96.25519929585457,80.21211738781929
2024-09-23 17:27:35.106146,43.07,38.701599,-0.0032831742888682963,-0.023429960042815445,0.0973015264147526,40.106058693909645,-96.25519929585457,80.21211738781929
2024-09-23 17:27:35.139315,43.07,38.701599,-0.0032831742888682963,-0.02313149783467906,0.09685382322919964,40.106058693909645,-96.25519929585457,80.21211738781929
2024-09-23 17:27:35.150555,43.07,38.701687,-0.0032831742888682963,-0.02313149783467906,0.09685382322919964,40.106058693909645,-96.25519929585457,76.200527287817
2024-09-23 17:27:35.192384,43.07,38.701687,-0.0030344509719951677,-0.023280723622328886,0.09705279702197278,36.09446859390736,-96.25519929585457,76.200527287817
2024-09-23 17:27:35.235374,43.01,38.701739,-0.0027359787006383035,-0.023280723622328886,0.09705279702197278,36.09446859390736,-96.25519929585457,76.200527287817
2024-09-23 17:27:35.288737,43.01,38.701739,-0.0027359787006383035,-0.023280723622328886,0.0973015264147526,40.106058693909645,-92.24360919585227,76.200527287817
2024-09-23 17:27:35.300397,43.01,38.701789,-0.0027359787006383035,-0.023280723622328886,0.0973015264147526,40.106058693909645,-92.24360919585227,80.21211738781929
2024-09-23 17:27:35.332672,43.01,38.701789,-0.0031339382481259063,-0.02313149783467906,0.0973015264147526,40.106058693909645,-92.24360919585227,80.21211738781929
2024-09-23 17:27:35.344303,43.01,38.701789,-0.0031339382481259063,-0.02313149783467906,0.09680407370509965,40.106058693909645,-92.24360919585227,80.21211738781929
2024-09-23 17:27:35.387291,43.01,38.70184,-0.0030344509719951677,-0.023330473146428877,0.09750050628343246,36.09446859390736,-92.24360919585227,80.21211738781929
2024-09-23 17:27:35.398847,43.01,38.70184,-0.0030344509719951677,-0.023330473146428877,0.09750050628343246,36.09446859390736,-104.27510100388527,80.21211738781929
2024-09-23 17:27:35.430773,43.01,38.701891,-0.0030841997366068195,-0.023330473146428877,0.09750050628343246,36.09446859390736,-104.27510100388527,80.21211738781929
2024-09-23 17:27:35.441898,43.01,38.701891,-0.0030841997366068195,-0.023330473146428877,0.09715228999426605,40.106058693909645,-104.27510100388527,80.21211738781929
2024-09-23 17:27:35.485283,43.01,38.701941,-0.0030344509719951677,-0.023728432883788564,0.09715228999426605,40.106058693909645,-92.24360919585227,80.21211738781929
2024-09-23 17:27:35.497118,43.01,38.701941,-0.0030344509719951677,-0.023728432883788564,0.0976994861521123,40.106058693909645,-92.24360919585227,80.21211738781929
2024-09-23 17:27:35.529357,43.01,38.701941,-0.0030344509719951677,-0.023728432883788564,0.0976994861521123,40.106058693909645,-92.24360919585227,76.200527287817
2024-09-23 17:27:35.540993,43.01,38.702031,-0.0035816467500972456,-0.023479709566915436,0.0976994861521123,40.106058693909645,-92.24360919585227,76.200527287817
2024-09-23 17:27:35.583149,43.01,38.702081,-0.0028852147413806935,-0.023479709566915436,0.09720203344245934,40.106058693909645,-92.24360919585227,76.200527287817
2024-09-23 17:27:35.625976,43.01,38.702081,-0.0028852147413806935,-0.023877669304275123,0.09725178296655933,40.106058693909645,-92.24360919585227,76.200527287817
2024-09-23 17:27:35.637786,43.01,38.702175,-0.0028852147413806935,-0.023877669304275123,0.09725178296655933,40.106058693909645,-92.24360919585227,76.200527287817
2024-09-23 17:27:35.680683,43.01,38.702175,-0.002586742470023829,-0.023330473146428877,0.0973512698629459,36.09446859390736,-88.23529758782387,76.200527287817
2024-09-23 17:27:35.722583,43.01,38.702226,-0.002785727465249955,-0.023330473146428877,0.0973512698629459,36.09446859390736,-88.23529758782387,76.200527287817
2024-09-23 17:27:35.733691,43.01,38.702226,-0.002785727465249955,-0.02313149783467906,0.0973512698629459,44.11764879391193,-100.26678939585686,76.200527287817
2024-09-23 17:27:35.776254,43.01,38.702277,-0.0029349636958644295,-0.023479709566915436,0.0973512698629459,44.11764879391193,-100.26678939585686,76.200527287817
2024-09-23 17:27:35.787583,43.01,38.702277,-0.0029349636958644295,-0.023479709566915436,0.09725178296655933,44.11764879391193,-100.26678939585686,76.200527287817
2024-09-23 17:27:35.819859,43.01,38.702277,-0.0029349636958644295,-0.023479709566915436,0.09725178296655933,44.11764879391193,-96.25519929585457,72.1922225099802
2024-09-23 17:27:35.831630,43.01,38.702327,-0.0029349636958644295,-0.023479709566915436,0.09725178296655933,44.11764879391193,-96.25519929585457,72.1922225099802
2024-09-23 17:27:35.874373,43.01,38.702327,-0.0034324103296106863,-0.023778180888911878,0.09705279702197278,36.09446859390736,-100.26678939585686,72.1922225099802
2024-09-23 17:27:35.886579,43.01,38.702327,-0.0034324103296106863,-0.023778180888911878,0.09705279702197278,36.09446859390736,-100.26678939585686,80.21211738781929
2024-09-23 17:27:35.919516,43.01,38.702378,-0.002636491424507565,-0.02352945757203875,0.09705279702197278,36.09446859390736,-100.26678939585686,80.21211738781929
2024-09-23 17:27:35.930887,43.01,38.702378,-0.002636491424507565,-0.02352945757203875,0.0976994861521123,32.08287849390507,-104.27510100388527,80.21211738781929
2024-09-23 17:27:35.973399,43.01,38.702429,-0.0026862297461545674,-0.02352945757203875,0.09764974270391902,36.09446859390736,-104.27510100388527,80.21211738781929
2024-09-23 17:27:36.016712,43.01,38.702429,-0.0026862297461545674,-0.02352945757203875,0.09764974270391902,36.09446859390736,-92.24360919585227,80.21211738781929
2024-09-23 17:27:36.028578,43.01,38.702516,-0.0030841997366068195,-0.023330473146428877,0.09705279702197278,36.09446859390736,-92.24360919585227,80.21211738781929
2024-09-23 17:27:36.071394,43.01,38.702567,-0.0030841997366068195,-0.023230986250042305,0.09705279702197278,44.11764879391193,-96.25519929585457,80.21211738781929
2024-09-23 17:27:36.113607,43.01,38.702567,-0.0030841997366068195,-0.023230986250042305,0.09750050628343246,36.09446859390736,-92.24360919585227,80.21211738781929
2024-09-23 17:27:36.124714,43.01,38.702617,-0.0033329230534799477,-0.023230986250042305,0.09750050628343246,36.09446859390736,-92.24360919585227,76.200527287817
2024-09-23 17:27:36.167374,43.01,38.702711,-0.0033329230534799477,-0.023230986250042305,0.0973015264147526,36.09446859390736,-96.25519929585457,80.21211738781929
2024-09-23 17:27:36.209586,43.01,38.702711,-0.0031836870127375577,-0.02338022115155219,0.0973015264147526,36.09446859390736,-96.25519929585457,80.21211738781929
2024-09-23 17:27:36.221052,43.01,38.702711,-0.0031836870127375577,-0.02338022115155219,0.09710254654607277,40.106058693909645,-92.24360919585227,80.21211738781929
2024-09-23 17:27:36.263011,43.09,38.702762,-0.002785727465249955,-0.023280723622328886,0.0970030596496862,32.08287849390507,-92.24360919585227,80.21211738781929
2024-09-23 17:27:36.275214,43.09,38.702762,-0.002785727465249955,-0.023280723622328886,0.0970030596496862,32.08287849390507,-92.24360919585227,80.21211738781929
2024-09-23 17:27:36.308317,43.09,38.702813,-0.002785727465249955,-0.023280723622328886,0.0970030596496862,32.08287849390507,-92.24360919585227,80.21211738781929
2024-09-23 17:27:36.319380,43.09,38.702813,-0.0028852147413806935,-0.022982261414192504,0.09680407370509965,36.09446859390736,-92.24360919585227,80.21211738781929
2024-09-23 17:27:36.361952,43.09,38.702864,-0.0031339382481259063,-0.02338022115155219,0.09680407370509965,36.09446859390736,-100.26678939585686,80.21211738781929
2024-09-23 17:27:36.374396,43.09,38.702864,-0.0031339382481259063,-0.02338022115155219,0.09695331012558621,36.09446859390736,-100.26678939585686,80.21211738781929
2024-09-23 17:27:36.406909,43.09,38.702864,-0.0031339382481259063,-0.02338022115155219,0.09695331012558621,32.08287849390507,-96.25519929585457,76.200527287817
2024-09-23 17:27:36.418299,43.09,38.702914,-0.0030344509719951677,-0.023579196463302005,0.09695331012558621,32.08287849390507,-96.25519929585457,76.200527287817
2024-09-23 17:27:36.460889,43.09,38.702965,-0.002785727465249955,-0.023579196463302005,0.09764974270391902,40.106058693909645,-92.24360919585227,72.1922225099802
2024-09-23 17:27:36.503453,43.09,38.702965,-0.002785727465249955,-0.023181236725942318,0.09740101331113918,40.106058693909645,-92.24360919585227,72.1922225099802
2024-09-23 17:27:36.515628,43.09,38.703052,-0.002785727465249955,-0.023181236725942318,0.09740101331113918,40.106058693909645,-100.26678939585686,76.200527287817
2024-09-23 17:27:36.558438,43.09,38.703052,-0.0030344509719951677,-0.023230986250042305,0.09755024973162574,44.11764879391193,-96.25519929585457,76.200527287817
2024-09-23 17:27:36.601379,43.09,38.703104,-0.0029847020175114316,-0.023230986250042305,0.09755024973162574,44.11764879391193,-96.25519929585457,76.200527287817
2024-09-23 17:27:36.612490,43.09,38.703104,-0.0029847020175114316,-0.02278327698858263,0.09670458680871308,48.12595698684454,-100.26678939585686,76.200527287817
2024-09-23 17:27:36.655139,43.09,38.703155,-0.003233425524256645,-0.023230986250042305,0.0973512698629459,40.106058693909645,-100.26678939585686,76.200527287817
2024-09-23 17:27:36.697802,43.09,38.703155,-0.003233425524256645,-0.023230986250042305,0.0973512698629459,40.106058693909645,-100.26678939585686,80.21211738781929
2024-09-23 17:27:36.708941,43.09,38.703205,-0.0029349636958644295,-0.02313149783467906,0.09720203344245934,40.106058693909645,-100.26678939585686,80.21211738781929
2024-09-23 17:27:36.751840,43.09,38.703257,-0.0033329230534799477,-0.02313149783467906,0.09720203344245934,44.11764879391193,-96.25519929585457,80.21211738781929
2024-09-23 17:27:36.764012,43.09,38.703257,-0.0033329230534799477,-0.02362894446842532,0.09720203344245934,44.11764879391193,-96.25519929585457,80.21211738781929
2024-09-23 17:27:36.795911,43.09,38.703257,-0.0033329230534799477,-0.02362894446842532,0.0970030596496862,44.11764879391193,-96.25519929585457,80.21211738781929
2024-09-23 17:27:36.807580,43.09,38.703307,-0.0028354659767690416,-0.02362894446842532,0.0970030596496862,44.11764879391193,-92.24360919585227,72.1922225099802
2024-09-23 17:27:36.850706,43.09,38.703393,-0.0028354659767690416,-0.02278327698858263,0.09690356060148622,44.11764879391193,-96.25519929585457,76.200527287817
2024-09-23 17:27:36.892686,43.09,38.703393,-0.0031836870127375577,-0.023181236725942318,0.09690356060148622,44.11764879391193,-96.25519929585457,76.200527287817
2024-09-23 17:27:36.904664,43.09,38.703393,-0.0031836870127375577,-0.023181236725942318,0.09710254654607277,36.09446859390736,-96.25519929585457,76.200527287817
2024-09-23 17:27:36.948592,43.09,38.703445,-0.0035816467500972456,-0.023827930413011865,0.09755024973162574,40.106058693909645,-96.25519929585457,76.200527287817
2024-09-23 17:27:36.991654,43.09,38.703496,-0.0029349636958644295,-0.023827930413011865,0.09755024973162574,40.106058693909645,-96.25519929585457,76.200527287817
2024-09-23 17:27:37.003000,43.09,38.703496,-0.0029349636958644295,-0.02338022115155219,0.09655535038822652,40.106058693909645,-96.25519929585457,76.200527287817
2024-09-23 17:27:37.046191,43.09,38.703546,-0.0031339382481259063,-0.02308174982955575,0.0970030596496862,40.106058693909645,-92.24360919585227,72.1922225099802
2024-09-23 17:27:37.090636,43.09,38.703546,-0.0031339382481259063,-0.02308174982955575,0.0970030596496862,44.11764879391193,-92.24360919585227,76.200527287817
2024-09-23 17:27:37.102529,43.09,38.703597,-0.002586742470023829,-0.022982261414192504,0.0970030596496862,44.11764879391193,-92.24360919585227,76.200527287817
2024-09-23 17:27:37.186711,43.09,38.703597,-0.002586742470023829,-0.022982261414192504,0.0970030596496862,40.106058693909645,-92.24360919585227,76.200527287817
2024-09-23 17:27:37.198451,43.09,38.703648,-0.0029349636958644295,-0.022982261414192504,0.0970030596496862,40.106058693909645,-92.24360919585227,72.1922225099802
2024-09-23 17:27:37.241875,43.09,38.703735,-0.0029349636958644295,-0.02313149783467906,0.09745075675933246,40.106058693909645,-104.27510100388527,80.21211738781929
2024-09-23 17:27:37.284525,42.78,38.703735,-0.0029847020175114316,-0.02362894446842532,0.09670458680871308,40.106058693909645,-104.27510100388527,80.21211738781929
2024-09-23 17:27:37.296465,42.78,38.703735,-0.0029847020175114316,-0.02362894446842532,0.09670458680871308,44.11764879391193,-100.26678939585686,72.1922225099802
2024-09-23 17:27:37.328925,42.78,38.703786,-0.0029847020175114316,-0.02362894446842532,0.09670458680871308,44.11764879391193,-100.26678939585686,72.1922225099802
2024-09-23 17:27:37.340351,42.78,38.703786,-0.0030344509719951677,-0.023479709566915436,0.09705279702197278,32.08287849390507,-104.27510100388527,72.1922225099802
2024-09-23 17:27:37.382975,42.78,38.703837,-0.0034324103296106863,-0.023181236725942318,0.09705279702197278,32.08287849390507,-104.27510100388527,76.200527287817
2024-09-23 17:27:37.394317,42.78,38.703837,-0.0034324103296106863,-0.023181236725942318,0.09685382322919964,40.106058693909645,-104.27510100388527,76.200527287817
2024-09-23 17:27:37.436676,42.78,38.703931,-0.0034324103296106863,-0.02367869399252531,0.0973015264147526,40.106058693909645,-96.25519929585457,76.200527287817
2024-09-23 17:27:37.479064,42.78,38.703931,-0.0034324103296106863,-0.02367869399252531,0.0973015264147526,40.106058693909645,-100.26678939585686,76.200527287817
2024-09-23 17:27:37.490805,42.78,38.703982,-0.0032831742888682963,-0.02293251340906919,0.0973015264147526,40.106058693909645,-100.26678939585686,76.200527287817
2024-09-23 17:27:37.533285,42.78,38.704033,-0.002437506429281439,-0.02293251340906919,0.0973015264147526,40.106058693909645,-100.26678939585686,76.200527287817
2024-09-23 17:27:37.574986,42.78,38.704033,-0.002437506429281439,-0.0225345536717095,0.0973512698629459,40.106058693909645,-100.26678939585686,76.200527287817
2024-09-23 17:27:37.587294,42.78,38.704125,-0.002437506429281439,-0.0225345536717095,0.0973512698629459,40.106058693909645,-96.25519929585457,76.200527287817
2024-09-23 17:27:37.631043,42.78,38.704125,-0.003233425524256645,-0.023181236725942318,0.09705279702197278,28.07457030097246,-96.25519929585457,80.21211738781929
2024-09-23 17:27:37.674223,42.78,38.704176,-0.0032831742888682963,-0.02362894446842532,0.09705279702197278,28.07457030097246,-96.25519929585457,80.21211738781929
2024-09-23 17:27:37.685754,42.78,38.704176,-0.0032831742888682963,-0.02362894446842532,0.09705279702197278,36.09446859390736,-100.26678939585686,80.21211738781929
2024-09-23 17:27:37.728624,42.78,38.704227,-0.0030841997366068195,-0.02308174982955575,0.0973015264147526,40.106058693909645,-100.26678939585686,76.200527287817
2024-09-23 17:27:37.771198,42.78,38.704227,-0.0030841997366068195,-0.02308174982955575,0.0973015264147526,40.106058693909645,-96.25519929585457,76.200527287817
2024-09-23 17:27:37.823882,42.78,38.704277,-0.002636491424507565,-0.023280723622328886,0.09725178296655933,44.11764879391193,-96.25519929585457,76.200527287817
2024-09-23 17:27:37.836121,42.78,38.704277,-0.002636491424507565,-0.023280723622328886,0.09725178296655933,44.11764879391193,-92.24360919585227,76.200527287817
2024-09-23 17:27:37.869060,42.78,38.704328,-0.002636491424507565,-0.023280723622328886,0.09725178296655933,44.11764879391193,-92.24360919585227,72.1922225099802
2024-09-23 17:27:37.880300,42.78,38.704328,-0.003382661564999035,-0.023728432883788564,0.09720203344245934,40.106058693909645,-92.24360919585227,72.1922225099802
2024-09-23 17:27:37.922428,42.78,38.704379,-0.0030344509719951677,-0.022982261414192504,0.09650560086412653,40.106058693909645,-100.26678939585686,76.200527287817
2024-09-23 17:27:37.964867,42.78,38.704379,-0.0030344509719951677,-0.022982261414192504,0.09650560086412653,36.09446859390736,-92.24360919585227,76.200527287817
2024-09-23 17:27:37.977148,42.78,38.704466,-0.0029847020175114316,-0.023181236725942318,0.09650560086412653,36.09446859390736,-92.24360919585227,76.200527287817
2024-09-23 17:27:38.019962,42.78,38.704517,-0.0029847020175114316,-0.023181236725942318,0.0973512698629459,48.12595698684454,-104.27510100388527,68.18063240997792
2024-09-23 17:27:38.031729,42.78,38.704517,-0.0029847020175114316,-0.023181236725942318,0.0973512698629459,48.12595698684454,-104.27510100388527,68.18063240997792
2024-09-23 17:27:38.064314,42.78,38.704517,-0.0029847020175114316,-0.023181236725942318,0.09705279702197278,48.12595698684454,-104.27510100388527,68.18063240997792
2024-09-23 17:27:38.075987,42.78,38.704612,-0.0029847020175114316,-0.023181236725942318,0.09705279702197278,48.12595698684454,-100.26678939585686,80.21211738781929
2024-09-23 17:27:38.119137,42.78,38.704612,-0.003233425524256645,-0.023330473146428877,0.09670458680871308,36.09446859390736,-100.26678939585686,80.21211738781929
2024-09-23 17:27:38.161409,42.78,38.704664,-0.0028852147413806935,-0.023330473146428877,0.09670458680871308,36.09446859390736,-100.26678939585686,80.21211738781929
2024-09-23 17:27:38.172413,42.78,38.704664,-0.0028852147413806935,-0.02308174982955575,0.09705279702197278,40.106058693909645,-92.24360919585227,80.21211738781929
2024-09-23 17:27:38.214677,42.78,38.704714,-0.0032831742888682963,-0.023230986250042305,0.09715228999426605,44.11764879391193,-92.24360919585227,76.200527287817
2024-09-23 17:27:38.257200,42.78,38.704714,-0.0032831742888682963,-0.023230986250042305,0.09715228999426605,44.11764879391193,-88.23529758782387,72.1922225099802
2024-09-23 17:27:38.268448,42.78,38.704765,-0.0029349636958644295,-0.02268379009219606,0.09779897304849887,44.11764879391193,-88.23529758782387,72.1922225099802
2024-09-23 17:27:38.310746,42.57,38.704816,-0.0030344509719951677,-0.02268379009219606,0.09779897304849887,36.09446859390736,-92.24360919585227,80.21211738781929
2024-09-23 17:27:38.322281,42.57,38.704816,-0.0030344509719951677,-0.02338022115155219,0.09779897304849887,36.09446859390736,-92.24360919585227,80.21211738781929
2024-09-23 17:27:38.354681,42.57,38.704816,-0.0030344509719951677,-0.02338022115155219,0.0973512698629459,44.11764879391193,-92.24360919585227,80.21211738781929
2024-09-23 17:27:38.366379,42.57,38.704866,-0.0032831742888682963,-0.02338022115155219,0.0973512698629459,44.11764879391193,-96.25519929585457,76.200527287817
2024-09-23 17:27:38.408269,42.57,38.704866,-0.0032831742888682963,-0.02338022115155219,0.09695331012558621,36.09446859390736,-96.25519929585457,76.200527287817
2024-09-23 17:27:38.420178,42.57,38.704953,-0.0032831742888682963,-0.02338022115155219,0.09695331012558621,36.09446859390736,-96.25519929585457,76.200527287817
2024-09-23 17:27:38.452641,42.57,38.704953,-0.0034324103296106863,-0.023181236725942318,0.09695331012558621,36.09446859390736,-96.25519929585457,76.200527287817
2024-09-23 17:27:38.463945,42.57,38.704953,-0.0034324103296106863,-0.023181236725942318,0.09745075675933246,32.08287849390507,-96.25519929585457,76.200527287817
2024-09-23 17:27:38.506402,42.57,38.705005,-0.002586742470023829,-0.023181236725942318,0.09750050628343246,40.106058693909645,-96.25519929585457,76.200527287817
2024-09-23 17:27:38.518482,42.57,38.705005,-0.002586742470023829,-0.023181236725942318,0.09750050628343246,40.106058693909645,-92.24360919585227,76.200527287817
2024-09-23 17:27:38.550966,42.57,38.705056,-0.0035318979854855937,-0.023181236725942318,0.09750050628343246,40.106058693909645,-92.24360919585227,72.1922225099802
2024-09-23 17:27:38.562231,42.57,38.705056,-0.0035318979854855937,-0.023330473146428877,0.0973015264147526,44.11764879391193,-92.24360919585227,72.1922225099802
2024-09-23 17:27:38.604623,42.57,38.705107,-0.003233425524256645,-0.023330473146428877,0.09740101331113918,44.11764879391193,-96.25519929585457,72.1922225099802
2024-09-23 17:27:38.647998,42.57,38.705107,-0.003233425524256645,-0.023330473146428877,0.09740101331113918,40.106058693909645,-100.26678939585686,72.1922225099802
2024-09-23 17:27:38.659238,42.57,38.705157,-0.0027359787006383035,-0.02313149783467906,0.09740101331113918,40.106058693909645,-100.26678939585686,72.1922225099802
2024-09-23 17:27:38.701208,42.57,38.705208,-0.0027359787006383035,-0.02313149783467906,0.09685382322919964,44.11764879391193,-92.24360919585227,80.21211738781929
2024-09-23 17:27:38.713417,42.57,38.705208,-0.0030841997366068195,-0.02313149783467906,0.09685382322919964,44.11764879391193,-92.24360919585227,80.21211738781929
2024-09-23 17:27:38.747498,42.57,38.705208,-0.0030841997366068195,-0.023827930413011865,0.0973015264147526,44.11764879391193,-92.24360919585227,80.21211738781929
2024-09-23 17:27:38.758747,42.57,38.705295,-0.0030841997366068195,-0.023827930413011865,0.0973015264147526,44.11764879391193,-84.22370748782159,80.21211738781929
2024-09-23 17:27:38.801801,42.57,38.705295,-0.003631395514708897,-0.023280723622328886,0.09715228999426605,40.106058693909645,-96.25519929585457,80.21211738781929
2024-09-23 17:27:38.844382,42.57,38.705346,-0.0027359787006383035,-0.02338022115155219,0.09715228999426605,40.106058693909645,-96.25519929585457,80.21211738781929
2024-09-23 17:27:38.856248,42.57,38.705346,-0.0027359787006383035,-0.02338022115155219,0.09690356060148622,36.09446859390736,-96.25519929585457,80.21211738781929
2024-09-23 17:27:38.899190,42.57,38.705397,-0.0030344509719951677,-0.02293251340906919,0.09695331012558621,32.08287849390507,-96.25519929585457,80.21211738781929
2024-09-23 17:27:38.941008,42.57,38.705447,-0.0030344509719951677,-0.02293251340906919,0.09695331012558621,32.08287849390507,-96.25519929585457,84.22370748782159
2024-09-23 17:27:38.952707,42.57,38.705447,-0.003233425524256645,-0.02338022115155219,0.0973512698629459,32.08287849390507,-96.25519929585457,84.22370748782159
2024-09-23 17:27:38.995797,42.57,38.705498,-0.0025369937054121774,-0.02308174982955575,0.0973512698629459,40.106058693909645,-92.24360919585227,76.200527287817
2024-09-23 17:27:39.037850,42.57,38.705498,-0.0025369937054121774,-0.02308174982955575,0.09710254654607277,48.12595698684454,-92.24360919585227,76.200527287817
2024-09-23 17:27:39.049654,42.57,38.705549,-0.002288270198666964,-0.02308174982955575,0.09710254654607277,48.12595698684454,-96.25519929585457,76.200527287817
2024-09-23 17:27:39.093117,42.57,38.705636,-0.002288270198666964,-0.02263404056809607,0.09680407370509965,40.106058693909645,-92.24360919585227,76.200527287817
2024-09-23 17:27:39.136585,42.57,38.705636,-0.0030841997366068195,-0.0228827638849692,0.0973512698629459,40.106058693909645,-92.24360919585227,76.200527287817
2024-09-23 17:27:39.148424,42.57,38.705636,-0.0030841997366068195,-0.0228827638849692,0.0973512698629459,36.09446859390736,-96.25519929585457,84.22370748782159
2024-09-23 17:27:39.191018,42.57,38.705687,-0.0026862297461545674,-0.022833026512682618,0.09750050628343246,40.106058693909645,-96.25519929585457,84.22370748782159
2024-09-23 17:27:39.234512,42.57,38.705738,-0.0027359787006383035,-0.022833026512682618,0.09750050628343246,40.106058693909645,-96.25519929585457,80.21211738781929
2024-09-23 17:27:39.246113,42.57,38.705738,-0.0027359787006383035,-0.023579196463302005,0.09705279702197278,40.106058693909645,-96.25519929585457,80.21211738781929
2024-09-23 17:27:39.288240,42.57,38.705789,-0.002785727465249955,-0.02352945757203875,0.09720203344245934,40.106058693909645,-92.24360919585227,76.200527287817
2024-09-23 17:27:39.332687,42.39,38.705789,-0.002785727465249955,-0.02352945757203875,0.09720203344245934,36.09446859390736,-92.24360919585227,84.22370748782159
2024-09-23 17:27:39.344420,42.39,38.705839,-0.0028354659767690416,-0.022982261414192504,0.09720203344245934,36.09446859390736,-92.24360919585227,84.22370748782159
2024-09-23 17:27:39.378120,42.39,38.705839,-0.0028354659767690416,-0.022982261414192504,0.09720203344245934,36.09446859390736,-92.24360919585227,84.22370748782159
2024-09-23 17:27:39.389043,42.39,38.70589,-0.0029349636958644295,-0.022982261414192504,0.09720203344245934,36.09446859390736,-100.26678939585686,76.200527287817
2024-09-23 17:27:39.432734,42.39,38.70589,-0.0029349636958644295,-0.023330473146428877,0.0970030596496862,36.09446859390736,-96.25519929585457,76.200527287817
2024-09-23 17:27:39.444618,42.39,38.705977,-0.0029349636958644295,-0.023330473146428877,0.0970030596496862,36.09446859390736,-96.25519929585457,76.200527287817
2024-09-23 17:27:39.478658,42.39,38.705977,-0.002785727465249955,-0.02263404056809607,0.0970030596496862,36.09446859390736,-96.25519929585457,76.200527287817
2024-09-23 17:27:39.490897,42.39,38.705977,-0.002785727465249955,-0.02263404056809607,0.0970030596496862,48.12595698684454,-100.26678939585686,76.200527287817
2024-09-23 17:27:39.524581,42.39,38.706029,-0.002785727465249955,-0.02263404056809607,0.0970030596496862,48.12595698684454,-100.26678939585686,76.200527287817
2024-09-23 17:27:39.536205,42.39,38.706029,-0.0031339382481259063,-0.023181236725942318,0.0970030596496862,40.106058693909645,-96.25519929585457,76.200527287817
2024-09-23 17:27:39.578757,42.39,38.706079,-0.002785727465249955,-0.023230986250042305,0.09745075675933246,40.106058693909645,-96.25519929585457,80.21211738781929
2024-09-23 17:27:39.591013,42.39,38.706079,-0.002785727465249955,-0.023230986250042305,0.09745075675933246,36.09446859390736,-96.25519929585457,80.21211738781929
2024-09-23 17:27:39.622965,42.39,38.706079,-0.002785727465249955,-0.023230986250042305,0.09745075675933246,36.09446859390736,-92.24360919585227,76.200527287817
2024-09-23 17:27:39.634483,42.39,38.70613,-0.003233425524256645,-0.02338022115155219,0.09690356060148622,36.09446859390736,-92.24360919585227,76.200527287817
2024-09-23 17:27:39.677279,42.39,38.706181,-0.0029847020175114316,-0.024076653729884996,0.09690356060148622,36.09446859390736,-88.23529758782387,84.22370748782159
2024-09-23 17:27:39.719694,42.39,38.706181,-0.0029847020175114316,-0.024076653729884996,0.09715228999426605,36.09446859390736,-88.23529758782387,84.22370748782159
2024-09-23 17:27:39.731190,42.39,38.706231,-0.0025369937054121774,-0.024076653729884996,0.09715228999426605,36.09446859390736,-96.25519929585457,80.21211738781929
2024-09-23 17:27:39.773076,42.39,38.706231,-0.0025369937054121774,-0.023230986250042305,0.09705279702197278,44.11764879391193,-92.24360919585227,76.200527287817
2024-09-23 17:27:39.784809,42.39,38.706318,-0.0025369937054121774,-0.023230986250042305,0.09705279702197278,44.11764879391193,-92.24360919585227,76.200527287817
2024-09-23 17:27:39.816512,42.39,38.706318,-0.0031339382481259063,-0.023230986250042305,0.09705279702197278,44.11764879391193,-92.24360919585227,76.200527287817
2024-09-23 17:27:39.827495,42.39,38.706318,-0.0031339382481259063,-0.02303200030545576,0.09670458680871308,36.09446859390736,-92.24360919585227,76.200527287817
2024-09-23 17:27:39.871264,42.39,38.70637,-0.0026862297461545674,-0.023827930413011865,0.09745075675933246,40.106058693909645,-92.24360919585227,76.200527287817
2024-09-23 17:27:39.882904,42.39,38.70637,-0.0026862297461545674,-0.023827930413011865,0.09745075675933246,40.106058693909645,-92.24360919585227,76.200527287817
2024-09-23 17:27:39.915126,42.39,38.706421,-0.0026862297461545674,-0.023827930413011865,0.09745075675933246,40.106058693909645,-92.24360919585227,76.200527287817
2024-09-23 17:27:39.926252,42.39,38.706421,-0.0021887829225362256,-0.023579196463302005,0.09774922960030558,44.11764879391193,-92.24360919585227,76.200527287817
2024-09-23 17:27:39.968920,42.39,38.706471,-0.0033329230534799477,-0.023579196463302005,0.09774922960030558,44.11764879391193,-92.24360919585227,76.200527287817
2024-09-23 17:27:39.980951,42.39,38.706471,-0.0033329230534799477,-0.023579196463302005,0.09680407370509965,44.11764879391193,-92.24360919585227,76.200527287817
2024-09-23 17:27:40.013928,42.39,38.706471,-0.0033329230534799477,-0.023579196463302005,0.09680407370509965,44.11764879391193,-96.25519929585457,80.21211738781929
2024-09-23 17:27:40.025634,42.39,38.706522,-0.0031836870127375577,-0.02308174982955575,0.09680407370509965,44.11764879391193,-96.25519929585457,80.21211738781929
2024-09-23 17:27:40.068545,42.39,38.706573,-0.002586742470023829,-0.02308174982955575,0.09685382322919964,48.12595698684454,-92.24360919585227,80.21211738781929
2024-09-23 17:27:40.111740,42.39,38.706573,-0.002586742470023829,-0.023280723622328886,0.0970030596496862,36.09446859390736,-92.24360919585227,80.21211738781929
2024-09-23 17:27:40.125914,42.39,38.70666,-0.002586742470023829,-0.023280723622328886,0.0970030596496862,36.09446859390736,-96.25519929585457,72.1922225099802
