Ayaan's Suite
Timestamp,Sample Rate (Hz),Time,Ax,Ay,Az,Gx,Gy,Gz
2024-09-23 08:55:12.142455,0,7.957959,-0.0034324103296106863,-0.023280723622328886,0.09725178296655933,40.106058693909645,-100.26678939585686,80.21211738781929
2024-09-23 08:55:12.154175,0,7.957959,-0.0034324103296106863,-0.023280723622328886,0.09725178296655933,40.106058693909645,-100.26678939585686,80.21211738781929
2024-09-23 08:55:12.186331,0,7.95801,-0.0034324103296106863,-0.023280723622328886,0.09725178296655933,40.106058693909645,-100.26678939585686,76.200527287817
2024-09-23 08:55:12.197914,0,7.95801,-0.0035816467500972456,-0.023827930413011865,0.09750050628343246,40.106058693909645,-100.26678939585686,76.200527287817
2024-09-23 08:55:12.240697,0,7.95806,-0.0030841997366068195,-0.02362894446842532,0.09750050628343246,40.106058693909645,-104.27510100388527,80.21211738781929
2024-09-23 08:55:12.252423,0,7.95806,-0.0030841997366068195,-0.02362894446842532,0.09705279702197278,40.106058693909645,-104.27510100388527,80.21211738781929
2024-09-23 08:55:12.285304,0,7.95806,-0.0030841997366068195,-0.02362894446842532,0.09705279702197278,44.11764879391193,-100.26678939585686,72.1922225099802
2024-09-23 08:55:12.296595,0,7.958111,-0.0029847020175114316,-0.023827930413011865,0.09705279702197278,44.11764879391193,-100.26678939585686,72.1922225099802
2024-09-23 08:55:12.339747,0,7.958162,-0.002785727465249955,-0.023827930413011865,0.09695331012558621,32.08287849390507,-100.26678939585686,72.1922225099802
2024-09-23 08:55:12.382231,0,7.958162,-0.002785727465249955,-0.023827930413011865,0.09680407370509965,32.08287849390507,-100.26678939585686,72.1922225099802
2024-09-23 08:55:12.393573,0,7.958249,-0.002785727465249955,-0.023827930413011865,0.09680407370509965,40.106058693909645,-92.24360919585227,88.23529758782387
2024-09-23 08:55:12.436462,0,7.958249,-0.0037308827908396356,-0.024026904205785005,0.09705279702197278,36.09446859390736,-88.23529758782387,88.23529758782387
2024-09-23 08:55:12.447936,0,7.958249,-0.0037308827908396356,-0.024026904205785005,0.09705279702197278,36.09446859390736,-88.23529758782387,80.21211738781929
2024-09-23 08:55:12.481448,0,7.9583,-0.0032831742888682963,-0.023479709566915436,0.09705279702197278,36.09446859390736,-88.23529758782387,80.21211738781929
2024-09-23 08:55:12.492574,0,7.9583,-0.0032831742888682963,-0.023479709566915436,0.09705279702197278,28.07457030097246,-96.25519929585457,80.21211738781929
2024-09-23 08:55:12.535532,0,7.958351,-0.0028354659767690416,-0.023330473146428877,0.09680407370509965,28.07457030097246,-96.25519929585457,80.21211738781929
2024-09-23 08:55:12.578088,0,7.958402,-0.0028354659767690416,-0.023330473146428877,0.09680407370509965,28.07457030097246,-96.25519929585457,80.21211738781929
2024-09-23 08:55:12.589710,0,7.958402,-0.0033329230534799477,-0.02338022115155219,0.09705279702197278,28.07457030097246,-96.25519929585457,80.21211738781929
2024-09-23 08:55:12.632204,0,7.958452,-0.0033329230534799477,-0.023778180888911878,0.09705279702197278,44.11764879391193,-100.26678939585686,84.22370748782159
2024-09-23 08:55:12.675407,0,7.958452,-0.0033329230534799477,-0.023778180888911878,0.09745075675933246,36.09446859390736,-100.26678939585686,84.22370748782159
2024-09-23 08:55:12.686658,0,7.958503,-0.003382661564999035,-0.023778180888911878,0.09745075675933246,36.09446859390736,-100.26678939585686,80.21211738781929
2024-09-23 08:55:12.729007,0,7.95859,-0.003382661564999035,-0.024176140626271565,0.09745075675933246,32.08287849390507,-96.25519929585457,80.21211738781929
2024-09-23 08:55:12.771243,0,7.95859,-0.0033329230534799477,-0.023579196463302005,0.09745075675933246,32.08287849390507,-96.25519929585457,80.21211738781929
2024-09-23 08:55:12.783519,0,7.95859,-0.0033329230534799477,-0.023579196463302005,0.0970030596496862,36.09446859390736,-100.26678939585686,80.21211738781929
2024-09-23 08:55:12.826072,0,7.958642,-0.0028354659767690416,-0.024325377046758124,0.09670458680871308,28.07457030097246,-100.26678939585686,80.21211738781929
2024-09-23 08:55:12.838579,0,7.958642,-0.0028354659767690416,-0.024325377046758124,0.09670458680871308,28.07457030097246,-100.26678939585686,80.21211738781929
2024-09-23 08:55:12.870769,0,7.958692,-0.0028354659767690416,-0.024325377046758124,0.09670458680871308,28.07457030097246,-100.26678939585686,80.21211738781929
2024-09-23 08:55:12.882021,0,7.958692,-0.0035816467500972456,-0.02367869399252531,0.0970030596496862,32.08287849390507,-100.26678939585686,80.21211738781929
2024-09-23 08:55:12.924775,0,7.958743,-0.003482159473966507,-0.023827930413011865,0.09675432418099966,32.08287849390507,-100.26678939585686,80.21211738781929
2024-09-23 08:55:12.966663,0,7.958743,-0.003482159473966507,-0.023827930413011865,0.09675432418099966,40.106058693909645,-96.25519929585457,80.21211738781929
2024-09-23 08:55:12.978354,0,7.958794,-0.002785727465249955,-0.023827930413011865,0.09675432418099966,40.106058693909645,-96.25519929585457,80.21211738781929
2024-09-23 08:55:13.019941,0,7.958794,-0.002785727465249955,-0.023778180888911878,0.09710254654607277,32.08287849390507,-108.28669110388756,76.200527287817
2024-09-23 08:55:13.031665,0,7.958844,-0.002785727465249955,-0.023778180888911878,0.09710254654607277,32.08287849390507,-108.28669110388756,76.200527287817
2024-09-23 08:55:13.064304,0,7.958844,-0.003631395514708897,-0.02362894446842532,0.09710254654607277,32.08287849390507,-108.28669110388756,76.200527287817
2024-09-23 08:55:13.075831,0,7.958844,-0.003631395514708897,-0.02362894446842532,0.09685382322919964,36.09446859390736,-96.25519929585457,76.200527287817
2024-09-23 08:55:13.118041,43.17,7.958931,-0.0031339382481259063,-0.02397715620066169,0.09680407370509965,40.106058693909645,-96.25519929585457,76.200527287817
2024-09-23 08:55:13.129859,43.17,7.958931,-0.0031339382481259063,-0.02397715620066169,0.09680407370509965,40.106058693909645,-92.24360919585227,76.200527287817
2024-09-23 08:55:13.163177,43.17,7.958983,-0.0029847020175114316,-0.02397715620066169,0.09680407370509965,40.106058693909645,-92.24360919585227,72.1922225099802
2024-09-23 08:55:13.174744,43.17,7.958983,-0.0029847020175114316,-0.023429960042815445,0.09755024973162574,32.08287849390507,-92.24360919585227,72.1922225099802
2024-09-23 08:55:13.217281,43.17,7.959033,-0.0036811340262279837,-0.024026904205785005,0.09725178296655933,32.08287849390507,-96.25519929585457,80.21211738781929
2024-09-23 08:55:13.260410,43.17,7.959033,-0.0036811340262279837,-0.024026904205785005,0.09725178296655933,40.106058693909645,-100.26678939585686,76.200527287817
2024-09-23 08:55:13.272145,43.17,7.959084,-0.003233425524256645,-0.02397715620066169,0.09725178296655933,40.106058693909645,-100.26678939585686,76.200527287817
2024-09-23 08:55:13.315442,43.17,7.959135,-0.002785727465249955,-0.02397715620066169,0.09755024973162574,44.11764879391193,-96.25519929585457,80.21211738781929
2024-09-23 08:55:13.358219,43.17,7.959135,-0.002785727465249955,-0.023927417309398437,0.0970030596496862,36.09446859390736,-96.25519929585457,80.21211738781929
2024-09-23 08:55:13.369951,43.17,7.959224,-0.002785727465249955,-0.023927417309398437,0.0970030596496862,36.09446859390736,-100.26678939585686,84.22370748782159
2024-09-23 08:55:13.413145,43.17,7.959224,-0.003482159473966507,-0.02362894446842532,0.09750050628343246,32.08287849390507,-92.24360919585227,84.22370748782159
2024-09-23 08:55:13.456630,43.17,7.959275,-0.0033329230534799477,-0.023877669304275123,0.09750050628343246,32.08287849390507,-92.24360919585227,84.22370748782159
2024-09-23 08:55:13.468069,43.17,7.959275,-0.0033329230534799477,-0.023877669304275123,0.09650560086412653,32.08287849390507,-92.24360919585227,84.22370748782159
2024-09-23 08:55:13.502954,43.17,7.959275,-0.0033329230534799477,-0.023877669304275123,0.09650560086412653,32.08287849390507,-92.24360919585227,80.21211738781929
2024-09-23 08:55:13.515147,43.17,7.959326,-0.0033329230534799477,-0.02367869399252531,0.09725178296655933,32.08287849390507,-92.24360919585227,80.21211738781929
2024-09-23 08:55:13.558275,43.17,7.959377,-0.0031339382481259063,-0.02362894446842532,0.09665483728461309,32.08287849390507,-96.25519929585457,76.200527287817
2024-09-23 08:55:13.601263,43.17,7.959377,-0.0031339382481259063,-0.02362894446842532,0.09665483728461309,28.07457030097246,-96.25519929585457,72.1922225099802
2024-09-23 08:55:13.612292,43.17,7.959428,-0.0031836870127375577,-0.023877669304275123,0.09665483728461309,28.07457030097246,-96.25519929585457,72.1922225099802
2024-09-23 08:55:13.654863,43.17,7.959478,-0.0029847020175114316,-0.023877669304275123,0.09690356060148622,36.09446859390736,-92.24360919585227,80.21211738781929
2024-09-23 08:55:13.697569,43.17,7.959478,-0.0029847020175114316,-0.02412639262114825,0.09650560086412653,36.09446859390736,-92.24360919585227,80.21211738781929
2024-09-23 08:55:13.709200,43.17,7.959565,-0.0029847020175114316,-0.02412639262114825,0.09650560086412653,40.106058693909645,-92.24360919585227,80.21211738781929
2024-09-23 08:55:13.751078,43.17,7.959565,-0.0030841997366068195,-0.023877669304275123,0.09685382322919964,32.08287849390507,-96.25519929585457,80.21211738781929
2024-09-23 08:55:13.763076,43.17,7.959565,-0.0030841997366068195,-0.023877669304275123,0.09685382322919964,32.08287849390507,-96.25519929585457,84.22370748782159
2024-09-23 08:55:13.795482,43.17,7.959617,-0.0038303700669703737,-0.023877669304275123,0.09685382322919964,32.08287849390507,-96.25519929585457,84.22370748782159
2024-09-23 08:55:13.806601,43.17,7.959617,-0.0038303700669703737,-0.023827930413011865,0.09755024973162574,44.11764879391193,-96.25519929585457,84.22370748782159
2024-09-23 08:55:13.849577,43.17,7.959667,-0.003233425524256645,-0.023429960042815445,0.0970030596496862,44.11764879391193,-96.25519929585457,80.21211738781929
2024-09-23 08:55:13.861383,43.17,7.959667,-0.003233425524256645,-0.023429960042815445,0.0970030596496862,40.106058693909645,-96.25519929585457,80.21211738781929
2024-09-23 08:55:13.895549,43.17,7.959718,-0.003233425524256645,-0.023429960042815445,0.0970030596496862,40.106058693909645,-100.26678939585686,84.22370748782159
2024-09-23 08:55:13.906874,43.17,7.959718,-0.0029847020175114316,-0.02362894446842532,0.09680407370509965,40.106058693909645,-100.26678939585686,84.22370748782159
2024-09-23 08:55:13.949099,43.17,7.959769,-0.0029349636958644295,-0.02362894446842532,0.09680407370509965,48.12595698684454,-92.24360919585227,76.200527287817
2024-09-23 08:55:13.991894,43.17,7.959769,-0.0029349636958644295,-0.02362894446842532,0.09745075675933246,40.106058693909645,-92.24360919585227,76.200527287817
2024-09-23 08:55:14.004133,43.17,7.959819,-0.0035816467500972456,-0.02362894446842532,0.09745075675933246,40.106058693909645,-100.26678939585686,76.200527287817
2024-09-23 08:55:14.036466,43.17,7.959819,-0.0035816467500972456,-0.02367869399252531,0.09745075675933246,40.106058693909645,-100.26678939585686,76.200527287817
2024-09-23 08:55:14.047918,43.17,7.959819,-0.0035816467500972456,-0.02367869399252531,0.0973015264147526,40.106058693909645,-100.26678939585686,84.22370748782159
2024-09-23 08:55:14.090246,43.17,7.959906,-0.0030841997366068195,-0.023230986250042305,0.09645586349183995,40.106058693909645,-100.26678939585686,84.22370748782159
2024-09-23 08:55:14.101857,43.17,7.959906,-0.0030841997366068195,-0.023230986250042305,0.09645586349183995,40.106058693909645,-100.26678939585686,84.22370748782159
2024-09-23 08:55:14.134539,43.72,7.959906,-0.0030841997366068195,-0.023230986250042305,0.09645586349183995,40.106058693909645,-100.26678939585686,76.200527287817
2024-09-23 08:55:14.146388,43.72,7.959958,-0.0037308827908396356,-0.023429960042815445,0.09685382322919964,36.09446859390736,-100.26678939585686,76.200527287817
2024-09-23 08:55:14.188433,43.72,7.960009,-0.0026862297461545674,-0.023429960042815445,0.09685382322919964,36.09446859390736,-100.26678939585686,80.21211738781929
2024-09-23 08:55:14.200379,43.72,7.960009,-0.0026862297461545674,-0.02362894446842532,0.09705279702197278,36.09446859390736,-100.26678939585686,80.21211738781929
2024-09-23 08:55:14.232027,43.72,7.960009,-0.0026862297461545674,-0.02362894446842532,0.09705279702197278,32.08287849390507,-100.26678939585686,80.21211738781929
2024-09-23 08:55:14.243535,43.72,7.960059,-0.0031339382481259063,-0.024076653729884996,0.09705279702197278,32.08287849390507,-92.24360919585227,80.21211738781929
2024-09-23 08:55:14.286525,43.72,7.960059,-0.0031339382481259063,-0.024076653729884996,0.0966050877605131,32.08287849390507,-100.26678939585686,76.200527287817
2024-09-23 08:55:14.298240,43.72,7.96011,-0.0028852147413806935,-0.024076653729884996,0.0966050877605131,32.08287849390507,-100.26678939585686,76.200527287817
2024-09-23 08:55:14.330736,43.72,7.96011,-0.0028852147413806935,-0.023230986250042305,0.0966050877605131,32.08287849390507,-100.26678939585686,76.200527287817
2024-09-23 08:55:14.342063,43.72,7.960199,-0.0028852147413806935,-0.023230986250042305,0.09675432418099966,44.11764879391193,-100.26678939585686,76.200527287817
2024-09-23 08:55:14.385718,43.72,7.960199,-0.0035318979854855937,-0.02397715620066169,0.0973015264147526,40.106058693909645,-96.25519929585457,76.200527287817
2024-09-23 08:55:14.397447,43.72,7.960199,-0.0035318979854855937,-0.02397715620066169,0.0973015264147526,40.106058693909645,-96.25519929585457,76.200527287817
2024-09-23 08:55:14.429038,43.72,7.96025,-0.003631395514708897,-0.02397715620066169,0.0973015264147526,40.106058693909645,-96.25519929585457,76.200527287817
2024-09-23 08:55:14.440275,43.72,7.96025,-0.003631395514708897,-0.023728432883788564,0.09755024973162574,36.09446859390736,-92.24360919585227,76.200527287817
2024-09-23 08:55:14.482328,43.72,7.960301,-0.0032831742888682963,-0.02362894446842532,0.09720203344245934,36.09446859390736,-92.24360919585227,76.200527287817
2024-09-23 08:55:14.494145,43.72,7.960301,-0.0032831742888682963,-0.02362894446842532,0.09720203344245934,28.07457030097246,-92.24360919585227,76.200527287817
2024-09-23 08:55:14.526616,43.72,7.960301,-0.0032831742888682963,-0.02362894446842532,0.09720203344245934,28.07457030097246,-96.25519929585457,80.21211738781929
2024-09-23 08:55:14.538011,43.72,7.960352,-0.003631395514708897,-0.023877669304275123,0.0973015264147526,28.07457030097246,-96.25519929585457,80.21211738781929
2024-09-23 08:55:14.580605,43.72,7.960403,-0.0032831742888682963,-0.023877669304275123,0.0973015264147526,32.08287849390507,-96.25519929585457,76.200527287817
2024-09-23 08:55:14.593197,43.72,7.960403,-0.0032831742888682963,-0.023728432883788564,0.0973015264147526,32.08287849390507,-96.25519929585457,76.200527287817
2024-09-23 08:55:14.626276,43.72,7.960403,-0.0032831742888682963,-0.023728432883788564,0.09670458680871308,36.09446859390736,-96.25519929585457,76.200527287817
2024-09-23 08:55:14.679107,43.72,7.960454,-0.0031836870127375577,-0.023330473146428877,0.09764974270391902,36.09446859390736,-100.26678939585686,80.21211738781929
2024-09-23 08:55:14.721399,43.72,7.960454,-0.0031836870127375577,-0.023330473146428877,0.09764974270391902,32.08287849390507,-96.25519929585457,80.21211738781929
2024-09-23 08:55:14.733796,43.72,7.96054,-0.0030344509719951677,-0.02397715620066169,0.09764974270391902,32.08287849390507,-96.25519929585457,80.21211738781929
2024-09-23 08:55:14.777602,43.72,7.960592,-0.0036811340262279837,-0.02397715620066169,0.09784872257259886,44.11764879391193,-92.24360919585227,88.23529758782387
2024-09-23 08:55:14.820234,43.72,7.960592,-0.0036811340262279837,-0.023280723622328886,0.09725178296655933,32.08287849390507,-92.24360919585227,88.23529758782387
2024-09-23 08:55:14.831494,43.72,7.960642,-0.0036811340262279837,-0.023280723622328886,0.09725178296655933,32.08287849390507,-96.25519929585457,80.21211738781929
2024-09-23 08:55:14.874799,43.72,7.960642,-0.0032831742888682963,-0.02338022115155219,0.09655535038822652,32.08287849390507,-96.25519929585457,76.200527287817
2024-09-23 08:55:14.916890,43.72,7.960736,-0.0033329230534799477,-0.02338022115155219,0.09655535038822652,32.08287849390507,-96.25519929585457,76.200527287817
2024-09-23 08:55:14.928082,43.72,7.960736,-0.0033329230534799477,-0.02367869399252531,0.0973015264147526,36.09446859390736,-100.26678939585686,76.200527287817
2024-09-23 08:55:14.971081,43.72,7.960787,-0.0031836870127375577,-0.02352945757203875,0.0970030596496862,36.09446859390736,-100.26678939585686,80.21211738781929
2024-09-23 08:55:14.983140,43.72,7.960787,-0.0031836870127375577,-0.02352945757203875,0.0970030596496862,40.106058693909645,-100.26678939585686,80.21211738781929
2024-09-23 08:55:15.016095,43.72,7.960838,-0.0031836870127375577,-0.02352945757203875,0.0970030596496862,40.106058693909645,-100.26678939585686,80.21211738781929
2024-09-23 08:55:15.027305,43.72,7.960838,-0.0028852147413806935,-0.02308174982955575,0.09685382322919964,40.106058693909645,-100.26678939585686,80.21211738781929
2024-09-23 08:55:15.070029,43.72,7.960888,-0.0033329230534799477,-0.023579196463302005,0.09685382322919964,40.106058693909645,-96.25519929585457,80.21211738781929
2024-09-23 08:55:15.112549,43.72,7.960888,-0.0033329230534799477,-0.023579196463302005,0.09715228999426605,36.09446859390736,-100.26678939585686,80.21211738781929
2024-09-23 08:55:15.123852,43.72,7.960939,-0.0030344509719951677,-0.023579196463302005,0.09715228999426605,36.09446859390736,-100.26678939585686,84.22370748782159
2024-09-23 08:55:15.166110,43.69,7.960939,-0.0030344509719951677,-0.023877669304275123,0.09680407370509965,40.106058693909645,-100.26678939585686,80.21211738781929
2024-09-23 08:55:15.177939,43.69,7.961028,-0.0030344509719951677,-0.023877669304275123,0.09680407370509965,40.106058693909645,-100.26678939585686,80.21211738781929
2024-09-23 08:55:15.210740,43.69,7.961028,-0.0032831742888682963,-0.023181236725942318,0.0973015264147526,40.106058693909645,-100.26678939585686,80.21211738781929
2024-09-23 08:55:15.222402,43.69,7.961028,-0.0032831742888682963,-0.023181236725942318,0.0973015264147526,44.11764879391193,-92.24360919585227,80.21211738781929
2024-09-23 08:55:15.265147,43.69,7.961079,-0.002785727465249955,-0.023280723622328886,0.09665483728461309,44.11764879391193,-96.25519929585457,80.21211738781929
2024-09-23 08:55:15.308012,43.69,7.96113,-0.0035318979854855937,-0.023280723622328886,0.09665483728461309,44.11764879391193,-96.25519929585457,76.200527287817
2024-09-23 08:55:15.319596,43.69,7.96113,-0.0035318979854855937,-0.024375126570858115,0.09705279702197278,32.08287849390507,-96.25519929585457,76.200527287817
2024-09-23 08:55:15.362666,43.69,7.961181,-0.0029847020175114316,-0.023778180888911878,0.09705279702197278,32.08287849390507,-92.24360919585227,80.21211738781929
2024-09-23 08:55:15.374680,43.69,7.961181,-0.0029847020175114316,-0.023778180888911878,0.0962568775472534,32.08287849390507,-92.24360919585227,80.21211738781929
2024-09-23 08:55:15.407560,43.69,7.961181,-0.0029847020175114316,-0.023778180888911878,0.0962568775472534,32.08287849390507,-100.26678939585686,84.22370748782159
2024-09-23 08:55:15.418879,43.69,7.961231,-0.003382661564999035,-0.023927417309398437,0.0962568775472534,32.08287849390507,-100.26678939585686,84.22370748782159
2024-09-23 08:55:15.451943,43.69,7.961231,-0.003382661564999035,-0.023927417309398437,0.09630662707135339,32.08287849390507,-100.26678939585686,84.22370748782159
2024-09-23 08:55:15.463372,43.69,7.961282,-0.0035816467500972456,-0.023927417309398437,0.09630662707135339,32.08287849390507,-100.26678939585686,80.21211738781929
2024-09-23 08:55:15.506811,43.69,7.961282,-0.0035816467500972456,-0.02367869399252531,0.09690356060148622,40.106058693909645,-100.26678939585686,76.200527287817
2024-09-23 08:55:15.518779,43.69,7.961369,-0.0035816467500972456,-0.02367869399252531,0.09690356060148622,40.106058693909645,-100.26678939585686,76.200527287817
2024-09-23 08:55:15.551476,43.69,7.961369,-0.0032831742888682963,-0.024026904205785005,0.09645586349183995,40.106058693909645,-100.26678939585686,76.200527287817
2024-09-23 08:55:15.562598,43.69,7.961369,-0.0032831742888682963,-0.024026904205785005,0.09645586349183995,36.09446859390736,-104.27510100388527,72.1922225099802
2024-09-23 08:55:15.604629,43.69,7.96142,-0.0031836870127375577,-0.023330473146428877,0.09750050628343246,36.09446859390736,-100.26678939585686,72.1922225099802
2024-09-23 08:55:15.648463,43.69,7.961471,-0.0031836870127375577,-0.023330473146428877,0.09750050628343246,36.09446859390736,-100.26678939585686,72.1922225099802
2024-09-23 08:55:15.660019,43.69,7.961471,-0.003780631555451287,-0.02362894446842532,0.09710254654607277,36.09446859390736,-100.26678939585686,72.1922225099802
2024-09-23 08:55:15.702978,43.69,7.961522,-0.0031339382481259063,-0.023230986250042305,0.09710254654607277,36.09446859390736,-104.27510100388527,80.21211738781929
2024-09-23 08:55:15.714446,43.69,7.961522,-0.0031339382481259063,-0.023230986250042305,0.0970030596496862,36.09446859390736,-104.27510100388527,80.21211738781929
2024-09-23 08:55:15.746831,43.69,7.961522,-0.0031339382481259063,-0.023230986250042305,0.0970030596496862,40.106058693909645,-96.25519929585457,80.21211738781929
2024-09-23 08:55:15.758030,43.69,7.961572,-0.002636491424507565,-0.02352945757203875,0.0970030596496862,40.106058693909645,-96.25519929585457,80.21211738781929
2024-09-23 08:55:15.800967,43.69,7.961624,-0.003482159473966507,-0.02352945757203875,0.09755024973162574,28.07457030097246,-100.26678939585686,76.200527287817
2024-09-23 08:55:15.842642,43.69,7.961624,-0.003482159473966507,-0.023778180888911878,0.09705279702197278,28.07457030097246,-100.26678939585686,76.200527287817
2024-09-23 08:55:15.853993,43.69,7.96171,-0.003482159473966507,-0.023778180888911878,0.09705279702197278,32.08287849390507,-100.26678939585686,80.21211738781929
2024-09-23 08:55:15.896440,43.69,7.96171,-0.0025369937054121774,-0.02367869399252531,0.09690356060148622,40.106058693909645,-104.27510100388527,80.21211738781929
2024-09-23 08:55:15.908202,43.69,7.96171,-0.0025369937054121774,-0.02367869399252531,0.09690356060148622,40.106058693909645,-104.27510100388527,80.21211738781929
2024-09-23 08:55:15.940329,43.69,7.961762,-0.0035318979854855937,-0.02367869399252531,0.09690356060148622,40.106058693909645,-104.27510100388527,80.21211738781929
2024-09-23 08:55:15.951547,43.69,7.961762,-0.0035318979854855937,-0.023330473146428877,0.09710254654607277,40.106058693909645,-92.24360919585227,80.21211738781929
2024-09-23 08:55:15.994906,43.69,7.961812,-0.0030344509719951677,-0.023728432883788564,0.09645586349183995,40.106058693909645,-92.24360919585227,76.200527287817
2024-09-23 08:55:16.006587,43.69,7.961812,-0.0030344509719951677,-0.023728432883788564,0.09645586349183995,44.11764879391193,-92.24360919585227,76.200527287817
2024-09-23 08:55:16.038105,43.69,7.961812,-0.0030344509719951677,-0.023728432883788564,0.09645586349183995,44.11764879391193,-100.26678939585686,76.200527287817
2024-09-23 08:55:16.049444,43.69,7.961863,-0.0034324103296106863,-0.023429960042815445,0.0970030596496862,44.11764879391193,-100.26678939585686,76.200527287817
2024-09-23 08:55:16.092464,43.69,7.961914,-0.0032831742888682963,-0.023728432883788564,0.0970030596496862,32.08287849390507,-104.27510100388527,76.200527287817
2024-09-23 08:55:16.136310,43.69,7.961914,-0.0032831742888682963,-0.023728432883788564,0.0973015264147526,40.106058693909645,-104.27510100388527,76.200527287817
2024-09-23 08:55:16.147630,43.69,7.961964,-0.003382661564999035,-0.023728432883788564,0.0973015264147526,40.106058693909645,-92.24360919585227,84.22370748782159
2024-09-23 08:55:16.190014,44.0,7.962052,-0.003382661564999035,-0.02362894446842532,0.09680407370509965,32.08287849390507,-100.26678939585686,80.21211738781929
2024-09-23 08:55:16.233078,44.0,7.962052,-0.0024872551938930902,-0.023579196463302005,0.09680407370509965,32.08287849390507,-100.26678939585686,80.21211738781929
2024-09-23 08:55:16.245219,44.0,7.962052,-0.0024872551938930902,-0.023579196463302005,0.09655535038822652,32.08287849390507,-100.26678939585686,76.200527287817
2024-09-23 08:55:16.288360,44.0,7.962103,-0.0030344509719951677,-0.023579196463302005,0.09655535038822652,32.08287849390507,-100.26678939585686,76.200527287817
2024-09-23 08:55:16.330504,44.0,7.962103,-0.0030344509719951677,-0.02338022115155219,0.09650560086412653,32.08287849390507,-100.26678939585686,76.200527287817
2024-09-23 08:55:16.342576,44.0,7.962154,-0.0030344509719951677,-0.02338022115155219,0.09650560086412653,36.09446859390736,-92.24360919585227,92.24360919585227
2024-09-23 08:55:16.386420,44.0,7.962154,-0.0030344509719951677,-0.02352945757203875,0.09675432418099966,32.08287849390507,-96.25519929585457,80.21211738781929
2024-09-23 08:55:16.429600,44.0,7.962204,-0.003233425524256645,-0.02412639262114825,0.09675432418099966,32.08287849390507,-96.25519929585457,80.21211738781929
2024-09-23 08:55:16.441148,44.0,7.962204,-0.003233425524256645,-0.02412639262114825,0.09675432418099966,36.09446859390736,-96.25519929585457,80.21211738781929
2024-09-23 08:55:16.483843,44.0,7.962255,-0.0033329230534799477,-0.02352945757203875,0.09690356060148622,40.106058693909645,-96.25519929585457,84.22370748782159
2024-09-23 08:55:16.527019,44.0,7.962306,-0.0033329230534799477,-0.02352945757203875,0.09690356060148622,40.106058693909645,-104.27510100388527,76.200527287817
2024-09-23 08:55:16.538511,44.0,7.962306,-0.0033329230534799477,-0.02338022115155219,0.0970030596496862,40.106058693909645,-104.27510100388527,76.200527287817
2024-09-23 08:55:16.580443,44.0,7.962395,-0.003382661564999035,-0.023728432883788564,0.0970030596496862,40.106058693909645,-92.24360919585227,84.22370748782159
2024-09-23 08:55:16.623161,44.0,7.962395,-0.003382661564999035,-0.023728432883788564,0.09690356060148622,36.09446859390736,-92.24360919585227,84.22370748782159
2024-09-23 08:55:16.634803,44.0,7.962446,-0.003482159473966507,-0.023728432883788564,0.09690356060148622,36.09446859390736,-92.24360919585227,76.200527287817
2024-09-23 08:55:16.677469,44.0,7.962539,-0.003482159473966507,-0.023330473146428877,0.09725178296655933,36.09446859390736,-104.27510100388527,80.21211738781929
2024-09-23 08:55:16.719951,44.0,7.962539,-0.003631395514708897,-0.023877669304275123,0.09725178296655933,36.09446859390736,-104.27510100388527,80.21211738781929
2024-09-23 08:55:16.731508,44.0,7.962539,-0.003631395514708897,-0.023877669304275123,0.0966050877605131,36.09446859390736,-100.26678939585686,76.200527287817
2024-09-23 08:55:16.774859,44.0,7.962591,-0.0038303700669703737,-0.02362894446842532,0.09715228999426605,36.09446859390736,-100.26678939585686,76.200527287817
2024-09-23 08:55:16.816948,44.0,7.962641,-0.0038303700669703737,-0.02362894446842532,0.09715228999426605,36.09446859390736,-100.26678939585686,76.200527287817
2024-09-23 08:55:16.869106,44.0,7.962641,-0.0033329230534799477,-0.0228827638849692,0.09685382322919964,36.09446859390736,-100.26678939585686,76.200527287817
2024-09-23 08:55:16.881403,44.0,7.962641,-0.0033329230534799477,-0.0228827638849692,0.09685382322919964,36.09446859390736,-96.25519929585457,88.23529758782387
2024-09-23 08:55:16.913233,44.0,7.962692,-0.0033329230534799477,-0.0228827638849692,0.09685382322919964,36.09446859390736,-96.25519929585457,88.23529758782387
2024-09-23 08:55:16.924513,44.0,7.962692,-0.003233425524256645,-0.024424863943144692,0.09764974270391902,44.11764879391193,-96.25519929585457,88.23529758782387
2024-09-23 08:55:16.967404,44.0,7.962743,-0.0033329230534799477,-0.023230986250042305,0.09764974270391902,44.11764879391193,-96.25519929585457,84.22370748782159
2024-09-23 08:55:16.979232,44.0,7.962743,-0.0033329230534799477,-0.023230986250042305,0.0976994861521123,40.106058693909645,-96.25519929585457,84.22370748782159
2024-09-23 08:55:17.012709,44.0,7.962743,-0.0033329230534799477,-0.023230986250042305,0.0976994861521123,40.106058693909645,-100.26678939585686,84.22370748782159
2024-09-23 08:55:17.024147,44.0,7.962793,-0.0035816467500972456,-0.023579196463302005,0.09720203344245934,40.106058693909645,-100.26678939585686,84.22370748782159
2024-09-23 08:55:17.067048,44.0,7.96288,-0.0032831742888682963,-0.023579196463302005,0.09720203344245934,40.106058693909645,-96.25519929585457,80.21211738781929
2024-09-23 08:55:17.078818,44.0,7.96288,-0.0032831742888682963,-0.023579196463302005,0.09720203344245934,40.106058693909645,-96.25519929585457,80.21211738781929
2024-09-23 08:55:17.110264,44.0,7.96288,-0.0032831742888682963,-0.023579196463302005,0.09685382322919964,36.09446859390736,-96.25519929585457,80.21211738781929
2024-09-23 08:55:17.122374,44.0,7.962932,-0.0032831742888682963,-0.023579196463302005,0.09685382322919964,36.09446859390736,-92.24360919585227,84.22370748782159
2024-09-23 08:55:17.165100,44.0,7.962932,-0.0032831742888682963,-0.023778180888911878,0.09720203344245934,32.08287849390507,-92.24360919585227,84.22370748782159
2024-09-23 08:55:17.176966,44.0,7.963027,-0.0032831742888682963,-0.023778180888911878,0.09720203344245934,32.08287849390507,-92.24360919585227,84.22370748782159
2024-09-23 08:55:17.210070,43.43,7.963027,-0.0028354659767690416,-0.02412639262114825,0.0973512698629459,32.08287849390507,-92.24360919585227,84.22370748782159
2024-09-23 08:55:17.221324,43.43,7.963027,-0.0028354659767690416,-0.02412639262114825,0.0973512698629459,48.12595698684454,-108.28669110388756,68.18063240997792
2024-09-23 08:55:17.265116,43.43,7.963078,-0.0035318979854855937,-0.02412639262114825,0.09710254654607277,36.09446859390736,-100.26678939585686,68.18063240997792
2024-09-23 08:55:17.307982,43.43,7.963129,-0.0030344509719951677,-0.023778180888911878,0.09710254654607277,36.09446859390736,-100.26678939585686,72.1922225099802
2024-09-23 08:55:17.319700,43.43,7.963129,-0.0030344509719951677,-0.023778180888911878,0.09675432418099966,28.07457030097246,-100.26678939585686,72.1922225099802
2024-09-23 08:55:17.351698,43.43,7.963129,-0.0030344509719951677,-0.023778180888911878,0.09675432418099966,28.07457030097246,-100.26678939585686,72.1922225099802
2024-09-23 08:55:17.363928,43.43,7.963179,-0.0027359787006383035,-0.024076653729884996,0.09705279702197278,28.07457030097246,-100.26678939585686,76.200527287817
2024-09-23 08:55:17.406462,43.43,7.96323,-0.0027359787006383035,-0.024076653729884996,0.09705279702197278,40.106058693909645,-100.26678939585686,76.200527287817
2024-09-23 08:55:17.418030,43.43,7.96323,-0.003233425524256645,-0.023479709566915436,0.09705279702197278,40.106058693909645,-100.26678939585686,76.200527287817
2024-09-23 08:55:17.449433,43.43,7.96323,-0.003233425524256645,-0.023479709566915436,0.09695331012558621,40.106058693909645,-100.26678939585686,76.200527287817
2024-09-23 08:55:17.460552,43.43,7.963281,-0.003631395514708897,-0.023479709566915436,0.09695331012558621,36.09446859390736,-100.26678939585686,76.200527287817
2024-09-23 08:55:17.503685,43.43,7.963281,-0.003631395514708897,-0.023728432883788564,0.09774922960030558,32.08287849390507,-96.25519929585457,76.200527287817
2024-09-23 08:55:17.515379,43.43,7.963368,-0.003631395514708897,-0.023728432883788564,0.09774922960030558,32.08287849390507,-96.25519929585457,84.22370748782159
2024-09-23 08:55:17.546856,43.43,7.963368,-0.0033329230534799477,-0.023728432883788564,0.09774922960030558,32.08287849390507,-96.25519929585457,84.22370748782159
2024-09-23 08:55:17.559200,43.43,7.963368,-0.0033329230534799477,-0.02352945757203875,0.0973015264147526,40.106058693909645,-100.26678939585686,80.21211738781929
2024-09-23 08:55:17.602292,43.43,7.963419,-0.0027359787006383035,-0.023579196463302005,0.09720203344245934,44.11764879391193,-100.26678939585686,80.21211738781929
2024-09-23 08:55:17.614287,43.43,7.963419,-0.0027359787006383035,-0.023579196463302005,0.09720203344245934,44.11764879391193,-104.27510100388527,80.21211738781929
2024-09-23 08:55:17.646774,43.43,7.96347,-0.0027359787006383035,-0.023579196463302005,0.09720203344245934,44.11764879391193,-104.27510100388527,80.21211738781929
2024-09-23 08:55:17.658283,43.43,7.96347,-0.0031339382481259063,-0.023579196463302005,0.09715228999426605,36.09446859390736,-104.27510100388527,80.21211738781929
2024-09-23 08:55:17.699926,43.43,7.963521,-0.0030344509719951677,-0.02397715620066169,0.09715228999426605,36.09446859390736,-96.25519929585457,84.22370748782159
2024-09-23 08:55:17.711480,43.43,7.963521,-0.0030344509719951677,-0.02397715620066169,0.09745075675933246,36.09446859390736,-96.25519929585457,84.22370748782159
2024-09-23 08:55:17.744448,43.43,7.963521,-0.0030344509719951677,-0.02397715620066169,0.09745075675933246,32.08287849390507,-100.26678939585686,84.22370748782159
2024-09-23 08:55:17.755469,43.43,7.963571,-0.0033329230534799477,-0.024026904205785005,0.09745075675933246,32.08287849390507,-100.26678939585686,76.200527287817
2024-09-23 08:55:17.797792,43.43,7.963622,-0.0033329230534799477,-0.024026904205785005,0.09720203344245934,32.08287849390507,-96.25519929585457,88.23529758782387
2024-09-23 08:55:17.809782,43.43,7.963622,-0.0031836870127375577,-0.024026904205785005,0.09720203344245934,32.08287849390507,-96.25519929585457,88.23529758782387
2024-09-23 08:55:17.842031,43.43,7.963622,-0.0031836870127375577,-0.024176140626271565,0.09710254654607277,32.08287849390507,-96.25519929585457,88.23529758782387
2024-09-23 08:55:17.854127,43.43,7.963709,-0.0031836870127375577,-0.024176140626271565,0.09710254654607277,44.11764879391193,-100.26678939585686,80.21211738781929
2024-09-23 08:55:17.897724,43.43,7.963709,-0.003482159473966507,-0.023579196463302005,0.0970030596496862,36.09446859390736,-100.26678939585686,80.21211738781929
2024-09-23 08:55:17.939559,43.43,7.963761,-0.0031836870127375577,-0.023579196463302005,0.0970030596496862,36.09446859390736,-100.26678939585686,80.21211738781929
2024-09-23 08:55:17.950900,43.43,7.963761,-0.0031836870127375577,-0.023728432883788564,0.0973512698629459,40.106058693909645,-92.24360919585227,80.21211738781929
2024-09-23 08:55:17.994194,43.43,7.963811,-0.0032831742888682963,-0.02352945757203875,0.09695331012558621,40.106058693909645,-92.24360919585227,92.24360919585227
2024-09-23 08:55:18.036822,43.43,7.963811,-0.0032831742888682963,-0.02352945757203875,0.09695331012558621,40.106058693909645,-100.26678939585686,92.24360919585227
2024-09-23 08:55:18.048133,43.43,7.963862,-0.003482159473966507,-0.023827930413011865,0.09695331012558621,40.106058693909645,-100.26678939585686,88.23529758782387
2024-09-23 08:55:18.091107,43.43,7.963913,-0.003482159473966507,-0.023827930413011865,0.09705279702197278,32.08287849390507,-100.26678939585686,84.22370748782159
2024-09-23 08:55:18.103203,43.43,7.963913,-0.0038801188315820256,-0.023827930413011865,0.09705279702197278,32.08287849390507,-100.26678939585686,84.22370748782159
2024-09-23 08:55:18.135971,43.43,7.963913,-0.0038801188315820256,-0.02362894446842532,0.09695331012558621,40.106058693909645,-100.26678939585686,84.22370748782159
2024-09-23 08:55:18.147653,43.43,7.963963,-0.0038801188315820256,-0.02362894446842532,0.09695331012558621,40.106058693909645,-96.25519929585457,84.22370748782159
2024-09-23 08:55:18.189887,43.43,7.963963,-0.003233425524256645,-0.023579196463302005,0.09764974270391902,36.09446859390736,-96.25519929585457,84.22370748782159
2024-09-23 08:55:18.231838,43.7,7.96405,-0.0033329230534799477,-0.023579196463302005,0.09764974270391902,36.09446859390736,-96.25519929585457,84.22370748782159
2024-09-23 08:55:18.243995,43.7,7.96405,-0.0033329230534799477,-0.02352945757203875,0.0970030596496862,36.09446859390736,-96.25519929585457,84.22370748782159
2024-09-23 08:55:18.287385,43.7,7.964102,-0.003382661564999035,-0.02278327698858263,0.09774922960030558,40.106058693909645,-96.25519929585457,80.21211738781929
2024-09-23 08:55:18.330419,43.7,7.964153,-0.003382661564999035,-0.02278327698858263,0.09774922960030558,40.106058693909645,-88.23529758782387,84.22370748782159
2024-09-23 08:55:18.341540,43.7,7.964153,-0.003233425524256645,-0.023479709566915436,0.09715228999426605,40.106058693909645,-88.23529758782387,84.22370748782159
2024-09-23 08:55:18.385015,43.7,7.964203,-0.0033329230534799477,-0.023728432883788564,0.09715228999426605,36.09446859390736,-96.25519929585457,84.22370748782159
2024-09-23 08:55:18.428616,43.7,7.964203,-0.0033329230534799477,-0.023728432883788564,0.09720203344245934,32.08287849390507,-100.26678939585686,84.22370748782159
2024-09-23 08:55:18.439778,43.7,7.964254,-0.0028354659767690416,-0.023728432883788564,0.09720203344245934,32.08287849390507,-100.26678939585686,80.21211738781929
2024-09-23 08:55:18.481743,43.7,7.964343,-0.0028354659767690416,-0.023728432883788564,0.09685382322919964,40.106058693909645,-104.27510100388527,76.200527287817
2024-09-23 08:55:18.524450,43.7,7.964343,-0.0035816467500972456,-0.023728432883788564,0.09685382322919964,40.106058693909645,-104.27510100388527,76.200527287817
2024-09-23 08:55:18.536248,43.7,7.964343,-0.0035816467500972456,-0.023728432883788564,0.09705279702197278,40.106058693909645,-104.27510100388527,84.22370748782159
2024-09-23 08:55:18.578970,43.7,7.964394,-0.0031339382481259063,-0.02367869399252531,0.09710254654607277,40.106058693909645,-100.26678939585686,84.22370748782159
2024-09-23 08:55:18.622938,43.7,7.964445,-0.0031339382481259063,-0.02367869399252531,0.09710254654607277,40.106058693909645,-100.26678939585686,80.21211738781929
2024-09-23 08:55:18.634776,43.7,7.964445,-0.0033329230534799477,-0.023877669304275123,0.09779897304849887,36.09446859390736,-100.26678939585686,80.21211738781929
2024-09-23 08:55:18.677689,43.7,7.964496,-0.0029349636958644295,-0.02367869399252531,0.09695331012558621,36.09446859390736,-100.26678939585686,76.200527287817
2024-09-23 08:55:18.719695,43.7,7.964496,-0.0029349636958644295,-0.02367869399252531,0.09695331012558621,36.09446859390736,-100.26678939585686,76.200527287817
2024-09-23 08:55:18.730918,43.7,7.964546,-0.003482159473966507,-0.023827930413011865,0.09695331012558621,36.09446859390736,-100.26678939585686,80.21211738781929
2024-09-23 08:55:18.774537,43.7,7.964597,-0.003482159473966507,-0.023827930413011865,0.09705279702197278,36.09446859390736,-100.26678939585686,80.21211738781929
2024-09-23 08:55:18.785988,43.7,7.964597,-0.003233425524256645,-0.023827930413011865,0.09705279702197278,36.09446859390736,-100.26678939585686,80.21211738781929
2024-09-23 08:55:18.818294,43.7,7.964597,-0.003233425524256645,-0.024225890150371555,0.09710254654607277,44.11764879391193,-100.26678939585686,80.21211738781929
2024-09-23 08:55:18.829699,43.7,7.964684,-0.003233425524256645,-0.024225890150371555,0.09710254654607277,44.11764879391193,-100.26678939585686,80.21211738781929
2024-09-23 08:55:18.872210,43.7,7.964684,-0.0029847020175114316,-0.02362894446842532,0.09710254654607277,44.11764879391193,-88.23529758782387,88.23529758782387
2024-09-23 08:55:18.915213,43.7,7.964736,-0.0030841997366068195,-0.024225890150371555,0.09710254654607277,44.11764879391193,-88.23529758782387,88.23529758782387
2024-09-23 08:55:18.927158,43.7,7.964736,-0.0030841997366068195,-0.024225890150371555,0.09715228999426605,48.12595698684454,-96.25519929585457,88.23529758782387
2024-09-23 08:55:18.970251,43.7,7.964786,-0.0029349636958644295,-0.023877669304275123,0.09740101331113918,36.09446859390736,-96.25519929585457,84.22370748782159
2024-09-23 08:55:19.013186,43.7,7.964837,-0.0029349636958644295,-0.023877669304275123,0.09740101331113918,36.09446859390736,-96.25519929585457,80.21211738781929
2024-09-23 08:55:19.024962,43.7,7.964837,-0.0038303700669703737,-0.023827930413011865,0.09779897304849887,36.09446859390736,-96.25519929585457,80.21211738781929
2024-09-23 08:55:19.067544,43.7,7.964888,-0.003482159473966507,-0.024076653729884996,0.09779897304849887,40.106058693909645,-96.25519929585457,80.21211738781929
2024-09-23 08:55:19.111008,43.7,7.964888,-0.003482159473966507,-0.024076653729884996,0.09740101331113918,36.09446859390736,-100.26678939585686,80.21211738781929
2024-09-23 08:55:19.122532,43.7,7.964939,-0.0030841997366068195,-0.024076653729884996,0.09740101331113918,36.09446859390736,-100.26678939585686,84.22370748782159
2024-09-23 08:55:19.165180,43.7,7.965025,-0.0030841997366068195,-0.023579196463302005,0.0973015264147526,40.106058693909645,-100.26678939585686,84.22370748782159
2024-09-23 08:55:19.208232,43.7,7.965025,-0.0027359787006383035,-0.023728432883788564,0.09655535038822652,40.106058693909645,-100.26678939585686,84.22370748782159
2024-09-23 08:55:19.220005,43.7,7.965025,-0.0027359787006383035,-0.023728432883788564,0.09655535038822652,36.09446859390736,-96.25519929585457,80.21211738781929
2024-09-23 08:55:19.253920,43.19,7.965077,-0.0027359787006383035,-0.023728432883788564,0.09655535038822652,36.09446859390736,-96.25519929585457,80.21211738781929
2024-09-23 08:55:19.265384,43.19,7.965077,-0.0028852147413806935,-0.02338022115155219,0.09715228999426605,48.12595698684454,-100.26678939585686,80.21211738781929
2024-09-23 08:55:19.308315,43.19,7.965128,-0.0030841997366068195,-0.023479709566915436,0.0970030596496862,48.12595698684454,-100.26678939585686,84.22370748782159
2024-09-23 08:55:19.320083,43.19,7.965128,-0.0030841997366068195,-0.023479709566915436,0.0970030596496862,36.09446859390736,-100.26678939585686,84.22370748782159
2024-09-23 08:55:19.351929,43.19,7.965128,-0.0030841997366068195,-0.023479709566915436,0.0970030596496862,36.09446859390736,-92.24360919585227,84.22370748782159
2024-09-23 08:55:19.363063,43.19,7.965178,-0.0029349636958644295,-0.023429960042815445,0.0976994861521123,36.09446859390736,-92.24360919585227,84.22370748782159
2024-09-23 08:55:19.406508,43.19,7.965229,-0.003233425524256645,-0.023429960042815445,0.0976994861521123,28.07457030097246,-96.25519929585457,88.23529758782387
2024-09-23 08:55:19.418772,43.19,7.965229,-0.003233425524256645,-0.024026904205785005,0.0976994861521123,28.07457030097246,-96.25519929585457,88.23529758782387
2024-09-23 08:55:19.451219,43.19,7.965229,-0.003233425524256645,-0.024026904205785005,0.09665483728461309,40.106058693909645,-92.24360919585227,88.23529758782387
2024-09-23 08:55:19.462381,43.19,7.96528,-0.003382661564999035,-0.024026904205785005,0.09665483728461309,40.106058693909645,-92.24360919585227,84.22370748782159
2024-09-23 08:55:19.504147,43.19,7.96528,-0.003382661564999035,-0.023728432883788564,0.09665483728461309,36.09446859390736,-100.26678939585686,80.21211738781929
2024-09-23 08:55:19.517923,43.19,7.965367,-0.003382661564999035,-0.023728432883788564,0.09665483728461309,36.09446859390736,-100.26678939585686,80.21211738781929
2024-09-23 08:55:19.549775,43.19,7.965367,-0.003482159473966507,-0.023728432883788564,0.09695331012558621,36.09446859390736,-100.26678939585686,80.21211738781929
2024-09-23 08:55:19.561311,43.19,7.965367,-0.003482159473966507,-0.023728432883788564,0.09695331012558621,36.09446859390736,-100.26678939585686,76.200527287817
2024-09-23 08:55:19.603671,43.19,7.965418,-0.0028852147413806935,-0.024026904205785005,0.09685382322919964,32.08287849390507,-96.25519929585457,76.200527287817
2024-09-23 08:55:19.645453,43.19,7.965469,-0.0028852147413806935,-0.024026904205785005,0.09685382322919964,32.08287849390507,-96.25519929585457,88.23529758782387
2024-09-23 08:55:19.657152,43.19,7.965469,-0.0036811340262279837,-0.023728432883788564,0.09690356060148622,32.08287849390507,-96.25519929585457,88.23529758782387
2024-09-23 08:55:19.701243,43.19,7.96552,-0.002288270198666964,-0.02362894446842532,0.0973512698629459,32.08287849390507,-100.26678939585686,84.22370748782159
2024-09-23 08:55:19.743758,43.19,7.96552,-0.002288270198666964,-0.02362894446842532,0.0973512698629459,32.08287849390507,-92.24360919585227,84.22370748782159
2024-09-23 08:55:19.754987,43.19,7.96557,-0.0030344509719951677,-0.02352945757203875,0.0973512698629459,32.08287849390507,-92.24360919585227,80.21211738781929
2024-09-23 08:55:19.798104,43.19,7.965621,-0.003382661564999035,-0.02352945757203875,0.09680407370509965,36.09446859390736,-96.25519929585457,80.21211738781929
2024-09-23 08:55:19.840490,43.19,7.965621,-0.003382661564999035,-0.02412639262114825,0.0973512698629459,36.09446859390736,-96.25519929585457,80.21211738781929
2024-09-23 08:55:19.851902,43.19,7.965708,-0.003382661564999035,-0.02412639262114825,0.0973512698629459,36.09446859390736,-100.26678939585686,84.22370748782159
2024-09-23 08:55:19.894543,43.19,7.965708,-0.0034324103296106863,-0.023827930413011865,0.09680407370509965,32.08287849390507,-100.26678939585686,84.22370748782159
2024-09-23 08:55:19.906525,43.19,7.965708,-0.0034324103296106863,-0.023827930413011865,0.09680407370509965,32.08287849390507,-100.26678939585686,80.21211738781929
2024-09-23 08:55:19.939525,43.19,7.965759,-0.0031836870127375577,-0.023728432883788564,0.09680407370509965,32.08287849390507,-100.26678939585686,80.21211738781929
2024-09-23 08:55:19.950938,43.19,7.965759,-0.0031836870127375577,-0.023728432883788564,0.09665483728461309,32.08287849390507,-96.25519929585457,80.21211738781929
2024-09-23 08:55:19.993828,43.19,7.96581,-0.0033329230534799477,-0.023877669304275123,0.09759999317981902,40.106058693909645,-96.25519929585457,80.21211738781929
2024-09-23 08:55:20.036143,43.19,7.965861,-0.0033329230534799477,-0.023877669304275123,0.09759999317981902,40.106058693909645,-96.25519929585457,80.21211738781929
2024-09-23 08:55:20.048080,43.19,7.965861,-0.0031836870127375577,-0.02367869399252531,0.09725178296655933,40.106058693909645,-96.25519929585457,80.21211738781929
2024-09-23 08:55:20.091119,43.19,7.965911,-0.0025369937054121774,-0.023579196463302005,0.09725178296655933,36.09446859390736,-100.26678939585686,80.21211738781929
2024-09-23 08:55:20.132866,43.19,7.965911,-0.0025369937054121774,-0.023579196463302005,0.09725178296655933,36.09446859390736,-100.26678939585686,80.21211738781929
2024-09-23 08:55:20.143804,43.19,7.965962,-0.0035816467500972456,-0.023579196463302005,0.09725178296655933,36.09446859390736,-96.25519929585457,76.200527287817
2024-09-23 08:55:20.186715,43.19,7.965962,-0.0035816467500972456,-0.02362894446842532,0.0966050877605131,36.09446859390736,-100.26678939585686,84.22370748782159
2024-09-23 08:55:20.198764,43.19,7.966049,-0.0035816467500972456,-0.02362894446842532,0.0966050877605131,36.09446859390736,-100.26678939585686,84.22370748782159
2024-09-23 08:55:20.230876,43.19,7.966049,-0.0036811340262279837,-0.023280723622328886,0.0966050877605131,36.09446859390736,-100.26678939585686,84.22370748782159
2024-09-23 08:55:20.242685,43.19,7.966049,-0.0036811340262279837,-0.023280723622328886,0.09680407370509965,32.08287849390507,-100.26678939585686,80.21211738781929
2024-09-23 08:55:20.286526,43.23,7.966101,-0.003233425524256645,-0.023728432883788564,0.09740101331113918,32.08287849390507,-96.25519929585457,80.21211738781929
2024-09-23 08:55:20.330318,43.23,7.966151,-0.003382661564999035,-0.023728432883788564,0.09740101331113918,32.08287849390507,-96.25519929585457,80.21211738781929
2024-09-23 08:55:20.341397,43.23,7.966151,-0.003382661564999035,-0.023927417309398437,0.09720203344245934,36.09446859390736,-96.25519929585457,80.21211738781929
2024-09-23 08:55:20.384127,43.23,7.966202,-0.002785727465249955,-0.023280723622328886,0.09705279702197278,36.09446859390736,-100.26678939585686,76.200527287817
2024-09-23 08:55:20.428537,43.23,7.966202,-0.002785727465249955,-0.023280723622328886,0.09705279702197278,36.09446859390736,-100.26678939585686,76.200527287817
2024-09-23 08:55:20.440484,43.23,7.966253,-0.0035816467500972456,-0.02362894446842532,0.09705279702197278,36.09446859390736,-100.26678939585686,76.200527287817
2024-09-23 08:55:20.473291,43.23,7.966253,-0.0035816467500972456,-0.02362894446842532,0.09725178296655933,36.09446859390736,-100.26678939585686,76.200527287817
2024-09-23 08:55:20.484581,43.23,7.966303,-0.002636491424507565,-0.02362894446842532,0.09725178296655933,36.09446859390736,-96.25519929585457,80.21211738781929
2024-09-23 08:55:20.527291,43.23,7.966303,-0.002636491424507565,-0.02367869399252531,0.09615739065086683,40.106058693909645,-96.25519929585457,80.21211738781929
2024-09-23 08:55:20.538980,43.23,7.96639,-0.002636491424507565,-0.02367869399252531,0.09615739065086683,40.106058693909645,-96.25519929585457,80.21211738781929
2024-09-23 08:55:20.572020,43.23,7.96639,-0.0031339382481259063,-0.02362894446842532,0.09615739065086683,40.106058693909645,-96.25519929585457,80.21211738781929
2024-09-23 08:55:20.583460,43.23,7.96639,-0.0031339382481259063,-0.02362894446842532,0.09685382322919964,36.09446859390736,-104.27510100388527,76.200527287817
2024-09-23 08:55:20.626434,43.23,7.966443,-0.0030841997366068195,-0.02412639262114825,0.0966050877605131,36.09446859390736,-104.27510100388527,76.200527287817
2024-09-23 08:55:20.668648,43.23,7.966493,-0.0030841997366068195,-0.02412639262114825,0.0966050877605131,36.09446859390736,-104.27510100388527,80.21211738781929
2024-09-23 08:55:20.680683,43.23,7.966493,-0.0032831742888682963,-0.023927417309398437,0.0966050877605131,36.09446859390736,-104.27510100388527,80.21211738781929
2024-09-23 08:55:20.723631,43.23,7.966493,-0.0032831742888682963,-0.023927417309398437,0.0966050877605131,36.09446859390736,-104.27510100388527,80.21211738781929
2024-09-23 08:55:20.766065,43.23,7.966493,-0.0032831742888682963,-0.023927417309398437,0.0966050877605131,36.09446859390736,-96.25519929585457,80.21211738781929
2024-09-23 08:55:20.777453,43.23,7.966544,-0.0030344509719951677,-0.02397715620066169,0.09695331012558621,36.09446859390736,-96.25519929585457,76.200527287817
2024-09-23 08:55:20.821097,43.23,7.966595,-0.0033329230534799477,-0.02397715620066169,0.09695331012558621,40.106058693909645,-100.26678939585686,80.21211738781929
2024-09-23 08:55:20.832891,43.23,7.966595,-0.0033329230534799477,-0.02367869399252531,0.09695331012558621,40.106058693909645,-100.26678939585686,80.21211738781929
2024-09-23 08:55:20.864623,43.23,7.966595,-0.0033329230534799477,-0.02367869399252531,0.0970030596496862,36.09446859390736,-100.26678939585686,80.21211738781929
2024-09-23 08:55:20.876444,43.23,7.966645,-0.0031339382481259063,-0.02367869399252531,0.0970030596496862,36.09446859390736,-104.27510100388527,76.200527287817
2024-09-23 08:55:20.918971,43.23,7.966732,-0.0031339382481259063,-0.024076653729884996,0.09715228999426605,36.09446859390736,-96.25519929585457,80.21211738781929
2024-09-23 08:55:20.962875,43.23,7.966732,-0.0031339382481259063,-0.023479709566915436,0.09695331012558621,36.09446859390736,-96.25519929585457,80.21211738781929
2024-09-23 08:55:20.974163,43.23,7.966732,-0.0031339382481259063,-0.023479709566915436,0.09695331012558621,40.106058693909645,-96.25519929585457,76.200527287817
2024-09-23 08:55:21.016444,43.23,7.96683,-0.0034324103296106863,-0.02412639262114825,0.09675432418099966,36.09446859390736,-96.25519929585457,76.200527287817
2024-09-23 08:55:21.028451,43.23,7.96683,-0.0034324103296106863,-0.02412639262114825,0.09675432418099966,36.09446859390736,-96.25519929585457,76.200527287817
2024-09-23 08:55:21.062182,43.23,7.966881,-0.0035318979854855937,-0.02412639262114825,0.09675432418099966,36.09446859390736,-96.25519929585457,80.21211738781929
2024-09-23 08:55:21.073864,43.23,7.966881,-0.0035318979854855937,-0.023579196463302005,0.09690356060148622,28.07457030097246,-96.25519929585457,80.21211738781929
2024-09-23 08:55:21.106923,43.23,7.966881,-0.0035318979854855937,-0.023579196463302005,0.09690356060148622,28.07457030097246,-96.25519929585457,80.21211738781929
2024-09-23 08:55:21.118428,43.23,7.966932,-0.0031836870127375577,-0.023479709566915436,0.09655535038822652,28.07457030097246,-96.25519929585457,84.22370748782159
2024-09-23 08:55:21.160224,43.23,7.966982,-0.0031836870127375577,-0.023479709566915436,0.09655535038822652,36.09446859390736,-100.26678939585686,76.200527287817
2024-09-23 08:55:21.172134,43.23,7.966982,-0.0031339382481259063,-0.024076653729884996,0.09655535038822652,36.09446859390736,-100.26678939585686,76.200527287817
2024-09-23 08:55:21.205271,43.23,7.966982,-0.0031339382481259063,-0.024076653729884996,0.09720203344245934,32.08287849390507,-100.26678939585686,76.200527287817
2024-09-23 08:55:21.216601,43.23,7.967033,-0.0028852147413806935,-0.024076653729884996,0.09720203344245934,32.08287849390507,-100.26678939585686,80.21211738781929
2024-09-23 08:55:21.259023,43.23,7.967033,-0.0028852147413806935,-0.023778180888911878,0.09690356060148622,40.106058693909645,-100.26678939585686,80.21211738781929
2024-09-23 08:55:21.300636,43.25,7.967033,-0.0028852147413806935,-0.023778180888911878,0.09690356060148622,40.106058693909645,-92.24360919585227,80.21211738781929
2024-09-23 08:55:21.312329,43.25,7.967122,-0.003382661564999035,-0.02352945757203875,0.09670458680871308,40.106058693909645,-92.24360919585227,84.22370748782159
2024-09-23 08:55:21.354850,43.25,7.967122,-0.003382661564999035,-0.02352945757203875,0.09670458680871308,40.106058693909645,-104.27510100388527,84.22370748782159
2024-09-23 08:55:21.366093,43.25,7.967174,-0.0029349636958644295,-0.023877669304275123,0.09670458680871308,40.106058693909645,-104.27510100388527,84.22370748782159
2024-09-23 08:55:21.398368,43.25,7.967174,-0.0029349636958644295,-0.023877669304275123,0.09695331012558621,40.106058693909645,-104.27510100388527,84.22370748782159
2024-09-23 08:55:21.409684,43.25,7.967225,-0.0029847020175114316,-0.023877669304275123,0.09695331012558621,36.09446859390736,-104.27510100388527,80.21211738781929
2024-09-23 08:55:21.452494,43.25,7.967225,-0.0029847020175114316,-0.023230986250042305,0.09715228999426605,32.08287849390507,-96.25519929585457,80.21211738781929
2024-09-23 08:55:21.463486,43.25,7.967275,-0.0029847020175114316,-0.023230986250042305,0.09715228999426605,32.08287849390507,-96.25519929585457,76.200527287817
2024-09-23 08:55:21.506207,43.25,7.967275,-0.0035816467500972456,-0.02367869399252531,0.09675432418099966,44.11764879391193,-104.27510100388527,80.21211738781929
2024-09-23 08:55:21.548315,43.25,7.967366,-0.0026862297461545674,-0.023778180888911878,0.09675432418099966,44.11764879391193,-104.27510100388527,80.21211738781929
2024-09-23 08:55:21.559758,43.25,7.967366,-0.0026862297461545674,-0.023778180888911878,0.0970030596496862,36.09446859390736,-96.25519929585457,80.21211738781929
2024-09-23 08:55:21.603009,43.25,7.967417,-0.0035318979854855937,-0.02397715620066169,0.09759999317981902,40.106058693909645,-96.25519929585457,72.1922225099802
2024-09-23 08:55:21.645727,43.25,7.967468,-0.0035318979854855937,-0.02397715620066169,0.09759999317981902,40.106058693909645,-96.25519929585457,72.1922225099802
2024-09-23 08:55:21.657697,43.25,7.967468,-0.0036811340262279837,-0.02362894446842532,0.09650560086412653,40.106058693909645,-96.25519929585457,72.1922225099802
2024-09-23 08:55:21.702572,43.25,7.967519,-0.003482159473966507,-0.02397715620066169,0.09650560086412653,40.106058693909645,-100.26678939585686,80.21211738781929
2024-09-23 08:55:21.744269,43.25,7.967519,-0.003482159473966507,-0.02397715620066169,0.09710254654607277,36.09446859390736,-92.24360919585227,80.21211738781929
2024-09-23 08:55:21.755984,43.25,7.967569,-0.003233425524256645,-0.02397715620066169,0.09710254654607277,36.09446859390736,-92.24360919585227,80.21211738781929
2024-09-23 08:55:21.787874,43.25,7.967569,-0.003233425524256645,-0.023429960042815445,0.09710254654607277,36.09446859390736,-92.24360919585227,80.21211738781929
2024-09-23 08:55:21.799778,43.25,7.967569,-0.003233425524256645,-0.023429960042815445,0.09705279702197278,36.09446859390736,-92.24360919585227,80.21211738781929
2024-09-23 08:55:21.842594,43.25,7.967658,-0.003233425524256645,-0.023429960042815445,0.09705279702197278,36.09446859390736,-100.26678939585686,76.200527287817
2024-09-23 08:55:21.854563,43.25,7.967658,-0.0028354659767690416,-0.023927417309398437,0.09705279702197278,36.09446859390736,-100.26678939585686,76.200527287817
2024-09-23 08:55:21.887182,43.25,7.967658,-0.0028354659767690416,-0.023927417309398437,0.09650560086412653,36.09446859390736,-100.26678939585686,76.200527287817
2024-09-23 08:55:21.898287,43.25,7.96771,-0.0032831742888682963,-0.023927417309398437,0.09650560086412653,36.09446859390736,-104.27510100388527,88.23529758782387
2024-09-23 08:55:21.941259,43.25,7.96771,-0.0032831742888682963,-0.023728432883788564,0.0973015264147526,32.08287849390507,-96.25519929585457,84.22370748782159
2024-09-23 08:55:21.953005,43.25,7.96776,-0.0032831742888682963,-0.023728432883788564,0.0973015264147526,32.08287849390507,-96.25519929585457,84.22370748782159
2024-09-23 08:55:21.985749,43.25,7.96776,-0.0031339382481259063,-0.023827930413011865,0.0973015264147526,32.08287849390507,-96.25519929585457,84.22370748782159
2024-09-23 08:55:21.996868,43.25,7.96776,-0.0031339382481259063,-0.023827930413011865,0.09705279702197278,32.08287849390507,-92.24360919585227,80.21211738781929
2024-09-23 08:55:22.039299,43.25,7.967811,-0.0029349636958644295,-0.02352945757203875,0.0970030596496862,32.08287849390507,-92.24360919585227,80.21211738781929
2024-09-23 08:55:22.051255,43.25,7.967811,-0.0029349636958644295,-0.02352945757203875,0.0970030596496862,36.09446859390736,-100.26678939585686,80.21211738781929
2024-09-23 08:55:22.083458,43.25,7.967903,-0.0029349636958644295,-0.02352945757203875,0.0970030596496862,36.09446859390736,-100.26678939585686,72.1922225099802
2024-09-23 08:55:22.094707,43.25,7.967903,-0.002785727465249955,-0.02362894446842532,0.09685382322919964,40.106058693909645,-100.26678939585686,72.1922225099802
2024-09-23 08:55:22.138679,43.25,7.967954,-0.0034324103296106863,-0.02338022115155219,0.09685382322919964,40.106058693909645,-100.26678939585686,76.200527287817
2024-09-23 08:55:22.150019,43.25,7.967954,-0.0034324103296106863,-0.02338022115155219,0.0973015264147526,40.106058693909645,-100.26678939585686,76.200527287817
2024-09-23 08:55:22.182007,43.25,7.967954,-0.0034324103296106863,-0.02338022115155219,0.0973015264147526,36.09446859390736,-104.27510100388527,76.200527287817
2024-09-23 08:55:22.193877,43.25,7.968005,-0.0037308827908396356,-0.023927417309398437,0.0973015264147526,36.09446859390736,-104.27510100388527,76.200527287817
2024-09-23 08:55:22.236305,43.25,7.968055,-0.0032831742888682963,-0.023927417309398437,0.09695331012558621,32.08287849390507,-104.27510100388527,76.200527287817
2024-09-23 08:55:22.278998,43.25,7.968055,-0.0032831742888682963,-0.023728432883788564,0.0973015264147526,40.106058693909645,-104.27510100388527,76.200527287817
2024-09-23 08:55:22.291106,43.25,7.968145,-0.0032831742888682963,-0.023728432883788564,0.0973015264147526,40.106058693909645,-100.26678939585686,76.200527287817
2024-09-23 08:55:22.333715,43.48,7.968145,-0.0031339382481259063,-0.024026904205785005,0.0962568775472534,36.09446859390736,-100.26678939585686,76.200527287817
2024-09-23 08:55:22.427653,43.48,7.968197,-0.0031836870127375577,-0.024026904205785005,0.0962568775472534,36.09446859390736,-100.26678939585686,76.200527287817
2024-09-23 08:55:22.439649,43.48,7.968197,-0.0031836870127375577,-0.023827930413011865,0.09670458680871308,36.09446859390736,-100.26678939585686,76.200527287817
2024-09-23 08:55:22.474069,43.48,7.968197,-0.0031836870127375577,-0.023827930413011865,0.09670458680871308,44.11764879391193,-88.23529758782387,76.200527287817
2024-09-23 08:55:22.485084,43.48,7.968248,-0.003631395514708897,-0.023429960042815445,0.09670458680871308,44.11764879391193,-88.23529758782387,76.200527287817
2024-09-23 08:55:22.527717,43.48,7.968298,-0.0034324103296106863,-0.023429960042815445,0.09690356060148622,36.09446859390736,-92.24360919585227,76.200527287817
2024-09-23 08:55:22.569772,43.48,7.968298,-0.0034324103296106863,-0.023778180888911878,0.09670458680871308,36.09446859390736,-92.24360919585227,76.200527287817
2024-09-23 08:55:22.581633,43.48,7.968349,-0.0034324103296106863,-0.023778180888911878,0.09670458680871308,36.09446859390736,-84.22370748782159,80.21211738781929
2024-09-23 08:55:22.623657,43.48,7.968349,-0.0030841997366068195,-0.023181236725942318,0.0966050877605131,36.09446859390736,-100.26678939585686,80.21211738781929
2024-09-23 08:55:22.635483,43.48,7.968349,-0.0030841997366068195,-0.023181236725942318,0.0966050877605131,36.09446859390736,-100.26678939585686,80.21211738781929
2024-09-23 08:55:22.667516,43.48,7.968487,-0.0031339382481259063,-0.023181236725942318,0.0966050877605131,36.09446859390736,-100.26678939585686,80.21211738781929
2024-09-23 08:55:22.679223,43.48,7.968487,-0.0031339382481259063,-0.024026904205785005,0.09715228999426605,40.106058693909645,-100.26678939585686,80.21211738781929
2024-09-23 08:55:22.722007,43.48,7.968539,-0.0034324103296106863,-0.023479709566915436,0.09690356060148622,40.106058693909645,-100.26678939585686,76.200527287817
2024-09-23 08:55:22.764336,43.48,7.968539,-0.0034324103296106863,-0.023479709566915436,0.09690356060148622,40.106058693909645,-96.25519929585457,76.200527287817
2024-09-23 08:55:22.776097,43.48,7.968589,-0.0028852147413806935,-0.024026904205785005,0.09670458680871308,40.106058693909645,-96.25519929585457,80.21211738781929
2024-09-23 08:55:22.819019,43.48,7.96864,-0.0033329230534799477,-0.024026904205785005,0.09670458680871308,44.11764879391193,-104.27510100388527,84.22370748782159
2024-09-23 08:55:22.831149,43.48,7.96864,-0.0033329230534799477,-0.02367869399252531,0.09670458680871308,44.11764879391193,-104.27510100388527,84.22370748782159
2024-09-23 08:55:22.863148,43.48,7.96864,-0.0033329230534799477,-0.02367869399252531,0.09685382322919964,36.09446859390736,-104.27510100388527,84.22370748782159
2024-09-23 08:55:22.874424,43.48,7.968691,-0.0036811340262279837,-0.02367869399252531,0.09685382322919964,36.09446859390736,-104.27510100388527,80.21211738781929
2024-09-23 08:55:22.916874,43.48,7.968691,-0.0036811340262279837,-0.02313149783467906,0.09725178296655933,40.106058693909645,-96.25519929585457,84.22370748782159
2024-09-23 08:55:22.929104,43.48,7.968779,-0.0036811340262279837,-0.02313149783467906,0.09725178296655933,40.106058693909645,-96.25519929585457,84.22370748782159
2024-09-23 08:55:22.962290,43.48,7.968779,-0.0031836870127375577,-0.024026904205785005,0.09665483728461309,40.106058693909645,-96.25519929585457,84.22370748782159
2024-09-23 08:55:22.974017,43.48,7.968779,-0.0031836870127375577,-0.024026904205785005,0.09665483728461309,36.09446859390736,-92.24360919585227,76.200527287817
2024-09-23 08:55:23.016525,43.48,7.968831,-0.003482159473966507,-0.024026904205785005,0.09675432418099966,32.08287849390507,-92.24360919585227,76.200527287817
2024-09-23 08:55:23.060552,43.48,7.968882,-0.0029349636958644295,-0.024026904205785005,0.09675432418099966,32.08287849390507,-92.24360919585227,80.21211738781929
2024-09-23 08:55:23.073791,43.48,7.968882,-0.0029349636958644295,-0.023429960042815445,0.09710254654607277,36.09446859390736,-92.24360919585227,80.21211738781929
2024-09-23 08:55:23.106873,43.48,7.968882,-0.0029349636958644295,-0.023429960042815445,0.09710254654607277,36.09446859390736,-100.26678939585686,76.200527287817
2024-09-23 08:55:23.118523,43.48,7.968933,-0.0032831742888682963,-0.023728432883788564,0.09690356060148622,36.09446859390736,-100.26678939585686,76.200527287817
2024-09-23 08:55:23.161318,43.48,7.968983,-0.0035318979854855937,-0.023728432883788564,0.09690356060148622,36.09446859390736,-88.23529758782387,80.21211738781929
2024-09-23 08:55:23.173608,43.48,7.968983,-0.0035318979854855937,-0.02367869399252531,0.09690356060148622,36.09446859390736,-88.23529758782387,80.21211738781929
2024-09-23 08:55:23.208406,43.48,7.968983,-0.0035318979854855937,-0.02367869399252531,0.09720203344245934,44.11764879391193,-96.25519929585457,80.21211738781929
2024-09-23 08:55:23.219825,43.48,7.969034,-0.0033329230534799477,-0.02367869399252531,0.09720203344245934,44.11764879391193,-96.25519929585457,80.21211738781929
2024-09-23 08:55:23.251893,43.48,7.969034,-0.0033329230534799477,-0.02397715620066169,0.09720203344245934,44.11764879391193,-96.25519929585457,80.21211738781929
2024-09-23 08:55:23.263188,43.48,7.969121,-0.0033329230534799477,-0.02397715620066169,0.09715228999426605,36.09446859390736,-100.26678939585686,80.21211738781929
2024-09-23 08:55:23.306930,43.48,7.969121,-0.0030841997366068195,-0.02352945757203875,0.09715228999426605,40.106058693909645,-92.24360919585227,80.21211738781929
2024-09-23 08:55:23.318896,43.48,7.969121,-0.0030841997366068195,-0.02352945757203875,0.09715228999426605,40.106058693909645,-92.24360919585227,80.21211738781929
2024-09-23 08:55:23.350507,43.49,7.969172,-0.0035318979854855937,-0.02352945757203875,0.09715228999426605,40.106058693909645,-92.24360919585227,80.21211738781929
2024-09-23 08:55:23.361552,43.49,7.969172,-0.0035318979854855937,-0.023579196463302005,0.09715228999426605,32.08287849390507,-100.26678939585686,80.21211738781929
2024-09-23 08:55:23.403354,43.49,7.969223,-0.002785727465249955,-0.02362894446842532,0.09715228999426605,32.08287849390507,-100.26678939585686,76.200527287817
2024-09-23 08:55:23.415338,43.49,7.969223,-0.002785727465249955,-0.02362894446842532,0.09720203344245934,40.106058693909645,-100.26678939585686,76.200527287817
2024-09-23 08:55:23.448144,43.49,7.969223,-0.002785727465249955,-0.02362894446842532,0.09720203344245934,40.106058693909645,-104.27510100388527,80.21211738781929
2024-09-23 08:55:23.459291,43.49,7.969273,-0.0034324103296106863,-0.023778180888911878,0.09690356060148622,40.106058693909645,-104.27510100388527,80.21211738781929
2024-09-23 08:55:23.502357,43.49,7.969324,-0.0031339382481259063,-0.023778180888911878,0.09690356060148622,44.11764879391193,-96.25519929585457,80.21211738781929
2024-09-23 08:55:23.513724,43.49,7.969324,-0.0031339382481259063,-0.023479709566915436,0.09690356060148622,44.11764879391193,-96.25519929585457,80.21211738781929
2024-09-23 08:55:23.547340,43.49,7.969324,-0.0031339382481259063,-0.023479709566915436,0.09740101331113918,40.106058693909645,-96.25519929585457,80.21211738781929
2024-09-23 08:55:23.558900,43.49,7.969375,-0.0034324103296106863,-0.023479709566915436,0.09740101331113918,40.106058693909645,-96.25519929585457,88.23529758782387
2024-09-23 08:55:23.601205,43.49,7.969462,-0.0034324103296106863,-0.023230986250042305,0.09650560086412653,32.08287849390507,-92.24360919585227,80.21211738781929
2024-09-23 08:55:23.643022,43.49,7.969462,-0.0034324103296106863,-0.023280723622328886,0.09650560086412653,32.08287849390507,-92.24360919585227,80.21211738781929
2024-09-23 08:55:23.654434,43.49,7.969462,-0.0034324103296106863,-0.023280723622328886,0.09675432418099966,40.106058693909645,-96.25519929585457,80.21211738781929
2024-09-23 08:55:23.697145,43.49,7.969513,-0.0030344509719951677,-0.023579196463302005,0.09665483728461309,36.09446859390736,-96.25519929585457,80.21211738781929
2024-09-23 08:55:23.709025,43.49,7.969513,-0.0030344509719951677,-0.023579196463302005,0.09665483728461309,36.09446859390736,-92.24360919585227,80.21211738781929
2024-09-23 08:55:23.740758,43.49,7.969564,-0.0030344509719951677,-0.023579196463302005,0.09665483728461309,36.09446859390736,-92.24360919585227,80.21211738781929
2024-09-23 08:55:23.751720,43.49,7.969564,-0.0031339382481259063,-0.023827930413011865,0.0973015264147526,40.106058693909645,-92.24360919585227,80.21211738781929
2024-09-23 08:55:23.795172,43.49,7.969615,-0.003233425524256645,-0.023579196463302005,0.09690356060148622,40.106058693909645,-96.25519929585457,76.200527287817
2024-09-23 08:55:23.838931,43.49,7.969615,-0.003233425524256645,-0.023579196463302005,0.09690356060148622,40.106058693909645,-100.26678939585686,76.200527287817
2024-09-23 08:55:23.850582,43.49,7.969665,-0.0029349636958644295,-0.023579196463302005,0.09690356060148622,40.106058693909645,-100.26678939585686,76.200527287817
2024-09-23 08:55:23.893984,43.49,7.969716,-0.0029847020175114316,-0.023579196463302005,0.09720203344245934,36.09446859390736,-104.27510100388527,84.22370748782159
2024-09-23 08:55:23.936831,43.49,7.969716,-0.0029847020175114316,-0.023728432883788564,0.09745075675933246,44.11764879391193,-104.27510100388527,84.22370748782159
2024-09-23 08:55:23.948454,43.49,7.969803,-0.0029847020175114316,-0.023728432883788564,0.09745075675933246,44.11764879391193,-100.26678939585686,76.200527287817
2024-09-23 08:55:23.991285,43.49,7.969803,-0.0032831742888682963,-0.023778180888911878,0.0973015264147526,36.09446859390736,-100.26678939585686,80.21211738781929
2024-09-23 08:55:24.032886,43.49,7.969855,-0.0035318979854855937,-0.023778180888911878,0.0973015264147526,36.09446859390736,-100.26678939585686,80.21211738781929
2024-09-23 08:55:24.044641,43.49,7.969855,-0.0035318979854855937,-0.024076653729884996,0.09695331012558621,36.09446859390736,-100.26678939585686,80.21211738781929
2024-09-23 08:55:24.087582,43.49,7.969905,-0.0035318979854855937,-0.024076653729884996,0.09695331012558621,36.09446859390736,-100.26678939585686,76.200527287817
2024-09-23 08:55:24.130616,43.49,7.969905,-0.0031339382481259063,-0.023827930413011865,0.09695331012558621,36.09446859390736,-100.26678939585686,76.200527287817
2024-09-23 08:55:24.141721,43.49,7.969905,-0.0031339382481259063,-0.023827930413011865,0.09710254654607277,36.09446859390736,-108.28669110388756,76.200527287817
2024-09-23 08:55:24.184275,43.49,7.969956,-0.003382661564999035,-0.023579196463302005,0.0970030596496862,40.106058693909645,-108.28669110388756,76.200527287817
2024-09-23 08:55:24.196326,43.49,7.969956,-0.003382661564999035,-0.023579196463302005,0.0970030596496862,40.106058693909645,-108.28669110388756,76.200527287817
2024-09-23 08:55:24.227940,43.49,7.970007,-0.003382661564999035,-0.023579196463302005,0.0970030596496862,40.106058693909645,-108.28669110388756,76.200527287817
2024-09-23 08:55:24.239139,43.49,7.970007,-0.003482159473966507,-0.02362894446842532,0.09715228999426605,36.09446859390736,-108.28669110388756,76.200527287817
2024-09-23 08:55:24.280959,43.49,7.970057,-0.0029349636958644295,-0.023479709566915436,0.09715228999426605,36.09446859390736,-96.25519929585457,76.200527287817
2024-09-23 08:55:24.293670,43.49,7.970057,-0.0029349636958644295,-0.023479709566915436,0.09695331012558621,36.09446859390736,-96.25519929585457,76.200527287817
2024-09-23 08:55:24.326545,43.49,7.970057,-0.0029349636958644295,-0.023479709566915436,0.09695331012558621,32.08287849390507,-92.24360919585227,80.21211738781929
2024-09-23 08:55:24.338339,43.49,7.970144,-0.003382661564999035,-0.02367869399252531,0.09695331012558621,32.08287849390507,-92.24360919585227,80.21211738781929
2024-09-23 08:55:24.381305,43.42,7.970196,-0.0030841997366068195,-0.02367869399252531,0.09685382322919964,36.09446859390736,-96.25519929585457,80.21211738781929
2024-09-23 08:55:24.423398,43.42,7.970196,-0.0030841997366068195,-0.023877669304275123,0.09784872257259886,36.09446859390736,-96.25519929585457,80.21211738781929
2024-09-23 08:55:24.434914,43.42,7.97029,-0.0030841997366068195,-0.023877669304275123,0.09784872257259886,36.09446859390736,-100.26678939585686,76.200527287817
2024-09-23 08:55:24.477162,43.42,7.97029,-0.0035318979854855937,-0.023827930413011865,0.0973015264147526,44.11764879391193,-100.26678939585686,76.200527287817
2024-09-23 08:55:24.519783,43.42,7.970342,-0.0028852147413806935,-0.023827930413011865,0.0973015264147526,44.11764879391193,-100.26678939585686,76.200527287817
2024-09-23 08:55:24.531367,43.42,7.970342,-0.0028852147413806935,-0.023927417309398437,0.09655535038822652,52.137550501942634,-96.25519929585457,76.200527287817
2024-09-23 08:55:24.574324,43.42,7.970393,-0.0035816467500972456,-0.02303200030545576,0.09715228999426605,52.137550501942634,-96.25519929585457,80.21211738781929
2024-09-23 08:55:24.586280,43.42,7.970393,-0.0035816467500972456,-0.02303200030545576,0.09715228999426605,40.106058693909645,-96.25519929585457,80.21211738781929
2024-09-23 08:55:24.618040,43.42,7.970393,-0.0035816467500972456,-0.02303200030545576,0.09715228999426605,40.106058693909645,-96.25519929585457,84.22370748782159
2024-09-23 08:55:24.629249,43.42,7.970443,-0.0032831742888682963,-0.023778180888911878,0.0973512698629459,40.106058693909645,-96.25519929585457,84.22370748782159
2024-09-23 08:55:24.671909,43.42,7.970494,-0.0032831742888682963,-0.023778180888911878,0.0973512698629459,40.106058693909645,-96.25519929585457,84.22370748782159
2024-09-23 08:55:24.684211,43.42,7.970494,-0.0032831742888682963,-0.02362894446842532,0.0973512698629459,40.106058693909645,-96.25519929585457,84.22370748782159
2024-09-23 08:55:24.717329,43.42,7.970494,-0.0032831742888682963,-0.02362894446842532,0.0970030596496862,40.106058693909645,-96.25519929585457,84.22370748782159
2024-09-23 08:55:24.729091,43.42,7.970545,-0.0030344509719951677,-0.02362894446842532,0.0970030596496862,40.106058693909645,-96.25519929585457,80.21211738781929
2024-09-23 08:55:24.772198,43.42,7.970632,-0.0030344509719951677,-0.02362894446842532,0.0973015264147526,44.11764879391193,-100.26678939585686,76.200527287817
2024-09-23 08:55:24.814140,43.42,7.970632,-0.0033329230534799477,-0.023429960042815445,0.09715228999426605,44.11764879391193,-100.26678939585686,76.200527287817
2024-09-23 08:55:24.826300,43.42,7.970632,-0.0033329230534799477,-0.023429960042815445,0.09715228999426605,40.106058693909645,-100.26678939585686,80.21211738781929
2024-09-23 08:55:24.868833,43.42,7.970683,-0.0027359787006383035,-0.023827930413011865,0.09725178296655933,36.09446859390736,-104.27510100388527,80.21211738781929
2024-09-23 08:55:24.912709,43.42,7.970734,-0.0029847020175114316,-0.023827930413011865,0.09725178296655933,36.09446859390736,-104.27510100388527,80.21211738781929
2024-09-23 08:55:24.923727,43.42,7.970734,-0.0029847020175114316,-0.02352945757203875,0.09720203344245934,40.106058693909645,-104.27510100388527,80.21211738781929
2024-09-23 08:55:24.966375,43.42,7.970785,-0.0026862297461545674,-0.023429960042815445,0.09655535038822652,40.106058693909645,-96.25519929585457,80.21211738781929
2024-09-23 08:55:25.009639,43.42,7.970785,-0.0026862297461545674,-0.023429960042815445,0.09655535038822652,32.08287849390507,-92.24360919585227,84.22370748782159
2024-09-23 08:55:25.021143,43.42,7.970835,-0.0035318979854855937,-0.02367869399252531,0.09655535038822652,32.08287849390507,-92.24360919585227,84.22370748782159
2024-09-23 08:55:25.063249,43.42,7.970886,-0.003233425524256645,-0.02367869399252531,0.0970030596496862,32.08287849390507,-96.25519929585457,76.200527287817
2024-09-23 08:55:25.106057,43.42,7.970886,-0.003233425524256645,-0.024176140626271565,0.09665483728461309,32.08287849390507,-96.25519929585457,76.200527287817
2024-09-23 08:55:25.117461,43.42,7.970973,-0.003233425524256645,-0.024176140626271565,0.09665483728461309,40.106058693909645,-96.25519929585457,80.21211738781929
2024-09-23 08:55:25.159718,43.42,7.970973,-0.0033329230534799477,-0.023927417309398437,0.09650560086412653,40.106058693909645,-96.25519929585457,80.21211738781929
2024-09-23 08:55:25.202363,43.42,7.970973,-0.0033329230534799477,-0.023927417309398437,0.09650560086412653,40.106058693909645,-100.26678939585686,80.21211738781929
2024-09-23 08:55:25.214450,43.42,7.971025,-0.0031836870127375577,-0.024076653729884996,0.09650560086412653,40.106058693909645,-100.26678939585686,84.22370748782159
2024-09-23 08:55:25.257668,43.42,7.971075,-0.0029847020175114316,-0.024076653729884996,0.09725178296655933,36.09446859390736,-100.26678939585686,80.21211738781929
2024-09-23 08:55:25.299802,43.42,7.971075,-0.0029847020175114316,-0.02412639262114825,0.09670458680871308,36.09446859390736,-100.26678939585686,80.21211738781929
2024-09-23 08:55:25.311356,43.42,7.971126,-0.0029847020175114316,-0.02412639262114825,0.09670458680871308,36.09446859390736,-96.25519929585457,80.21211738781929
2024-09-23 08:55:25.354938,43.42,7.971126,-0.0031339382481259063,-0.023927417309398437,0.0966050877605131,36.09446859390736,-100.26678939585686,76.200527287817
2024-09-23 08:55:25.398237,43.09,7.971177,-0.0028852147413806935,-0.023927417309398437,0.0966050877605131,36.09446859390736,-100.26678939585686,76.200527287817
2024-09-23 08:55:25.410112,43.09,7.971177,-0.0028852147413806935,-0.024176140626271565,0.09755024973162574,36.09446859390736,-96.25519929585457,76.200527287817
2024-09-23 08:55:25.451844,43.09,7.971267,-0.0029349636958644295,-0.02397715620066169,0.09695331012558621,36.09446859390736,-96.25519929585457,80.21211738781929
2024-09-23 08:55:25.464074,43.09,7.971267,-0.0029349636958644295,-0.02397715620066169,0.09695331012558621,36.09446859390736,-96.25519929585457,80.21211738781929
2024-09-23 08:55:25.497144,43.09,7.971318,-0.0029349636958644295,-0.02397715620066169,0.09695331012558621,36.09446859390736,-104.27510100388527,76.200527287817
2024-09-23 08:55:25.508640,43.09,7.971318,-0.002586742470023829,-0.023877669304275123,0.09650560086412653,36.09446859390736,-104.27510100388527,76.200527287817
2024-09-23 08:55:25.551154,43.09,7.971368,-0.0035816467500972456,-0.023429960042815445,0.09650560086412653,40.106058693909645,-92.24360919585227,88.23529758782387
2024-09-23 08:55:25.593147,43.09,7.971368,-0.0035816467500972456,-0.023429960042815445,0.09655535038822652,48.12595698684454,-92.24360919585227,88.23529758782387
2024-09-23 08:55:25.605188,43.09,7.971419,-0.0033329230534799477,-0.023429960042815445,0.09655535038822652,48.12595698684454,-100.26678939585686,76.200527287817
2024-09-23 08:55:25.648906,43.09,7.971509,-0.0033329230534799477,-0.02362894446842532,0.09759999317981902,36.09446859390736,-96.25519929585457,76.200527287817
2024-09-23 08:55:25.692667,43.09,7.971509,-0.0037308827908396356,-0.023778180888911878,0.09705279702197278,36.09446859390736,-96.25519929585457,76.200527287817
2024-09-23 08:55:25.704121,43.09,7.971509,-0.0037308827908396356,-0.023778180888911878,0.09705279702197278,40.106058693909645,-92.24360919585227,84.22370748782159
2024-09-23 08:55:25.788226,43.09,7.971561,-0.002785727465249955,-0.023778180888911878,0.09705279702197278,40.106058693909645,-92.24360919585227,84.22370748782159
2024-09-23 08:55:25.799280,43.09,7.971561,-0.002785727465249955,-0.023429960042815445,0.09720203344245934,40.106058693909645,-104.27510100388527,84.22370748782159
2024-09-23 08:55:25.842166,43.09,7.971611,-0.003233425524256645,-0.02362894446842532,0.0970030596496862,40.106058693909645,-104.27510100388527,80.21211738781929
2024-09-23 08:55:25.854276,43.09,7.971611,-0.003233425524256645,-0.02362894446842532,0.0970030596496862,28.07457030097246,-104.27510100388527,80.21211738781929
2024-09-23 08:55:25.887100,43.09,7.971662,-0.003233425524256645,-0.02362894446842532,0.0970030596496862,28.07457030097246,-100.26678939585686,80.21211738781929
2024-09-23 08:55:25.898695,43.09,7.971662,-0.0035318979854855937,-0.023927417309398437,0.0966050877605131,28.07457030097246,-100.26678939585686,80.21211738781929
2024-09-23 08:55:25.941266,43.09,7.971713,-0.003382661564999035,-0.023778180888911878,0.0966050877605131,44.11764879391193,-96.25519929585457,76.200527287817
2024-09-23 08:55:25.983160,43.09,7.971713,-0.003382661564999035,-0.023778180888911878,0.0970030596496862,44.11764879391193,-96.25519929585457,76.200527287817
2024-09-23 08:55:25.994380,43.09,7.971763,-0.0036811340262279837,-0.023778180888911878,0.0970030596496862,44.11764879391193,-100.26678939585686,80.21211738781929
2024-09-23 08:55:26.037063,43.09,7.971763,-0.0036811340262279837,-0.024375126570858115,0.0973512698629459,36.09446859390736,-100.26678939585686,84.22370748782159
2024-09-23 08:55:26.049343,43.09,7.971899,-0.0036811340262279837,-0.024375126570858115,0.0973512698629459,36.09446859390736,-100.26678939585686,84.22370748782159
2024-09-23 08:55:26.082300,43.09,7.971899,-0.0036811340262279837,-0.02338022115155219,0.0970030596496862,36.09446859390736,-100.26678939585686,84.22370748782159
2024-09-23 08:55:26.094154,43.09,7.971899,-0.0036811340262279837,-0.02338022115155219,0.0970030596496862,40.106058693909645,-96.25519929585457,80.21211738781929
2024-09-23 08:55:26.126891,43.09,7.971951,-0.0036811340262279837,-0.02338022115155219,0.0970030596496862,40.106058693909645,-96.25519929585457,80.21211738781929
2024-09-23 08:55:26.138590,43.09,7.971951,-0.003382661564999035,-0.023330473146428877,0.09680407370509965,40.106058693909645,-100.26678939585686,80.21211738781929
2024-09-23 08:55:26.180669,43.09,7.972001,-0.0031836870127375577,-0.02397715620066169,0.09680407370509965,40.106058693909645,-100.26678939585686,72.1922225099802
2024-09-23 08:55:26.192091,43.09,7.972001,-0.0031836870127375577,-0.02397715620066169,0.09705279702197278,40.106058693909645,-100.26678939585686,72.1922225099802
2024-09-23 08:55:26.234967,43.09,7.972052,-0.0029847020175114316,-0.023728432883788564,0.09720203344245934,40.106058693909645,-100.26678939585686,80.21211738781929
2024-09-23 08:55:26.277777,43.09,7.972052,-0.0029847020175114316,-0.023728432883788564,0.09720203344245934,32.08287849390507,-100.26678939585686,76.200527287817
2024-09-23 08:55:26.289347,43.09,7.972103,-0.0035318979854855937,-0.023877669304275123,0.09720203344245934,32.08287849390507,-100.26678939585686,76.200527287817
2024-09-23 08:55:26.332306,43.09,7.972153,-0.0031339382481259063,-0.023877669304275123,0.09710254654607277,40.106058693909645,-104.27510100388527,80.21211738781929
2024-09-23 08:55:26.375083,43.09,7.972153,-0.0031339382481259063,-0.023479709566915436,0.09764974270391902,40.106058693909645,-104.27510100388527,80.21211738781929
2024-09-23 08:55:26.386454,43.09,7.972241,-0.0031339382481259063,-0.023479709566915436,0.09764974270391902,40.106058693909645,-100.26678939585686,84.22370748782159
2024-09-23 08:55:26.429914,42.77,7.972241,-0.0033329230534799477,-0.023579196463302005,0.0973015264147526,36.09446859390736,-96.25519929585457,76.200527287817
2024-09-23 08:55:26.471505,42.77,7.972292,-0.0035318979854855937,-0.02397715620066169,0.0973015264147526,36.09446859390736,-96.25519929585457,76.200527287817
2024-09-23 08:55:26.482927,42.77,7.972292,-0.0035318979854855937,-0.02397715620066169,0.09745075675933246,36.09446859390736,-100.26678939585686,76.200527287817
2024-09-23 08:55:26.526204,42.77,7.972343,-0.0034324103296106863,-0.024026904205785005,0.09740101331113918,32.08287849390507,-100.26678939585686,80.21211738781929
2024-09-23 08:55:26.570080,42.77,7.972393,-0.0034324103296106863,-0.024026904205785005,0.09740101331113918,32.08287849390507,-96.25519929585457,80.21211738781929
2024-09-23 08:55:26.581297,42.77,7.972393,-0.0035318979854855937,-0.02338022115155219,0.0970030596496862,32.08287849390507,-96.25519929585457,80.21211738781929
2024-09-23 08:55:26.623716,42.77,7.972444,-0.0032831742888682963,-0.02367869399252531,0.0970030596496862,44.11764879391193,-104.27510100388527,72.1922225099802
2024-09-23 08:55:26.667010,42.77,7.972444,-0.0032831742888682963,-0.02367869399252531,0.09705279702197278,40.106058693909645,-96.25519929585457,72.1922225099802
2024-09-23 08:55:26.678650,42.77,7.972495,-0.003382661564999035,-0.02367869399252531,0.09705279702197278,40.106058693909645,-96.25519929585457,76.200527287817
2024-09-23 08:55:26.721389,42.77,7.972582,-0.003382661564999035,-0.023728432883788564,0.09705279702197278,40.106058693909645,-100.26678939585686,80.21211738781929
2024-09-23 08:55:26.763460,42.77,7.972582,-0.0034324103296106863,-0.023827930413011865,0.09705279702197278,40.106058693909645,-100.26678939585686,80.21211738781929
2024-09-23 08:55:26.775359,42.77,7.972582,-0.0034324103296106863,-0.023827930413011865,0.09675432418099966,40.106058693909645,-96.25519929585457,76.200527287817
2024-09-23 08:55:26.817897,42.77,7.972633,-0.0028852147413806935,-0.023230986250042305,0.09715228999426605,40.106058693909645,-96.25519929585457,76.200527287817
2024-09-23 08:55:26.860330,42.77,7.972633,-0.0028852147413806935,-0.023230986250042305,0.09715228999426605,44.11764879391193,-96.25519929585457,76.200527287817
2024-09-23 08:55:26.872162,42.77,7.972684,-0.0030344509719951677,-0.02338022115155219,0.09715228999426605,44.11764879391193,-96.25519929585457,76.200527287817
2024-09-23 08:55:26.916246,42.77,7.972735,-0.0035816467500972456,-0.02338022115155219,0.09720203344245934,36.09446859390736,-96.25519929585457,80.21211738781929
2024-09-23 08:55:26.958752,42.77,7.972735,-0.0035816467500972456,-0.023728432883788564,0.09715228999426605,36.09446859390736,-96.25519929585457,80.21211738781929
2024-09-23 08:55:26.970027,42.77,7.972786,-0.0035816467500972456,-0.023728432883788564,0.09715228999426605,36.09446859390736,-100.26678939585686,84.22370748782159
2024-09-23 08:55:27.012975,42.77,7.972786,-0.003631395514708897,-0.023181236725942318,0.09705279702197278,40.106058693909645,-108.28669110388756,72.1922225099802
2024-09-23 08:55:27.055951,42.77,7.972836,-0.0030344509719951677,-0.023181236725942318,0.09705279702197278,40.106058693909645,-108.28669110388756,72.1922225099802
2024-09-23 08:55:27.067147,42.77,7.972836,-0.0030344509719951677,-0.023330473146428877,0.09680407370509965,36.09446859390736,-108.28669110388756,72.1922225099802
2024-09-23 08:55:27.109462,42.77,7.972924,-0.0031339382481259063,-0.023479709566915436,0.09705279702197278,36.09446859390736,-108.28669110388756,76.200527287817
2024-09-23 08:55:27.121146,42.77,7.972924,-0.0031339382481259063,-0.023479709566915436,0.09705279702197278,36.09446859390736,-108.28669110388756,76.200527287817
2024-09-23 08:55:27.154427,42.77,7.972975,-0.0031339382481259063,-0.023479709566915436,0.09705279702197278,36.09446859390736,-108.28669110388756,76.200527287817
2024-09-23 08:55:27.165564,42.77,7.972975,-0.0029349636958644295,-0.02308174982955575,0.09680407370509965,36.09446859390736,-108.28669110388756,76.200527287817
2024-09-23 08:55:27.207594,42.77,7.973026,-0.0034324103296106863,-0.023927417309398437,0.09680407370509965,40.106058693909645,-92.24360919585227,80.21211738781929
2024-09-23 08:55:27.250154,42.77,7.973026,-0.0034324103296106863,-0.023927417309398437,0.0970030596496862,40.106058693909645,-92.24360919585227,80.21211738781929
2024-09-23 08:55:27.261543,42.77,7.973077,-0.0031836870127375577,-0.023927417309398437,0.0970030596496862,40.106058693909645,-104.27510100388527,80.21211738781929
2024-09-23 08:55:27.303715,42.77,7.973077,-0.0031836870127375577,-0.02367869399252531,0.09725178296655933,36.09446859390736,-108.28669110388756,76.200527287817
2024-09-23 08:55:27.315592,42.77,7.973167,-0.0031836870127375577,-0.02367869399252531,0.09725178296655933,36.09446859390736,-108.28669110388756,76.200527287817
2024-09-23 08:55:27.347928,42.77,7.973167,-0.003233425524256645,-0.023728432883788564,0.09725178296655933,36.09446859390736,-108.28669110388756,76.200527287817
2024-09-23 08:55:27.358997,42.77,7.973167,-0.003233425524256645,-0.023728432883788564,0.09665483728461309,40.106058693909645,-100.26678939585686,76.200527287817
2024-09-23 08:55:27.402186,42.77,7.973218,-0.0034324103296106863,-0.023579196463302005,0.0970030596496862,40.106058693909645,-100.26678939585686,76.200527287817
2024-09-23 08:55:27.414020,42.77,7.973218,-0.0034324103296106863,-0.023579196463302005,0.0970030596496862,48.12595698684454,-100.26678939585686,76.200527287817
2024-09-23 08:55:27.446491,42.78,7.973269,-0.0034324103296106863,-0.023579196463302005,0.0970030596496862,48.12595698684454,-100.26678939585686,76.200527287817
2024-09-23 08:55:27.457578,42.78,7.973269,-0.0033329230534799477,-0.02362894446842532,0.09640611396773996,48.12595698684454,-100.26678939585686,76.200527287817
2024-09-23 08:55:27.499932,42.78,7.97332,-0.0034324103296106863,-0.023579196463302005,0.09640611396773996,36.09446859390736,-96.25519929585457,88.23529758782387
2024-09-23 08:55:27.543172,42.78,7.97332,-0.0034324103296106863,-0.023579196463302005,0.09705279702197278,36.09446859390736,-96.25519929585457,88.23529758782387
2024-09-23 08:55:27.554232,42.78,7.97337,-0.0031339382481259063,-0.023579196463302005,0.09705279702197278,36.09446859390736,-96.25519929585457,76.200527287817
2024-09-23 08:55:27.596825,42.78,7.97337,-0.0031339382481259063,-0.024026904205785005,0.09750050628343246,32.08287849390507,-92.24360919585227,76.200527287817
2024-09-23 08:55:27.608912,42.78,7.973421,-0.0031339382481259063,-0.024026904205785005,0.09750050628343246,32.08287849390507,-92.24360919585227,76.200527287817
2024-09-23 08:55:27.642255,42.78,7.973421,-0.0032831742888682963,-0.023877669304275123,0.0973015264147526,32.08287849390507,-92.24360919585227,76.200527287817
2024-09-23 08:55:27.653839,42.78,7.973421,-0.0032831742888682963,-0.023877669304275123,0.0973015264147526,24.06297849342227,-100.26678939585686,80.21211738781929
2024-09-23 08:55:27.696253,42.78,7.973509,-0.0028852147413806935,-0.023927417309398437,0.09610764112676684,48.12595698684454,-100.26678939585686,80.21211738781929
2024-09-23 08:55:27.738671,42.78,7.97356,-0.0028852147413806935,-0.023927417309398437,0.09610764112676684,48.12595698684454,-100.26678939585686,80.21211738781929
2024-09-23 08:55:27.750750,42.78,7.97356,-0.0030841997366068195,-0.02397715620066169,0.09690356060148622,44.11764879391193,-100.26678939585686,80.21211738781929
2024-09-23 08:55:27.793932,42.78,7.973611,-0.0033329230534799477,-0.023778180888911878,0.09715228999426605,44.11764879391193,-96.25519929585457,84.22370748782159
2024-09-23 08:55:27.837647,42.78,7.973611,-0.0033329230534799477,-0.023778180888911878,0.09715228999426605,40.106058693909645,-92.24360919585227,76.200527287817
2024-09-23 08:55:27.849124,42.78,7.973661,-0.002785727465249955,-0.023280723622328886,0.09715228999426605,40.106058693909645,-92.24360919585227,76.200527287817
2024-09-23 08:55:27.892354,42.78,7.973712,-0.0035318979854855937,-0.023280723622328886,0.09690356060148622,48.12595698684454,-92.24360919585227,80.21211738781929
2024-09-23 08:55:27.933986,42.78,7.973712,-0.0035318979854855937,-0.023778180888911878,0.09759999317981902,44.11764879391193,-92.24360919585227,80.21211738781929
2024-09-23 08:55:27.945198,42.78,7.973801,-0.0035318979854855937,-0.023778180888911878,0.09759999317981902,44.11764879391193,-100.26678939585686,80.21211738781929
2024-09-23 08:55:27.987390,42.78,7.973801,-0.0032831742888682963,-0.02352945757203875,0.09665483728461309,36.09446859390736,-100.26678939585686,80.21211738781929
2024-09-23 08:55:27.999400,42.78,7.973801,-0.0032831742888682963,-0.02352945757203875,0.09665483728461309,36.09446859390736,-100.26678939585686,76.200527287817
2024-09-23 08:55:28.032354,42.78,7.973852,-0.002387757474797703,-0.02352945757203875,0.09665483728461309,36.09446859390736,-100.26678939585686,76.200527287817
2024-09-23 08:55:28.043386,42.78,7.973852,-0.002387757474797703,-0.023728432883788564,0.09750050628343246,40.106058693909645,-100.26678939585686,76.200527287817
2024-09-23 08:55:28.086101,42.78,7.973903,-0.0035816467500972456,-0.023827930413011865,0.09690356060148622,32.08287849390507,-100.26678939585686,80.21211738781929
2024-09-23 08:55:28.129426,42.78,7.973953,-0.0035816467500972456,-0.023827930413011865,0.09690356060148622,32.08287849390507,-100.26678939585686,76.200527287817
2024-09-23 08:55:28.141340,42.78,7.973953,-0.0031836870127375577,-0.023778180888911878,0.09720203344245934,32.08287849390507,-100.26678939585686,76.200527287817
2024-09-23 08:55:28.184930,42.78,7.974004,-0.0037308827908396356,-0.023728432883788564,0.09720203344245934,36.09446859390736,-108.28669110388756,80.21211738781929
2024-09-23 08:55:28.226791,42.78,7.974004,-0.0037308827908396356,-0.023728432883788564,0.09675432418099966,36.09446859390736,-108.28669110388756,80.21211738781929
2024-09-23 08:55:28.238315,42.78,7.974055,-0.003233425524256645,-0.023728432883788564,0.09675432418099966,36.09446859390736,-100.26678939585686,80.21211738781929
2024-09-23 08:55:28.281421,42.78,7.974142,-0.003233425524256645,-0.02352945757203875,0.09705279702197278,28.07457030097246,-96.25519929585457,88.23529758782387
2024-09-23 08:55:28.324459,42.78,7.974142,-0.0034324103296106863,-0.02367869399252531,0.09715228999426605,28.07457030097246,-96.25519929585457,88.23529758782387
2024-09-23 08:55:28.336145,42.78,7.974142,-0.0034324103296106863,-0.02367869399252531,0.09715228999426605,36.09446859390736,-92.24360919585227,84.22370748782159
2024-09-23 08:55:28.378210,42.78,7.974193,-0.003382661564999035,-0.023429960042815445,0.09725178296655933,32.08287849390507,-100.26678939585686,84.22370748782159
2024-09-23 08:55:28.422499,42.78,7.974244,-0.0033329230534799477,-0.023429960042815445,0.09725178296655933,32.08287849390507,-100.26678939585686,80.21211738781929
2024-09-23 08:55:28.433430,42.78,7.974244,-0.0033329230534799477,-0.023429960042815445,0.09789846602079214,40.106058693909645,-100.26678939585686,80.21211738781929
2024-09-23 08:55:28.477056,42.36,7.974244,-0.0033329230534799477,-0.023429960042815445,0.09789846602079214,40.106058693909645,-96.25519929585457,80.21211738781929
2024-09-23 08:55:28.519829,42.36,7.974295,-0.0035816467500972456,-0.023429960042815445,0.09789846602079214,40.106058693909645,-96.25519929585457,88.23529758782387
2024-09-23 08:55:28.531144,42.36,7.974295,-0.0035816467500972456,-0.023827930413011865,0.09764974270391902,28.07457030097246,-96.25519929585457,88.23529758782387
2024-09-23 08:55:28.575038,42.36,7.974345,-0.0030344509719951677,-0.023827930413011865,0.09740101331113918,28.07457030097246,-100.26678939585686,88.23529758782387
2024-09-23 08:55:28.617172,42.36,7.974345,-0.0030344509719951677,-0.023827930413011865,0.09740101331113918,36.09446859390736,-96.25519929585457,80.21211738781929
2024-09-23 08:55:28.628465,42.36,7.974396,-0.0035816467500972456,-0.02367869399252531,0.09740101331113918,36.09446859390736,-96.25519929585457,80.21211738781929
2024-09-23 08:55:28.671350,42.36,7.974483,-0.003382661564999035,-0.02367869399252531,0.09715228999426605,32.08287849390507,-100.26678939585686,80.21211738781929
2024-09-23 08:55:28.714615,42.36,7.974483,-0.003382661564999035,-0.023778180888911878,0.09710254654607277,48.12595698684454,-100.26678939585686,80.21211738781929
2024-09-23 08:55:28.726118,42.36,7.974534,-0.003382661564999035,-0.023778180888911878,0.09710254654607277,48.12595698684454,-92.24360919585227,80.21211738781929
2024-09-23 08:55:28.768740,42.36,7.974534,-0.0028852147413806935,-0.02362894446842532,0.0973015264147526,36.09446859390736,-104.27510100388527,88.23529758782387
2024-09-23 08:55:28.812032,42.36,7.97463,-0.0031339382481259063,-0.023429960042815445,0.0973015264147526,36.09446859390736,-104.27510100388527,88.23529758782387
2024-09-23 08:55:28.823544,42.36,7.97463,-0.0031339382481259063,-0.023429960042815445,0.09710254654607277,36.09446859390736,-96.25519929585457,88.23529758782387
2024-09-23 08:55:28.865646,42.36,7.974681,-0.0030841997366068195,-0.023728432883788564,0.09725178296655933,36.09446859390736,-96.25519929585457,84.22370748782159
2024-09-23 08:55:28.907468,42.36,7.974681,-0.0030841997366068195,-0.023728432883788564,0.09725178296655933,36.09446859390736,-96.25519929585457,84.22370748782159
2024-09-23 08:55:28.919510,42.36,7.974732,-0.0036811340262279837,-0.023479709566915436,0.09720203344245934,36.09446859390736,-96.25519929585457,84.22370748782159
2024-09-23 08:55:28.962563,42.36,7.974783,-0.003382661564999035,-0.023479709566915436,0.09720203344245934,32.08287849390507,-100.26678939585686,80.21211738781929
2024-09-23 08:55:28.974399,42.36,7.974783,-0.003382661564999035,-0.024275627522658133,0.09720203344245934,32.08287849390507,-100.26678939585686,80.21211738781929
2024-09-23 08:55:29.007359,42.36,7.974783,-0.003382661564999035,-0.024275627522658133,0.09750050628343246,32.08287849390507,-100.26678939585686,80.21211738781929
2024-09-23 08:55:29.018975,42.36,7.974833,-0.0032831742888682963,-0.024275627522658133,0.09750050628343246,32.08287849390507,-100.26678939585686,84.22370748782159
2024-09-23 08:55:29.052748,42.36,7.974833,-0.0032831742888682963,-0.023778180888911878,0.09750050628343246,32.08287849390507,-100.26678939585686,84.22370748782159
2024-09-23 08:55:29.064027,42.36,7.974922,-0.0032831742888682963,-0.023778180888911878,0.09680407370509965,36.09446859390736,-100.26678939585686,80.21211738781929
2024-09-23 08:55:29.106955,42.36,7.974922,-0.0030344509719951677,-0.023927417309398437,0.0973512698629459,24.06297849342227,-100.26678939585686,80.21211738781929
2024-09-23 08:55:29.118109,42.36,7.974922,-0.0030344509719951677,-0.023927417309398437,0.0973512698629459,24.06297849342227,-100.26678939585686,76.200527287817
2024-09-23 08:55:29.150140,42.36,7.974973,-0.0030344509719951677,-0.023927417309398437,0.0973512698629459,24.06297849342227,-100.26678939585686,76.200527287817
2024-09-23 08:55:29.162191,42.36,7.974973,-0.003382661564999035,-0.023728432883788564,0.0966050877605131,36.09446859390736,-104.27510100388527,76.200527287817
2024-09-23 08:55:29.204635,42.36,7.975024,-0.0026862297461545674,-0.023927417309398437,0.09710254654607277,36.09446859390736,-104.27510100388527,76.200527287817
2024-09-23 08:55:29.216379,42.36,7.975024,-0.0026862297461545674,-0.023927417309398437,0.09710254654607277,36.09446859390736,-104.27510100388527,76.200527287817
2024-09-23 08:55:29.249375,42.36,7.975024,-0.0026862297461545674,-0.023927417309398437,0.09710254654607277,36.09446859390736,-100.26678939585686,76.200527287817
2024-09-23 08:55:29.261318,42.36,7.975075,-0.0028354659767690416,-0.023927417309398437,0.09720203344245934,36.09446859390736,-100.26678939585686,76.200527287817
2024-09-23 08:55:29.304873,42.36,7.975126,-0.003382661564999035,-0.02367869399252531,0.09720203344245934,36.09446859390736,-100.26678939585686,80.21211738781929
2024-09-23 08:55:29.346812,42.36,7.975126,-0.003382661564999035,-0.02367869399252531,0.09615739065086683,28.07457030097246,-100.26678939585686,80.21211738781929
2024-09-23 08:55:29.358631,42.36,7.975176,-0.0034324103296106863,-0.02367869399252531,0.09615739065086683,28.07457030097246,-108.28669110388756,84.22370748782159
2024-09-23 08:55:29.400423,42.36,7.975176,-0.0034324103296106863,-0.023827930413011865,0.09670458680871308,36.09446859390736,-100.26678939585686,76.200527287817
2024-09-23 08:55:29.412559,42.36,7.975263,-0.0034324103296106863,-0.023827930413011865,0.09670458680871308,36.09446859390736,-100.26678939585686,76.200527287817
2024-09-23 08:55:29.444388,42.36,7.975263,-0.0031836870127375577,-0.023479709566915436,0.09670458680871308,36.09446859390736,-100.26678939585686,76.200527287817
2024-09-23 08:55:29.455442,42.36,7.975263,-0.0031836870127375577,-0.023479709566915436,0.0973512698629459,32.08287849390507,-88.23529758782387,84.22370748782159
2024-09-23 08:55:29.498093,42.65,7.975315,-0.0030841997366068195,-0.024026904205785005,0.09675432418099966,40.106058693909645,-88.23529758782387,84.22370748782159
2024-09-23 08:55:29.510109,42.65,7.975315,-0.0030841997366068195,-0.024026904205785005,0.09675432418099966,40.106058693909645,-92.24360919585227,84.22370748782159
2024-09-23 08:55:29.543635,42.65,7.975365,-0.003382661564999035,-0.024026904205785005,0.09675432418099966,40.106058693909645,-92.24360919585227,84.22370748782159
2024-09-23 08:55:29.555059,42.65,7.975365,-0.003382661564999035,-0.023479709566915436,0.09720203344245934,28.07457030097246,-92.24360919585227,84.22370748782159
2024-09-23 08:55:29.597365,42.65,7.975416,-0.003382661564999035,-0.023479709566915436,0.09720203344245934,28.07457030097246,-100.26678939585686,76.200527287817
2024-09-23 08:55:29.640566,42.65,7.975416,-0.0029349636958644295,-0.023579196463302005,0.09670458680871308,28.07457030097246,-100.26678939585686,76.200527287817
2024-09-23 08:55:29.653959,42.65,7.975416,-0.0029349636958644295,-0.023579196463302005,0.09670458680871308,36.09446859390736,-96.25519929585457,76.200527287817
2024-09-23 08:55:29.686196,42.65,7.975467,-0.0029349636958644295,-0.023579196463302005,0.09670458680871308,36.09446859390736,-96.25519929585457,76.200527287817
2024-09-23 08:55:29.697306,42.65,7.975467,-0.003233425524256645,-0.024176140626271565,0.09675432418099966,32.08287849390507,-100.26678939585686,76.200527287817
2024-09-23 08:55:29.739839,42.65,7.975517,-0.0029847020175114316,-0.023479709566915436,0.09675432418099966,32.08287849390507,-100.26678939585686,76.200527287817
2024-09-23 08:55:29.751074,42.65,7.975517,-0.0029847020175114316,-0.023479709566915436,0.09685382322919964,32.08287849390507,-100.26678939585686,76.200527287817
2024-09-23 08:55:29.783170,42.65,7.975517,-0.0029847020175114316,-0.023479709566915436,0.09685382322919964,32.08287849390507,-104.27510100388527,76.200527287817
2024-09-23 08:55:29.794511,42.65,7.975604,-0.0028852147413806935,-0.023728432883788564,0.09725178296655933,32.08287849390507,-104.27510100388527,80.21211738781929
2024-09-23 08:55:29.837370,42.65,7.975655,-0.0028852147413806935,-0.023728432883788564,0.09725178296655933,40.106058693909645,-96.25519929585457,80.21211738781929
2024-09-23 08:55:29.849182,42.65,7.975655,-0.0032831742888682963,-0.023330473146428877,0.09725178296655933,40.106058693909645,-96.25519929585457,80.21211738781929
2024-09-23 08:55:29.882345,42.65,7.975655,-0.0032831742888682963,-0.023330473146428877,0.09675432418099966,40.106058693909645,-96.25519929585457,80.21211738781929
2024-09-23 08:55:29.894152,42.65,7.975706,-0.003233425524256645,-0.023330473146428877,0.09675432418099966,40.106058693909645,-100.26678939585686,84.22370748782159
2024-09-23 08:55:29.936692,42.65,7.975706,-0.003233425524256645,-0.024026904205785005,0.09670458680871308,40.106058693909645,-96.25519929585457,80.21211738781929
2024-09-23 08:55:29.948853,42.65,7.975799,-0.003233425524256645,-0.024026904205785005,0.09670458680871308,40.106058693909645,-96.25519929585457,80.21211738781929
2024-09-23 08:55:29.980490,42.65,7.975799,-0.0029349636958644295,-0.023429960042815445,0.09670458680871308,40.106058693909645,-96.25519929585457,80.21211738781929
2024-09-23 08:55:29.991515,42.65,7.975799,-0.0029349636958644295,-0.023429960042815445,0.0973015264147526,36.09446859390736,-96.25519929585457,80.21211738781929
2024-09-23 08:55:30.034601,42.65,7.975851,-0.003233425524256645,-0.024375126570858115,0.09740101331113918,40.106058693909645,-96.25519929585457,80.21211738781929
2024-09-23 08:55:30.046334,42.65,7.975851,-0.003233425524256645,-0.024375126570858115,0.09740101331113918,40.106058693909645,-92.24360919585227,80.21211738781929
2024-09-23 08:55:30.078697,42.65,7.975902,-0.003233425524256645,-0.024375126570858115,0.09740101331113918,40.106058693909645,-92.24360919585227,80.21211738781929
2024-09-23 08:55:30.090345,42.65,7.975902,-0.003233425524256645,-0.02352945757203875,0.09695331012558621,44.11764879391193,-92.24360919585227,80.21211738781929
2024-09-23 08:55:30.132982,42.65,7.975952,-0.0031836870127375577,-0.02412639262114825,0.09695331012558621,44.11764879391193,-96.25519929585457,72.1922225099802
2024-09-23 08:55:30.176161,42.65,7.975952,-0.0031836870127375577,-0.02412639262114825,0.09715228999426605,40.106058693909645,-100.26678939585686,72.1922225099802
2024-09-23 08:55:30.187790,42.65,7.976003,-0.0031836870127375577,-0.02412639262114825,0.09715228999426605,40.106058693909645,-100.26678939585686,76.200527287817
2024-09-23 08:55:30.229675,42.65,7.976003,-0.0031836870127375577,-0.023330473146428877,0.09745075675933246,40.106058693909645,-100.26678939585686,76.200527287817
2024-09-23 08:55:30.241652,42.65,7.976054,-0.0031836870127375577,-0.023330473146428877,0.09745075675933246,40.106058693909645,-100.26678939585686,76.200527287817
2024-09-23 08:55:30.274175,42.65,7.976054,-0.003382661564999035,-0.02338022115155219,0.09745075675933246,40.106058693909645,-100.26678939585686,76.200527287817
2024-09-23 08:55:30.285369,42.65,7.976054,-0.003382661564999035,-0.02338022115155219,0.09745075675933246,32.08287849390507,-100.26678939585686,80.21211738781929
2024-09-23 08:55:30.327607,42.65,7.976141,-0.0031339382481259063,-0.024176140626271565,0.09725178296655933,36.09446859390736,-100.26678939585686,80.21211738781929
2024-09-23 08:55:30.370285,42.65,7.976192,-0.0031339382481259063,-0.024176140626271565,0.09725178296655933,36.09446859390736,-100.26678939585686,80.21211738781929
2024-09-23 08:55:30.381767,42.65,7.976192,-0.003482159473966507,-0.024325377046758124,0.0970030596496862,44.11764879391193,-100.26678939585686,80.21211738781929
2024-09-23 08:55:30.424201,42.65,7.976243,-0.002785727465249955,-0.024325377046758124,0.0970030596496862,44.11764879391193,-104.27510100388527,80.21211738781929
2024-09-23 08:55:30.435944,42.65,7.976243,-0.002785727465249955,-0.024275627522658133,0.09680407370509965,44.11764879391193,-104.27510100388527,80.21211738781929
2024-09-23 08:55:30.467921,42.65,7.976243,-0.002785727465249955,-0.024275627522658133,0.09680407370509965,44.11764879391193,-100.26678939585686,80.21211738781929
2024-09-23 08:55:30.479217,42.65,7.976294,-0.0033329230534799477,-0.023827930413011865,0.09680407370509965,44.11764879391193,-100.26678939585686,72.1922225099802
2024-09-23 08:55:30.522282,42.98,7.976344,-0.0033329230534799477,-0.023827930413011865,0.09720203344245934,40.106058693909645,-96.25519929585457,72.1922225099802
2024-09-23 08:55:30.533954,42.98,7.976344,-0.0028852147413806935,-0.023827930413011865,0.09720203344245934,40.106058693909645,-96.25519929585457,72.1922225099802
2024-09-23 08:55:30.565454,42.98,7.976344,-0.0028852147413806935,-0.02293251340906919,0.09725178296655933,40.106058693909645,-96.25519929585457,72.1922225099802
2024-09-23 08:55:30.577471,42.98,7.976433,-0.0028852147413806935,-0.02293251340906919,0.09725178296655933,36.09446859390736,-92.24360919585227,76.200527287817
2024-09-23 08:55:30.619319,42.98,7.976433,-0.0030841997366068195,-0.023579196463302005,0.09715228999426605,44.11764879391193,-96.25519929585457,76.200527287817
2024-09-23 08:55:30.631962,42.98,7.976433,-0.0030841997366068195,-0.023579196463302005,0.09715228999426605,44.11764879391193,-96.25519929585457,76.200527287817
2024-09-23 08:55:30.664280,42.98,7.976485,-0.0026862297461545674,-0.023778180888911878,0.09715228999426605,44.11764879391193,-96.25519929585457,76.200527287817
2024-09-23 08:55:30.717983,42.98,7.976535,-0.0030344509719951677,-0.023778180888911878,0.09725178296655933,36.09446859390736,-100.26678939585686,76.200527287817
2024-09-23 08:55:30.760308,42.98,7.976535,-0.0030344509719951677,-0.023330473146428877,0.09720203344245934,36.09446859390736,-100.26678939585686,76.200527287817
2024-09-23 08:55:30.772080,42.98,7.976586,-0.0030344509719951677,-0.023330473146428877,0.09720203344245934,36.09446859390736,-96.25519929585457,80.21211738781929
2024-09-23 08:55:30.814957,42.98,7.976586,-0.0031836870127375577,-0.024076653729884996,0.09705279702197278,28.07457030097246,-92.24360919585227,84.22370748782159
2024-09-23 08:55:30.857743,42.98,7.976637,-0.0035816467500972456,-0.024076653729884996,0.09705279702197278,28.07457030097246,-92.24360919585227,84.22370748782159
2024-09-23 08:55:30.868998,42.98,7.976637,-0.0035816467500972456,-0.02303200030545576,0.09680407370509965,40.106058693909645,-92.24360919585227,84.22370748782159
2024-09-23 08:55:30.912491,42.98,7.976687,-0.0031836870127375577,-0.023728432883788564,0.09745075675933246,40.106058693909645,-92.24360919585227,80.21211738781929
2024-09-23 08:55:30.924581,42.98,7.976687,-0.0031836870127375577,-0.023728432883788564,0.09745075675933246,40.106058693909645,-92.24360919585227,80.21211738781929
2024-09-23 08:55:30.956903,42.98,7.976687,-0.0031836870127375577,-0.023728432883788564,0.09745075675933246,40.106058693909645,-96.25519929585457,80.21211738781929
2024-09-23 08:55:30.968068,42.98,7.976776,-0.003631395514708897,-0.024076653729884996,0.09685382322919964,40.106058693909645,-96.25519929585457,80.21211738781929
2024-09-23 08:55:31.010323,42.98,7.976827,-0.0037308827908396356,-0.023927417309398437,0.09685382322919964,36.09446859390736,-96.25519929585457,80.21211738781929
2024-09-23 08:55:31.053818,42.98,7.976827,-0.0037308827908396356,-0.023927417309398437,0.09710254654607277,36.09446859390736,-92.24360919585227,80.21211738781929
2024-09-23 08:55:31.064966,42.98,7.976877,-0.003482159473966507,-0.023927417309398437,0.09710254654607277,36.09446859390736,-92.24360919585227,80.21211738781929
2024-09-23 08:55:31.106988,42.98,7.976877,-0.003482159473966507,-0.023728432883788564,0.09690356060148622,32.08287849390507,-96.25519929585457,84.22370748782159
2024-09-23 08:55:31.118770,42.98,7.976969,-0.003482159473966507,-0.023728432883788564,0.09690356060148622,32.08287849390507,-96.25519929585457,84.22370748782159
2024-09-23 08:55:31.151978,42.98,7.976969,-0.003482159473966507,-0.023579196463302005,0.09725178296655933,32.08287849390507,-96.25519929585457,84.22370748782159
2024-09-23 08:55:31.163498,42.98,7.976969,-0.003482159473966507,-0.023579196463302005,0.09725178296655933,28.07457030097246,-100.26678939585686,84.22370748782159
2024-09-23 08:55:31.206104,42.98,7.977021,-0.0035318979854855937,-0.02367869399252531,0.09755024973162574,44.11764879391193,-96.25519929585457,84.22370748782159
2024-09-23 08:55:31.247934,42.98,7.977072,-0.0035318979854855937,-0.02367869399252531,0.09755024973162574,44.11764879391193,-96.25519929585457,80.21211738781929
2024-09-23 08:55:31.300377,42.98,7.977072,-0.003233425524256645,-0.023479709566915436,0.09759999317981902,40.106058693909645,-96.25519929585457,80.21211738781929
2024-09-23 08:55:31.311613,42.98,7.977072,-0.003233425524256645,-0.023479709566915436,0.09759999317981902,40.106058693909645,-100.26678939585686,76.200527287817
2024-09-23 08:55:31.343373,42.98,7.977122,-0.003233425524256645,-0.023479709566915436,0.09759999317981902,40.106058693909645,-100.26678939585686,76.200527287817
2024-09-23 08:55:31.354975,42.98,7.977122,-0.0033329230534799477,-0.023479709566915436,0.09685382322919964,40.106058693909645,-100.26678939585686,76.200527287817
2024-09-23 08:55:31.397851,42.98,7.977173,-0.003233425524256645,-0.02367869399252531,0.09685382322919964,40.106058693909645,-100.26678939585686,76.200527287817
2024-09-23 08:55:31.409169,42.98,7.977173,-0.003233425524256645,-0.02367869399252531,0.09720203344245934,28.07457030097246,-100.26678939585686,76.200527287817
2024-09-23 08:55:31.493168,42.98,7.977223,-0.003233425524256645,-0.02367869399252531,0.09720203344245934,28.07457030097246,-96.25519929585457,88.23529758782387
2024-09-23 08:55:31.504909,42.98,7.977223,-0.0028852147413806935,-0.023479709566915436,0.09685382322919964,28.07457030097246,-96.25519929585457,88.23529758782387
2024-09-23 08:55:31.547346,42.74,7.977311,-0.0031836870127375577,-0.023330473146428877,0.09685382322919964,40.106058693909645,-96.25519929585457,76.200527287817
2024-09-23 08:55:31.590722,42.74,7.977311,-0.0031836870127375577,-0.023330473146428877,0.09695331012558621,40.106058693909645,-100.26678939585686,76.200527287817
2024-09-23 08:55:31.602352,42.74,7.977362,-0.0028852147413806935,-0.023330473146428877,0.09695331012558621,40.106058693909645,-100.26678939585686,80.21211738781929
2024-09-23 08:55:31.645890,42.74,7.977457,-0.0028852147413806935,-0.023579196463302005,0.0970030596496862,36.09446859390736,-92.24360919585227,84.22370748782159
2024-09-23 08:55:31.687668,42.74,7.977457,-0.0031339382481259063,-0.023479709566915436,0.09750050628343246,36.09446859390736,-92.24360919585227,84.22370748782159
2024-09-23 08:55:31.698750,42.74,7.977457,-0.0031339382481259063,-0.023479709566915436,0.09750050628343246,28.07457030097246,-92.24360919585227,76.200527287817
2024-09-23 08:55:31.741593,42.74,7.977555,-0.003382661564999035,-0.023579196463302005,0.09690356060148622,40.106058693909645,-84.22370748782159,76.200527287817
2024-09-23 08:55:31.785061,42.74,7.977606,-0.0035318979854855937,-0.023579196463302005,0.09690356060148622,40.106058693909645,-84.22370748782159,80.21211738781929
2024-09-23 08:55:31.796719,42.74,7.977606,-0.0035318979854855937,-0.023728432883788564,0.09690356060148622,40.106058693909645,-84.22370748782159,80.21211738781929
2024-09-23 08:55:31.839881,42.74,7.977657,-0.0030344509719951677,-0.023728432883788564,0.09725178296655933,40.106058693909645,-96.25519929585457,80.21211738781929
2024-09-23 08:55:31.883547,42.74,7.977657,-0.0030344509719951677,-0.023429960042815445,0.0970030596496862,40.106058693909645,-96.25519929585457,80.21211738781929
2024-09-23 08:55:31.895164,42.74,7.977708,-0.0030344509719951677,-0.023429960042815445,0.0970030596496862,40.106058693909645,-96.25519929585457,80.21211738781929
2024-09-23 08:55:31.929300,42.74,7.977708,-0.002785727465249955,-0.023429960042815445,0.0970030596496862,40.106058693909645,-96.25519929585457,80.21211738781929
2024-09-23 08:55:31.941829,42.74,7.977708,-0.002785727465249955,-0.023877669304275123,0.09715228999426605,40.106058693909645,-96.25519929585457,80.21211738781929
2024-09-23 08:55:31.984996,42.74,7.977758,-0.003382661564999035,-0.023877669304275123,0.09715228999426605,40.106058693909645,-96.25519929585457,80.21211738781929
2024-09-23 08:55:31.997252,42.74,7.977758,-0.003382661564999035,-0.023778180888911878,0.09715228999426605,40.106058693909645,-96.25519929585457,80.21211738781929
2024-09-23 08:55:32.029450,42.74,7.977758,-0.003382661564999035,-0.023778180888911878,0.09705279702197278,32.08287849390507,-100.26678939585686,80.21211738781929
2024-09-23 08:55:32.040968,42.74,7.977847,-0.0031836870127375577,-0.023778180888911878,0.09705279702197278,32.08287849390507,-100.26678939585686,84.22370748782159
2024-09-23 08:55:32.084135,42.74,7.977898,-0.0031836870127375577,-0.023579196463302005,0.0973512698629459,40.106058693909645,-104.27510100388527,80.21211738781929
2024-09-23 08:55:32.127633,42.74,7.977898,-0.0024872551938930902,-0.024176140626271565,0.0973015264147526,40.106058693909645,-104.27510100388527,80.21211738781929
2024-09-23 08:55:32.139476,42.74,7.977898,-0.0024872551938930902,-0.024176140626271565,0.0973015264147526,44.11764879391193,-100.26678939585686,76.200527287817
2024-09-23 08:55:32.171611,42.74,7.977949,-0.0024872551938930902,-0.024176140626271565,0.0973015264147526,44.11764879391193,-100.26678939585686,76.200527287817
2024-09-23 08:55:32.183250,42.74,7.977949,-0.0027359787006383035,-0.023479709566915436,0.0970030596496862,32.08287849390507,-100.26678939585686,76.200527287817
2024-09-23 08:55:32.226425,42.74,7.978043,-0.0035318979854855937,-0.02367869399252531,0.0970030596496862,32.08287849390507,-100.26678939585686,80.21211738781929
2024-09-23 08:55:32.237801,42.74,7.978043,-0.0035318979854855937,-0.02367869399252531,0.09705279702197278,28.07457030097246,-100.26678939585686,80.21211738781929
2024-09-23 08:55:32.270454,42.74,7.978043,-0.0035318979854855937,-0.02367869399252531,0.09705279702197278,28.07457030097246,-96.25519929585457,80.21211738781929
2024-09-23 08:55:32.322775,42.74,7.978094,-0.0031339382481259063,-0.02338022115155219,0.09725178296655933,28.07457030097246,-96.25519929585457,80.21211738781929
2024-09-23 08:55:32.334541,42.74,7.978094,-0.0031339382481259063,-0.02338022115155219,0.09725178296655933,40.106058693909645,-100.26678939585686,80.21211738781929
2024-09-23 08:55:32.368109,42.74,7.978094,-0.0031339382481259063,-0.02338022115155219,0.09725178296655933,40.106058693909645,-100.26678939585686,76.200527287817
2024-09-23 08:55:32.380572,42.74,7.978145,-0.003233425524256645,-0.02397715620066169,0.09725178296655933,36.09446859390736,-100.26678939585686,76.200527287817
2024-09-23 08:55:32.423199,42.74,7.978196,-0.0035318979854855937,-0.024176140626271565,0.09725178296655933,36.09446859390736,-104.27510100388527,76.200527287817
2024-09-23 08:55:32.435120,42.74,7.978196,-0.0035318979854855937,-0.024176140626271565,0.09715228999426605,36.09446859390736,-104.27510100388527,76.200527287817
2024-09-23 08:55:32.466441,42.74,7.978196,-0.0035318979854855937,-0.024176140626271565,0.09715228999426605,32.08287849390507,-96.25519929585457,76.200527287817
2024-09-23 08:55:32.477828,42.74,7.978286,-0.0038303700669703737,-0.023927417309398437,0.09715228999426605,32.08287849390507,-96.25519929585457,80.21211738781929
2024-09-23 08:55:32.520403,42.74,7.978336,-0.0032831742888682963,-0.023927417309398437,0.09670458680871308,32.08287849390507,-100.26678939585686,76.200527287817
2024-09-23 08:55:32.563302,42.43,7.978336,-0.0032831742888682963,-0.024176140626271565,0.09670458680871308,32.08287849390507,-100.26678939585686,76.200527287817
2024-09-23 08:55:32.574760,42.43,7.978432,-0.0032831742888682963,-0.024176140626271565,0.09695331012558621,40.106058693909645,-100.26678939585686,76.200527287817
2024-09-23 08:55:32.618184,42.43,7.978432,-0.0030344509719951677,-0.023181236725942318,0.09715228999426605,36.09446859390736,-96.25519929585457,76.200527287817
2024-09-23 08:55:32.630315,42.43,7.978432,-0.0030344509719951677,-0.023181236725942318,0.09715228999426605,36.09446859390736,-96.25519929585457,68.18063240997792
2024-09-23 08:55:32.663128,42.43,7.978483,-0.0030344509719951677,-0.023827930413011865,0.09715228999426605,36.09446859390736,-96.25519929585457,68.18063240997792
2024-09-23 08:55:32.674463,42.43,7.978483,-0.0030344509719951677,-0.023827930413011865,0.09720203344245934,32.08287849390507,-104.27510100388527,68.18063240997792
2024-09-23 08:55:32.716349,42.43,7.978534,-0.0029349636958644295,-0.023927417309398437,0.09725178296655933,32.08287849390507,-104.27510100388527,72.1922225099802
2024-09-23 08:55:32.760122,42.43,7.978534,-0.0029349636958644295,-0.023927417309398437,0.09725178296655933,32.08287849390507,-100.26678939585686,80.21211738781929
2024-09-23 08:55:32.771578,42.43,7.978585,-0.0031339382481259063,-0.023280723622328886,0.09720203344245934,32.08287849390507,-100.26678939585686,80.21211738781929
2024-09-23 08:55:32.814800,42.43,7.978635,-0.0030841997366068195,-0.023280723622328886,0.09720203344245934,36.09446859390736,-100.26678939585686,80.21211738781929
2024-09-23 08:55:32.909453,42.43,7.978635,-0.0030841997366068195,-0.024026904205785005,0.09720203344245934,36.09446859390736,-96.25519929585457,76.200527287817
2024-09-23 08:55:32.921648,42.43,7.978686,-0.0030841997366068195,-0.024026904205785005,0.09720203344245934,36.09446859390736,-96.25519929585457,76.200527287817
2024-09-23 08:55:32.954209,42.43,7.978686,-0.003482159473966507,-0.023230986250042305,0.09720203344245934,36.09446859390736,-96.25519929585457,76.200527287817
2024-09-23 08:55:32.966045,42.43,7.978686,-0.003482159473966507,-0.023230986250042305,0.09710254654607277,36.09446859390736,-96.25519929585457,76.200527287817
2024-09-23 08:55:33.007784,42.43,7.978773,-0.003233425524256645,-0.023230986250042305,0.09710254654607277,32.08287849390507,-100.26678939585686,76.200527287817
2024-09-23 08:55:33.019934,42.43,7.978773,-0.003233425524256645,-0.023827930413011865,0.09710254654607277,32.08287849390507,-100.26678939585686,76.200527287817
2024-09-23 08:55:33.052916,42.43,7.978773,-0.003233425524256645,-0.023827930413011865,0.09685382322919964,36.09446859390736,-100.26678939585686,76.200527287817
2024-09-23 08:55:33.064773,42.43,7.978825,-0.0038801188315820256,-0.023827930413011865,0.09685382322919964,36.09446859390736,-100.26678939585686,76.200527287817
2024-09-23 08:55:33.107672,42.43,7.978875,-0.0038801188315820256,-0.023877669304275123,0.0970030596496862,36.09446859390736,-104.27510100388527,72.1922225099802
2024-09-23 08:55:33.150768,42.43,7.978875,-0.0035816467500972456,-0.02308174982955575,0.09705279702197278,36.09446859390736,-104.27510100388527,72.1922225099802
2024-09-23 08:55:33.162314,42.43,7.978875,-0.0035816467500972456,-0.02308174982955575,0.09705279702197278,36.09446859390736,-100.26678939585686,80.21211738781929
2024-09-23 08:55:33.204661,42.43,7.97897,-0.0031339382481259063,-0.023728432883788564,0.09725178296655933,40.106058693909645,-96.25519929585457,80.21211738781929
2024-09-23 08:55:33.247454,42.43,7.979067,-0.0029847020175114316,-0.023728432883788564,0.09725178296655933,40.106058693909645,-96.25519929585457,84.22370748782159
2024-09-23 08:55:33.258707,42.43,7.979067,-0.0029847020175114316,-0.02397715620066169,0.09695331012558621,40.106058693909645,-96.25519929585457,84.22370748782159
2024-09-23 08:55:33.302359,42.43,7.979118,-0.003482159473966507,-0.023579196463302005,0.09675432418099966,40.106058693909645,-92.24360919585227,80.21211738781929
