Ayaan's Suite
Timestamp,Sample Rate (Hz),Time,Ax,Ay,Az,Gx,Gy,Gz
2024-09-23 01:46:52.572818,0,7.835583,-0.012256778495634975,0.01963527073796979,1.0160348952484908,0.3411964856958948,-1.1068402347296475,-1.3956111311383546
2024-09-23 01:46:52.584324,0,7.835583,-0.012256778495634975,0.01963527073796979,1.0148152420401695,0.3149550229238346,-1.1068402347296475,-1.3956111311383546
2024-09-23 01:46:52.616389,0,7.835583,-0.012256778495634975,0.01963527073796979,1.0148152420401695,0.3149550229238346,-1.1812102424908428,-1.3956111311383546
2024-09-23 01:46:52.627590,0,7.835634,-0.012073802565215924,0.018964423802771455,1.0137175930384832,0.3149550229238346,-1.1812102424908428,-1.4437395427253097
2024-09-23 01:46:52.669309,0,7.835634,-0.012073802565215924,0.018964423802771455,1.0137175930384832,0.3499627431454137,-1.216217962712422,-1.4437395427253097
2024-09-23 01:46:52.681567,0,7.835685,-0.014147094083488534,0.02213537267710212,1.0137175930384832,0.3499627431454137,-1.216217962712422,-1.43932777255252
2024-09-23 01:46:52.714017,0,7.835685,-0.014147094083488534,0.02213537267710212,1.0158518403312846,0.3499627431454137,-1.216217962712422,-1.43932777255252
2024-09-23 01:46:52.725772,0,7.835735,-0.012317737308117227,0.02213537267710212,1.0158518403312846,0.3018342781975865,-1.0499454856518655,-1.3387163820605725
2024-09-23 01:46:52.767792,0,7.835735,-0.012317737308117227,0.01811080599900536,1.012742045457939,0.29747979092085736,-1.2424594521649182,-1.3387163820605725
2024-09-23 01:46:52.779485,0,7.835825,-0.012317737308117227,0.01811080599900536,1.012742045457939,0.29747979092085736,-1.2424594521649182,-1.483101830264926
2024-09-23 01:46:52.811591,0,7.835825,-0.01433007153288426,0.01811080599900536,1.012742045457939,0.29747979092085736,-1.2424594521649182,-1.483101830264926
2024-09-23 01:46:52.822784,0,7.835825,-0.01433007153288426,0.018293680157987106,1.0137175930384832,0.3543172304221429,-1.0762442846808582,-1.43932777255252
2024-09-23 01:46:52.864950,0,7.835877,-0.011159123418041933,0.018171764051999276,1.0137175930384832,0.3543172304221429,-1.0762442846808582,-1.43932777255252
2024-09-23 01:46:52.876335,0,7.835877,-0.011159123418041933,0.018171764051999276,1.0120102146471432,0.37184974532118065,-1.1812102424908428,-1.43932777255252
2024-09-23 01:46:52.919447,0,7.835928,-0.014208053655459124,0.02140366946034718,1.0121322188537785,0.42433269754573705,-1.1812102424908428,-1.4218526205908506
2024-09-23 01:46:52.962353,0,7.835978,-0.014208053655459124,0.02140366946034718,1.0121322188537785,0.42433269754573705,-1.216217962712422,-1.496222521630302
2024-09-23 01:46:52.973262,0,7.835978,-0.013171458402297304,0.022562284109910815,1.0119492611510794,0.42433269754573705,-1.216217962712422,-1.496222521630302
2024-09-23 01:46:53.015090,0,7.836029,-0.012073802565215924,0.020793883868556746,1.0119492611510794,0.3368419984191656,-1.0893650827679784,-1.4174980532728136
2024-09-23 01:46:53.057762,0,7.836029,-0.012073802565215924,0.020793883868556746,1.0122541258459061,0.27994727602181957,-1.0893650827679784,-1.4174980532728136
2024-09-23 01:46:53.069213,0,7.83608,-0.013476350438704184,0.020793883868556746,1.0122541258459061,0.27994727602181957,-1.1287272635858505,-1.413086283100024
2024-09-23 01:46:53.112188,0,7.83608,-0.013476350438704184,0.023964729452473427,1.0115833457456815,0.3324875378228724,-1.2424594521649182,-1.3999655917346479
2024-09-23 01:46:53.124263,0,7.836167,-0.013476350438704184,0.023964729452473427,1.0115833457456815,0.3324875378228724,-1.2424594521649182,-1.3999655917346479
2024-09-23 01:46:53.156267,0,7.836167,-0.012500713238536278,0.016769215419022678,1.0132908213515286,0.3324875378228724,-1.2424594521649182,-1.3999655917346479
2024-09-23 01:46:53.167222,0,7.836167,-0.012500713238536278,0.016769215419022678,1.0132908213515286,0.3368419984191656,-1.1199610328167677,-1.4524485706396402
2024-09-23 01:46:53.210860,0,7.836218,-0.010671253932239326,0.02317206970170125,1.015486022140394,0.41121195281948897,-1.1111946953259408,-1.4524485706396402
2024-09-23 01:46:53.304280,0,7.836269,-0.010244444270867941,0.02317206970170125,1.015486022140394,0.41121195281948897,-1.1111946953259408,-1.4568603408124299
2024-09-23 01:46:53.357630,0,7.83632,-0.010244444270867941,0.025367278085450026,1.0121931723498423,0.3324875378228724,-1.1812102424908428,-1.483101830264926
2024-09-23 01:46:53.400927,0,7.83632,-0.014025177977500705,0.02012303845233509,1.01737645544894,0.3324875378228724,-1.1812102424908428,-1.483101830264926
2024-09-23 01:46:53.412164,0,7.83632,-0.014025177977500705,0.02012303845233509,1.01737645544894,0.3849704900474288,-1.1855647030871361,-1.413086283100024
2024-09-23 01:46:53.455641,0,7.83637,-0.011524974266931064,0.01798878660260355,1.0122541258459061,0.26247207069927825,-1.1462025222692638,-1.413086283100024
2024-09-23 01:46:53.498324,0,7.836421,-0.010854230622146716,0.01798878660260355,1.0122541258459061,0.26247207069927825,-1.1462025222692638,-1.3868447936475277
2024-09-23 01:46:53.509639,0,7.836421,-0.010854230622146716,0.022318348607521174,1.0137175930384832,0.4418652124447748,-1.1462025222692638,-1.3868447936475277
2024-09-23 01:46:53.551786,40.09,7.836508,-0.01481783924724956,0.020793883868556746,1.0121322188537785,0.4418652124447748,-1.1724439050000162,-1.3649578715130686
2024-09-23 01:46:53.594754,40.09,7.836508,-0.01481783924724956,0.020793883868556746,1.0121322188537785,0.3368419984191656,-1.1724439050000162,-1.3649578715130686
2024-09-23 01:46:53.606444,40.09,7.836608,-0.011586034850850625,0.020306014382754138,1.0121322188537785,0.3368419984191656,-1.1724439050000162,-1.4524485706396402
2024-09-23 01:46:53.648820,40.09,7.836658,-0.011586034850850625,0.020306014382754138,1.0139616014517532,0.3018342781975865,-1.1156065722204744,-1.518109550486505
2024-09-23 01:46:53.691184,40.09,7.836658,-0.008841896397379681,0.02097675802753849,1.0139616014517532,0.3018342781975865,-1.1156065722204744,-1.518109550486505
2024-09-23 01:46:53.702465,40.09,7.836658,-0.008841896397379681,0.02097675802753849,1.0138396944596255,0.3411964856958948,-1.1330817241821438,-1.2993542012427002
2024-09-23 01:46:53.745848,40.09,7.836752,-0.015915494324842603,0.019574312684975875,1.0109736163560281,0.29747979092085736,-1.1199610328167677,-1.2993542012427002
2024-09-23 01:46:53.788993,40.09,7.836804,-0.015915494324842603,0.019574312684975875,1.0109736163560281,0.29747979092085736,-1.1199610328167677,-1.5355847024481744
2024-09-23 01:46:53.800056,40.09,7.836804,-0.012439653414105056,0.02225739055452726,1.0132298678554648,0.3368419984191656,-1.1199610328167677,-1.5355847024481744
2024-09-23 01:46:53.843434,40.09,7.836854,-0.013171458402297304,0.01963527073796979,1.0146322843374704,0.3368419984191656,-1.1111946953259408,-1.4306188513599336
2024-09-23 01:46:53.886528,40.09,7.836854,-0.013171458402297304,0.01963527073796979,1.0146322843374704,0.29306802074806765,-1.0499454856518655,-1.4306188513599336
2024-09-23 01:46:53.898433,40.09,7.836905,-0.012744546969488612,0.017561976941232165,1.0146322843374704,0.29306802074806765,-1.0499454856518655,-1.3824903330512346
2024-09-23 01:46:53.942651,40.09,7.836956,-0.009451681989170117,0.017561976941232165,1.0143883731387076,0.37184974532118065,-1.15932321363464,-1.4655692620050162
2024-09-23 01:46:53.985445,40.09,7.836956,-0.009451681989170117,0.021830479121718566,1.0120712653577144,0.3062460483703762,-1.15932321363464,-1.4655692620050162
2024-09-23 01:46:53.997079,40.09,7.837044,-0.009451681989170117,0.021830479121718566,1.0120712653577144,0.3062460483703762,-1.2687009416174144,-1.474335492774099
2024-09-23 01:46:54.040267,40.09,7.837044,-0.012256778495634975,0.016830173472016593,1.0102418827597397,0.24935132597303017,-1.1418479549512268,-1.3999655917346479
2024-09-23 01:46:54.083101,40.09,7.837096,-0.015183792627064338,0.017622936513202757,1.0102418827597397,0.24935132597303017,-1.1418479549512268,-1.3999655917346479
2024-09-23 01:46:54.094722,40.09,7.837096,-0.015183792627064338,0.017622936513202757,1.014022554947817,0.2581175834225491,-1.1374934943549335,-1.3999655917346479
2024-09-23 01:46:54.138109,40.09,7.837146,-0.012866564846913748,0.01963527073796979,1.0114614387535539,0.38061600277069957,-1.1374934943549335,-1.3868447936475277
2024-09-23 01:46:54.181044,40.09,7.837197,-0.012866564846913748,0.01963527073796979,1.0114614387535539,0.38061600277069957,-1.1549687530383468,-1.448094003321603
2024-09-23 01:46:54.192247,40.09,7.837197,-0.011220081471035847,0.02329398580768908,1.0140835084438808,0.38061600277069957,-1.1549687530383468,-1.448094003321603
2024-09-23 01:46:54.225036,40.09,7.837197,-0.011220081471035847,0.02329398580768908,1.0140835084438808,0.3193667930966243,-1.1549687530383468,-1.448094003321603
2024-09-23 01:46:54.236602,40.09,7.837248,-0.012988480952901577,0.02097675802753849,1.0140835084438808,0.3193667930966243,-1.0937195433642715,-1.3999655917346479
2024-09-23 01:46:54.330127,40.09,7.837299,-0.012988480952901577,0.02097675802753849,1.0134736818397203,0.27123832814879717,-1.1374934943549335,-1.3343619214642792
2024-09-23 01:46:54.342193,40.09,7.837299,-0.010549337066763158,0.02097675802753849,1.0134736818397203,0.27123832814879717,-1.1374934943549335,-1.3343619214642792
2024-09-23 01:46:54.374275,40.09,7.837299,-0.010549337066763158,0.02152558556633501,1.0118883076550156,0.27123832814879717,-1.1374934943549335,-1.3343619214642792
2024-09-23 01:46:54.386046,40.09,7.837385,-0.010549337066763158,0.02152558556633501,1.0118883076550156,0.40244569536997005,-1.1680894444037229,-1.413086283100024
2024-09-23 01:46:54.428454,40.09,7.837385,-0.013293374508285133,0.018171764051999276,1.0160958487445546,0.37184974532118065,-1.203097164625302,-1.3999655917346479
2024-09-23 01:46:54.471215,40.09,7.837437,-0.012927522899907663,0.018171764051999276,1.0160958487445546,0.37184974532118065,-1.203097164625302,-1.3999655917346479
2024-09-23 01:46:54.483401,40.09,7.837437,-0.012927522899907663,0.02018409827676631,1.0162788064472537,0.24499683869630098,-1.2293386540777982,-1.3999655917346479
2024-09-23 01:46:54.527229,40.09,7.837488,-0.01378124399408774,0.01853761414140007,1.0121322188537785,0.3062460483703762,-1.2293386540777982,-1.3080631224352866
2024-09-23 01:46:54.569101,39.21,7.837488,-0.01378124399408774,0.01853761414140007,1.0121322188537785,0.3062460483703762,-1.1374934943549335,-1.413086283100024
2024-09-23 01:46:54.581192,39.21,7.837582,-0.012500713238536278,0.01786687049661572,1.0118273541589518,0.3062460483703762,-1.1374934943549335,-1.413086283100024
2024-09-23 01:46:54.624731,39.21,7.837633,-0.01481783924724956,0.019879204721382753,1.0118273541589518,0.223109849860752,-1.1330817241821438,-1.3562488435987383
2024-09-23 01:46:54.666948,39.21,7.837633,-0.01481783924724956,0.019879204721382753,1.0132298678554648,0.2843590461946093,-1.1330817241821438,-1.3562488435987383
2024-09-23 01:46:54.678006,39.21,7.837684,-0.01042742096077533,0.019879204721382753,1.0132298678554648,0.2843590461946093,-1.1899764732599258,-1.4568603408124299
2024-09-23 01:46:54.719884,39.21,7.837684,-0.01042742096077533,0.02018409827676631,1.0149372462468045,0.3062460483703762,-1.0980740039605648,-1.4568603408124299
2024-09-23 01:46:54.733143,39.21,7.837775,-0.01042742096077533,0.02018409827676631,1.0149372462468045,0.3062460483703762,-1.0980740039605648,-1.3999655917346479
2024-09-23 01:46:54.766097,39.21,7.837775,-0.013293374508285133,0.022501222766502915,1.0145713308414066,0.3062460483703762,-1.0980740039605648,-1.3999655917346479
2024-09-23 01:46:54.777359,39.21,7.837775,-0.013293374508285133,0.022501222766502915,1.0145713308414066,0.29747979092085736,-1.15932321363464,-1.3430708426568656
2024-09-23 01:46:54.819525,39.21,7.837827,-0.010732313756670548,0.018781549643789714,1.0125589905407328,0.2581175834225491,-1.1943309338562191,-1.3430708426568656
2024-09-23 01:46:54.864504,39.21,7.837878,-0.01219582044264106,0.018781549643789714,1.0125589905407328,0.2581175834225491,-1.1943309338562191,-1.413086283100024
2024-09-23 01:46:54.876360,39.21,7.837878,-0.01219582044264106,0.01823272210499319,1.0124370835486052,0.2668265312955715,-1.1943309338562191,-1.413086283100024
2024-09-23 01:46:54.909214,39.21,7.837878,-0.01219582044264106,0.01823272210499319,1.0124370835486052,0.2668265312955715,-1.1812102424908428,-1.413086283100024
2024-09-23 01:46:54.920603,39.21,7.837928,-0.010366361136344109,0.01975718684395762,1.0123761300525411,0.2668265312955715,-1.1812102424908428,-1.496222521630302
2024-09-23 01:46:54.962657,39.21,7.837979,-0.010366361136344109,0.01975718684395762,1.0123761300525411,0.3280757409696467,-1.0805987452771515,-1.4087318225037306
2024-09-23 01:46:54.974056,39.21,7.837979,-0.011707950956838454,0.022989092252305523,1.0123761300525411,0.3280757409696467,-1.0805987452771515,-1.4087318225037306
2024-09-23 01:46:55.006753,39.21,7.837979,-0.011707950956838454,0.022989092252305523,1.012802998954003,0.3280757409696467,-1.0805987452771515,-1.4087318225037306
2024-09-23 01:46:55.017763,39.21,7.83803,-0.011890927646745842,0.022989092252305523,1.012802998954003,0.31060053564710544,-1.0849533125951887,-1.3649578715130686
2024-09-23 01:46:55.060738,39.21,7.83803,-0.011890927646745842,0.02164760496273682,1.0124370835486052,0.3499627431454137,-1.1156065722204744,-1.4174980532728136
2024-09-23 01:46:55.072597,39.21,7.838117,-0.011890927646745842,0.02164760496273682,1.0124370835486052,0.3499627431454137,-1.1156065722204744,-1.4174980532728136
2024-09-23 01:46:55.105148,39.21,7.838117,-0.011951885699739756,0.020306014382754138,1.0124370835486052,0.3499627431454137,-1.1156065722204744,-1.4174980532728136
2024-09-23 01:46:55.116667,39.21,7.838117,-0.011951885699739756,0.020306014382754138,1.0138396944596255,0.2843590461946093,-1.1680894444037229,-1.518109550486505
2024-09-23 01:46:55.159029,39.21,7.838168,-0.011524974266931064,0.020062078880364497,1.0162178529511898,0.3630834878716618,-1.1680894444037229,-1.518109550486505
2024-09-23 01:46:55.170997,39.21,7.838168,-0.011524974266931064,0.020062078880364497,1.0162178529511898,0.3630834878716618,-1.1287272635858505,-1.518109550486505
2024-09-23 01:46:55.202695,39.21,7.838219,-0.011524974266931064,0.020062078880364497,1.0162178529511898,0.3630834878716618,-1.1287272635858505,-1.3474826128296553
2024-09-23 01:46:55.213676,39.21,7.838219,-0.015000815177668611,0.02067186599113161,1.011095523348156,0.3062460483703762,-1.1287272635858505,-1.3474826128296553
2024-09-23 01:46:55.255996,39.21,7.83827,-0.009390723936176203,0.024452598938276036,1.011095523348156,0.3062460483703762,-1.0718325145080685,-1.3255955839734523
2024-09-23 01:46:55.267714,39.21,7.83827,-0.009390723936176203,0.024452598938276036,1.0163397599433175,0.3062460483703762,-1.0718325145080685,-1.3255955839734523
2024-09-23 01:46:55.300301,39.21,7.83827,-0.009390723936176203,0.024452598938276036,1.0163397599433175,0.37620423259790986,-1.0543573625463993,-1.3255955839734523
2024-09-23 01:46:55.311258,39.21,7.83832,-0.013903160100075569,0.02012303845233509,1.0163397599433175,0.37620423259790986,-1.0543573625463993,-1.3824903330512346
2024-09-23 01:46:55.353123,39.21,7.83832,-0.013903160100075569,0.02012303845233509,1.0129859566567019,0.3499627431454137,-1.0543573625463993,-1.3824903330512346
2024-09-23 01:46:55.398129,39.21,7.83832,-0.013903160100075569,0.02012303845233509,1.0129859566567019,0.3499627431454137,-1.0674780539117754,-1.4524485706396402
2024-09-23 01:46:55.410116,39.21,7.838371,-0.012622630104012445,0.02176952106872465,1.011217527554791,0.3499627431454137,-1.0674780539117754,-1.4524485706396402
2024-09-23 01:46:55.453142,39.21,7.838458,-0.00969561673207142,0.019208359305161096,1.011217527554791,0.3543172304221429,-1.1462025222692638,-1.496222521630302
2024-09-23 01:46:55.495169,39.21,7.838458,-0.00969561673207142,0.019208359305161096,1.0103637897518674,0.223109849860752,-1.1462025222692638,-1.496222521630302
2024-09-23 01:46:55.507447,39.21,7.838509,-0.015244750680058252,0.019208359305161096,1.0103637897518674,0.223109849860752,-1.0893650827679784,-1.509343212995678
2024-09-23 01:46:55.550952,39.21,7.83856,-0.015244750680058252,0.02097675802753849,1.0134736818397203,0.3324875378228724,-1.1068402347296475,-1.469981032177806
2024-09-23 01:46:55.594752,40.77,7.83856,-0.013598266544692013,0.02164760496273682,1.0139006479556893,0.3324875378228724,-1.1068402347296475,-1.469981032177806
2024-09-23 01:46:55.607041,40.77,7.83856,-0.013598266544692013,0.02164760496273682,1.0139006479556893,0.2274643237972632,-1.0543573625463993,-1.413086283100024
2024-09-23 01:46:55.641196,40.77,7.838653,-0.013598266544692013,0.02164760496273682,1.0139006479556893,0.2274643237972632,-1.0543573625463993,-1.413086283100024
2024-09-23 01:46:55.652862,40.77,7.838653,-0.011037206552565765,0.02152558556633501,1.011217527554791,0.37184974532118065,-1.1899764732599258,-1.413086283100024
2024-09-23 01:46:55.695175,40.77,7.838705,-0.011220081471035847,0.022684200215898644,1.0118273541589518,0.37184974532118065,-1.1899764732599258,-1.4655692620050162
2024-09-23 01:46:55.707128,40.77,7.838705,-0.011220081471035847,0.022684200215898644,1.0118273541589518,0.3411964856958948,-1.1899764732599258,-1.4655692620050162
2024-09-23 01:46:55.739935,40.77,7.838755,-0.011220081471035847,0.022684200215898644,1.0118273541589518,0.3411964856958948,-1.1199610328167677,-1.4437395427253097
2024-09-23 01:46:55.751919,40.77,7.838755,-0.01433007153288426,0.020610907938137694,1.0143883731387076,0.3411964856958948,-1.1199610328167677,-1.4437395427253097
2024-09-23 01:46:55.794466,40.77,7.838806,-0.01341539238571027,0.020915799974544576,1.0143883731387076,0.3849704900474288,-1.1462025222692638,-1.4218526205908506
2024-09-23 01:46:55.836545,40.77,7.838806,-0.01341539238571027,0.020915799974544576,1.0160348952484908,0.39373674749694765,-1.1462025222692638,-1.4218526205908506
2024-09-23 01:46:55.848559,40.77,7.838857,-0.012317737308117227,0.020915799974544576,1.0160348952484908,0.39373674749694765,-1.0674780539117754,-1.448094003321603
2024-09-23 01:46:55.892033,40.77,7.838945,-0.012317737308117227,0.017805912443621806,1.0146933350480416,0.3193667930966243,-1.203097164625302,-1.5136977803137153
2024-09-23 01:46:55.934021,40.77,7.838945,-0.013354434332716355,0.018293680157987106,1.0146933350480416,0.3193667930966243,-1.203097164625302,-1.5136977803137153
2024-09-23 01:46:55.945172,40.77,7.838945,-0.013354434332716355,0.018293680157987106,1.012498037044669,0.3543172304221429,-1.1462025222692638,-1.4437395427253097
2024-09-23 01:46:55.987251,40.77,7.838997,-0.011098165365048018,0.02048899031317319,1.012802998954003,0.3193667930966243,-1.1462025222692638,-1.4437395427253097
2024-09-23 01:46:55.999095,40.77,7.838997,-0.011098165365048018,0.02048899031317319,1.012802998954003,0.3193667930966243,-1.1287272635858505,-1.4437395427253097
2024-09-23 01:46:56.031193,40.77,7.839048,-0.011098165365048018,0.02048899031317319,1.012802998954003,0.3193667930966243,-1.1287272635858505,-1.448094003321603
2024-09-23 01:46:56.042765,40.77,7.839048,-0.016525279916633037,0.017196025080394063,1.0103637897518674,0.3237212803733535,-1.1287272635858505,-1.448094003321603
2024-09-23 01:46:56.086094,40.77,7.839098,-0.012866564846913748,0.0187205915907958,1.0131078636488298,0.3237212803733535,-1.1068402347296475,-1.3911993609655648
2024-09-23 01:46:56.128485,40.77,7.839098,-0.012866564846913748,0.0187205915907958,1.0131078636488298,0.27123832814879717,-1.1374934943549335,-1.3911993609655648
2024-09-23 01:46:56.140475,40.77,7.839149,-0.012744546969488612,0.020366972435748053,1.0131078636488298,0.27123832814879717,-1.1374934943549335,-1.4874562908612192
2024-09-23 01:46:56.182684,40.77,7.8392,-0.012744546969488612,0.020366972435748053,1.0093881449568163,0.29306802074806765,-1.0980740039605648,-1.4306188513599336
2024-09-23 01:46:56.194666,40.77,7.8392,-0.013110498830326714,0.020366972435748053,1.0093881449568163,0.29306802074806765,-1.0980740039605648,-1.4306188513599336
2024-09-23 01:46:56.226470,40.77,7.8392,-0.013110498830326714,0.021586543619328925,1.0129859566567019,0.29306802074806765,-1.0980740039605648,-1.4306188513599336
2024-09-23 01:46:56.237683,40.77,7.839287,-0.013110498830326714,0.021586543619328925,1.0129859566567019,0.4330989549952559,-1.1287272635858505,-1.448094003321603
2024-09-23 01:46:56.281156,40.77,7.839287,-0.01408613603049462,0.019940162774376668,1.0134736818397203,0.3280757409696467,-1.1287272635858505,-1.4174980532728136
2024-09-23 01:46:56.375404,40.77,7.839338,-0.01408613603049462,0.019940162774376668,1.0134736818397203,0.3280757409696467,-1.1287272635858505,-1.4174980532728136
2024-09-23 01:46:56.428395,40.77,7.839338,-0.010244444270867941,0.023720795469060463,1.0132908213515286,0.3456082558686845,-1.1462025222692638,-1.43932777255252
2024-09-23 01:46:56.470452,40.77,7.839389,-0.01536666678604608,0.023720795469060463,1.0132908213515286,0.3456082558686845,-1.1462025222692638,-1.43932777255252
2024-09-23 01:46:56.481996,40.77,7.839389,-0.01536666678604608,0.019086441680196593,1.0135347325502915,0.35872900059493257,-1.1374934943549335,-1.43932777255252
2024-09-23 01:46:56.525952,40.77,7.83944,-0.012439653414105056,0.019879204721382753,1.0131078636488298,0.3499627431454137,-1.1374934943549335,-1.3737241022821516
2024-09-23 01:46:56.569069,40.77,7.83949,-0.012439653414105056,0.019879204721382753,1.0131078636488298,0.3499627431454137,-1.0368247942864894,-1.3212411233771593
2024-09-23 01:46:56.580843,40.77,7.83949,-0.009756574785065334,0.020001120827370582,1.0183521002439913,0.3499627431454137,-1.0368247942864894,-1.3212411233771593
2024-09-23 01:46:56.623741,40.54,7.839541,-0.010671253932239326,0.019513251341567978,1.0183521002439913,0.3062460483703762,-1.1068402347296475,-1.461214801408723
2024-09-23 01:46:56.666945,40.54,7.839541,-0.010671253932239326,0.019513251341567978,1.011217527554791,0.3280757409696467,-1.1768557818945498,-1.461214801408723
2024-09-23 01:46:56.678590,40.54,7.839679,-0.01481783924724956,0.019513251341567978,1.011217527554791,0.3280757409696467,-1.1768557818945498,-1.434973311956227
2024-09-23 01:46:56.720989,40.54,7.839774,-0.01481783924724956,0.018598572194393984,1.0116442992417454,0.3543172304221429,-1.1068402347296475,-1.43932777255252
2024-09-23 01:46:56.764197,40.54,7.839774,-0.011951885699739756,0.020427930488741967,1.0121322188537785,0.3543172304221429,-1.1068402347296475,-1.43932777255252
2024-09-23 01:46:56.775846,40.54,7.839774,-0.011951885699739756,0.020427930488741967,1.0121322188537785,0.3411964856958948,-1.0849533125951887,-1.3999655917346479
2024-09-23 01:46:56.818640,40.54,7.839826,-0.010610295879245411,0.021159735476934217,1.0136566395424191,0.3149550229238346,-1.028115873093903,-1.3999655917346479
2024-09-23 01:46:56.862101,40.54,7.839876,-0.011403058160943235,0.021159735476934217,1.0136566395424191,0.3149550229238346,-1.028115873093903,-1.474335492774099
2024-09-23 01:46:56.873247,40.54,7.839876,-0.011403058160943235,0.02018409827676631,1.0126809947473678,0.37184974532118065,-1.028115873093903,-1.474335492774099
2024-09-23 01:46:56.916846,40.54,7.839927,-0.01433007153288426,0.02067186599113161,1.0132908213515286,0.37184974532118065,-1.1199610328167677,-1.483101830264926
2024-09-23 01:46:56.959025,40.54,7.839927,-0.01433007153288426,0.02067186599113161,1.0132908213515286,0.3237212803733535,-1.1243154934130608,-1.404320052330941
2024-09-23 01:46:56.970819,40.54,7.839978,-0.013842202047081654,0.018293680157987106,1.0132908213515286,0.3237212803733535,-1.1243154934130608,-1.404320052330941
2024-09-23 01:46:57.013608,40.54,7.840029,-0.012256778495634975,0.018293680157987106,1.0115223922496177,0.3674952580444515,-1.1462025222692638,-1.2905878637518733
2024-09-23 01:46:57.056281,40.54,7.840029,-0.012256778495634975,0.019513251341567978,1.015608026347029,0.37620423259790986,-1.1462025222692638,-1.2905878637518733
2024-09-23 01:46:57.067223,40.54,7.840116,-0.012256778495634975,0.019513251341567978,1.015608026347029,0.37620423259790986,-1.1111946953259408,-1.4174980532728136
2024-09-23 01:46:57.109787,40.54,7.840116,-0.012500713238536278,0.02122069352992813,1.0168886330514144,0.3674952580444515,-1.1330817241821438,-1.4174980532728136
2024-09-23 01:46:57.121435,40.54,7.840116,-0.012500713238536278,0.02122069352992813,1.0168886330514144,0.3674952580444515,-1.1330817241821438,-1.3868447936475277
2024-09-23 01:46:57.153955,40.54,7.840167,-0.012378695361111141,0.019879204721382753,1.0168886330514144,0.3674952580444515,-1.1330817241821438,-1.3868447936475277
2024-09-23 01:46:57.165989,40.54,7.840167,-0.012378695361111141,0.019879204721382753,1.0105467474545664,0.3062460483703762,-1.0674780539117754,-1.3868447936475277
2024-09-23 01:46:57.209810,40.54,7.840218,-0.012439653414105056,0.018476656088406155,1.0111565740587272,0.3674952580444515,-1.0674780539117754,-1.4524485706396402
2024-09-23 01:46:57.252924,40.54,7.840269,-0.01481783924724956,0.018476656088406155,1.0111565740587272,0.3674952580444515,-1.0587118231426924,-1.483101830264926
2024-09-23 01:46:57.264315,40.54,7.840269,-0.01481783924724956,0.018659531766364576,1.0123761300525411,0.3674952580444515,-1.0587118231426924,-1.483101830264926
2024-09-23 01:46:57.296459,40.54,7.840269,-0.01481783924724956,0.018659531766364576,1.0123761300525411,0.3630834878716618,-1.0587118231426924,-1.483101830264926
2024-09-23 01:46:57.307973,40.54,7.840319,-0.012256778495634975,0.02164760496273682,1.0123761300525411,0.3630834878716618,-1.0324703336901964,-1.4568603408124299
2024-09-23 01:46:57.350587,40.54,7.840319,-0.012256778495634975,0.02164760496273682,1.0120102146471432,0.4155664400962181,-1.1462025222692638,-1.404320052330941
2024-09-23 01:46:57.361692,40.54,7.84037,-0.01664729931303485,0.02164760496273682,1.0120102146471432,0.4155664400962181,-1.1462025222692638,-1.404320052330941
2024-09-23 01:46:57.394487,40.54,7.84037,-0.01664729931303485,0.019208359305161096,1.0120102146471432,0.4155664400962181,-1.1462025222692638,-1.404320052330941
2024-09-23 01:46:57.405630,40.54,7.840457,-0.01664729931303485,0.019208359305161096,1.0112784810508548,0.31060053564710544,-1.0762442846808582,-1.3824903330512346
2024-09-23 01:46:57.447509,40.54,7.840457,-0.013232416455291218,0.020610907938137694,1.0113394345469187,0.3368419984191656,-1.0762442846808582,-1.3824903330512346
2024-09-23 01:46:57.458375,40.54,7.840457,-0.013232416455291218,0.020610907938137694,1.0113394345469187,0.3368419984191656,-1.1243154934130608,-1.4306188513599336
2024-09-23 01:46:57.500625,40.54,7.840508,-0.011707950956838454,0.02189143717471248,1.0131078636488298,0.2274643237972632,-1.1068402347296475,-1.4306188513599336
2024-09-23 01:46:57.545576,40.54,7.840559,-0.014269113479890346,0.02189143717471248,1.0131078636488298,0.2274643237972632,-1.1068402347296475,-1.4174980532728136
2024-09-23 01:46:57.558012,40.54,7.840559,-0.014269113479890346,0.02365983741606655,1.0147542885441054,0.2537058132497594,-1.1068402347296475,-1.4174980532728136
2024-09-23 01:46:57.590771,40.54,7.840559,-0.014269113479890346,0.02365983741606655,1.0147542885441054,0.2537058132497594,-1.1855647030871361,-1.4218526205908506
2024-09-23 01:46:57.602254,40.54,7.84061,-0.01396421992450679,0.02085484192155066,1.014022554947817,0.2537058132497594,-1.1855647030871361,-1.4218526205908506
2024-09-23 01:46:57.644921,41.05,7.84061,-0.01396421992450679,0.02085484192155066,1.014022554947817,0.29747979092085736,-1.1418479549512268,-1.3693696416858583
2024-09-23 01:46:57.686815,41.05,7.84066,-0.01396421992450679,0.02085484192155066,1.014022554947817,0.29747979092085736,-1.1418479549512268,-1.3693696416858583
2024-09-23 01:46:57.698191,41.05,7.84066,-0.01433007153288426,0.0187205915907958,1.0153641151482662,0.39373674749694765,-1.2205724233087152,-1.3693696416858583
2024-09-23 01:46:57.741340,41.05,7.840711,-0.015793578218854774,0.019696228790963704,1.0153641151482662,0.39373674749694765,-1.2205724233087152,-1.4087318225037306
2024-09-23 01:46:57.752835,41.05,7.840711,-0.015793578218854774,0.019696228790963704,1.0112784810508548,0.27994727602181957,-1.2205724233087152,-1.4087318225037306
2024-09-23 01:46:57.786398,41.05,7.840711,-0.015793578218854774,0.019696228790963704,1.0112784810508548,0.27994727602181957,-1.1374934943549335,-1.3387163820605725
2024-09-23 01:46:57.797640,41.05,7.840798,-0.012378695361111141,0.018842507696783625,1.0093270942462451,0.27994727602181957,-1.1374934943549335,-1.3387163820605725
2024-09-23 01:46:57.839735,41.05,7.840849,-0.012378695361111141,0.018842507696783625,1.0093270942462451,0.2274643237972632,-1.1287272635858505,-1.3868447936475277
2024-09-23 01:46:57.852039,41.05,7.840849,-0.012805606793919833,0.020427930488741967,1.0093270942462451,0.2274643237972632,-1.1287272635858505,-1.3868447936475277
2024-09-23 01:46:57.886060,41.05,7.840849,-0.012805606793919833,0.020427930488741967,1.0103637897518674,0.27994727602181957,-1.1462025222692638,-1.3868447936475277
2024-09-23 01:46:57.897259,41.05,7.8409,-0.01256167205101853,0.020427930488741967,1.0103637897518674,0.27994727602181957,-1.1462025222692638,-1.3649578715130686
2024-09-23 01:46:57.939850,41.05,7.840993,-0.01256167205101853,0.020366972435748053,1.0135347325502915,0.37184974532118065,-1.1812102424908428,-1.448094003321603
2024-09-23 01:46:57.982741,41.05,7.840993,-0.010000509527966639,0.018781549643789714,1.014205512650516,0.37184974532118065,-1.1812102424908428,-1.448094003321603
2024-09-23 01:46:57.994327,41.05,7.840993,-0.010000509527966639,0.018781549643789714,1.014205512650516,0.3018342781975865,-1.1156065722204744,-1.3606034109167755
2024-09-23 01:46:58.037302,41.05,7.841044,-0.012439653414105056,0.019025483627202678,1.0162178529511898,0.3499627431454137,-1.1243154934130608,-1.3606034109167755
2024-09-23 01:46:58.080004,41.05,7.841095,-0.01365932788809991,0.019025483627202678,1.0162178529511898,0.3499627431454137,-1.1243154934130608,-1.3430708426568656
2024-09-23 01:46:58.091242,41.05,7.841095,-0.01365932788809991,0.020732824044125523,1.0152421109416312,0.38932495064372197,-1.1243154934130608,-1.3430708426568656
2024-09-23 01:46:58.134734,41.05,7.841146,-0.013476350438704184,0.01768389456619667,1.0164616669354454,0.38932495064372197,-1.1724439050000162,-1.4174980532728136
2024-09-23 01:46:58.177204,41.05,7.841146,-0.013476350438704184,0.01768389456619667,1.0164616669354454,0.4418652124447748,-1.2512256829340012,-1.474335492774099
2024-09-23 01:46:58.188564,41.05,7.841197,-0.010671253932239326,0.02012303845233509,1.0164616669354454,0.4418652124447748,-1.2512256829340012,-1.474335492774099
2024-09-23 01:46:58.231018,41.05,7.841247,-0.009756574785065334,0.02012303845233509,1.0145103773453428,0.2362305812467821,-1.1462025222692638,-1.4655692620050162
2024-09-23 01:46:58.273759,41.05,7.841247,-0.009756574785065334,0.020306014382754138,1.0121931723498423,0.2362305812467821,-1.1462025222692638,-1.4655692620050162
2024-09-23 01:46:58.285361,41.05,7.841335,-0.009756574785065334,0.020306014382754138,1.0121931723498423,0.2843590461946093,-1.15932321363464,-1.3430708426568656
2024-09-23 01:46:58.327040,41.05,7.841335,-0.013720285941093825,0.01914740125216718,1.0104856967439952,0.2537058132497594,-1.0849533125951887,-1.3430708426568656
2024-09-23 01:46:58.338754,41.05,7.841335,-0.013720285941093825,0.01914740125216718,1.0104856967439952,0.2537058132497594,-1.0849533125951887,-1.491868061034009
2024-09-23 01:46:58.370583,41.05,7.841386,-0.015244750680058252,0.01914740125216718,1.0104856967439952,0.2537058132497594,-1.0849533125951887,-1.491868061034009
2024-09-23 01:46:58.381848,41.05,7.841386,-0.015244750680058252,0.020427930488741967,1.0137175930384832,0.3456082558686845,-1.1506142924420535,-1.491868061034009
2024-09-23 01:46:58.424513,41.05,7.841437,-0.013171458402297304,0.017622936513202757,1.012742045457939,0.3456082558686845,-1.1506142924420535,-1.4218526205908506
2024-09-23 01:46:58.436128,41.05,7.841437,-0.013171458402297304,0.017622936513202757,1.012742045457939,0.3368419984191656,-1.1506142924420535,-1.4218526205908506
2024-09-23 01:46:58.468664,41.05,7.841437,-0.013171458402297304,0.017622936513202757,1.012742045457939,0.3368419984191656,-1.0674780539117754,-1.4218526205908506
2024-09-23 01:46:58.480199,41.05,7.841488,-0.013598266544692013,0.021159735476934217,1.0118273541589518,0.3368419984191656,-1.0674780539117754,-1.4218526205908506
2024-09-23 01:46:58.523139,41.05,7.841538,-0.013171458402297304,0.021159735476934217,1.0118273541589518,0.3324875378228724,-1.1111946953259408,-1.474335492774099
2024-09-23 01:46:58.535067,41.05,7.841538,-0.013171458402297304,0.020427930488741967,1.0118273541589518,0.3324875378228724,-1.1111946953259408,-1.474335492774099
2024-09-23 01:46:58.568212,41.05,7.841538,-0.013171458402297304,0.020427930488741967,1.0152421109416312,0.3499627431454137,-1.1374934943549335,-1.474335492774099
2024-09-23 01:46:58.579829,41.05,7.841589,-0.014939857124674697,0.020427930488741967,1.0152421109416312,0.3499627431454137,-1.1374934943549335,-1.2862334031555802
2024-09-23 01:46:58.612686,41.05,7.841589,-0.014939857124674697,0.02329398580768908,1.0152421109416312,0.3499627431454137,-1.1374934943549335,-1.2862334031555802
2024-09-23 01:46:58.624365,41.05,7.841675,-0.014939857124674697,0.02329398580768908,1.0111565740587272,0.3062460483703762,-1.1111946953259408,-1.3649578715130686
2024-09-23 01:46:58.666551,41.55,7.841675,-0.016525279916633037,0.020793883868556746,1.0158518403312846,0.3630834878716618,-1.1111946953259408,-1.3649578715130686
2024-09-23 01:46:58.678160,41.55,7.841675,-0.016525279916633037,0.020793883868556746,1.0158518403312846,0.3630834878716618,-1.1680894444037229,-1.3168293532043696
2024-09-23 01:46:58.710397,41.55,7.841727,-0.016525279916633037,0.020793883868556746,1.0158518403312846,0.3630834878716618,-1.1680894444037229,-1.3168293532043696
2024-09-23 01:46:58.721777,41.55,7.841727,-0.015122834574070423,0.019940162774376668,1.0131078636488298,0.3849704900474288,-1.0980740039605648,-1.3168293532043696
2024-09-23 01:46:58.817169,41.55,7.841778,-0.012805606793919833,0.021586543619328925,1.0132908213515286,0.2668265312955715,-1.0980740039605648,-1.3387163820605725
2024-09-23 01:46:58.860317,41.55,7.841828,-0.012805606793919833,0.021586543619328925,1.0132908213515286,0.2668265312955715,-1.1374934943549335,-1.3518370734259486
2024-09-23 01:46:58.872043,41.55,7.841828,-0.012012843752733671,0.02152558556633501,1.012498037044669,0.2668265312955715,-1.1374934943549335,-1.3518370734259486
2024-09-23 01:46:58.915059,41.55,7.841879,-0.01768389456619667,0.017744852619190586,1.012498037044669,0.3411964856958948,-1.2468139127612115,-1.3780785628784449
2024-09-23 01:46:58.958050,41.55,7.841879,-0.01768389456619667,0.017744852619190586,1.01542506864433,0.27123832814879717,-1.2643463742993772,-1.3780785628784449
2024-09-23 01:46:58.969680,41.55,7.84193,-0.016708257366028764,0.017744852619190586,1.01542506864433,0.27123832814879717,-1.2643463742993772,-1.3911993609655648
2024-09-23 01:46:59.012523,41.55,7.842017,-0.016708257366028764,0.021037716080532405,1.01426646614658,0.3543172304221429,-1.1549687530383468,-1.469981032177806
2024-09-23 01:46:59.054902,41.55,7.842017,-0.011403058160943235,0.02262324216290473,1.0148762927507406,0.3543172304221429,-1.1549687530383468,-1.469981032177806
2024-09-23 01:46:59.065934,41.55,7.842017,-0.011403058160943235,0.02262324216290473,1.0148762927507406,0.3237212803733535,-1.1374934943549335,-1.3824903330512346
2024-09-23 01:46:59.108608,41.55,7.842115,-0.011890927646745842,0.019452293288574063,1.0135956860463553,0.3280757409696467,-1.207451731943339,-1.3824903330512346
2024-09-23 01:46:59.150967,41.55,7.842166,-0.011890927646745842,0.019452293288574063,1.0135956860463553,0.3280757409696467,-1.207451731943339,-1.461214801408723
2024-09-23 01:46:59.162268,41.55,7.842166,-0.014208053655459124,0.019574312684975875,1.0151202039495033,0.2581175834225491,-1.207451731943339,-1.461214801408723
2024-09-23 01:46:59.204497,41.55,7.842217,-0.015549642716465131,0.02280611632188647,1.0151202039495033,0.2581175834225491,-1.0762442846808582,-1.461214801408723
2024-09-23 01:46:59.216772,41.55,7.842217,-0.015549642716465131,0.02280611632188647,1.0114003880429827,0.2581175834225491,-1.0762442846808582,-1.461214801408723
2024-09-23 01:46:59.248795,41.55,7.842217,-0.015549642716465131,0.02280611632188647,1.0114003880429827,0.3368419984191656,-1.1199610328167677,-1.461214801408723
2024-09-23 01:46:59.260124,41.55,7.842268,-0.011342100107949322,0.02164760496273682,1.0114003880429827,0.3368419984191656,-1.1199610328167677,-1.4524485706396402
2024-09-23 01:46:59.302545,41.55,7.842318,-0.011342100107949322,0.02164760496273682,1.0123761300525411,0.3368419984191656,-1.1330817241821438,-1.4568603408124299
2024-09-23 01:46:59.314780,41.55,7.842318,-0.011220081471035847,0.02164760496273682,1.0123761300525411,0.3368419984191656,-1.1330817241821438,-1.4568603408124299
2024-09-23 01:46:59.347594,41.55,7.842318,-0.011220081471035847,0.02097675802753849,1.0115223922496177,0.3368419984191656,-1.1330817241821438,-1.4568603408124299
2024-09-23 01:46:59.358739,41.55,7.842407,-0.011220081471035847,0.02097675802753849,1.0115223922496177,0.3499627431454137,-1.1374934943549335,-1.2424594521649182
2024-09-23 01:46:59.401748,41.55,7.842407,-0.014756881194255646,0.01853761414140007,1.0145103773453428,0.38932495064372197,-1.1199610328167677,-1.3299501512914895
2024-09-23 01:46:59.443926,41.55,7.842458,-0.01433007153288426,0.01853761414140007,1.0145103773453428,0.38932495064372197,-1.1199610328167677,-1.3299501512914895
2024-09-23 01:46:59.455531,41.55,7.842458,-0.01433007153288426,0.020549948366167105,1.0149372462468045,0.3193667930966243,-1.1199610328167677,-1.3299501512914895
2024-09-23 01:46:59.499830,41.55,7.842509,-0.010061467580960552,0.01926931735815501,1.0160958487445546,0.3630834878716618,-1.1199610328167677,-1.3780785628784449
2024-09-23 01:46:59.542906,41.55,7.84256,-0.010061467580960552,0.01926931735815501,1.0160958487445546,0.3630834878716618,-1.0805987452771515,-1.461214801408723
2024-09-23 01:46:59.554384,41.55,7.84256,-0.012134760618209839,0.01939133523558015,1.0120712653577144,0.3630834878716618,-1.0805987452771515,-1.461214801408723
2024-09-23 01:46:59.598053,41.55,7.84261,-0.012439653414105056,0.02164760496273682,1.0120712653577144,0.3674952580444515,-1.0630662837389857,-1.3824903330512346
2024-09-23 01:46:59.641472,41.55,7.84261,-0.012439653414105056,0.02164760496273682,1.0107906586533293,0.2843590461946093,-1.1024857741333545,-1.3824903330512346
2024-09-23 01:46:59.652697,41.55,7.842661,-0.010915188675140628,0.02164760496273682,1.0107906586533293,0.2843590461946093,-1.1024857741333545,-1.3911993609655648
2024-09-23 01:46:59.695754,41.3,7.842748,-0.010915188675140628,0.019696228790963704,1.011034569852092,0.3368419984191656,-1.1024857741333545,-1.4524485706396402
2024-09-23 01:46:59.739946,41.3,7.842748,-0.012866564846913748,0.022562284109910815,1.0160958487445546,0.3630834878716618,-1.1024857741333545,-1.4524485706396402
2024-09-23 01:46:59.751688,41.3,7.842748,-0.012866564846913748,0.022562284109910815,1.0160958487445546,0.3630834878716618,-1.1680894444037229,-1.4174980532728136
2024-09-23 01:46:59.784480,41.3,7.842799,-0.012866564846913748,0.022562284109910815,1.0160958487445546,0.3630834878716618,-1.1680894444037229,-1.4174980532728136
2024-09-23 01:46:59.796181,41.3,7.842799,-0.010366361136344109,0.020366972435748053,1.0135956860463553,0.29306802074806765,-1.207451731943339,-1.4174980532728136
2024-09-23 01:46:59.839692,41.3,7.84285,-0.01182986782231462,0.021159735476934217,1.0187788719309456,0.29306802074806765,-1.207451731943339,-1.448094003321603
2024-09-23 01:46:59.851391,41.3,7.84285,-0.01182986782231462,0.021159735476934217,1.0187788719309456,0.31060053564710544,-1.207451731943339,-1.448094003321603
2024-09-23 01:46:59.882958,41.3,7.84285,-0.01182986782231462,0.021159735476934217,1.0187788719309456,0.31060053564710544,-1.238104991568625,-1.461214801408723
2024-09-23 01:46:59.893999,41.3,7.842901,-0.010915188675140628,0.020366972435748053,1.0120102146471432,0.31060053564710544,-1.238104991568625,-1.461214801408723
2024-09-23 01:46:59.935598,41.3,7.842952,-0.012805606793919833,0.020366972435748053,1.0120102146471432,0.3499627431454137,-1.1943309338562191,-1.4306188513599336
2024-09-23 01:46:59.947611,41.3,7.842952,-0.012805606793919833,0.022318348607521174,1.0120102146471432,0.3499627431454137,-1.1943309338562191,-1.4306188513599336
2024-09-23 01:46:59.979598,41.3,7.842952,-0.012805606793919833,0.022318348607521174,1.0129859566567019,0.2581175834225491,-1.1943309338562191,-1.4306188513599336
2024-09-23 01:46:59.991028,41.3,7.843002,-0.014269113479890346,0.022318348607521174,1.0129859566567019,0.2581175834225491,-1.0849533125951887,-1.3343619214642792
2024-09-23 01:47:00.034145,41.3,7.843089,-0.014269113479890346,0.020427930488741967,1.013778546534547,0.3280757409696467,-1.1024857741333545,-1.3693696416858583
2024-09-23 01:47:00.076444,41.3,7.843089,-0.013293374508285133,0.020427930488741967,1.013778546534547,0.3280757409696467,-1.1024857741333545,-1.3693696416858583
2024-09-23 01:47:00.088669,41.3,7.843089,-0.013293374508285133,0.020062078880364497,1.0129859566567019,0.27994727602181957,-1.15932321363464,-1.3124748926080763
2024-09-23 01:47:00.132238,41.3,7.843141,-0.014634963569291141,0.020427930488741967,1.014205512650516,0.2581175834225491,-1.2774671723864972,-1.3124748926080763
2024-09-23 01:47:00.174980,41.3,7.843191,-0.014634963569291141,0.020427930488741967,1.014205512650516,0.2581175834225491,-1.2774671723864972,-1.4087318225037306
2024-09-23 01:47:00.186236,41.3,7.843191,-0.011890927646745842,0.018476656088406155,1.0164616669354454,0.37620423259790986,-1.2774671723864972,-1.4087318225037306
2024-09-23 01:47:00.228821,41.3,7.843242,-0.01378124399408774,0.022501222766502915,1.0164616669354454,0.37620423259790986,-1.203097164625302,-1.3606034109167755
2024-09-23 01:47:00.240769,41.3,7.843242,-0.01378124399408774,0.022501222766502915,1.012925003160638,0.37620423259790986,-1.203097164625302,-1.3606034109167755
2024-09-23 01:47:00.272501,41.3,7.843242,-0.01378124399408774,0.022501222766502915,1.012925003160638,0.39373674749694765,-1.1549687530383468,-1.3606034109167755
2024-09-23 01:47:00.283640,41.3,7.843293,-0.0076832825073043865,0.020610907938137694,1.012925003160638,0.39373674749694765,-1.1549687530383468,-1.3299501512914895
2024-09-23 01:47:00.325966,41.3,7.843293,-0.0076832825073043865,0.020610907938137694,1.0128639524500669,0.2843590461946093,-1.1506142924420535,-1.461214801408723
2024-09-23 01:47:00.338650,41.3,7.843344,-0.013476350438704184,0.020610907938137694,1.0128639524500669,0.2843590461946093,-1.1506142924420535,-1.461214801408723
2024-09-23 01:47:00.371174,41.3,7.843344,-0.013476350438704184,0.02097675802753849,1.0147542885441054,0.31060053564710544,-1.1506142924420535,-1.461214801408723
2024-09-23 01:47:00.382158,41.3,7.84343,-0.013476350438704184,0.02097675802753849,1.0147542885441054,0.31060053564710544,-0.993108152872324,-1.404320052330941
2024-09-23 01:47:00.465367,41.3,7.84343,-0.011159123418041933,0.02097675802753849,1.0147542885441054,0.31060053564710544,-0.993108152872324,-1.404320052330941
2024-09-23 01:47:00.477952,41.3,7.84343,-0.011159123418041933,0.019818144896951533,1.0135956860463553,0.38061600277069957,-1.1243154934130608,-1.483101830264926
2024-09-23 01:47:00.520885,41.3,7.843482,-0.011342100107949322,0.019818144896951533,1.0135956860463553,0.38061600277069957,-1.1243154934130608,-1.483101830264926
2024-09-23 01:47:00.562926,41.3,7.843482,-0.011342100107949322,0.02164760496273682,1.0135956860463553,0.38061600277069957,-1.1243154934130608,-1.483101830264926
2024-09-23 01:47:00.574465,41.3,7.843533,-0.011342100107949322,0.02164760496273682,1.01426646614658,0.27559278874509036,-1.1462025222692638,-1.426207081187144
2024-09-23 01:47:00.617563,41.3,7.843533,-0.012805606793919833,0.019025483627202678,1.0131688171448936,0.3456082558686845,-1.1462025222692638,-1.426207081187144
2024-09-23 01:47:00.629554,41.3,7.843533,-0.012805606793919833,0.019025483627202678,1.0131688171448936,0.3456082558686845,-1.1943309338562191,-1.404320052330941
2024-09-23 01:47:00.661807,41.3,7.843583,-0.012805606793919833,0.019025483627202678,1.0131688171448936,0.3456082558686845,-1.1943309338562191,-1.404320052330941
2024-09-23 01:47:00.673081,41.3,7.843583,-0.01378124399408774,0.022196330730096036,1.0135956860463553,0.35872900059493257,-1.1287272635858505,-1.404320052330941
2024-09-23 01:47:00.715092,41.54,7.843634,-0.010549337066763158,0.02439164088528212,1.0135956860463553,0.35872900059493257,-1.1287272635858505,-1.3737241022821516
2024-09-23 01:47:00.726647,41.54,7.843634,-0.010549337066763158,0.02439164088528212,1.012742045457939,0.3849704900474288,-1.1287272635858505,-1.3737241022821516
2024-09-23 01:47:00.759269,41.54,7.843634,-0.010549337066763158,0.02439164088528212,1.012742045457939,0.3849704900474288,-1.0368247942864894,-1.3737241022821516
2024-09-23 01:47:00.770432,41.54,7.843726,-0.014147094083488534,0.02140366946034718,1.0119492611510794,0.3849704900474288,-1.0368247942864894,-1.3780785628784449
2024-09-23 01:47:00.812958,41.54,7.843823,-0.015488684663471218,0.02140366946034718,1.0119492611510794,0.29306802074806765,-1.1549687530383468,-1.3956111311383546
2024-09-23 01:47:00.824810,41.54,7.843823,-0.015488684663471218,0.020001120827370582,1.0119492611510794,0.29306802074806765,-1.1549687530383468,-1.3956111311383546
2024-09-23 01:47:00.857208,41.54,7.843823,-0.015488684663471218,0.020001120827370582,1.0162178529511898,0.37620423259790986,-1.1549687530383468,-1.3956111311383546
2024-09-23 01:47:00.868632,41.54,7.843873,-0.012439653414105056,0.020001120827370582,1.0162178529511898,0.37620423259790986,-1.0587118231426924,-1.4568603408124299
2024-09-23 01:47:00.910385,41.54,7.843873,-0.012439653414105056,0.01963527073796979,1.0131688171448936,0.3324875378228724,-1.0805987452771515,-1.509343212995678
2024-09-23 01:47:00.922053,41.54,7.843967,-0.012439653414105056,0.01963527073796979,1.0131688171448936,0.3324875378228724,-1.0805987452771515,-1.509343212995678
2024-09-23 01:47:00.953783,41.54,7.843967,-0.008049235127630826,0.01963527073796979,1.0131688171448936,0.3324875378228724,-1.0805987452771515,-1.509343212995678
2024-09-23 01:47:00.965094,41.54,7.843967,-0.008049235127630826,0.020001120827370582,1.0145103773453428,0.3543172304221429,-1.0849533125951887,-1.434973311956227
2024-09-23 01:47:01.007775,41.54,7.844018,-0.014391029585878175,0.02048899031317319,1.011217527554791,0.3543172304221429,-1.0849533125951887,-1.434973311956227
2024-09-23 01:47:01.018932,41.54,7.844018,-0.014391029585878175,0.02048899031317319,1.011217527554791,0.3456082558686845,-1.0018170740649104,-1.434973311956227
2024-09-23 01:47:01.051834,41.54,7.844018,-0.014391029585878175,0.02048899031317319,1.011217527554791,0.3456082558686845,-1.0018170740649104,-1.4437395427253097
2024-09-23 01:47:01.062917,41.54,7.844069,-0.00969561673207142,0.01926931735815501,1.0137175930384832,0.27559278874509036,-1.0018170740649104,-1.4437395427253097
2024-09-23 01:47:01.105581,41.54,7.84412,-0.010549337066763158,0.01786687049661572,1.0137175930384832,0.27559278874509036,-1.0805987452771515,-1.448094003321603
2024-09-23 01:47:01.117818,41.54,7.84412,-0.010549337066763158,0.01786687049661572,1.0121931723498423,0.27559278874509036,-1.0805987452771515,-1.448094003321603
2024-09-23 01:47:01.150205,41.54,7.84412,-0.010549337066763158,0.01786687049661572,1.0121931723498423,0.3062460483703762,-1.2118635021161288,-1.448094003321603
2024-09-23 01:47:01.161589,41.54,7.84417,-0.015244750680058252,0.020062078880364497,1.0121931723498423,0.3062460483703762,-1.2118635021161288,-1.3868447936475277
2024-09-23 01:47:01.203871,41.54,7.844221,-0.015244750680058252,0.020062078880364497,1.0117053499523165,0.3018342781975865,-1.0762442846808582,-1.469981032177806
2024-09-23 01:47:01.216142,41.54,7.844221,-0.013232416455291218,0.020062078880364497,1.0117053499523165,0.3018342781975865,-1.0762442846808582,-1.469981032177806
2024-09-23 01:47:01.249578,41.54,7.844221,-0.013232416455291218,0.021830479121718566,1.0129859566567019,0.3280757409696467,-1.0762442846808582,-1.469981032177806
2024-09-23 01:47:01.260814,41.54,7.844308,-0.013232416455291218,0.021830479121718566,1.0129859566567019,0.3280757409696467,-1.1724439050000162,-1.3824903330512346
2024-09-23 01:47:01.303710,41.54,7.844308,-0.011159123418041933,0.01853761414140007,1.0115833457456815,0.35872900059493257,-1.15932321363464,-1.491868061034009
2024-09-23 01:47:01.345979,41.54,7.844359,-0.010854230622146716,0.02097675802753849,1.0115833457456815,0.35872900059493257,-1.15932321363464,-1.491868061034009
2024-09-23 01:47:01.357877,41.54,7.844359,-0.010854230622146716,0.02097675802753849,1.0126809947473678,0.3456082558686845,-1.0762442846808582,-1.491868061034009
2024-09-23 01:47:01.400910,41.54,7.84441,-0.010915188675140628,0.021586543619328925,1.013778546534547,0.31060053564710544,-1.0762442846808582,-1.3956111311383546
2024-09-23 01:47:01.443744,41.54,7.844461,-0.010915188675140628,0.021586543619328925,1.013778546534547,0.31060053564710544,-1.1374934943549335,-1.404320052330941
2024-09-23 01:47:01.455649,41.54,7.844461,-0.013171458402297304,0.020915799974544576,1.0114614387535539,0.31060053564710544,-1.1374934943549335,-1.404320052330941
2024-09-23 01:47:01.540256,41.54,7.844461,-0.013171458402297304,0.020915799974544576,1.0114614387535539,0.3630834878716618,-1.1637349838074296,-1.404320052330941
2024-09-23 01:47:01.551975,41.54,7.844512,-0.012256778495634975,0.020062078880364497,1.0114614387535539,0.3630834878716618,-1.1637349838074296,-1.434973311956227
2024-09-23 01:47:01.595758,41.54,7.844562,-0.012988480952901577,0.020062078880364497,1.01542506864433,0.38061600277069957,-1.15932321363464,-1.426207081187144
2024-09-23 01:47:01.639222,41.54,7.844562,-0.012988480952901577,0.01914740125216718,1.014144559154452,0.3193667930966243,-1.15932321363464,-1.426207081187144
2024-09-23 01:47:01.650658,41.54,7.844649,-0.012988480952901577,0.01914740125216718,1.014144559154452,0.3193667930966243,-1.1899764732599258,-1.434973311956227
2024-09-23 01:47:01.693339,41.54,7.844649,-0.01365932788809991,0.020001120827370582,1.0139616014517532,0.24935132597303017,-1.1111946953259408,-1.4218526205908506
2024-09-23 01:47:01.735349,41.71,7.844701,-0.012134760618209839,0.020001120827370582,1.0139616014517532,0.24935132597303017,-1.1111946953259408,-1.4218526205908506
2024-09-23 01:47:01.746834,41.71,7.844701,-0.012134760618209839,0.018659531766364576,1.0158518403312846,0.3018342781975865,-1.1418479549512268,-1.4218526205908506
2024-09-23 01:47:01.790054,41.71,7.844797,-0.01396421992450679,0.02140366946034718,1.0167666288447792,0.37184974532118065,-1.1418479549512268,-1.448094003321603
2024-09-23 01:47:01.832157,41.71,7.844797,-0.01396421992450679,0.02140366946034718,1.0167666288447792,0.37184974532118065,-0.9843418153814971,-1.4218526205908506
2024-09-23 01:47:01.843742,41.71,7.844848,-0.01146401621393715,0.02365983741606655,1.011095523348156,0.37184974532118065,-0.9843418153814971,-1.4218526205908506
2024-09-23 01:47:01.887141,41.71,7.844898,-0.010854230622146716,0.019452293288574063,1.011095523348156,0.31060053564710544,-1.1506142924420535,-1.3693696416858583
2024-09-23 01:47:01.929402,41.71,7.844898,-0.010854230622146716,0.019452293288574063,1.0112784810508548,0.29747979092085736,-1.1506142924420535,-1.3693696416858583
2024-09-23 01:47:01.941046,41.71,7.844949,-0.010183486217874026,0.019452293288574063,1.0112784810508548,0.29747979092085736,-1.1943309338562191,-1.4787472629468887
2024-09-23 01:47:01.983505,41.71,7.844949,-0.010183486217874026,0.02085484192155066,1.0157908868352208,0.3193667930966243,-1.1724439050000162,-1.4787472629468887
2024-09-23 01:47:01.996385,41.71,7.845039,-0.010183486217874026,0.02085484192155066,1.0157908868352208,0.3193667930966243,-1.1724439050000162,-1.4787472629468887
2024-09-23 01:47:02.029172,41.71,7.845039,-0.013598266544692013,0.021464627513341095,1.0140835084438808,0.3193667930966243,-1.1724439050000162,-1.4787472629468887
2024-09-23 01:47:02.040838,41.71,7.845039,-0.013598266544692013,0.021464627513341095,1.0140835084438808,0.3237212803733535,-1.1943309338562191,-1.4655692620050162
2024-09-23 01:47:02.083090,41.71,7.845091,-0.014574005516297226,0.021464627513341095,1.0140835084438808,0.3237212803733535,-1.1943309338562191,-1.4655692620050162
2024-09-23 01:47:02.124901,41.71,7.845091,-0.014574005516297226,0.02012303845233509,1.0162788064472537,0.3237212803733535,-1.1943309338562191,-1.4655692620050162
2024-09-23 01:47:02.136517,41.71,7.845141,-0.014574005516297226,0.02012303845233509,1.0162788064472537,0.3018342781975865,-1.1199610328167677,-1.5005769822265953
2024-09-23 01:47:02.179334,41.71,7.845141,-0.01268358815700636,0.021159735476934217,1.0129859566567019,0.3324875378228724,-1.1680894444037229,-1.5005769822265953
2024-09-23 01:47:02.191028,41.71,7.845141,-0.01268358815700636,0.021159735476934217,1.0129859566567019,0.3324875378228724,-1.1680894444037229,-1.4568603408124299
2024-09-23 01:47:02.222557,41.71,7.845192,-0.010976248499571852,0.021159735476934217,1.0129859566567019,0.3324875378228724,-1.1680894444037229,-1.4568603408124299
2024-09-23 01:47:02.233690,41.71,7.845192,-0.010976248499571852,0.02048899031317319,1.0143274196426437,0.3280757409696467,-1.1462025222692638,-1.4568603408124299
2024-09-23 01:47:02.276316,41.71,7.845243,-0.01256167205101853,0.02048899031317319,1.0134736818397203,0.3280757409696467,-1.1462025222692638,-1.3956111311383546
2024-09-23 01:47:02.288390,41.71,7.845243,-0.01256167205101853,0.02048899031317319,1.0134736818397203,0.3456082558686845,-1.1462025222692638,-1.3956111311383546
2024-09-23 01:47:02.320003,41.71,7.845243,-0.01256167205101853,0.02048899031317319,1.0134736818397203,0.3456082558686845,-1.0455910250555724,-1.3868447936475277
2024-09-23 01:47:02.331591,41.71,7.845294,-0.011707950956838454,0.020610907938137694,1.0135347325502915,0.3456082558686845,-1.0455910250555724,-1.3868447936475277
2024-09-23 01:47:02.374104,41.71,7.845383,-0.009451681989170117,0.020610907938137694,1.0135347325502915,0.29306802074806765,-1.2687009416174144,-1.3562488435987383
2024-09-23 01:47:02.385686,41.71,7.845383,-0.009451681989170117,0.020732824044125523,1.0135347325502915,0.29306802074806765,-1.2687009416174144,-1.3562488435987383
2024-09-23 01:47:02.417959,41.71,7.845383,-0.009451681989170117,0.020732824044125523,1.0097540603622142,0.26247207069927825,-1.2687009416174144,-1.3562488435987383
2024-09-23 01:47:02.428970,41.71,7.845433,-0.009756574785065334,0.020732824044125523,1.0097540603622142,0.26247207069927825,-1.216217962712422,-1.3474826128296553
2024-09-23 01:47:02.471440,41.71,7.845433,-0.009756574785065334,0.01768389456619667,1.012802998954003,0.38932495064372197,-1.1330817241821438,-1.483101830264926
2024-09-23 01:47:02.483566,41.71,7.845527,-0.009756574785065334,0.01768389456619667,1.012802998954003,0.38932495064372197,-1.1330817241821438,-1.483101830264926
2024-09-23 01:47:02.515833,41.71,7.845527,-0.01042742096077533,0.01768389456619667,1.012802998954003,0.38932495064372197,-1.1330817241821438,-1.483101830264926
2024-09-23 01:47:02.569026,41.71,7.845527,-0.01042742096077533,0.019940162774376668,1.012498037044669,0.39373674749694765,-1.1506142924420535,-1.4306188513599336
2024-09-23 01:47:02.580951,41.71,7.845578,-0.01042742096077533,0.019940162774376668,1.012498037044669,0.39373674749694765,-1.1506142924420535,-1.4306188513599336
2024-09-23 01:47:02.612625,41.71,7.845578,-0.013110498830326714,0.020001120827370582,1.012498037044669,0.39373674749694765,-1.1506142924420535,-1.4306188513599336
2024-09-23 01:47:02.624075,41.71,7.845578,-0.013110498830326714,0.020001120827370582,1.0114614387535539,0.41997821026900783,-0.9886962759777903,-1.4524485706396402
2024-09-23 01:47:02.666292,41.71,7.845629,-0.013293374508285133,0.021037716080532405,1.0135956860463553,0.3674952580444515,-0.9886962759777903,-1.4524485706396402
2024-09-23 01:47:02.678267,41.71,7.845629,-0.013293374508285133,0.021037716080532405,1.0135956860463553,0.3674952580444515,-1.0849533125951887,-1.4524485706396402
2024-09-23 01:47:02.710355,41.71,7.84568,-0.013293374508285133,0.021037716080532405,1.0135956860463553,0.3674952580444515,-1.0849533125951887,-1.4174980532728136
2024-09-23 01:47:02.721380,41.71,7.84568,-0.01481783924724956,0.021098777423940302,1.015973941752427,0.3543172304221429,-1.0849533125951887,-1.4174980532728136
2024-09-23 01:47:02.765751,42.1,7.84573,-0.013537308491698099,0.020366972435748053,1.0135956860463553,0.3543172304221429,-1.1899764732599258,-1.413086283100024
2024-09-23 01:47:02.808499,42.1,7.84573,-0.013537308491698099,0.020366972435748053,1.0135956860463553,0.3630834878716618,-1.1374934943549335,-1.4655692620050162
2024-09-23 01:47:02.819752,42.1,7.845821,-0.014391029585878175,0.019452293288574063,1.0135956860463553,0.3630834878716618,-1.1374934943549335,-1.4655692620050162
2024-09-23 01:47:02.862492,42.1,7.845872,-0.010793271809664462,0.019452293288574063,1.0134736818397203,0.39809120809324083,-1.207451731943339,-1.4655692620050162
2024-09-23 01:47:02.906130,42.1,7.845872,-0.010793271809664462,0.019574312684975875,1.0157299333391567,0.29747979092085736,-1.207451731943339,-1.4655692620050162
2024-09-23 01:47:02.917202,42.1,7.845965,-0.010793271809664462,0.019574312684975875,1.0157299333391567,0.29747979092085736,-1.0587118231426924,-1.3430708426568656
2024-09-23 01:47:02.959333,42.1,7.845965,-0.015915494324842603,0.0187205915907958,1.0126809947473678,0.3062460483703762,-1.0587118231426924,-1.3430708426568656
2024-09-23 01:47:02.971032,42.1,7.845965,-0.015915494324842603,0.0187205915907958,1.0126809947473678,0.3062460483703762,-1.0587118231426924,-1.469981032177806
2024-09-23 01:47:03.003821,42.1,7.846017,-0.014208053655459124,0.0187205915907958,1.0126809947473678,0.3062460483703762,-1.0587118231426924,-1.469981032177806
2024-09-23 01:47:03.015367,42.1,7.846017,-0.014208053655459124,0.02164760496273682,1.0123761300525411,0.27123832814879717,-1.1374934943549335,-1.469981032177806
2024-09-23 01:47:03.057775,42.1,7.846068,-0.012927522899907663,0.020001120827370582,1.0121931723498423,0.27559278874509036,-1.1374934943549335,-1.539996472620964
2024-09-23 01:47:03.100332,42.1,7.846068,-0.012927522899907663,0.020001120827370582,1.0121931723498423,0.27559278874509036,-1.1287272635858505,-1.3606034109167755
2024-09-23 01:47:03.111718,42.1,7.846118,-0.01481783924724956,0.019025483627202678,1.015546975636458,0.27559278874509036,-1.1287272635858505,-1.3606034109167755
2024-09-23 01:47:03.154996,42.1,7.846169,-0.012012843752733671,0.02317206970170125,1.015546975636458,0.4287444677185267,-1.0849533125951887,-1.4524485706396402
2024-09-23 01:47:03.196719,42.1,7.846169,-0.012012843752733671,0.02317206970170125,1.0119492611510794,0.3630834878716618,-1.0849533125951887,-1.4524485706396402
2024-09-23 01:47:03.249745,42.1,7.84622,-0.012744546969488612,0.02317206970170125,1.0119492611510794,0.3630834878716618,-1.1418479549512268,-1.4874562908612192
2024-09-23 01:47:03.261703,42.1,7.84622,-0.012744546969488612,0.01835463821098102,1.0108517093639005,0.3630834878716618,-1.1418479549512268,-1.4874562908612192
2024-09-23 01:47:03.294477,42.1,7.84622,-0.012744546969488612,0.01835463821098102,1.0108517093639005,0.31060053564710544,-1.1418479549512268,-1.4874562908612192
2024-09-23 01:47:03.306310,42.1,7.846307,-0.01146401621393715,0.019696228790963704,1.0108517093639005,0.31060053564710544,-1.15932321363464,-1.4787472629468887
2024-09-23 01:47:03.349374,42.1,7.846358,-0.014756881194255646,0.019696228790963704,1.014144559154452,0.3280757409696467,-1.1462025222692638,-1.448094003321603
2024-09-23 01:47:03.392347,42.1,7.846358,-0.014756881194255646,0.020610907938137694,1.0143274196426437,0.3280757409696467,-1.1462025222692638,-1.448094003321603
2024-09-23 01:47:03.404431,42.1,7.846409,-0.014756881194255646,0.020610907938137694,1.0143274196426437,0.2843590461946093,-1.0499454856518655,-1.3518370734259486
2024-09-23 01:47:03.446943,42.1,7.846409,-0.016708257366028764,0.024147706901869154,1.018534960732183,0.3630834878716618,-1.1156065722204744,-1.469981032177806
2024-09-23 01:47:03.540533,42.1,7.846502,-0.013598266544692013,0.01768389456619667,1.018534960732183,0.3630834878716618,-1.1156065722204744,-1.469981032177806
2024-09-23 01:47:03.552024,42.1,7.846502,-0.013598266544692013,0.01768389456619667,1.0114614387535539,0.3280757409696467,-1.1506142924420535,-1.469981032177806
2024-09-23 01:47:03.595672,42.1,7.846554,-0.013232416455291218,0.02274515826889256,1.01426646614658,0.3630834878716618,-1.1506142924420535,-1.504988752399385
2024-09-23 01:47:03.638708,42.1,7.846604,-0.013232416455291218,0.02274515826889256,1.01426646614658,0.3630834878716618,-1.203097164625302,-1.3868447936475277
2024-09-23 01:47:03.649891,42.1,7.846604,-0.01433007153288426,0.02274515826889256,1.0135347325502915,0.3630834878716618,-1.203097164625302,-1.3868447936475277
2024-09-23 01:47:03.682731,42.1,7.846604,-0.01433007153288426,0.02274515826889256,1.0135347325502915,0.3280757409696467,-1.203097164625302,-1.3868447936475277
2024-09-23 01:47:03.694315,42.1,7.846655,-0.01341539238571027,0.019025483627202678,1.0135347325502915,0.3280757409696467,-1.1330817241821438,-1.3780785628784449
2024-09-23 01:47:03.736781,42.1,7.846655,-0.01341539238571027,0.019025483627202678,1.0158518403312846,0.2537058132497594,-1.1330817241821438,-1.3780785628784449
2024-09-23 01:47:03.748095,42.1,7.846706,-0.012317737308117227,0.019025483627202678,1.0158518403312846,0.2537058132497594,-1.1156065722204744,-1.413086283100024
2024-09-23 01:47:03.780468,41.94,7.846706,-0.012317737308117227,0.02280611632188647,1.0158518403312846,0.2537058132497594,-1.1156065722204744,-1.413086283100024
2024-09-23 01:47:03.793597,41.94,7.846843,-0.012317737308117227,0.02280611632188647,1.0131078636488298,0.3368419984191656,-1.0324703336901964,-1.3518370734259486
2024-09-23 01:47:03.836570,41.94,7.846843,-0.012805606793919833,0.02067186599113161,1.0115223922496177,0.41121195281948897,-1.0499454856518655,-1.3518370734259486
2024-09-23 01:47:03.848350,41.94,7.846843,-0.012805606793919833,0.02067186599113161,1.0115223922496177,0.41121195281948897,-1.0499454856518655,-1.4874562908612192
2024-09-23 01:47:03.880509,41.94,7.846895,-0.015122834574070423,0.02067186599113161,1.0115223922496177,0.41121195281948897,-1.0499454856518655,-1.4874562908612192
2024-09-23 01:47:03.891863,41.94,7.846895,-0.015122834574070423,0.019574312684975875,1.0177422736398305,0.31060053564710544,-1.1506142924420535,-1.4874562908612192
2024-09-23 01:47:03.935631,41.94,7.846946,-0.013903160100075569,0.018598572194393984,1.014022554947817,0.2537058132497594,-1.1506142924420535,-1.413086283100024
2024-09-23 01:47:03.977859,41.94,7.846946,-0.013903160100075569,0.018598572194393984,1.014022554947817,0.2537058132497594,-1.1812102424908428,-1.3999655917346479
2024-09-23 01:47:03.988809,41.94,7.846997,-0.011707950956838454,0.02164760496273682,1.014022554947817,0.2537058132497594,-1.1812102424908428,-1.3999655917346479
2024-09-23 01:47:04.030946,41.94,7.847047,-0.013171458402297304,0.02164760496273682,1.014022554947817,0.27994727602181957,-1.1724439050000162,-1.43932777255252
2024-09-23 01:47:04.043131,41.94,7.847047,-0.013171458402297304,0.021281651582922046,1.014022554947817,0.27994727602181957,-1.1724439050000162,-1.43932777255252
2024-09-23 01:47:04.075611,41.94,7.847047,-0.013171458402297304,0.021281651582922046,1.0136566395424191,0.3280757409696467,-1.1724439050000162,-1.43932777255252
2024-09-23 01:47:04.086885,41.94,7.847098,-0.012866564846913748,0.021281651582922046,1.0136566395424191,0.3280757409696467,-1.1899764732599258,-1.4087318225037306
2024-09-23 01:47:04.131198,41.94,7.847184,-0.012866564846913748,0.021037716080532405,1.0144494238492787,0.28871353347133843,-1.15932321363464,-1.496222521630302
2024-09-23 01:47:04.174108,41.94,7.847184,-0.013171458402297304,0.021037716080532405,1.0144494238492787,0.28871353347133843,-1.15932321363464,-1.496222521630302
2024-09-23 01:47:04.227802,41.94,7.847184,-0.013171458402297304,0.017013149402435646,1.0143274196426437,0.3849704900474288,-1.0718325145080685,-1.4787472629468887
2024-09-23 01:47:04.240408,41.94,7.847236,-0.013171458402297304,0.017013149402435646,1.0143274196426437,0.3849704900474288,-1.0718325145080685,-1.4787472629468887
2024-09-23 01:47:04.273394,41.94,7.847236,-0.012744546969488612,0.020915799974544576,1.0114003880429827,0.3018342781975865,-1.0718325145080685,-1.4787472629468887
2024-09-23 01:47:04.285230,41.94,7.847236,-0.012744546969488612,0.020915799974544576,1.0114003880429827,0.3018342781975865,-1.1024857741333545,-1.3911993609655648
2024-09-23 01:47:04.318392,41.94,7.847286,-0.012744546969488612,0.020915799974544576,1.0114003880429827,0.3018342781975865,-1.1024857741333545,-1.3911993609655648
2024-09-23 01:47:04.330318,41.94,7.847286,-0.013842202047081654,0.02140366946034718,1.0125589905407328,0.3237212803733535,-1.1330817241821438,-1.3911993609655648
2024-09-23 01:47:04.373044,41.94,7.847337,-0.013842202047081654,0.02140366946034718,1.0125589905407328,0.3237212803733535,-1.1330817241821438,-1.4218526205908506
2024-09-23 01:47:04.415872,41.94,7.847337,-0.013903160100075569,0.01585453627184869,1.0125589905407328,0.3237212803733535,-1.1330817241821438,-1.4218526205908506
2024-09-23 01:47:04.427718,41.94,7.847337,-0.013903160100075569,0.01585453627184869,1.015668979843093,0.3630834878716618,-1.1287272635858505,-1.434973311956227
2024-09-23 01:47:04.470170,41.94,7.847388,-0.012988480952901577,0.020062078880364497,1.014022554947817,0.37184974532118065,-1.1287272635858505,-1.434973311956227
2024-09-23 01:47:04.482246,41.94,7.847388,-0.012988480952901577,0.020062078880364497,1.014022554947817,0.37184974532118065,-1.1549687530383468,-1.434973311956227
2024-09-23 01:47:04.513940,41.94,7.847479,-0.012988480952901577,0.020062078880364497,1.014022554947817,0.37184974532118065,-1.1549687530383468,-1.3430708426568656
2024-09-23 01:47:04.525068,41.94,7.847479,-0.012805606793919833,0.02134260963591596,1.011217527554791,0.39809120809324083,-1.1549687530383468,-1.3430708426568656
2024-09-23 01:47:04.569074,41.94,7.84753,-0.013293374508285133,0.01939133523558015,1.011217527554791,0.39809120809324083,-1.0718325145080685,-1.3999655917346479
2024-09-23 01:47:04.581824,41.94,7.84753,-0.013293374508285133,0.01939133523558015,1.0134127283436565,0.39809120809324083,-1.0718325145080685,-1.3999655917346479
2024-09-23 01:47:04.613712,41.94,7.84753,-0.013293374508285133,0.01939133523558015,1.0134127283436565,0.24499683869630098,-1.1156065722204744,-1.404320052330941
2024-09-23 01:47:04.666954,41.94,7.847623,-0.01146401621393715,0.023233027754695164,1.0131078636488298,0.3411964856958948,-1.1549687530383468,-1.404320052330941
2024-09-23 01:47:04.710305,41.94,7.847674,-0.00969561673207142,0.023233027754695164,1.0131078636488298,0.3411964856958948,-1.1549687530383468,-1.448094003321603
2024-09-23 01:47:04.721979,41.94,7.847674,-0.00969561673207142,0.020915799974544576,1.0107297051572652,0.3499627431454137,-1.1549687530383468,-1.448094003321603
2024-09-23 01:47:04.764419,41.94,7.847769,-0.010549337066763158,0.020001120827370582,1.0176813201437667,0.3499627431454137,-1.238104991568625,-1.43932777255252
2024-09-23 01:47:04.806580,42.29,7.847769,-0.010549337066763158,0.020001120827370582,1.0176813201437667,0.3149550229238346,-1.0980740039605648,-1.43932777255252
2024-09-23 01:47:04.818601,42.29,7.847821,-0.010671253932239326,0.01963527073796979,1.0176813201437667,0.3149550229238346,-1.0980740039605648,-1.404320052330941
2024-09-23 01:47:04.861341,42.29,7.847871,-0.011342100107949322,0.01963527073796979,1.0148152420401695,0.2843590461946093,-1.0937195433642715,-1.3562488435987383
2024-09-23 01:47:04.903482,42.29,7.847871,-0.011342100107949322,0.017805912443621806,1.0143883731387076,0.2843590461946093,-1.0937195433642715,-1.3562488435987383
2024-09-23 01:47:04.914751,42.29,7.847964,-0.011342100107949322,0.017805912443621806,1.0143883731387076,0.42433269754573705,-1.1330817241821438,-1.474335492774099
2024-09-23 01:47:04.957628,42.29,7.847964,-0.013842202047081654,0.025001426477072555,1.0178641806319584,0.28871353347133843,-1.1287272635858505,-1.474335492774099
2024-09-23 01:47:04.969217,42.29,7.847964,-0.013842202047081654,0.025001426477072555,1.0178641806319584,0.28871353347133843,-1.1287272635858505,-1.3956111311383546
2024-09-23 01:47:05.002076,42.29,7.848016,-0.011768909009832369,0.025001426477072555,1.0178641806319584,0.28871353347133843,-1.1287272635858505,-1.3956111311383546
2024-09-23 01:47:05.013027,42.29,7.848016,-0.011768909009832369,0.01963527073796979,1.0151202039495033,0.3324875378228724,-1.2555801435302942,-1.3956111311383546
2024-09-23 01:47:05.055590,42.29,7.848066,-0.011159123418041933,0.02164760496273682,1.015486022140394,0.3324875378228724,-1.2555801435302942,-1.4524485706396402
2024-09-23 01:47:05.067544,42.29,7.848066,-0.011159123418041933,0.02164760496273682,1.015486022140394,0.18810211629895493,-1.2555801435302942,-1.4524485706396402
2024-09-23 01:47:05.100016,42.29,7.848117,-0.011159123418041933,0.02164760496273682,1.015486022140394,0.18810211629895493,-1.0937195433642715,-1.3255955839734523
2024-09-23 01:47:05.111054,42.29,7.848117,-0.01268358815700636,0.02012303845233509,1.0093881449568163,0.18810211629895493,-1.0937195433642715,-1.3255955839734523
2024-09-23 01:47:05.154026,42.29,7.848168,-0.013293374508285133,0.020610907938137694,1.0093881449568163,0.27559278874509036,-1.1330817241821438,-1.3999655917346479
2024-09-23 01:47:05.196417,42.29,7.848168,-0.013293374508285133,0.020610907938137694,1.014144559154452,0.3368419984191656,-1.1330817241821438,-1.3999655917346479
2024-09-23 01:47:05.208364,42.29,7.848219,-0.010061467580960552,0.020610907938137694,1.014144559154452,0.3368419984191656,-1.1287272635858505,-1.3999655917346479
2024-09-23 01:47:05.250776,42.29,7.848306,-0.010061467580960552,0.022562284109910815,1.0115833457456815,0.3324875378228724,-1.1768557818945498,-1.3999655917346479
2024-09-23 01:47:05.293879,42.29,7.848306,-0.01408613603049462,0.018659531766364576,1.0115833457456815,0.3324875378228724,-1.1768557818945498,-1.3999655917346479
2024-09-23 01:47:05.304952,42.29,7.848306,-0.01408613603049462,0.018659531766364576,1.0131078636488298,0.3411964856958948,-1.0980740039605648,-1.4524485706396402
2024-09-23 01:47:05.348269,42.29,7.848357,-0.01396421992450679,0.0187205915907958,1.0134127283436565,0.3411964856958948,-1.238104991568625,-1.4524485706396402
2024-09-23 01:47:05.391252,42.29,7.848408,-0.01396421992450679,0.0187205915907958,1.0134127283436565,0.3411964856958948,-1.238104991568625,-1.434973311956227
2024-09-23 01:47:05.402385,42.29,7.848408,-0.014269113479890346,0.01939133523558015,1.0181081890452284,0.3280757409696467,-1.238104991568625,-1.434973311956227
2024-09-23 01:47:05.445291,42.29,7.848458,-0.01219582044264106,0.019513251341567978,1.0181081890452284,0.3280757409696467,-1.1243154934130608,-1.469981032177806
2024-09-23 01:47:05.457635,42.29,7.848458,-0.01219582044264106,0.019513251341567978,1.0101198785531047,0.3280757409696467,-1.1243154934130608,-1.469981032177806
2024-09-23 01:47:05.490106,42.29,7.848458,-0.01219582044264106,0.019513251341567978,1.0101198785531047,0.27994727602181957,-1.1068402347296475,-1.469981032177806
2024-09-23 01:47:05.501814,42.29,7.848509,-0.012378695361111141,0.02085484192155066,1.0101198785531047,0.27994727602181957,-1.1068402347296475,-1.4174980532728136
2024-09-23 01:47:05.544564,42.29,7.84856,-0.009268807070700035,0.02085484192155066,1.0130469101527657,0.3630834878716618,-1.1199610328167677,-1.4437395427253097
2024-09-23 01:47:05.587098,42.29,7.84856,-0.009268807070700035,0.021708563015730736,1.015486022140394,0.40685746554275976,-1.1199610328167677,-1.4437395427253097
2024-09-23 01:47:05.598874,42.29,7.848647,-0.009268807070700035,0.021708563015730736,1.015486022140394,0.40685746554275976,-1.1987427040290088,-1.5224640110827983
2024-09-23 01:47:05.641812,42.29,7.848647,-0.010122528164880112,0.017744852619190586,1.0146322843374704,0.38932495064372197,-1.0937195433642715,-1.5224640110827983
2024-09-23 01:47:05.653657,42.29,7.848647,-0.010122528164880112,0.017744852619190586,1.0146322843374704,0.38932495064372197,-1.0937195433642715,-1.3737241022821516
2024-09-23 01:47:05.685357,42.29,7.848698,-0.011342100107949322,0.021098777423940302,1.0146322843374704,0.38932495064372197,-1.0937195433642715,-1.3737241022821516
2024-09-23 01:47:05.697731,42.29,7.848698,-0.011342100107949322,0.021098777423940302,1.0137175930384832,0.29306802074806765,-1.1374934943549335,-1.3737241022821516
2024-09-23 01:47:05.730207,42.29,7.848698,-0.011342100107949322,0.021098777423940302,1.0137175930384832,0.29306802074806765,-1.1374934943549335,-1.4874562908612192
2024-09-23 01:47:05.742083,42.29,7.848749,-0.013476350438704184,0.021037716080532405,1.0133517748475924,0.27994727602181957,-1.1374934943549335,-1.4874562908612192
2024-09-23 01:47:05.784569,42.29,7.8488,-0.012866564846913748,0.021037716080532405,1.0133517748475924,0.27994727602181957,-1.1287272635858505,-1.4174980532728136
2024-09-23 01:47:05.796738,42.29,7.8488,-0.012866564846913748,0.019452293288574063,1.0092051872541172,0.27994727602181957,-1.1287272635858505,-1.4174980532728136
2024-09-23 01:47:05.830308,42.3,7.8488,-0.012866564846913748,0.019452293288574063,1.0092051872541172,0.37184974532118065,-1.0587118231426924,-1.4174980532728136
2024-09-23 01:47:05.842658,42.3,7.84885,-0.009634658679077505,0.018171764051999276,1.0092051872541172,0.37184974532118065,-1.0587118231426924,-1.461214801408723
2024-09-23 01:47:05.885043,42.3,7.848901,-0.009939551474972724,0.018171764051999276,1.0135347325502915,0.37620423259790986,-1.1506142924420535,-1.3649578715130686
2024-09-23 01:47:05.927255,42.3,7.848901,-0.009939551474972724,0.01975718684395762,1.0115223922496177,0.37620423259790986,-1.1506142924420535,-1.3649578715130686
2024-09-23 01:47:05.938601,42.3,7.848988,-0.009939551474972724,0.01975718684395762,1.0115223922496177,0.3368419984191656,-1.1024857741333545,-1.3999655917346479
2024-09-23 01:47:05.983093,42.3,7.848988,-0.009329765883182288,0.024818450546653506,1.0109126628599643,0.3630834878716618,-1.0368247942864894,-1.3824903330512346
2024-09-23 01:47:06.024699,42.3,7.84904,-0.017013149402435646,0.024818450546653506,1.0109126628599643,0.3630834878716618,-1.0368247942864894,-1.3824903330512346
2024-09-23 01:47:06.036379,42.3,7.84904,-0.017013149402435646,0.018598572194393984,1.0144494238492787,0.37184974532118065,-1.0805987452771515,-1.3824903330512346
2024-09-23 01:47:06.079521,42.3,7.84909,-0.012744546969488612,0.018476656088406155,1.0107906586533293,0.41121195281948897,-1.0805987452771515,-1.448094003321603
2024-09-23 01:47:06.122730,42.3,7.84909,-0.012744546969488612,0.018476656088406155,1.0107906586533293,0.41121195281948897,-1.1680894444037229,-1.3956111311383546
2024-09-23 01:47:06.134573,42.3,7.849141,-0.011768909009832369,0.02140366946034718,1.01231507934197,0.41121195281948897,-1.1680894444037229,-1.3956111311383546
2024-09-23 01:47:06.178021,42.3,7.849192,-0.014512945691866003,0.02140366946034718,1.01231507934197,0.38932495064372197,-1.1812102424908428,-1.4087318225037306
2024-09-23 01:47:06.189815,42.3,7.849192,-0.014512945691866003,0.01975718684395762,1.01231507934197,0.38932495064372197,-1.1812102424908428,-1.4087318225037306
2024-09-23 01:47:06.222457,42.3,7.849192,-0.014512945691866003,0.01975718684395762,1.0136566395424191,0.35872900059493257,-1.1287272635858505,-1.4087318225037306
2024-09-23 01:47:06.234300,42.3,7.849243,-0.01146401621393715,0.01975718684395762,1.0136566395424191,0.35872900059493257,-1.1287272635858505,-1.3518370734259486
2024-09-23 01:47:06.266459,42.3,7.849243,-0.01146401621393715,0.020549948366167105,1.0136566395424191,0.35872900059493257,-1.1287272635858505,-1.3518370734259486
2024-09-23 01:47:06.278205,42.3,7.849329,-0.01146401621393715,0.020549948366167105,1.0143274196426437,0.3499627431454137,-1.0937195433642715,-1.3737241022821516
2024-09-23 01:47:06.320557,42.3,7.849329,-0.010793271809664462,0.023781855293491683,1.0121322188537785,0.35872900059493257,-1.0937195433642715,-1.3737241022821516
2024-09-23 01:47:06.332528,42.3,7.849329,-0.010793271809664462,0.023781855293491683,1.0121322188537785,0.35872900059493257,-1.0937195433642715,-1.3299501512914895
2024-09-23 01:47:06.365469,42.3,7.849381,-0.010793271809664462,0.023781855293491683,1.0121322188537785,0.35872900059493257,-1.0937195433642715,-1.3299501512914895
2024-09-23 01:47:06.376605,42.3,7.849381,-0.01481783924724956,0.01926931735815501,1.0114003880429827,0.29306802074806765,-1.15932321363464,-1.3299501512914895
2024-09-23 01:47:06.419415,42.3,7.849431,-0.01182986782231462,0.021464627513341095,1.0164007134393813,0.29306802074806765,-1.15932321363464,-1.4437395427253097
2024-09-23 01:47:06.431174,42.3,7.849431,-0.01182986782231462,0.021464627513341095,1.0164007134393813,0.26247207069927825,-1.15932321363464,-1.4437395427253097
2024-09-23 01:47:06.463459,42.3,7.849431,-0.01182986782231462,0.021464627513341095,1.0164007134393813,0.26247207069927825,-1.238104991568625,-1.43932777255252
2024-09-23 01:47:06.475013,42.3,7.849482,-0.010610295879245411,0.02134260963591596,1.012802998954003,0.26247207069927825,-1.238104991568625,-1.43932777255252
2024-09-23 01:47:06.517735,42.3,7.849533,-0.01256167205101853,0.02134260963591596,1.012802998954003,0.3062460483703762,-1.216217962712422,-1.3868447936475277
2024-09-23 01:47:06.529572,42.3,7.849533,-0.01256167205101853,0.020062078880364497,1.012802998954003,0.3062460483703762,-1.216217962712422,-1.3868447936475277
2024-09-23 01:47:06.561123,42.3,7.849533,-0.01256167205101853,0.020062078880364497,1.0122541258459061,0.28871353347133843,-1.216217962712422,-1.3868447936475277
2024-09-23 01:47:06.573552,42.3,7.849584,-0.013537308491698099,0.020062078880364497,1.0122541258459061,0.28871353347133843,-1.203097164625302,-1.4568603408124299
2024-09-23 01:47:06.616854,42.3,7.84967,-0.013537308491698099,0.021830479121718566,1.0138396944596255,0.3456082558686845,-1.0455910250555724,-1.3911993609655648
2024-09-23 01:47:06.660208,42.3,7.84967,-0.013049540777332799,0.020610907938137694,1.01231507934197,0.3456082558686845,-1.0455910250555724,-1.3911993609655648
2024-09-23 01:47:06.671949,42.3,7.84967,-0.013049540777332799,0.020610907938137694,1.01231507934197,0.3149550229238346,-1.1418479549512268,-1.483101830264926
2024-09-23 01:47:06.715593,42.3,7.849722,-0.010976248499571852,0.01926931735815501,1.0149372462468045,0.3324875378228724,-1.0937195433642715,-1.483101830264926
2024-09-23 01:47:06.757835,42.3,7.849773,-0.014025177977500705,0.01926931735815501,1.0149372462468045,0.3324875378228724,-1.0937195433642715,-1.426207081187144
2024-09-23 01:47:06.768921,42.3,7.849773,-0.014025177977500705,0.018842507696783625,1.012742045457939,0.3324875378228724,-1.0937195433642715,-1.426207081187144
2024-09-23 01:47:06.811713,42.3,7.849823,-0.012927522899907663,0.02048899031317319,1.0145713308414066,0.3324875378228724,-1.1637349838074296,-1.413086283100024
2024-09-23 01:47:06.855914,42.7,7.849823,-0.012927522899907663,0.02048899031317319,1.0145713308414066,0.3674952580444515,-1.1549687530383468,-1.518109550486505
2024-09-23 01:47:06.867819,42.7,7.849874,-0.012256778495634975,0.020427930488741967,1.0145713308414066,0.3674952580444515,-1.1549687530383468,-1.518109550486505
2024-09-23 01:47:06.910800,42.7,7.849925,-0.01256167205101853,0.020427930488741967,1.01231507934197,0.35872900059493257,-1.1724439050000162,-1.3649578715130686
2024-09-23 01:47:06.954007,42.7,7.849925,-0.01256167205101853,0.019696228790963704,1.0149372462468045,0.3674952580444515,-1.1506142924420535,-1.3649578715130686
2024-09-23 01:47:06.965752,42.7,7.850012,-0.01256167205101853,0.019696228790963704,1.0149372462468045,0.3674952580444515,-1.1506142924420535,-1.4174980532728136
2024-09-23 01:47:06.997688,42.7,7.850012,-0.013354434332716355,0.019696228790963704,1.0149372462468045,0.3674952580444515,-1.1506142924420535,-1.4174980532728136
2024-09-23 01:47:07.009281,42.7,7.850012,-0.013354434332716355,0.02189143717471248,1.0149982969573756,0.3018342781975865,-1.0893650827679784,-1.3999655917346479
2024-09-23 01:47:07.051547,42.7,7.850063,-0.013476350438704184,0.018415698035412244,1.0136566395424191,0.3018342781975865,-1.0893650827679784,-1.3999655917346479
2024-09-23 01:47:07.063130,42.7,7.850063,-0.013476350438704184,0.018415698035412244,1.0136566395424191,0.3324875378228724,-1.1418479549512268,-1.3999655917346479
2024-09-23 01:47:07.095991,42.7,7.850063,-0.013476350438704184,0.018415698035412244,1.0136566395424191,0.3324875378228724,-1.1418479549512268,-1.3999655917346479
2024-09-23 01:47:07.107011,42.7,7.850114,-0.015305708733052167,0.019696228790963704,1.012742045457939,0.2405850685235113,-1.1418479549512268,-1.3999655917346479
2024-09-23 01:47:07.148868,42.7,7.850165,-0.012439653414105056,0.019696228790963704,1.012742045457939,0.2405850685235113,-1.0674780539117754,-1.4524485706396402
2024-09-23 01:47:07.160006,42.7,7.850165,-0.012439653414105056,0.01811080599900536,1.0096319589410718,0.2405850685235113,-1.0674780539117754,-1.4524485706396402
2024-09-23 01:47:07.192185,42.7,7.850165,-0.012439653414105056,0.01811080599900536,1.0096319589410718,0.35872900059493257,-1.0674780539117754,-1.4524485706396402
2024-09-23 01:47:07.205665,42.7,7.850215,-0.010610295879245411,0.019940162774376668,1.0096319589410718,0.35872900059493257,-1.1418479549512268,-1.509343212995678
2024-09-23 01:47:07.248086,42.7,7.850215,-0.010610295879245411,0.019940162774376668,1.0114614387535539,0.31060053564710544,-1.15932321363464,-1.3518370734259486
2024-09-23 01:47:07.260561,42.7,7.850266,-0.012500713238536278,0.019940162774376668,1.0114614387535539,0.31060053564710544,-1.15932321363464,-1.3518370734259486
2024-09-23 01:47:07.292480,42.7,7.850266,-0.012500713238536278,0.02201345505213762,1.0109736163560281,0.31060053564710544,-1.15932321363464,-1.3518370734259486
2024-09-23 01:47:07.303831,42.7,7.850353,-0.012500713238536278,0.02201345505213762,1.0109736163560281,0.3149550229238346,-1.203097164625302,-1.3999655917346479
2024-09-23 01:47:07.346367,42.7,7.850353,-0.011890927646745842,0.02012303845233509,1.0143883731387076,0.3018342781975865,-1.1287272635858505,-1.3999655917346479
2024-09-23 01:47:07.358283,42.7,7.850353,-0.011890927646745842,0.02012303845233509,1.0143883731387076,0.3018342781975865,-1.1287272635858505,-1.3474826128296553
2024-09-23 01:47:07.390144,42.7,7.850404,-0.01182986782231462,0.02012303845233509,1.0143883731387076,0.3018342781975865,-1.1287272635858505,-1.3474826128296553
2024-09-23 01:47:07.402108,42.7,7.850404,-0.01182986782231462,0.019452293288574063,1.011034569852092,0.31060053564710544,-1.0762442846808582,-1.3474826128296553
2024-09-23 01:47:07.445749,42.7,7.850455,-0.012805606793919833,0.020306014382754138,1.0117664006628877,0.2581175834225491,-1.0762442846808582,-1.3911993609655648
2024-09-23 01:47:07.489167,42.7,7.850506,-0.012805606793919833,0.020306014382754138,1.0117664006628877,0.2581175834225491,-1.1068402347296475,-1.461214801408723
2024-09-23 01:47:07.500726,42.7,7.850506,-0.014147094083488534,0.021586543619328925,1.0139616014517532,0.2581175834225491,-1.1068402347296475,-1.461214801408723
2024-09-23 01:47:07.543261,42.7,7.850557,-0.012073802565215924,0.02097675802753849,1.0139616014517532,0.24499683869630098,-1.1287272635858505,-1.4306188513599336
2024-09-23 01:47:07.586032,42.7,7.850557,-0.012073802565215924,0.02097675802753849,1.0106077981651376,0.3280757409696467,-1.1549687530383468,-1.4306188513599336
2024-09-23 01:47:07.597188,42.7,7.850607,-0.01768389456619667,0.02097675802753849,1.0106077981651376,0.3280757409696467,-1.1549687530383468,-1.3780785628784449
2024-09-23 01:47:07.639961,42.7,7.850607,-0.01768389456619667,0.02018409827676631,1.0121931723498423,0.3018342781975865,-1.0674780539117754,-1.4787472629468887
2024-09-23 01:47:07.651453,42.7,7.850694,-0.01768389456619667,0.02018409827676631,1.0121931723498423,0.3018342781975865,-1.0674780539117754,-1.4787472629468887
2024-09-23 01:47:07.736376,42.7,7.850694,-0.009329765883182288,0.021098777423940302,1.0135347325502915,0.3237212803733535,-1.0237041029211134,-1.4787472629468887
2024-09-23 01:47:07.779008,42.7,7.850694,-0.009329765883182288,0.021098777423940302,1.0135347325502915,0.3237212803733535,-1.0237041029211134,-1.426207081187144
2024-09-23 01:47:07.791117,42.7,7.850746,-0.012134760618209839,0.02018409827676631,1.0138396944596255,0.3018342781975865,-1.0237041029211134,-1.426207081187144
2024-09-23 01:47:07.833852,42.7,7.850796,-0.014695923141261731,0.019025483627202678,1.0138396944596255,0.3018342781975865,-1.0893650827679784,-1.3474826128296553
2024-09-23 01:47:07.845944,42.7,7.850796,-0.014695923141261731,0.019025483627202678,1.011095523348156,0.3018342781975865,-1.0893650827679784,-1.3474826128296553
2024-09-23 01:47:07.929406,42.49,7.850847,-0.014695923141261731,0.019025483627202678,1.011095523348156,0.3849704900474288,-0.993108152872324,-1.474335492774099
2024-09-23 01:47:07.941419,42.49,7.850847,-0.008841896397379681,0.02280611632188647,1.011095523348156,0.3849704900474288,-0.993108152872324,-1.474335492774099
2024-09-23 01:47:07.974925,42.49,7.850847,-0.008841896397379681,0.02280611632188647,1.0147542885441054,0.24499683869630098,-0.993108152872324,-1.474335492774099
2024-09-23 01:47:07.986074,42.49,7.850898,-0.013476350438704184,0.02280611632188647,1.0147542885441054,0.24499683869630098,-1.0893650827679784,-1.461214801408723
2024-09-23 01:47:08.028279,42.49,7.850898,-0.013476350438704184,0.02122069352992813,1.0119492611510794,0.39373674749694765,-1.2205724233087152,-1.504988752399385
2024-09-23 01:47:08.040577,42.49,7.851036,-0.013476350438704184,0.02122069352992813,1.0119492611510794,0.39373674749694765,-1.2205724233087152,-1.504988752399385
2024-09-23 01:47:08.073998,42.49,7.851036,-0.014025177977500705,0.016891131525010507,1.016705578134208,0.39373674749694765,-1.2205724233087152,-1.504988752399385
2024-09-23 01:47:08.084987,42.49,7.851036,-0.014025177977500705,0.016891131525010507,1.016705578134208,0.3149550229238346,-1.0762442846808582,-1.5136977803137153
2024-09-23 01:47:08.127371,42.49,7.851087,-0.012378695361111141,0.015549642716465131,1.0166446246381442,0.31060053564710544,-1.1330817241821438,-1.5136977803137153
2024-09-23 01:47:08.170037,42.49,7.851183,-0.012378695361111141,0.015549642716465131,1.0166446246381442,0.31060053564710544,-1.1330817241821438,-1.4655692620050162
2024-09-23 01:47:08.182248,42.49,7.851183,-0.01219582044264106,0.019696228790963704,1.01231507934197,0.3149550229238346,-1.1330817241821438,-1.4655692620050162
2024-09-23 01:47:08.226529,42.49,7.851183,-0.01219582044264106,0.019696228790963704,1.01231507934197,0.3149550229238346,-1.0937195433642715,-1.4655692620050162
2024-09-23 01:47:08.269080,42.49,7.851183,-0.01219582044264106,0.019696228790963704,1.01231507934197,0.3149550229238346,-1.0937195433642715,-1.3824903330512346
2024-09-23 01:47:08.321333,42.49,7.851234,-0.014391029585878175,0.02048899031317319,1.01737645544894,0.3499627431454137,-1.0937195433642715,-1.3824903330512346
2024-09-23 01:47:08.333606,42.49,7.851234,-0.014391029585878175,0.02048899031317319,1.01737645544894,0.3499627431454137,-1.1024857741333545,-1.3824903330512346
2024-09-23 01:47:08.366561,42.49,7.851285,-0.015305708733052167,0.02048899031317319,1.01737645544894,0.3499627431454137,-1.1024857741333545,-1.4218526205908506
2024-09-23 01:47:08.378092,42.49,7.851285,-0.015305708733052167,0.018415698035412244,1.0102418827597397,0.28871353347133843,-1.1024857741333545,-1.4218526205908506
2024-09-23 01:47:08.420770,42.49,7.851335,-0.011768909009832369,0.019513251341567978,1.0143274196426437,0.28871353347133843,-1.1549687530383468,-1.3299501512914895
2024-09-23 01:47:08.464322,42.49,7.851335,-0.011768909009832369,0.019513251341567978,1.0143274196426437,0.29306802074806765,-1.15932321363464,-1.3212411233771593
2024-09-23 01:47:08.476227,42.49,7.851425,-0.013598266544692013,0.020062078880364497,1.0143274196426437,0.29306802074806765,-1.15932321363464,-1.3212411233771593
2024-09-23 01:47:08.508704,42.49,7.851425,-0.013598266544692013,0.020062078880364497,1.0108517093639005,0.29306802074806765,-1.15932321363464,-1.3212411233771593
2024-09-23 01:47:08.520089,42.49,7.851523,-0.012805606793919833,0.020062078880364497,1.0108517093639005,0.3237212803733535,-1.238104991568625,-1.3999655917346479
2024-09-23 01:47:08.563319,42.49,7.851523,-0.012805606793919833,0.016586237969626952,1.0117664006628877,0.27123832814879717,-1.207451731943339,-1.3999655917346479
2024-09-23 01:47:08.576236,42.49,7.85162,-0.012805606793919833,0.016586237969626952,1.0117664006628877,0.27123832814879717,-1.207451731943339,-1.4306188513599336
2024-09-23 01:47:08.608142,42.49,7.85162,-0.01268358815700636,0.019086441680196593,1.0117664006628877,0.27123832814879717,-1.207451731943339,-1.4306188513599336
2024-09-23 01:47:08.619354,42.49,7.85162,-0.01268358815700636,0.019086441680196593,1.0131078636488298,0.27994727602181957,-1.1243154934130608,-1.3649578715130686
2024-09-23 01:47:08.662561,42.49,7.851672,-0.011951885699739756,0.020732824044125523,1.0152421109416312,0.3499627431454137,-1.1243154934130608,-1.3649578715130686
2024-09-23 01:47:08.674364,42.49,7.851672,-0.011951885699739756,0.020732824044125523,1.0152421109416312,0.3499627431454137,-1.0412365644592791,-1.3649578715130686
2024-09-23 01:47:08.706049,42.49,7.851723,-0.011951885699739756,0.020732824044125523,1.0152421109416312,0.3499627431454137,-1.0412365644592791,-1.43932777255252
2024-09-23 01:47:08.717857,42.49,7.851723,-0.01164699290384454,0.021281651582922046,1.012498037044669,0.37184974532118065,-1.0412365644592791,-1.43932777255252
2024-09-23 01:47:08.760896,42.49,7.851774,-0.011220081471035847,0.01939133523558015,1.0161568022406187,0.37184974532118065,-1.1462025222692638,-1.469981032177806
2024-09-23 01:47:08.803314,42.49,7.851774,-0.011220081471035847,0.01939133523558015,1.0161568022406187,0.3630834878716618,-1.15932321363464,-1.469981032177806
2024-09-23 01:47:08.814925,42.49,7.851824,-0.014025177977500705,0.020366972435748053,1.0161568022406187,0.3630834878716618,-1.15932321363464,-1.448094003321603
2024-09-23 01:47:08.858405,42.49,7.851875,-0.010061467580960552,0.020366972435748053,1.011095523348156,0.31060053564710544,-1.0937195433642715,-1.4306188513599336
2024-09-23 01:47:08.900790,42.49,7.851875,-0.010061467580960552,0.02274515826889256,1.0177422736398305,0.31060053564710544,-1.0937195433642715,-1.4306188513599336
2024-09-23 01:47:08.912483,42.49,7.851962,-0.010061467580960552,0.02274515826889256,1.0177422736398305,0.4155664400962181,-1.1768557818945498,-1.404320052330941
2024-09-23 01:47:08.955232,42.38,7.851962,-0.010793271809664462,0.020915799974544576,1.0117664006628877,0.27994727602181957,-1.1418479549512268,-1.404320052330941
2024-09-23 01:47:08.967228,42.38,7.851962,-0.010793271809664462,0.020915799974544576,1.0117664006628877,0.27994727602181957,-1.1418479549512268,-1.4174980532728136
2024-09-23 01:47:08.999100,42.38,7.852013,-0.01433007153288426,0.020915799974544576,1.0117664006628877,0.27994727602181957,-1.1418479549512268,-1.4174980532728136
2024-09-23 01:47:09.010465,42.38,7.852013,-0.01433007153288426,0.02274515826889256,1.0159129882563631,0.27123832814879717,-1.238104991568625,-1.4174980532728136
2024-09-23 01:47:09.052690,42.38,7.852064,-0.012622630104012445,0.019208359305161096,1.012925003160638,0.27123832814879717,-1.238104991568625,-1.469981032177806
2024-09-23 01:47:09.064819,42.38,7.852064,-0.012622630104012445,0.019208359305161096,1.012925003160638,0.3062460483703762,-1.238104991568625,-1.469981032177806
2024-09-23 01:47:09.097088,42.38,7.852115,-0.012622630104012445,0.019208359305161096,1.012925003160638,0.3062460483703762,-1.0937195433642715,-1.469981032177806
2024-09-23 01:47:09.108567,42.38,7.852115,-0.01146401621393715,0.019330377182586234,1.0130469101527657,0.3062460483703762,-1.0937195433642715,-1.469981032177806
2024-09-23 01:47:09.150883,42.38,7.852166,-0.01182986782231462,0.018049744655597465,1.0130469101527657,0.3368419984191656,-1.1156065722204744,-1.491868061034009
2024-09-23 01:47:09.193084,42.38,7.852166,-0.01182986782231462,0.018049744655597465,1.015668979843093,0.3368419984191656,-1.1156065722204744,-1.491868061034009
2024-09-23 01:47:09.204698,42.38,7.852216,-0.011281142054955407,0.018049744655597465,1.015668979843093,0.2274643237972632,-1.0893650827679784,-1.4568603408124299
2024-09-23 01:47:09.247872,42.38,7.852216,-0.011281142054955407,0.022440264713509,1.0138396944596255,0.37620423259790986,-1.2293386540777982,-1.3737241022821516
2024-09-23 01:47:09.259593,42.38,7.852303,-0.011281142054955407,0.022440264713509,1.0138396944596255,0.37620423259790986,-1.2293386540777982,-1.3737241022821516
2024-09-23 01:47:09.291395,42.38,7.852303,-0.011707950956838454,0.017622936513202757,1.0138396944596255,0.37620423259790986,-1.2293386540777982,-1.3737241022821516
2024-09-23 01:47:09.302552,42.38,7.852303,-0.011707950956838454,0.017622936513202757,1.0128639524500669,0.38061600277069957,-1.1637349838074296,-1.469981032177806
2024-09-23 01:47:09.345256,42.38,7.852355,-0.012805606793919833,0.019330377182586234,1.0139006479556893,0.3062460483703762,-1.1637349838074296,-1.469981032177806
2024-09-23 01:47:09.357043,42.38,7.852355,-0.012805606793919833,0.019330377182586234,1.0139006479556893,0.3062460483703762,-1.0937195433642715,-1.469981032177806
2024-09-23 01:47:09.388727,42.38,7.852405,-0.012805606793919833,0.019330377182586234,1.0139006479556893,0.3062460483703762,-1.0937195433642715,-1.4437395427253097
2024-09-23 01:47:09.400016,42.38,7.852405,-0.01219582044264106,0.01963527073796979,1.0150592504534395,0.3237212803733535,-1.0937195433642715,-1.4437395427253097
2024-09-23 01:47:09.443339,42.38,7.852456,-0.013903160100075569,0.022867176146317694,1.0150592504534395,0.3237212803733535,-1.15932321363464,-1.504988752399385
2024-09-23 01:47:09.455340,42.38,7.852456,-0.013903160100075569,0.022867176146317694,1.0148152420401695,0.3237212803733535,-1.15932321363464,-1.504988752399385
2024-09-23 01:47:09.487243,42.38,7.852456,-0.013903160100075569,0.022867176146317694,1.0148152420401695,0.3368419984191656,-1.1812102424908428,-1.4787472629468887
2024-09-23 01:47:09.498216,42.38,7.852507,-0.013720285941093825,0.021159735476934217,1.0148152420401695,0.3368419984191656,-1.1812102424908428,-1.4787472629468887
2024-09-23 01:47:09.540330,42.38,7.852557,-0.013720285941093825,0.021159735476934217,1.0125589905407328,0.39373674749694765,-1.0630662837389857,-1.294999633924663
2024-09-23 01:47:09.551950,42.38,7.852557,-0.015610600769459046,0.021159735476934217,1.0125589905407328,0.39373674749694765,-1.0630662837389857,-1.294999633924663
2024-09-23 01:47:09.585016,42.38,7.852557,-0.015610600769459046,0.017561976941232165,1.0158518403312846,0.40244569536997005,-1.0630662837389857,-1.294999633924663
2024-09-23 01:47:09.596255,42.38,7.852644,-0.015610600769459046,0.017561976941232165,1.0158518403312846,0.40244569536997005,-1.1243154934130608,-1.4437395427253097
2024-09-23 01:47:09.638553,42.38,7.852644,-0.012927522899907663,0.02067186599113161,1.0111565740587272,0.2537058132497594,-1.1374934943549335,-1.3824903330512346
2024-09-23 01:47:09.681266,42.38,7.852696,-0.015610600769459046,0.02067186599113161,1.0111565740587272,0.2537058132497594,-1.1374934943549335,-1.3824903330512346
2024-09-23 01:47:09.692919,42.38,7.852696,-0.015610600769459046,0.019330377182586234,1.0151202039495033,0.3193667930966243,-1.0543573625463993,-1.3824903330512346
2024-09-23 01:47:09.736726,42.38,7.852747,-0.010000509527966639,0.02189143717471248,1.0109126628599643,0.3193667930966243,-1.0543573625463993,-1.3474826128296553
2024-09-23 01:47:09.748644,42.38,7.852747,-0.010000509527966639,0.02189143717471248,1.0109126628599643,0.3149550229238346,-1.0543573625463993,-1.3474826128296553
2024-09-23 01:47:09.780645,42.38,7.852798,-0.010000509527966639,0.02189143717471248,1.0109126628599643,0.3149550229238346,-1.0849533125951887,-1.4218526205908506
2024-09-23 01:47:09.792067,42.38,7.852798,-0.015488684663471218,0.02237930666051509,1.0136566395424191,0.3149550229238346,-1.0849533125951887,-1.4218526205908506
2024-09-23 01:47:09.834924,42.38,7.852848,-0.00987859342197881,0.021464627513341095,1.0136566395424191,0.3368419984191656,-1.0849533125951887,-1.404320052330941
2024-09-23 01:47:09.877703,42.38,7.852848,-0.00987859342197881,0.021464627513341095,1.011217527554791,0.3324875378228724,-1.0849533125951887,-1.404320052330941
2024-09-23 01:47:09.889689,42.38,7.852899,-0.012134760618209839,0.021464627513341095,1.011217527554791,0.3324875378228724,-1.15932321363464,-1.504988752399385
2024-09-23 01:47:09.932049,42.38,7.852986,-0.012134760618209839,0.02176952106872465,1.0107906586533293,0.31060053564710544,-1.0455910250555724,-1.3649578715130686
2024-09-23 01:47:09.975237,43.0,7.852986,-0.012805606793919833,0.0187205915907958,1.011095523348156,0.31060053564710544,-1.0455910250555724,-1.3649578715130686
2024-09-23 01:47:09.986920,43.0,7.852986,-0.012805606793919833,0.0187205915907958,1.011095523348156,0.2668265312955715,-1.1724439050000162,-1.4218526205908506
2024-09-23 01:47:10.029616,43.0,7.853037,-0.012317737308117227,0.02085484192155066,1.014205512650516,0.2843590461946093,-1.203097164625302,-1.4218526205908506
2024-09-23 01:47:10.072462,43.0,7.853088,-0.011403058160943235,0.02085484192155066,1.014205512650516,0.2843590461946093,-1.203097164625302,-1.43932777255252
2024-09-23 01:47:10.083793,43.0,7.853088,-0.011403058160943235,0.018293680157987106,1.0149982969573756,0.3237212803733535,-1.203097164625302,-1.43932777255252
2024-09-23 01:47:10.126828,43.0,7.853139,-0.01750101888823825,0.02097675802753849,1.0149982969573756,0.3237212803733535,-1.1506142924420535,-1.4174980532728136
2024-09-23 01:47:10.170517,43.0,7.853139,-0.01750101888823825,0.02097675802753849,1.0149982969573756,0.3674952580444515,-1.1374934943549335,-1.3474826128296553
2024-09-23 01:47:10.181586,43.0,7.853189,-0.011342100107949322,0.02225739055452726,1.0149982969573756,0.3674952580444515,-1.1374934943549335,-1.3474826128296553
2024-09-23 01:47:10.224746,43.0,7.85324,-0.010244444270867941,0.02225739055452726,1.0143274196426437,0.41121195281948897,-1.0674780539117754,-1.4437395427253097
2024-09-23 01:47:10.267335,43.0,7.85324,-0.010244444270867941,0.01963527073796979,1.0117664006628877,0.3062460483703762,-1.0674780539117754,-1.4437395427253097
2024-09-23 01:47:10.278467,43.0,7.853327,-0.010244444270867941,0.01963527073796979,1.0117664006628877,0.3062460483703762,-1.1156065722204744,-1.4524485706396402
2024-09-23 01:47:10.322378,43.0,7.853327,-0.010671253932239326,0.02280611632188647,1.0176202694331955,0.39373674749694765,-1.0455910250555724,-1.483101830264926
2024-09-23 01:47:10.365794,43.0,7.853378,-0.013842202047081654,0.02225739055452726,1.0176202694331955,0.39373674749694765,-1.0455910250555724,-1.483101830264926
2024-09-23 01:47:10.377467,43.0,7.853378,-0.013842202047081654,0.02225739055452726,1.012620041251304,0.3456082558686845,-1.1156065722204744,-1.483101830264926
2024-09-23 01:47:10.410179,43.0,7.853378,-0.013842202047081654,0.02225739055452726,1.012620041251304,0.3456082558686845,-1.1156065722204744,-1.3737241022821516
2024-09-23 01:47:10.422780,43.0,7.853429,-0.009390723936176203,0.02012303845233509,1.0148152420401695,0.29306802074806765,-1.1156065722204744,-1.3737241022821516
2024-09-23 01:47:10.466275,43.0,7.85348,-0.013171458402297304,0.02085484192155066,1.0148152420401695,0.29306802074806765,-1.0499454856518655,-1.4087318225037306
2024-09-23 01:47:10.477987,43.0,7.85348,-0.013171458402297304,0.02085484192155066,1.012620041251304,0.29306802074806765,-1.0499454856518655,-1.4087318225037306
2024-09-23 01:47:10.510034,43.0,7.85348,-0.013171458402297304,0.02085484192155066,1.012620041251304,0.41121195281948897,-1.0543573625463993,-1.4087318225037306
2024-09-23 01:47:10.521169,43.0,7.853531,-0.011951885699739756,0.021159735476934217,1.012620041251304,0.41121195281948897,-1.0543573625463993,-1.4568603408124299
2024-09-23 01:47:10.563364,43.0,7.853581,-0.011951885699739756,0.021159735476934217,1.0123761300525411,0.4549859571710229,-1.1024857741333545,-1.461214801408723
2024-09-23 01:47:10.575224,43.0,7.853581,-0.011220081471035847,0.021159735476934217,1.0123761300525411,0.4549859571710229,-1.1024857741333545,-1.461214801408723
2024-09-23 01:47:10.607365,43.0,7.853581,-0.011220081471035847,0.019025483627202678,1.0109736163560281,0.4549859571710229,-1.1024857741333545,-1.461214801408723
2024-09-23 01:47:10.618724,43.0,7.853668,-0.011220081471035847,0.019025483627202678,1.0109736163560281,0.35872900059493257,-1.1899764732599258,-1.4437395427253097
2024-09-23 01:47:10.662283,43.0,7.853668,-0.012500713238536278,0.019696228790963704,1.0121322188537785,0.3193667930966243,-1.0849533125951887,-1.4437395427253097
2024-09-23 01:47:10.673878,43.0,7.853668,-0.012500713238536278,0.019696228790963704,1.0121322188537785,0.3193667930966243,-1.0849533125951887,-1.461214801408723
2024-09-23 01:47:10.706563,43.0,7.85372,-0.012500713238536278,0.02365983741606655,1.0121322188537785,0.3193667930966243,-1.0849533125951887,-1.461214801408723
2024-09-23 01:47:10.718438,43.0,7.85372,-0.012500713238536278,0.02365983741606655,1.0132298678554648,0.39373674749694765,-1.1418479549512268,-1.461214801408723
2024-09-23 01:47:10.760992,43.0,7.85377,-0.012256778495634975,0.017257084904825287,1.014205512650516,0.38932495064372197,-1.1418479549512268,-1.434973311956227
2024-09-23 01:47:10.803516,43.0,7.853821,-0.012256778495634975,0.017257084904825287,1.014205512650516,0.38932495064372197,-1.2293386540777982,-1.461214801408723
2024-09-23 01:47:10.814786,43.0,7.853821,-0.013110498830326714,0.019208359305161096,1.0107906586533293,0.38932495064372197,-1.2293386540777982,-1.461214801408723
2024-09-23 01:47:10.858045,43.0,7.853872,-0.012622630104012445,0.023354943860682993,1.0107906586533293,0.3324875378228724,-1.1768557818945498,-1.3956111311383546
2024-09-23 01:47:10.900520,43.0,7.853872,-0.012622630104012445,0.023354943860682993,1.0120102146471432,0.3237212803733535,-1.1768557818945498,-1.3956111311383546
2024-09-23 01:47:10.911867,43.0,7.853923,-0.012622630104012445,0.023354943860682993,1.0120102146471432,0.3237212803733535,-1.1680894444037229,-1.3606034109167755
2024-09-23 01:47:10.954990,43.0,7.853923,-0.015061773230662524,0.020427930488741967,1.018534960732183,0.223109849860752,-1.1111946953259408,-1.3649578715130686
2024-09-23 01:47:10.996914,42.9,7.854009,-0.016891131525010507,0.020427930488741967,1.018534960732183,0.223109849860752,-1.1111946953259408,-1.3649578715130686
2024-09-23 01:47:11.008948,42.9,7.854009,-0.016891131525010507,0.023842813346485598,1.0138396944596255,0.3411964856958948,-1.0937195433642715,-1.3649578715130686
2024-09-23 01:47:11.051361,42.9,7.854061,-0.012012843752733671,0.023415901913676908,1.012620041251304,0.3411964856958948,-1.0937195433642715,-1.4218526205908506
2024-09-23 01:47:11.063571,42.9,7.854061,-0.012012843752733671,0.023415901913676908,1.012620041251304,0.29747979092085736,-1.0937195433642715,-1.4218526205908506
2024-09-23 01:47:11.096649,42.9,7.854112,-0.012012843752733671,0.023415901913676908,1.012620041251304,0.29747979092085736,-1.1287272635858505,-1.3999655917346479
2024-09-23 01:47:11.108540,42.9,7.854112,-0.015244750680058252,0.019086441680196593,1.0139006479556893,0.29747979092085736,-1.1287272635858505,-1.3999655917346479
2024-09-23 01:47:11.150916,42.9,7.854162,-0.010854230622146716,0.021952496999143704,1.0139006479556893,0.29306802074806765,-0.9886962759777903,-1.3212411233771593
2024-09-23 01:47:11.194095,42.9,7.854162,-0.010854230622146716,0.021952496999143704,1.0139006479556893,0.37184974532118065,-1.0893650827679784,-1.3212411233771593
2024-09-23 01:47:11.205711,42.9,7.854213,-0.009939551474972724,0.021952496999143704,1.0139006479556893,0.37184974532118065,-1.0893650827679784,-1.3649578715130686
2024-09-23 01:47:11.248248,42.9,7.854302,-0.009939551474972724,0.02237930666051509,1.0168886330514144,0.2843590461946093,-1.1330817241821438,-1.3911993609655648
2024-09-23 01:47:11.291626,42.9,7.854302,-0.010915188675140628,0.019025483627202678,1.0115223922496177,0.2843590461946093,-1.1330817241821438,-1.3911993609655648
2024-09-23 01:47:11.303037,42.9,7.854302,-0.010915188675140628,0.019025483627202678,1.0115223922496177,0.2274643237972632,-1.1549687530383468,-1.4524485706396402
2024-09-23 01:47:11.346250,42.9,7.854353,-0.013110498830326714,0.018842507696783625,1.0115223922496177,0.2274643237972632,-1.1549687530383468,-1.4524485706396402
2024-09-23 01:47:11.388598,42.9,7.854353,-0.013110498830326714,0.018842507696783625,1.0151202039495033,0.24499683869630098,-1.0849533125951887,-1.4524485706396402
2024-09-23 01:47:11.399570,42.9,7.854404,-0.01341539238571027,0.018842507696783625,1.0151202039495033,0.24499683869630098,-1.0849533125951887,-1.3999655917346479
2024-09-23 01:47:11.441363,42.9,7.854404,-0.01341539238571027,0.018781549643789714,1.0134127283436565,0.29747979092085736,-1.1724439050000162,-1.3999655917346479
2024-09-23 01:47:11.452806,42.9,7.854455,-0.01341539238571027,0.018781549643789714,1.0134127283436565,0.29747979092085736,-1.1724439050000162,-1.4787472629468887
2024-09-23 01:47:11.484862,42.9,7.854455,-0.013293374508285133,0.019574312684975875,1.0134127283436565,0.29747979092085736,-1.1724439050000162,-1.4787472629468887
2024-09-23 01:47:11.497250,42.9,7.854455,-0.013293374508285133,0.019574312684975875,1.0111565740587272,0.3018342781975865,-1.224984193481505,-1.3737241022821516
2024-09-23 01:47:11.540625,42.9,7.854506,-0.012622630104012445,0.01823272210499319,1.0087173648565917,0.3193667930966243,-1.0980740039605648,-1.3737241022821516
2024-09-23 01:47:11.583424,42.9,7.854556,-0.012622630104012445,0.01823272210499319,1.0087173648565917,0.3193667930966243,-1.0980740039605648,-1.3824903330512346
2024-09-23 01:47:11.595088,42.9,7.854556,-0.01268358815700636,0.02097675802753849,1.0148152420401695,0.3280757409696467,-1.0980740039605648,-1.3824903330512346
2024-09-23 01:47:11.638016,42.9,7.854645,-0.012073802565215924,0.021159735476934217,1.0131078636488298,0.3280757409696467,-1.1068402347296475,-1.413086283100024
2024-09-23 01:47:11.679827,42.9,7.854645,-0.012073802565215924,0.021159735476934217,1.0131078636488298,0.3149550229238346,-1.014995075006783,-1.413086283100024
2024-09-23 01:47:11.690938,42.9,7.854696,-0.014756881194255646,0.02067186599113161,1.0131078636488298,0.3149550229238346,-1.014995075006783,-1.3562488435987383
2024-09-23 01:47:11.733062,42.9,7.854746,-0.014756881194255646,0.02067186599113161,1.0135347325502915,0.3324875378228724,-1.1156065722204744,-1.4787472629468887
2024-09-23 01:47:11.745012,42.9,7.854746,-0.012073802565215924,0.02067186599113161,1.0135347325502915,0.3324875378228724,-1.1156065722204744,-1.4787472629468887
2024-09-23 01:47:11.776884,42.9,7.854746,-0.012073802565215924,0.020793883868556746,1.0135347325502915,0.3324875378228724,-1.1156065722204744,-1.4787472629468887
2024-09-23 01:47:11.788743,42.9,7.854838,-0.012073802565215924,0.020793883868556746,1.0140835084438808,0.3674952580444515,-1.1462025222692638,-1.4787472629468887
2024-09-23 01:47:11.831441,42.9,7.854838,-0.011768909009832369,0.01786687049661572,1.0143274196426437,0.27123832814879717,-1.1199610328167677,-1.4787472629468887
2024-09-23 01:47:11.843544,42.9,7.854838,-0.011768909009832369,0.01786687049661572,1.0143274196426437,0.27123832814879717,-1.1199610328167677,-1.5136977803137153
2024-09-23 01:47:11.876289,42.9,7.85489,-0.013354434332716355,0.020245056329760223,1.0143274196426437,0.27123832814879717,-1.1199610328167677,-1.5136977803137153
2024-09-23 01:47:11.888139,42.9,7.85489,-0.013354434332716355,0.020245056329760223,1.0121322188537785,0.27123832814879717,-1.1680894444037229,-1.5136977803137153
2024-09-23 01:47:11.930181,42.9,7.85494,-0.01396421992450679,0.022196330730096036,1.0132298678554648,0.31060053564710544,-1.1680894444037229,-1.426207081187144
2024-09-23 01:47:11.972588,42.9,7.85494,-0.01396421992450679,0.022196330730096036,1.0132298678554648,0.31060053564710544,-1.1549687530383468,-1.404320052330941
2024-09-23 01:47:11.984290,42.9,7.854991,-0.015183792627064338,0.020793883868556746,1.0165836711420804,0.31060053564710544,-1.1549687530383468,-1.404320052330941
2024-09-23 01:47:12.027351,42.85,7.855042,-0.011524974266931064,0.020793883868556746,1.0165836711420804,0.3411964856958948,-1.1330817241821438,-1.4874562908612192
2024-09-23 01:47:12.039327,42.85,7.855042,-0.011524974266931064,0.022318348607521174,1.0165836711420804,0.3411964856958948,-1.1330817241821438,-1.4874562908612192
2024-09-23 01:47:12.071135,42.85,7.855042,-0.011524974266931064,0.022318348607521174,1.0119492611510794,0.3543172304221429,-1.0762442846808582,-1.4874562908612192
2024-09-23 01:47:12.082954,42.85,7.855093,-0.012439653414105056,0.022318348607521174,1.0119492611510794,0.3543172304221429,-1.0762442846808582,-1.4568603408124299
2024-09-23 01:47:12.125855,42.85,7.855093,-0.012439653414105056,0.019879204721382753,1.0151202039495033,0.2362305812467821,-1.0762442846808582,-1.4568603408124299
2024-09-23 01:47:12.167949,42.85,7.855093,-0.012439653414105056,0.019879204721382753,1.0151202039495033,0.2362305812467821,-1.0849533125951887,-1.474335492774099
2024-09-23 01:47:12.179247,42.85,7.855179,-0.01445198763887209,0.021708563015730736,1.0139006479556893,0.2362305812467821,-1.0849533125951887,-1.474335492774099
2024-09-23 01:47:12.223290,42.85,7.855231,-0.015671560341429636,0.021708563015730736,1.0139006479556893,0.3149550229238346,-1.1418479549512268,-1.483101830264926
2024-09-23 01:47:12.235248,42.85,7.855231,-0.015671560341429636,0.020366972435748053,1.0139006479556893,0.3149550229238346,-1.1418479549512268,-1.483101830264926
2024-09-23 01:47:12.267854,42.85,7.855231,-0.015671560341429636,0.020366972435748053,1.0133517748475924,0.3630834878716618,-1.15932321363464,-1.483101830264926
2024-09-23 01:47:12.279319,42.85,7.855282,-0.01445198763887209,0.020366972435748053,1.0133517748475924,0.3630834878716618,-1.15932321363464,-1.3911993609655648
2024-09-23 01:47:12.312461,42.85,7.855282,-0.01445198763887209,0.02164760496273682,1.0133517748475924,0.3630834878716618,-1.15932321363464,-1.3911993609655648
2024-09-23 01:47:12.323644,42.85,7.855332,-0.01445198763887209,0.02164760496273682,1.015973941752427,0.29306802074806765,-1.1812102424908428,-1.4087318225037306
2024-09-23 01:47:12.365587,42.85,7.855332,-0.015305708733052167,0.019330377182586234,1.0157299333391567,0.3411964856958948,-1.1812102424908428,-1.4087318225037306
2024-09-23 01:47:12.377416,42.85,7.855332,-0.015305708733052167,0.019330377182586234,1.0157299333391567,0.3411964856958948,-1.0718325145080685,-1.413086283100024
2024-09-23 01:47:12.410189,42.85,7.855424,-0.015305708733052167,0.019330377182586234,1.0157299333391567,0.3411964856958948,-1.0718325145080685,-1.413086283100024
2024-09-23 01:47:12.421207,42.85,7.855424,-0.012805606793919833,0.02280611632188647,1.012742045457939,0.3499627431454137,-1.0980740039605648,-1.413086283100024
2024-09-23 01:47:12.462964,42.85,7.855475,-0.015122834574070423,0.02280611632188647,1.012742045457939,0.3499627431454137,-1.0980740039605648,-1.404320052330941
2024-09-23 01:47:12.474135,42.85,7.855475,-0.015122834574070423,0.01975718684395762,1.0137175930384832,0.37184974532118065,-1.0980740039605648,-1.404320052330941
2024-09-23 01:47:12.506501,42.85,7.855475,-0.015122834574070423,0.01975718684395762,1.0137175930384832,0.37184974532118065,-1.1506142924420535,-1.404320052330941
2024-09-23 01:47:12.518062,42.85,7.855526,-0.00987859342197881,0.01798878660260355,1.0144494238492787,0.37184974532118065,-1.1506142924420535,-1.4437395427253097
2024-09-23 01:47:12.559701,42.85,7.855577,-0.00987859342197881,0.01798878660260355,1.0144494238492787,0.3237212803733535,-1.1330817241821438,-1.4218526205908506
2024-09-23 01:47:12.571315,42.85,7.855577,-0.012500713238536278,0.020549948366167105,1.0144494238492787,0.3237212803733535,-1.1330817241821438,-1.4218526205908506
2024-09-23 01:47:12.614359,42.85,7.855627,-0.01536666678604608,0.020549948366167105,1.0145713308414066,0.38061600277069957,-1.15932321363464,-1.4787472629468887
2024-09-23 01:47:12.657173,42.85,7.855627,-0.01536666678604608,0.019879204721382753,1.012802998954003,0.3543172304221429,-1.15932321363464,-1.4787472629468887
2024-09-23 01:47:12.669079,42.85,7.855716,-0.01536666678604608,0.019879204721382753,1.012802998954003,0.3543172304221429,-1.207451731943339,-1.4568603408124299
2024-09-23 01:47:12.701397,42.85,7.855716,-0.011342100107949322,0.019879204721382753,1.012802998954003,0.3543172304221429,-1.207451731943339,-1.4568603408124299
2024-09-23 01:47:12.712915,42.85,7.855716,-0.011342100107949322,0.02134260963591596,1.0128639524500669,0.3543172304221429,-1.1287272635858505,-1.3693696416858583
2024-09-23 01:47:12.754826,42.85,7.855768,-0.01268358815700636,0.015915494324842603,1.0128639524500669,0.3543172304221429,-1.1287272635858505,-1.3693696416858583
2024-09-23 01:47:12.767129,42.85,7.855768,-0.01268358815700636,0.015915494324842603,1.0087173648565917,0.31060053564710544,-1.15932321363464,-1.3693696416858583
2024-09-23 01:47:12.800222,42.85,7.855768,-0.01268358815700636,0.015915494324842603,1.0087173648565917,0.31060053564710544,-1.15932321363464,-1.426207081187144
2024-09-23 01:47:12.811915,42.85,7.855818,-0.011524974266931064,0.022196330730096036,1.010668654446694,0.3237212803733535,-1.15932321363464,-1.426207081187144
2024-09-23 01:47:12.855361,42.85,7.855869,-0.011707950956838454,0.02097675802753849,1.010668654446694,0.3237212803733535,-1.207451731943339,-1.3824903330512346
2024-09-23 01:47:12.867605,42.85,7.855869,-0.011707950956838454,0.02097675802753849,1.0143274196426437,0.3237212803733535,-1.207451731943339,-1.3824903330512346
2024-09-23 01:47:12.900707,42.85,7.855869,-0.011707950956838454,0.02097675802753849,1.0143274196426437,0.37620423259790986,-1.1724439050000162,-1.4087318225037306
2024-09-23 01:47:12.911988,42.85,7.85592,-0.010610295879245411,0.02225739055452726,1.0143274196426437,0.37620423259790986,-1.1724439050000162,-1.4087318225037306
2024-09-23 01:47:12.954814,42.85,7.855971,-0.014512945691866003,0.02225739055452726,1.0139616014517532,0.3237212803733535,-1.207451731943339,-1.448094003321603
2024-09-23 01:47:12.997629,42.85,7.855971,-0.014512945691866003,0.02140366946034718,1.0152421109416312,0.27994727602181957,-1.207451731943339,-1.448094003321603
2024-09-23 01:47:13.013925,42.85,7.856057,-0.014512945691866003,0.02140366946034718,1.0152421109416312,0.27994727602181957,-1.1812102424908428,-1.3430708426568656
2024-09-23 01:47:13.046489,42.9,7.856057,-0.013293374508285133,0.023050050305299438,1.0149982969573756,0.27994727602181957,-1.1812102424908428,-1.3430708426568656
2024-09-23 01:47:13.058147,42.9,7.856057,-0.013293374508285133,0.023050050305299438,1.0149982969573756,0.29306802074806765,-1.0630662837389857,-1.483101830264926
2024-09-23 01:47:13.100784,42.9,7.856109,-0.013293374508285133,0.024696534440665677,1.0117664006628877,0.35872900059493257,-1.1243154934130608,-1.483101830264926
2024-09-23 01:47:13.143536,42.9,7.856159,-0.013720285941093825,0.024696534440665677,1.0117664006628877,0.35872900059493257,-1.1243154934130608,-1.4174980532728136
2024-09-23 01:47:13.154676,42.9,7.856159,-0.013720285941093825,0.022867176146317694,1.0121322188537785,0.3237212803733535,-1.1243154934130608,-1.4174980532728136
2024-09-23 01:47:13.198175,42.9,7.85621,-0.012988480952901577,0.022196330730096036,1.0131078636488298,0.3237212803733535,-1.0980740039605648,-1.3693696416858583
2024-09-23 01:47:13.240862,42.9,7.85621,-0.012988480952901577,0.022196330730096036,1.0131078636488298,0.27559278874509036,-1.1506142924420535,-1.3693696416858583
2024-09-23 01:47:13.252347,42.9,7.856261,-0.012805606793919833,0.022928134199311608,1.0131078636488298,0.27559278874509036,-1.1506142924420535,-1.5136977803137153
2024-09-23 01:47:13.295661,42.9,7.856311,-0.010549337066763158,0.022928134199311608,1.013778546534547,0.26247207069927825,-1.1462025222692638,-1.3518370734259486
2024-09-23 01:47:13.338646,42.9,7.856311,-0.010549337066763158,0.023354943860682993,1.0147542885441054,0.3674952580444515,-1.1462025222692638,-1.3518370734259486
2024-09-23 01:47:13.349819,42.9,7.856398,-0.010549337066763158,0.023354943860682993,1.0147542885441054,0.3674952580444515,-1.1549687530383468,-1.496222521630302
2024-09-23 01:47:13.393329,42.9,7.856398,-0.014391029585878175,0.022196330730096036,1.012620041251304,0.40685746554275976,-1.1199610328167677,-1.4306188513599336
2024-09-23 01:47:13.436600,42.9,7.85645,-0.011098165365048018,0.02213537267710212,1.012620041251304,0.40685746554275976,-1.1199610328167677,-1.4306188513599336
2024-09-23 01:47:13.448069,42.9,7.85645,-0.011098165365048018,0.02213537267710212,1.0131688171448936,0.3849704900474288,-1.0849533125951887,-1.4306188513599336
2024-09-23 01:47:13.490060,42.9,7.856501,-0.012378695361111141,0.021281651582922046,1.0132908213515286,0.3368419984191656,-1.0849533125951887,-1.2993542012427002
2024-09-23 01:47:13.532735,42.9,7.856501,-0.012378695361111141,0.021281651582922046,1.0132908213515286,0.3368419984191656,-1.2336931146740913,-1.3037086618389935
2024-09-23 01:47:13.544040,42.9,7.856551,-0.014025177977500705,0.02152558556633501,1.011095523348156,0.3368419984191656,-1.2336931146740913,-1.3037086618389935
2024-09-23 01:47:13.586776,42.9,7.856602,-0.011342100107949322,0.02152558556633501,1.011095523348156,0.3411964856958948,-1.0718325145080685,-1.3562488435987383
2024-09-23 01:47:13.598479,42.9,7.856602,-0.011342100107949322,0.02018409827676631,1.011095523348156,0.3411964856958948,-1.0718325145080685,-1.3562488435987383
2024-09-23 01:47:13.631020,42.9,7.856602,-0.011342100107949322,0.02018409827676631,1.0192667915429787,0.3543172304221429,-1.1156065722204744,-1.3562488435987383
2024-09-23 01:47:13.641943,42.9,7.856653,-0.011768909009832369,0.02018409827676631,1.0192667915429787,0.3543172304221429,-1.1156065722204744,-1.4787472629468887
2024-09-23 01:47:13.684271,42.9,7.856653,-0.011768909009832369,0.021098777423940302,1.01426646614658,0.3149550229238346,-1.15932321363464,-1.4787472629468887
2024-09-23 01:47:13.726863,42.9,7.856653,-0.011768909009832369,0.021098777423940302,1.01426646614658,0.3149550229238346,-1.15932321363464,-1.3824903330512346
2024-09-23 01:47:13.739072,42.9,7.856739,-0.011159123418041933,0.021098777423940302,1.0114614387535539,0.39809120809324083,-1.15932321363464,-1.3824903330512346
2024-09-23 01:47:13.782844,42.9,7.856791,-0.013049540777332799,0.020610907938137694,1.0114614387535539,0.39809120809324083,-1.1111946953259408,-1.4087318225037306
2024-09-23 01:47:13.794436,42.9,7.856791,-0.013049540777332799,0.020610907938137694,1.0115223922496177,0.39809120809324083,-1.1111946953259408,-1.4087318225037306
2024-09-23 01:47:13.825922,42.9,7.856791,-0.013049540777332799,0.020610907938137694,1.0115223922496177,0.42433269754573705,-1.1855647030871361,-1.4306188513599336
2024-09-23 01:47:13.837148,42.9,7.856842,-0.013110498830326714,0.01823272210499319,1.0115223922496177,0.42433269754573705,-1.1855647030871361,-1.4306188513599336
2024-09-23 01:47:13.879850,42.9,7.856892,-0.010854230622146716,0.01823272210499319,1.0134127283436565,0.4155664400962181,-1.2424594521649182,-1.3999655917346479
2024-09-23 01:47:13.922838,42.9,7.856892,-0.010854230622146716,0.02164760496273682,1.0163397599433175,0.4155664400962181,-1.2424594521649182,-1.3999655917346479
