Ayaan's Suite
Timestamp,Sample Rate (Hz),Time,Ax,Ay,Az,Gx,Gy,Gz
2024-09-23 16:23:18.035862,0,34.84439,-0.0028852147413806935,-0.023728432883788564,0.09740101331113918,36.09446859390736,-100.26678939585686,72.1922225099802
2024-09-23 16:23:18.079058,0,34.84444,-0.0034324103296106863,-0.023181236725942318,0.0970030596496862,24.06297849342227,-100.26678939585686,80.21211738781929
2024-09-23 16:23:18.121795,0,34.844535,-0.0034324103296106863,-0.023181236725942318,0.0970030596496862,24.06297849342227,-92.24360919585227,84.22370748782159
2024-09-23 16:23:18.135195,0,34.844535,-0.002586742470023829,-0.022982261414192504,0.0970030596496862,24.06297849342227,-92.24360919585227,84.22370748782159
2024-09-23 16:23:18.167210,0,34.844535,-0.002586742470023829,-0.022982261414192504,0.09715228999426605,24.06297849342227,-92.24360919585227,84.22370748782159
2024-09-23 16:23:18.178718,0,34.844586,-0.0031836870127375577,-0.022982261414192504,0.09715228999426605,48.12595698684454,-92.24360919585227,72.1922225099802
2024-09-23 16:23:18.221421,0,34.844586,-0.0031836870127375577,-0.02313149783467906,0.09725178296655933,48.12595698684454,-92.24360919585227,72.1922225099802
2024-09-23 16:23:18.233194,0,34.844636,-0.0031836870127375577,-0.02313149783467906,0.09725178296655933,48.12595698684454,-92.24360919585227,72.1922225099802
2024-09-23 16:23:18.266230,0,34.844636,-0.003382661564999035,-0.02313149783467906,0.09725178296655933,48.12595698684454,-92.24360919585227,72.1922225099802
2024-09-23 16:23:18.278182,0,34.844636,-0.003382661564999035,-0.02308174982955575,0.09759999317981902,36.09446859390736,-92.24360919585227,80.21211738781929
2024-09-23 16:23:18.321089,0,34.844728,-0.0033329230534799477,-0.02362894446842532,0.09725178296655933,36.09446859390736,-92.24360919585227,80.21211738781929
2024-09-23 16:23:18.334031,0,34.844728,-0.0033329230534799477,-0.02362894446842532,0.09725178296655933,36.09446859390736,-96.25519929585457,80.21211738781929
2024-09-23 16:23:18.366674,0,34.84478,-0.003631395514708897,-0.02362894446842532,0.09725178296655933,36.09446859390736,-96.25519929585457,84.22370748782159
2024-09-23 16:23:18.377896,0,34.84478,-0.003631395514708897,-0.02313149783467906,0.09705279702197278,24.06297849342227,-96.25519929585457,84.22370748782159
2024-09-23 16:23:18.420389,0,34.84483,-0.0028852147413806935,-0.02367869399252531,0.09710254654607277,24.06297849342227,-104.27510100388527,80.21211738781929
2024-09-23 16:23:18.462378,0,34.84483,-0.0028852147413806935,-0.02367869399252531,0.09710254654607277,28.07457030097246,-108.28669110388756,80.21211738781929
2024-09-23 16:23:18.473645,0,34.844881,-0.0031836870127375577,-0.023330473146428877,0.09710254654607277,28.07457030097246,-108.28669110388756,80.21211738781929
2024-09-23 16:23:18.515892,0,34.844932,-0.0031836870127375577,-0.023330473146428877,0.0973512698629459,36.09446859390736,-88.23529758782387,88.23529758782387
2024-09-23 16:23:18.527677,0,34.844932,-0.0029847020175114316,-0.023330473146428877,0.0973512698629459,36.09446859390736,-88.23529758782387,88.23529758782387
2024-09-23 16:23:18.558984,0,34.844932,-0.0029847020175114316,-0.02293251340906919,0.09655535038822652,36.09446859390736,-88.23529758782387,88.23529758782387
2024-09-23 16:23:18.570486,0,34.845021,-0.0029847020175114316,-0.02293251340906919,0.09655535038822652,36.09446859390736,-92.24360919585227,76.200527287817
2024-09-23 16:23:18.614101,0,34.845021,-0.0030841997366068195,-0.02367869399252531,0.0973015264147526,36.09446859390736,-96.25519929585457,72.1922225099802
2024-09-23 16:23:18.657095,0,34.845072,-0.0031339382481259063,-0.02367869399252531,0.0973015264147526,36.09446859390736,-96.25519929585457,72.1922225099802
2024-09-23 16:23:18.668074,0,34.845072,-0.0031339382481259063,-0.023181236725942318,0.0973512698629459,48.12595698684454,-96.25519929585457,72.1922225099802
2024-09-23 16:23:18.709884,0,34.845123,-0.0031836870127375577,-0.023479709566915436,0.0973512698629459,48.12595698684454,-96.25519929585457,80.21211738781929
2024-09-23 16:23:18.721453,0,34.845123,-0.0031836870127375577,-0.023479709566915436,0.09690356060148622,48.12595698684454,-96.25519929585457,80.21211738781929
2024-09-23 16:23:18.754613,0,34.845123,-0.0031836870127375577,-0.023479709566915436,0.09690356060148622,48.12595698684454,-100.26678939585686,88.23529758782387
2024-09-23 16:23:18.766132,0,34.845174,-0.002636491424507565,-0.02278327698858263,0.09710254654607277,48.12595698684454,-100.26678939585686,88.23529758782387
2024-09-23 16:23:18.808373,0,34.845224,-0.0028354659767690416,-0.02278327698858263,0.09710254654607277,44.11764879391193,-96.25519929585457,76.200527287817
2024-09-23 16:23:18.820205,0,34.845224,-0.0028354659767690416,-0.023230986250042305,0.09710254654607277,44.11764879391193,-96.25519929585457,76.200527287817
2024-09-23 16:23:18.854673,0,34.845224,-0.0028354659767690416,-0.023230986250042305,0.09725178296655933,40.106058693909645,-92.24360919585227,76.200527287817
2024-09-23 16:23:18.865810,0,34.845275,-0.002437506429281439,-0.023230986250042305,0.09725178296655933,40.106058693909645,-92.24360919585227,76.200527287817
2024-09-23 16:23:18.908157,0,34.845362,-0.002437506429281439,-0.02338022115155219,0.09720203344245934,32.08287849390507,-92.24360919585227,72.1922225099802
2024-09-23 16:23:18.950752,0,34.845362,-0.0027359787006383035,-0.02303200030545576,0.09725178296655933,32.08287849390507,-92.24360919585227,72.1922225099802
2024-09-23 16:23:18.962384,0,34.845362,-0.0027359787006383035,-0.02303200030545576,0.09725178296655933,36.09446859390736,-92.24360919585227,80.21211738781929
2024-09-23 16:23:19.005115,0,34.845414,-0.0026862297461545674,-0.023280723622328886,0.09675432418099966,36.09446859390736,-92.24360919585227,80.21211738781929
2024-09-23 16:23:19.016834,0,34.845414,-0.0026862297461545674,-0.023280723622328886,0.09675432418099966,36.09446859390736,-92.24360919585227,80.21211738781929
2024-09-23 16:23:19.048729,44.93,34.845464,-0.0031339382481259063,-0.023280723622328886,0.09675432418099966,36.09446859390736,-92.24360919585227,76.200527287817
2024-09-23 16:23:19.060314,44.93,34.845464,-0.0031339382481259063,-0.023579196463302005,0.09720203344245934,44.11764879391193,-92.24360919585227,76.200527287817
2024-09-23 16:23:19.103839,44.93,34.845515,-0.0035816467500972456,-0.02338022115155219,0.09720203344245934,44.11764879391193,-96.25519929585457,76.200527287817
2024-09-23 16:23:19.146801,44.93,34.845515,-0.0035816467500972456,-0.02338022115155219,0.09710254654607277,16.039798293417693,-100.26678939585686,76.200527287817
2024-09-23 16:23:19.200070,44.93,34.845566,-0.0028354659767690416,-0.023280723622328886,0.09670458680871308,20.05138839341998,-96.25519929585457,76.200527287817
2024-09-23 16:23:19.243641,44.93,34.845616,-0.0030841997366068195,-0.023280723622328886,0.09670458680871308,20.05138839341998,-96.25519929585457,80.21211738781929
2024-09-23 16:23:19.255205,44.93,34.845616,-0.0030841997366068195,-0.023429960042815445,0.09665483728461309,52.137550501942634,-96.25519929585457,80.21211738781929
2024-09-23 16:23:19.297761,44.93,34.845703,-0.0029349636958644295,-0.02308174982955575,0.09650560086412653,52.137550501942634,-92.24360919585227,84.22370748782159
2024-09-23 16:23:19.341166,44.93,34.845703,-0.0029349636958644295,-0.02308174982955575,0.09650560086412653,40.106058693909645,-96.25519929585457,80.21211738781929
2024-09-23 16:23:19.352929,44.93,34.845755,-0.0030344509719951677,-0.02362894446842532,0.09650560086412653,40.106058693909645,-96.25519929585457,80.21211738781929
2024-09-23 16:23:19.395839,44.93,34.845805,-0.0027359787006383035,-0.02362894446842532,0.09685382322919964,36.09446859390736,-92.24360919585227,84.22370748782159
2024-09-23 16:23:19.438549,44.93,34.845805,-0.0027359787006383035,-0.02308174982955575,0.09680407370509965,44.11764879391193,-92.24360919585227,84.22370748782159
2024-09-23 16:23:19.450002,44.93,34.845898,-0.0027359787006383035,-0.02308174982955575,0.09680407370509965,44.11764879391193,-100.26678939585686,84.22370748782159
2024-09-23 16:23:19.493069,44.93,34.845898,-0.0029349636958644295,-0.02313149783467906,0.09705279702197278,36.09446859390736,-104.27510100388527,76.200527287817
2024-09-23 16:23:19.536886,44.93,34.84595,-0.0027359787006383035,-0.023181236725942318,0.09705279702197278,36.09446859390736,-104.27510100388527,76.200527287817
2024-09-23 16:23:19.548561,44.93,34.84595,-0.0027359787006383035,-0.023181236725942318,0.0970030596496862,40.106058693909645,-100.26678939585686,76.200527287817
2024-09-23 16:23:19.581822,44.93,34.84595,-0.0027359787006383035,-0.023181236725942318,0.0970030596496862,40.106058693909645,-100.26678939585686,76.200527287817
2024-09-23 16:23:19.593186,44.93,34.846,-0.0028354659767690416,-0.023429960042815445,0.09720203344245934,32.08287849390507,-100.26678939585686,76.200527287817
2024-09-23 16:23:19.635444,44.93,34.846051,-0.0028354659767690416,-0.023429960042815445,0.09720203344245934,32.08287849390507,-96.25519929585457,80.21211738781929
2024-09-23 16:23:19.646508,44.93,34.846051,-0.003233425524256645,-0.022833026512682618,0.09695331012558621,32.08287849390507,-96.25519929585457,80.21211738781929
2024-09-23 16:23:19.679808,44.93,34.846051,-0.003233425524256645,-0.022833026512682618,0.09695331012558621,36.09446859390736,-96.25519929585457,80.21211738781929
2024-09-23 16:23:19.691494,44.93,34.846102,-0.0032831742888682963,-0.02303200030545576,0.09695331012558621,36.09446859390736,-100.26678939585686,80.21211738781929
2024-09-23 16:23:19.776561,44.93,34.846102,-0.0032831742888682963,-0.02303200030545576,0.09695331012558621,36.09446859390736,-100.26678939585686,80.21211738781929
2024-09-23 16:23:19.788401,44.93,34.846152,-0.0033329230534799477,-0.02303200030545576,0.09695331012558621,32.08287849390507,-100.26678939585686,76.200527287817
2024-09-23 16:23:19.830787,44.93,34.846152,-0.0033329230534799477,-0.023181236725942318,0.0973512698629459,44.11764879391193,-96.25519929585457,76.200527287817
2024-09-23 16:23:19.842451,44.93,34.846239,-0.0033329230534799477,-0.023181236725942318,0.0973512698629459,44.11764879391193,-96.25519929585457,80.21211738781929
2024-09-23 16:23:19.874935,44.93,34.846239,-0.0028852147413806935,-0.023181236725942318,0.0973512698629459,44.11764879391193,-96.25519929585457,80.21211738781929
2024-09-23 16:23:19.885982,44.93,34.846239,-0.0028852147413806935,-0.022833026512682618,0.0973512698629459,44.11764879391193,-96.25519929585457,84.22370748782159
2024-09-23 16:23:19.929960,44.93,34.846291,-0.0032831742888682963,-0.023280723622328886,0.09710254654607277,36.09446859390736,-96.25519929585457,84.22370748782159
2024-09-23 16:23:19.941784,44.93,34.846291,-0.0032831742888682963,-0.023280723622328886,0.09710254654607277,36.09446859390736,-92.24360919585227,84.22370748782159
2024-09-23 16:23:19.974665,44.93,34.846342,-0.0033329230534799477,-0.023280723622328886,0.09710254654607277,36.09446859390736,-92.24360919585227,84.22370748782159
2024-09-23 16:23:19.986289,44.93,34.846342,-0.0033329230534799477,-0.023181236725942318,0.09635636444363997,40.106058693909645,-92.24360919585227,84.22370748782159
2024-09-23 16:23:20.028641,44.93,34.846436,-0.002785727465249955,-0.023280723622328886,0.09675432418099966,40.106058693909645,-108.28669110388756,76.200527287817
2024-09-23 16:23:20.071139,42.52,34.846436,-0.002785727465249955,-0.023280723622328886,0.09675432418099966,32.08287849390507,-100.26678939585686,76.200527287817
2024-09-23 16:23:20.085932,42.52,34.846487,-0.002437506429281439,-0.023429960042815445,0.09675432418099966,32.08287849390507,-100.26678939585686,80.21211738781929
2024-09-23 16:23:20.118133,42.52,34.846487,-0.002437506429281439,-0.023429960042815445,0.0973512698629459,32.08287849390507,-100.26678939585686,80.21211738781929
2024-09-23 16:23:20.129283,42.52,34.846537,-0.0025369937054121774,-0.023429960042815445,0.0973512698629459,36.09446859390736,-100.26678939585686,76.200527287817
2024-09-23 16:23:20.171880,42.52,34.846537,-0.0025369937054121774,-0.0228827638849692,0.0970030596496862,36.09446859390736,-96.25519929585457,76.200527287817
2024-09-23 16:23:20.183322,42.52,34.846629,-0.0025369937054121774,-0.0228827638849692,0.0970030596496862,36.09446859390736,-96.25519929585457,76.200527287817
2024-09-23 16:23:20.216315,42.52,34.846629,-0.002586742470023829,-0.0228827638849692,0.0970030596496862,36.09446859390736,-96.25519929585457,76.200527287817
2024-09-23 16:23:20.228172,42.52,34.846629,-0.002586742470023829,-0.023181236725942318,0.09715228999426605,36.09446859390736,-100.26678939585686,76.200527287817
2024-09-23 16:23:20.270473,42.52,34.846681,-0.0033329230534799477,-0.023479709566915436,0.09715228999426605,36.09446859390736,-100.26678939585686,76.200527287817
2024-09-23 16:23:20.282407,42.52,34.846681,-0.0033329230534799477,-0.023479709566915436,0.09715228999426605,36.09446859390736,-100.26678939585686,76.200527287817
2024-09-23 16:23:20.314624,42.52,34.846732,-0.0033329230534799477,-0.023479709566915436,0.09715228999426605,36.09446859390736,-100.26678939585686,72.1922225099802
2024-09-23 16:23:20.326018,42.52,34.846732,-0.0032831742888682963,-0.02303200030545576,0.0970030596496862,40.106058693909645,-100.26678939585686,72.1922225099802
2024-09-23 16:23:20.369040,42.52,34.846782,-0.0029847020175114316,-0.023230986250042305,0.0970030596496862,40.106058693909645,-92.24360919585227,72.1922225099802
2024-09-23 16:23:20.380897,42.52,34.846782,-0.0029847020175114316,-0.023230986250042305,0.09680407370509965,40.106058693909645,-92.24360919585227,72.1922225099802
2024-09-23 16:23:20.413954,42.52,34.846782,-0.0029847020175114316,-0.023230986250042305,0.09680407370509965,40.106058693909645,-96.25519929585457,80.21211738781929
2024-09-23 16:23:20.426289,42.52,34.846833,-0.0029847020175114316,-0.023230986250042305,0.09680407370509965,40.106058693909645,-96.25519929585457,80.21211738781929
2024-09-23 16:23:20.458340,42.52,34.846833,-0.0030344509719951677,-0.023230986250042305,0.09680407370509965,40.106058693909645,-96.25519929585457,80.21211738781929
2024-09-23 16:23:20.510981,42.52,34.846833,-0.0030344509719951677,-0.023429960042815445,0.09779897304849887,44.11764879391193,-96.25519929585457,80.21211738781929
2024-09-23 16:23:20.522693,42.52,34.846884,-0.0030344509719951677,-0.023429960042815445,0.09779897304849887,44.11764879391193,-96.25519929585457,80.21211738781929
2024-09-23 16:23:20.566333,42.52,34.846884,-0.0033329230534799477,-0.023230986250042305,0.09755024973162574,36.09446859390736,-100.26678939585686,84.22370748782159
2024-09-23 16:23:20.610239,42.52,34.846971,-0.0035318979854855937,-0.023579196463302005,0.09755024973162574,36.09446859390736,-100.26678939585686,84.22370748782159
2024-09-23 16:23:20.621653,42.52,34.846971,-0.0035318979854855937,-0.023579196463302005,0.09690356060148622,40.106058693909645,-104.27510100388527,84.22370748782159
2024-09-23 16:23:20.653652,42.52,34.846971,-0.0035318979854855937,-0.023579196463302005,0.09690356060148622,40.106058693909645,-104.27510100388527,80.21211738781929
2024-09-23 16:23:20.664899,42.52,34.847022,-0.003233425524256645,-0.02397715620066169,0.09665483728461309,40.106058693909645,-104.27510100388527,80.21211738781929
2024-09-23 16:23:20.707824,42.52,34.847073,-0.002785727465249955,-0.02397715620066169,0.09665483728461309,40.106058693909645,-96.25519929585457,84.22370748782159
2024-09-23 16:23:20.719654,42.52,34.847073,-0.002785727465249955,-0.023181236725942318,0.09710254654607277,40.106058693909645,-96.25519929585457,84.22370748782159
2024-09-23 16:23:20.752486,42.52,34.847073,-0.002785727465249955,-0.023181236725942318,0.09710254654607277,32.08287849390507,-96.25519929585457,84.22370748782159
2024-09-23 16:23:20.763696,42.52,34.847168,-0.003233425524256645,-0.023230986250042305,0.09710254654607277,32.08287849390507,-104.27510100388527,80.21211738781929
2024-09-23 16:23:20.806116,42.52,34.847218,-0.003233425524256645,-0.023230986250042305,0.09705279702197278,32.08287849390507,-96.25519929585457,76.200527287817
2024-09-23 16:23:20.818129,42.52,34.847218,-0.0029349636958644295,-0.023230986250042305,0.09705279702197278,32.08287849390507,-96.25519929585457,76.200527287817
2024-09-23 16:23:20.851027,42.52,34.847218,-0.0029349636958644295,-0.02313149783467906,0.09705279702197278,32.08287849390507,-96.25519929585457,76.200527287817
2024-09-23 16:23:20.863073,42.52,34.847312,-0.0029349636958644295,-0.02313149783467906,0.09705279702197278,44.11764879391193,-104.27510100388527,84.22370748782159
2024-09-23 16:23:20.906199,42.52,34.847312,-0.0030344509719951677,-0.02362894446842532,0.09705279702197278,40.106058693909645,-96.25519929585457,80.21211738781929
2024-09-23 16:23:20.950180,42.52,34.847363,-0.0029847020175114316,-0.02313149783467906,0.09705279702197278,40.106058693909645,-96.25519929585457,80.21211738781929
2024-09-23 16:23:20.961326,42.52,34.847363,-0.0029847020175114316,-0.02313149783467906,0.09745075675933246,36.09446859390736,-96.25519929585457,80.21211738781929
2024-09-23 16:23:21.004103,42.52,34.847414,-0.0031339382481259063,-0.023181236725942318,0.09725178296655933,36.09446859390736,-96.25519929585457,76.200527287817
2024-09-23 16:23:21.047769,42.52,34.847465,-0.0031339382481259063,-0.023181236725942318,0.09725178296655933,36.09446859390736,-96.25519929585457,80.21211738781929
2024-09-23 16:23:21.059735,42.52,34.847465,-0.0035318979854855937,-0.023479709566915436,0.09750050628343246,36.09446859390736,-96.25519929585457,80.21211738781929
2024-09-23 16:23:21.092578,43.68,34.847465,-0.0035318979854855937,-0.023479709566915436,0.09750050628343246,36.09446859390736,-96.25519929585457,80.21211738781929
2024-09-23 16:23:21.104177,43.68,34.847515,-0.003631395514708897,-0.02293251340906919,0.09750050628343246,36.09446859390736,-108.28669110388756,76.200527287817
2024-09-23 16:23:21.146376,43.68,34.847515,-0.003631395514708897,-0.02293251340906919,0.09720203344245934,44.11764879391193,-96.25519929585457,76.200527287817
2024-09-23 16:23:21.157336,43.68,34.847566,-0.0026862297461545674,-0.02293251340906919,0.09720203344245934,44.11764879391193,-96.25519929585457,76.200527287817
2024-09-23 16:23:21.189772,43.68,34.847566,-0.0026862297461545674,-0.023280723622328886,0.09720203344245934,44.11764879391193,-96.25519929585457,76.200527287817
2024-09-23 16:23:21.200812,43.68,34.847653,-0.0026862297461545674,-0.023280723622328886,0.09755024973162574,40.106058693909645,-100.26678939585686,76.200527287817
2024-09-23 16:23:21.243971,43.68,34.847653,-0.0030841997366068195,-0.022982261414192504,0.09715228999426605,36.09446859390736,-100.26678939585686,76.200527287817
2024-09-23 16:23:21.255887,43.68,34.847653,-0.0030841997366068195,-0.022982261414192504,0.09715228999426605,36.09446859390736,-96.25519929585457,80.21211738781929
2024-09-23 16:23:21.289043,43.68,34.847705,-0.002437506429281439,-0.022982261414192504,0.09715228999426605,36.09446859390736,-96.25519929585457,80.21211738781929
2024-09-23 16:23:21.300641,43.68,34.847705,-0.002437506429281439,-0.023181236725942318,0.09680407370509965,40.106058693909645,-96.25519929585457,80.21211738781929
2024-09-23 16:23:21.343770,43.68,34.847755,-0.003233425524256645,-0.023429960042815445,0.09665483728461309,40.106058693909645,-96.25519929585457,76.200527287817
2024-09-23 16:23:21.355375,43.68,34.847755,-0.003233425524256645,-0.023429960042815445,0.09665483728461309,36.09446859390736,-96.25519929585457,76.200527287817
2024-09-23 16:23:21.387681,43.68,34.847755,-0.003233425524256645,-0.023429960042815445,0.09665483728461309,36.09446859390736,-96.25519929585457,76.200527287817
2024-09-23 16:23:21.398708,43.68,34.847806,-0.003631395514708897,-0.02338022115155219,0.09690356060148622,36.09446859390736,-96.25519929585457,76.200527287817
2024-09-23 16:23:21.442376,43.68,34.847857,-0.003233425524256645,-0.02338022115155219,0.09690356060148622,28.07457030097246,-96.25519929585457,84.22370748782159
2024-09-23 16:23:21.454137,43.68,34.847857,-0.003233425524256645,-0.023181236725942318,0.09690356060148622,28.07457030097246,-96.25519929585457,84.22370748782159
2024-09-23 16:23:21.487264,43.68,34.847857,-0.003233425524256645,-0.023181236725942318,0.09680407370509965,28.07457030097246,-96.25519929585457,84.22370748782159
2024-09-23 16:23:21.498298,43.68,34.847907,-0.002785727465249955,-0.023181236725942318,0.09680407370509965,28.07457030097246,-96.25519929585457,84.22370748782159
2024-09-23 16:23:21.540446,43.68,34.847994,-0.002785727465249955,-0.023181236725942318,0.09690356060148622,36.09446859390736,-96.25519929585457,80.21211738781929
2024-09-23 16:23:21.584246,43.68,34.847994,-0.0028852147413806935,-0.023827930413011865,0.09685382322919964,36.09446859390736,-96.25519929585457,80.21211738781929
2024-09-23 16:23:21.595810,43.68,34.847994,-0.0028852147413806935,-0.023827930413011865,0.09685382322919964,36.09446859390736,-100.26678939585686,84.22370748782159
2024-09-23 16:23:21.638298,43.68,34.848046,-0.0028852147413806935,-0.023827930413011865,0.09685382322919964,36.09446859390736,-100.26678939585686,84.22370748782159
2024-09-23 16:23:21.682329,43.68,34.848046,-0.0034324103296106863,-0.02293251340906919,0.09655535038822652,36.09446859390736,-100.26678939585686,84.22370748782159
2024-09-23 16:23:21.693826,43.68,34.848046,-0.0034324103296106863,-0.02293251340906919,0.09655535038822652,40.106058693909645,-92.24360919585227,84.22370748782159
2024-09-23 16:23:21.726065,43.68,34.848097,-0.0034324103296106863,-0.02293251340906919,0.09655535038822652,40.106058693909645,-92.24360919585227,84.22370748782159
2024-09-23 16:23:21.737435,43.68,34.848097,-0.0034324103296106863,-0.02313149783467906,0.09710254654607277,36.09446859390736,-100.26678939585686,84.22370748782159
2024-09-23 16:23:21.780213,43.68,34.848147,-0.0031339382481259063,-0.023280723622328886,0.09710254654607277,36.09446859390736,-100.26678939585686,80.21211738781929
2024-09-23 16:23:21.791878,43.68,34.848147,-0.0031339382481259063,-0.023280723622328886,0.09705279702197278,32.08287849390507,-100.26678939585686,80.21211738781929
2024-09-23 16:23:21.824735,43.68,34.848147,-0.0031339382481259063,-0.023280723622328886,0.09705279702197278,32.08287849390507,-96.25519929585457,80.21211738781929
2024-09-23 16:23:21.836211,43.68,34.848198,-0.0031836870127375577,-0.023479709566915436,0.09695331012558621,32.08287849390507,-96.25519929585457,80.21211738781929
2024-09-23 16:23:21.879165,43.68,34.848249,-0.0031836870127375577,-0.023479709566915436,0.09695331012558621,36.09446859390736,-100.26678939585686,76.200527287817
2024-09-23 16:23:21.890203,43.68,34.848249,-0.0037308827908396356,-0.023330473146428877,0.09695331012558621,36.09446859390736,-100.26678939585686,76.200527287817
2024-09-23 16:23:21.922803,43.68,34.848249,-0.0037308827908396356,-0.023330473146428877,0.09725178296655933,32.08287849390507,-100.26678939585686,76.200527287817
2024-09-23 16:23:21.934708,43.68,34.848338,-0.0022385316871478774,-0.023330473146428877,0.09725178296655933,32.08287849390507,-96.25519929585457,80.21211738781929
2024-09-23 16:23:21.977811,43.68,34.848433,-0.0022385316871478774,-0.022833026512682618,0.0976994861521123,44.11764879391193,-88.23529758782387,88.23529758782387
2024-09-23 16:23:22.020389,43.68,34.848433,-0.0030841997366068195,-0.023479709566915436,0.0976994861521123,44.11764879391193,-88.23529758782387,88.23529758782387
2024-09-23 16:23:22.031630,43.68,34.848433,-0.0030841997366068195,-0.023479709566915436,0.09710254654607277,40.106058693909645,-96.25519929585457,84.22370748782159
2024-09-23 16:23:22.075208,43.68,34.848485,-0.0029349636958644295,-0.023728432883788564,0.09675432418099966,28.07457030097246,-96.25519929585457,84.22370748782159
2024-09-23 16:23:22.118328,43.97,34.848485,-0.0029349636958644295,-0.023728432883788564,0.09675432418099966,28.07457030097246,-96.25519929585457,80.21211738781929
2024-09-23 16:23:22.129837,43.97,34.848536,-0.0029349636958644295,-0.02278327698858263,0.09710254654607277,32.08287849390507,-96.25519929585457,80.21211738781929
2024-09-23 16:23:22.171586,43.97,34.848587,-0.0031339382481259063,-0.02313149783467906,0.09710254654607277,32.08287849390507,-100.26678939585686,80.21211738781929
2024-09-23 16:23:22.185918,43.97,34.848587,-0.0031339382481259063,-0.02313149783467906,0.0973512698629459,32.08287849390507,-100.26678939585686,80.21211738781929
2024-09-23 16:23:22.218135,43.97,34.848587,-0.0031339382481259063,-0.02313149783467906,0.0973512698629459,36.09446859390736,-104.27510100388527,76.200527287817
2024-09-23 16:23:22.230008,43.97,34.848638,-0.0033329230534799477,-0.023827930413011865,0.0973512698629459,36.09446859390736,-104.27510100388527,76.200527287817
2024-09-23 16:23:22.272386,43.97,34.848688,-0.003482159473966507,-0.023827930413011865,0.09779897304849887,44.11764879391193,-96.25519929585457,84.22370748782159
2024-09-23 16:23:22.366513,43.97,34.848688,-0.003482159473966507,-0.023579196463302005,0.09705279702197278,40.106058693909645,-96.25519929585457,84.22370748782159
2024-09-23 16:23:22.378396,43.97,34.848774,-0.003482159473966507,-0.023579196463302005,0.09705279702197278,40.106058693909645,-96.25519929585457,80.21211738781929
2024-09-23 16:23:22.411432,43.97,34.848774,-0.0025369937054121774,-0.023181236725942318,0.09705279702197278,40.106058693909645,-96.25519929585457,80.21211738781929
2024-09-23 16:23:22.422451,43.97,34.848774,-0.0025369937054121774,-0.023181236725942318,0.09695331012558621,40.106058693909645,-96.25519929585457,76.200527287817
2024-09-23 16:23:22.465075,43.97,34.848826,-0.0033329230534799477,-0.022982261414192504,0.09710254654607277,44.11764879391193,-96.25519929585457,76.200527287817
2024-09-23 16:23:22.476891,43.97,34.848826,-0.0033329230534799477,-0.022982261414192504,0.09710254654607277,44.11764879391193,-92.24360919585227,76.200527287817
2024-09-23 16:23:22.510024,43.97,34.848877,-0.003482159473966507,-0.022982261414192504,0.09710254654607277,44.11764879391193,-92.24360919585227,80.21211738781929
2024-09-23 16:23:22.521698,43.97,34.848877,-0.003482159473966507,-0.02362894446842532,0.09695331012558621,52.137550501942634,-92.24360919585227,80.21211738781929
2024-09-23 16:23:22.565043,43.97,34.848927,-0.003780631555451287,-0.022982261414192504,0.09695331012558621,52.137550501942634,-96.25519929585457,72.1922225099802
2024-09-23 16:23:22.607411,43.97,34.848927,-0.003780631555451287,-0.022982261414192504,0.09695331012558621,44.11764879391193,-96.25519929585457,80.21211738781929
2024-09-23 16:23:22.618813,43.97,34.84902,-0.002636491424507565,-0.02308174982955575,0.09695331012558621,44.11764879391193,-96.25519929585457,80.21211738781929
2024-09-23 16:23:22.661673,43.97,34.849071,-0.0024872551938930902,-0.02308174982955575,0.09665483728461309,44.11764879391193,-100.26678939585686,72.1922225099802
2024-09-23 16:23:22.704472,43.97,34.849071,-0.0024872551938930902,-0.023429960042815445,0.0973015264147526,32.08287849390507,-100.26678939585686,72.1922225099802
2024-09-23 16:23:22.715371,43.97,34.849164,-0.0024872551938930902,-0.023429960042815445,0.0973015264147526,32.08287849390507,-92.24360919585227,80.21211738781929
2024-09-23 16:23:22.757666,43.97,34.849164,-0.0028852147413806935,-0.023230986250042305,0.09755024973162574,28.07457030097246,-96.25519929585457,80.21211738781929
2024-09-23 16:23:22.800969,43.97,34.849217,-0.0031339382481259063,-0.023230986250042305,0.09755024973162574,28.07457030097246,-96.25519929585457,80.21211738781929
2024-09-23 16:23:22.812501,43.97,34.849217,-0.0031339382481259063,-0.02352945757203875,0.09750050628343246,24.06297849342227,-104.27510100388527,80.21211738781929
2024-09-23 16:23:22.855182,43.97,34.849267,-0.0029847020175114316,-0.023280723622328886,0.0970030596496862,36.09446859390736,-104.27510100388527,72.1922225099802
2024-09-23 16:23:22.898487,43.97,34.849267,-0.0029847020175114316,-0.023280723622328886,0.0970030596496862,36.09446859390736,-100.26678939585686,80.21211738781929
2024-09-23 16:23:22.910167,43.97,34.849318,-0.0029847020175114316,-0.022982261414192504,0.09720203344245934,36.09446859390736,-100.26678939585686,80.21211738781929
2024-09-23 16:23:22.953004,43.97,34.849369,-0.0029847020175114316,-0.022982261414192504,0.09720203344245934,36.09446859390736,-100.26678939585686,80.21211738781929
2024-09-23 16:23:22.995225,43.97,34.849369,-0.0027359787006383035,-0.02313149783467906,0.09720203344245934,36.09446859390736,-100.26678939585686,80.21211738781929
2024-09-23 16:23:23.006844,43.97,34.849369,-0.0027359787006383035,-0.02313149783467906,0.09715228999426605,32.08287849390507,-104.27510100388527,76.200527287817
2024-09-23 16:23:23.049631,43.97,34.849419,-0.0030841997366068195,-0.02338022115155219,0.09720203344245934,44.11764879391193,-104.27510100388527,76.200527287817
2024-09-23 16:23:23.061431,43.97,34.849419,-0.0030841997366068195,-0.02338022115155219,0.09720203344245934,44.11764879391193,-92.24360919585227,76.200527287817
2024-09-23 16:23:23.093264,43.97,34.849506,-0.0030841997366068195,-0.02338022115155219,0.09720203344245934,44.11764879391193,-92.24360919585227,76.200527287817
2024-09-23 16:23:23.105139,43.97,34.849506,-0.002636491424507565,-0.02308174982955575,0.09750050628343246,40.106058693909645,-92.24360919585227,76.200527287817
2024-09-23 16:23:23.147807,43.34,34.849557,-0.0029349636958644295,-0.023479709566915436,0.09640611396773996,40.106058693909645,-104.27510100388527,80.21211738781929
2024-09-23 16:23:23.190233,43.34,34.849557,-0.0029349636958644295,-0.023479709566915436,0.09640611396773996,36.09446859390736,-104.27510100388527,80.21211738781929
2024-09-23 16:23:23.201936,43.34,34.849608,-0.0033329230534799477,-0.02313149783467906,0.09640611396773996,36.09446859390736,-104.27510100388527,80.21211738781929
2024-09-23 16:23:23.244428,43.34,34.849658,-0.0033329230534799477,-0.02313149783467906,0.09680407370509965,36.09446859390736,-96.25519929585457,76.200527287817
2024-09-23 16:23:23.256736,43.34,34.849658,-0.0029847020175114316,-0.02313149783467906,0.09680407370509965,36.09446859390736,-96.25519929585457,76.200527287817
2024-09-23 16:23:23.289973,43.34,34.849658,-0.0029847020175114316,-0.023429960042815445,0.09725178296655933,40.106058693909645,-96.25519929585457,76.200527287817
2024-09-23 16:23:23.301060,43.34,34.849749,-0.0029847020175114316,-0.023429960042815445,0.09725178296655933,40.106058693909645,-100.26678939585686,80.21211738781929
2024-09-23 16:23:23.343738,43.34,34.849749,-0.0028354659767690416,-0.02362894446842532,0.09690356060148622,40.106058693909645,-96.25519929585457,76.200527287817
2024-09-23 16:23:23.385324,43.34,34.849801,-0.0025369937054121774,-0.02362894446842532,0.09690356060148622,40.106058693909645,-96.25519929585457,76.200527287817
2024-09-23 16:23:23.396838,43.34,34.849801,-0.0025369937054121774,-0.02293251340906919,0.09705279702197278,32.08287849390507,-104.27510100388527,76.200527287817
2024-09-23 16:23:23.439491,43.34,34.849852,-0.0033329230534799477,-0.02308174982955575,0.09750050628343246,32.08287849390507,-104.27510100388527,80.21211738781929
2024-09-23 16:23:23.451419,43.34,34.849852,-0.0033329230534799477,-0.02308174982955575,0.09750050628343246,32.08287849390507,-104.27510100388527,80.21211738781929
2024-09-23 16:23:23.483366,43.34,34.849852,-0.0033329230534799477,-0.02308174982955575,0.09750050628343246,32.08287849390507,-96.25519929585457,88.23529758782387
2024-09-23 16:23:23.494618,43.34,34.849902,-0.0028354659767690416,-0.02362894446842532,0.09680407370509965,32.08287849390507,-96.25519929585457,88.23529758782387
2024-09-23 16:23:23.537187,43.34,34.849953,-0.0033329230534799477,-0.02362894446842532,0.09680407370509965,36.09446859390736,-100.26678939585686,84.22370748782159
2024-09-23 16:23:23.549021,43.34,34.849953,-0.0033329230534799477,-0.023181236725942318,0.09680407370509965,36.09446859390736,-100.26678939585686,84.22370748782159
2024-09-23 16:23:23.580672,43.34,34.849953,-0.0033329230534799477,-0.023181236725942318,0.09695331012558621,40.106058693909645,-100.26678939585686,84.22370748782159
2024-09-23 16:23:23.592557,43.34,34.850004,-0.0028852147413806935,-0.023181236725942318,0.09695331012558621,40.106058693909645,-92.24360919585227,84.22370748782159
2024-09-23 16:23:23.634981,43.34,34.850004,-0.0028852147413806935,-0.023927417309398437,0.0973015264147526,36.09446859390736,-100.26678939585686,84.22370748782159
2024-09-23 16:23:23.647372,43.34,34.850091,-0.0028852147413806935,-0.023927417309398437,0.0973015264147526,36.09446859390736,-100.26678939585686,84.22370748782159
2024-09-23 16:23:23.680301,43.34,34.850091,-0.002636491424507565,-0.023280723622328886,0.09705279702197278,36.09446859390736,-100.26678939585686,84.22370748782159
2024-09-23 16:23:23.692403,43.34,34.850091,-0.002636491424507565,-0.023280723622328886,0.09705279702197278,44.11764879391193,-100.26678939585686,80.21211738781929
2024-09-23 16:23:23.724697,43.34,34.850143,-0.002636491424507565,-0.023280723622328886,0.09705279702197278,44.11764879391193,-100.26678939585686,80.21211738781929
2024-09-23 16:23:23.735759,43.34,34.850143,-0.0028852147413806935,-0.02313149783467906,0.09725178296655933,40.106058693909645,-92.24360919585227,80.21211738781929
2024-09-23 16:23:23.778287,43.34,34.850193,-0.0030841997366068195,-0.023479709566915436,0.09725178296655933,40.106058693909645,-92.24360919585227,80.21211738781929
2024-09-23 16:23:23.789754,43.34,34.850193,-0.0030841997366068195,-0.023479709566915436,0.09759999317981902,40.106058693909645,-92.24360919585227,80.21211738781929
2024-09-23 16:23:23.832689,43.34,34.850244,-0.0034324103296106863,-0.02338022115155219,0.09715228999426605,40.106058693909645,-92.24360919585227,80.21211738781929
2024-09-23 16:23:23.874614,43.34,34.850244,-0.0034324103296106863,-0.02338022115155219,0.09715228999426605,36.09446859390736,-108.28669110388756,76.200527287817
2024-09-23 16:23:23.886150,43.34,34.850295,-0.0029847020175114316,-0.023429960042815445,0.09715228999426605,36.09446859390736,-108.28669110388756,76.200527287817
2024-09-23 16:23:23.928597,43.34,34.850346,-0.0037308827908396356,-0.023429960042815445,0.09740101331113918,36.09446859390736,-104.27510100388527,80.21211738781929
2024-09-23 16:23:23.970378,43.34,34.850346,-0.0037308827908396356,-0.023230986250042305,0.09725178296655933,36.09446859390736,-104.27510100388527,80.21211738781929
2024-09-23 16:23:23.981851,43.34,34.850432,-0.0037308827908396356,-0.023230986250042305,0.09725178296655933,36.09446859390736,-96.25519929585457,76.200527287817
2024-09-23 16:23:24.024997,43.34,34.850432,-0.0029847020175114316,-0.02352945757203875,0.09774922960030558,52.137550501942634,-96.25519929585457,80.21211738781929
2024-09-23 16:23:24.067688,43.34,34.850483,-0.0029349636958644295,-0.02352945757203875,0.09774922960030558,52.137550501942634,-96.25519929585457,80.21211738781929
2024-09-23 16:23:24.079306,43.34,34.850483,-0.0029349636958644295,-0.0228827638849692,0.09695331012558621,44.11764879391193,-104.27510100388527,80.21211738781929
2024-09-23 16:23:24.121170,43.34,34.850534,-0.0030841997366068195,-0.023181236725942318,0.09690356060148622,44.11764879391193,-104.27510100388527,80.21211738781929
2024-09-23 16:23:24.133355,43.34,34.850534,-0.0030841997366068195,-0.023181236725942318,0.09690356060148622,24.06297849342227,-104.27510100388527,80.21211738781929
2024-09-23 16:23:24.166037,43.48,34.850534,-0.0030841997366068195,-0.023181236725942318,0.09690356060148622,24.06297849342227,-100.26678939585686,80.21211738781929
2024-09-23 16:23:24.177568,43.48,34.850585,-0.0030344509719951677,-0.02308174982955575,0.09710254654607277,24.06297849342227,-100.26678939585686,80.21211738781929
2024-09-23 16:23:24.220430,43.48,34.850635,-0.0032831742888682963,-0.0225345536717095,0.09710254654607277,36.09446859390736,-104.27510100388527,80.21211738781929
2024-09-23 16:23:24.263058,43.48,34.850635,-0.0032831742888682963,-0.0225345536717095,0.0970030596496862,36.09446859390736,-104.27510100388527,80.21211738781929
2024-09-23 16:23:24.274549,43.48,34.850686,-0.0031836870127375577,-0.0225345536717095,0.0970030596496862,36.09446859390736,-100.26678939585686,84.22370748782159
2024-09-23 16:23:24.316990,43.48,34.850686,-0.0031836870127375577,-0.02303200030545576,0.09740101331113918,40.106058693909645,-96.25519929585457,84.22370748782159
2024-09-23 16:23:24.329054,43.48,34.850773,-0.0031836870127375577,-0.02303200030545576,0.09740101331113918,40.106058693909645,-96.25519929585457,84.22370748782159
2024-09-23 16:23:24.360636,43.48,34.850773,-0.0029349636958644295,-0.02313149783467906,0.09740101331113918,40.106058693909645,-96.25519929585457,84.22370748782159
2024-09-23 16:23:24.371906,43.48,34.850773,-0.0029349636958644295,-0.02313149783467906,0.09720203344245934,44.11764879391193,-92.24360919585227,76.200527287817
2024-09-23 16:23:24.414488,43.48,34.850825,-0.0028852147413806935,-0.02308174982955575,0.09710254654607277,44.11764879391193,-92.24360919585227,76.200527287817
2024-09-23 16:23:24.426667,43.48,34.850825,-0.0028852147413806935,-0.02308174982955575,0.09710254654607277,44.11764879391193,-92.24360919585227,76.200527287817
2024-09-23 16:23:24.458856,43.48,34.850875,-0.0029847020175114316,-0.02308174982955575,0.09710254654607277,44.11764879391193,-92.24360919585227,84.22370748782159
2024-09-23 16:23:24.470029,43.48,34.850875,-0.0029847020175114316,-0.023429960042815445,0.09715228999426605,40.106058693909645,-92.24360919585227,84.22370748782159
2024-09-23 16:23:24.511777,43.48,34.850926,-0.0029847020175114316,-0.023230986250042305,0.09715228999426605,40.106058693909645,-96.25519929585457,76.200527287817
2024-09-23 16:23:24.523645,43.48,34.850926,-0.0029847020175114316,-0.023230986250042305,0.09764974270391902,40.106058693909645,-96.25519929585457,76.200527287817
2024-09-23 16:23:24.555773,43.48,34.850926,-0.0029847020175114316,-0.023230986250042305,0.09764974270391902,36.09446859390736,-100.26678939585686,76.200527287817
2024-09-23 16:23:24.567316,43.48,34.850977,-0.0024872551938930902,-0.023579196463302005,0.09764974270391902,36.09446859390736,-100.26678939585686,72.1922225099802
2024-09-23 16:23:24.609010,43.48,34.851028,-0.0024872551938930902,-0.023579196463302005,0.09774922960030558,40.106058693909645,-100.26678939585686,76.200527287817
2024-09-23 16:23:24.620739,43.48,34.851028,-0.003382661564999035,-0.023579196463302005,0.09774922960030558,40.106058693909645,-100.26678939585686,76.200527287817
2024-09-23 16:23:24.653335,43.48,34.851028,-0.003382661564999035,-0.023479709566915436,0.09774922960030558,40.106058693909645,-100.26678939585686,76.200527287817
2024-09-23 16:23:24.665278,43.48,34.851114,-0.003382661564999035,-0.023479709566915436,0.09715228999426605,36.09446859390736,-104.27510100388527,84.22370748782159
2024-09-23 16:23:24.707649,43.48,34.851114,-0.0032831742888682963,-0.02308174982955575,0.09710254654607277,36.09446859390736,-104.27510100388527,84.22370748782159
2024-09-23 16:23:24.719054,43.48,34.851114,-0.0032831742888682963,-0.02308174982955575,0.09710254654607277,36.09446859390736,-100.26678939585686,76.200527287817
2024-09-23 16:23:24.751988,43.48,34.851166,-0.0028852147413806935,-0.023479709566915436,0.09710254654607277,36.09446859390736,-100.26678939585686,76.200527287817
2024-09-23 16:23:24.763741,43.48,34.851166,-0.0028852147413806935,-0.023479709566915436,0.09740101331113918,40.106058693909645,-96.25519929585457,76.200527287817
2024-09-23 16:23:24.806617,43.48,34.851217,-0.0037308827908396356,-0.02278327698858263,0.09680407370509965,40.106058693909645,-96.25519929585457,76.200527287817
2024-09-23 16:23:24.848316,43.48,34.851217,-0.0037308827908396356,-0.02278327698858263,0.09680407370509965,40.106058693909645,-100.26678939585686,80.21211738781929
2024-09-23 16:23:24.859477,43.48,34.851267,-0.0024872551938930902,-0.022982261414192504,0.09740101331113918,40.106058693909645,-100.26678939585686,80.21211738781929
2024-09-23 16:23:24.902098,43.48,34.851318,-0.0028354659767690416,-0.022982261414192504,0.09740101331113918,36.09446859390736,-96.25519929585457,76.200527287817
2024-09-23 16:23:24.914045,43.48,34.851318,-0.0028354659767690416,-0.023479709566915436,0.09740101331113918,36.09446859390736,-96.25519929585457,76.200527287817
2024-09-23 16:23:24.945761,43.48,34.851318,-0.0028354659767690416,-0.023479709566915436,0.0973512698629459,40.106058693909645,-96.25519929585457,76.200527287817
2024-09-23 16:23:24.957357,43.48,34.851369,-0.0024872551938930902,-0.023479709566915436,0.0973512698629459,40.106058693909645,-104.27510100388527,76.200527287817
2024-09-23 16:23:25.000355,43.48,34.851456,-0.0024872551938930902,-0.02338022115155219,0.09750050628343246,40.106058693909645,-104.27510100388527,72.1922225099802
2024-09-23 16:23:25.043223,43.48,34.851456,-0.003482159473966507,-0.02313149783467906,0.09750050628343246,40.106058693909645,-104.27510100388527,72.1922225099802
2024-09-23 16:23:25.055124,43.48,34.851456,-0.003482159473966507,-0.02313149783467906,0.09715228999426605,36.09446859390736,-100.26678939585686,76.200527287817
2024-09-23 16:23:25.097252,43.48,34.851507,-0.0035318979854855937,-0.02338022115155219,0.09720203344245934,40.106058693909645,-100.26678939585686,76.200527287817
2024-09-23 16:23:25.109550,43.48,34.851507,-0.0035318979854855937,-0.02338022115155219,0.09720203344245934,40.106058693909645,-84.22370748782159,76.200527287817
2024-09-23 16:23:25.142578,43.48,34.851558,-0.0028852147413806935,-0.02338022115155219,0.09720203344245934,40.106058693909645,-84.22370748782159,88.23529758782387
2024-09-23 16:23:25.153937,43.48,34.851558,-0.0028852147413806935,-0.023230986250042305,0.09695331012558621,40.106058693909645,-84.22370748782159,88.23529758782387
2024-09-23 16:23:25.195999,43.79,34.851609,-0.0034324103296106863,-0.02313149783467906,0.0973512698629459,40.106058693909645,-88.23529758782387,80.21211738781929
2024-09-23 16:23:25.238340,43.79,34.851609,-0.0034324103296106863,-0.02313149783467906,0.0973512698629459,28.07457030097246,-96.25519929585457,80.21211738781929
2024-09-23 16:23:25.249913,43.79,34.851659,-0.0035318979854855937,-0.0228827638849692,0.0973512698629459,28.07457030097246,-96.25519929585457,80.21211738781929
2024-09-23 16:23:25.292770,43.79,34.85171,-0.003482159473966507,-0.0228827638849692,0.09680407370509965,40.106058693909645,-92.24360919585227,84.22370748782159
2024-09-23 16:23:25.335818,43.79,34.85171,-0.003482159473966507,-0.02352945757203875,0.09710254654607277,40.106058693909645,-92.24360919585227,84.22370748782159
2024-09-23 16:23:25.347480,43.79,34.851797,-0.003482159473966507,-0.02352945757203875,0.09710254654607277,36.09446859390736,-92.24360919585227,76.200527287817
2024-09-23 16:23:25.391473,43.79,34.851797,-0.0029847020175114316,-0.023728432883788564,0.09755024973162574,28.07457030097246,-100.26678939585686,84.22370748782159
2024-09-23 16:23:25.434060,43.79,34.851848,-0.0029847020175114316,-0.023728432883788564,0.09755024973162574,28.07457030097246,-100.26678939585686,84.22370748782159
2024-09-23 16:23:25.486794,43.79,34.851848,-0.003631395514708897,-0.022982261414192504,0.09720203344245934,36.09446859390736,-100.26678939585686,84.22370748782159
2024-09-23 16:23:25.498958,43.79,34.851848,-0.003631395514708897,-0.022982261414192504,0.09720203344245934,36.09446859390736,-100.26678939585686,80.21211738781929
2024-09-23 16:23:25.530950,43.79,34.851899,-0.003382661564999035,-0.022982261414192504,0.09720203344245934,36.09446859390736,-100.26678939585686,80.21211738781929
2024-09-23 16:23:25.542159,43.79,34.851899,-0.003382661564999035,-0.02303200030545576,0.09745075675933246,40.106058693909645,-104.27510100388527,80.21211738781929
2024-09-23 16:23:25.585174,43.79,34.85195,-0.0027359787006383035,-0.022982261414192504,0.09750050628343246,36.09446859390736,-104.27510100388527,76.200527287817
2024-09-23 16:23:25.628296,43.79,34.85195,-0.0027359787006383035,-0.022982261414192504,0.09750050628343246,36.09446859390736,-104.27510100388527,76.200527287817
2024-09-23 16:23:25.639750,43.79,34.852,-0.0027359787006383035,-0.022833026512682618,0.09665483728461309,36.09446859390736,-104.27510100388527,76.200527287817
2024-09-23 16:23:25.682543,43.79,34.852051,-0.0034324103296106863,-0.022833026512682618,0.09665483728461309,44.11764879391193,-92.24360919585227,84.22370748782159
2024-09-23 16:23:25.694252,43.79,34.852051,-0.0034324103296106863,-0.023479709566915436,0.09665483728461309,44.11764879391193,-92.24360919585227,84.22370748782159
2024-09-23 16:23:25.726500,43.79,34.852051,-0.0034324103296106863,-0.023479709566915436,0.09645586349183995,40.106058693909645,-92.24360919585227,84.22370748782159
2024-09-23 16:23:25.737714,43.79,34.852141,-0.003382661564999035,-0.023479709566915436,0.09645586349183995,40.106058693909645,-100.26678939585686,80.21211738781929
2024-09-23 16:23:25.780675,43.79,34.852236,-0.003382661564999035,-0.02303200030545576,0.09675432418099966,40.106058693909645,-92.24360919585227,80.21211738781929
2024-09-23 16:23:25.823234,43.79,34.852236,-0.0024872551938930902,-0.023230986250042305,0.09675432418099966,40.106058693909645,-92.24360919585227,80.21211738781929
2024-09-23 16:23:25.834434,43.79,34.852236,-0.0024872551938930902,-0.023230986250042305,0.0973512698629459,40.106058693909645,-92.24360919585227,88.23529758782387
2024-09-23 16:23:25.876679,43.79,34.852287,-0.0030344509719951677,-0.02293251340906919,0.09745075675933246,36.09446859390736,-92.24360919585227,88.23529758782387
2024-09-23 16:23:25.888883,43.79,34.852287,-0.0030344509719951677,-0.02293251340906919,0.09745075675933246,36.09446859390736,-92.24360919585227,88.23529758782387
2024-09-23 16:23:25.920997,43.79,34.852338,-0.0030344509719951677,-0.02293251340906919,0.09745075675933246,36.09446859390736,-92.24360919585227,84.22370748782159
2024-09-23 16:23:25.932018,43.79,34.852338,-0.003631395514708897,-0.02308174982955575,0.09680407370509965,40.106058693909645,-92.24360919585227,84.22370748782159
2024-09-23 16:23:25.974159,43.79,34.852389,-0.0019897979273100995,-0.023927417309398437,0.09680407370509965,40.106058693909645,-100.26678939585686,84.22370748782159
2024-09-23 16:23:25.986061,43.79,34.852389,-0.0019897979273100995,-0.023927417309398437,0.09715228999426605,40.106058693909645,-100.26678939585686,84.22370748782159
2024-09-23 16:23:26.018003,43.79,34.852389,-0.0019897979273100995,-0.023927417309398437,0.09715228999426605,28.07457030097246,-96.25519929585457,84.22370748782159
2024-09-23 16:23:26.029402,43.79,34.852439,-0.003382661564999035,-0.023181236725942318,0.09715228999426605,28.07457030097246,-96.25519929585457,84.22370748782159
2024-09-23 16:23:26.071226,43.79,34.85249,-0.003382661564999035,-0.023181236725942318,0.09799795899308542,36.09446859390736,-100.26678939585686,72.1922225099802
2024-09-23 16:23:26.082748,43.79,34.85249,-0.0030344509719951677,-0.023181236725942318,0.09799795899308542,36.09446859390736,-100.26678939585686,72.1922225099802
2024-09-23 16:23:26.115696,43.79,34.85249,-0.0030344509719951677,-0.02367869399252531,0.0973015264147526,36.09446859390736,-100.26678939585686,72.1922225099802
2024-09-23 16:23:26.127485,43.79,34.852577,-0.0030344509719951677,-0.02367869399252531,0.0973015264147526,40.106058693909645,-100.26678939585686,76.200527287817
2024-09-23 16:23:26.170413,43.79,34.852577,-0.0031339382481259063,-0.023230986250042305,0.09665483728461309,36.09446859390736,-100.26678939585686,76.200527287817
2024-09-23 16:23:26.212945,43.6,34.852628,-0.0031339382481259063,-0.023230986250042305,0.09665483728461309,36.09446859390736,-100.26678939585686,76.200527287817
2024-09-23 16:23:26.265118,43.6,34.852628,-0.0030841997366068195,-0.02293251340906919,0.09670458680871308,36.09446859390736,-100.26678939585686,76.200527287817
2024-09-23 16:23:26.277206,43.6,34.852628,-0.0030841997366068195,-0.02293251340906919,0.09670458680871308,36.09446859390736,-104.27510100388527,76.200527287817
2024-09-23 16:23:26.309849,43.6,34.852679,-0.0030841997366068195,-0.02293251340906919,0.09670458680871308,36.09446859390736,-104.27510100388527,76.200527287817
2024-09-23 16:23:26.321167,43.6,34.852679,-0.0028852147413806935,-0.02367869399252531,0.0976994861521123,28.07457030097246,-104.27510100388527,76.200527287817
2024-09-23 16:23:26.364906,43.6,34.85273,-0.0029349636958644295,-0.0228827638849692,0.0976994861521123,28.07457030097246,-104.27510100388527,76.200527287817
2024-09-23 16:23:26.376064,43.6,34.85273,-0.0029349636958644295,-0.0228827638849692,0.09665483728461309,36.09446859390736,-104.27510100388527,76.200527287817
2024-09-23 16:23:26.409063,43.6,34.85278,-0.0029349636958644295,-0.0228827638849692,0.09665483728461309,36.09446859390736,-108.28669110388756,80.21211738781929
2024-09-23 16:23:26.420282,43.6,34.85278,-0.0028354659767690416,-0.02268379009219606,0.09705279702197278,36.09446859390736,-108.28669110388756,80.21211738781929
2024-09-23 16:23:26.462604,43.6,34.852831,-0.0028354659767690416,-0.02268379009219606,0.09705279702197278,48.12595698684454,-92.24360919585227,84.22370748782159
2024-09-23 16:23:26.474559,43.6,34.852831,-0.0028354659767690416,-0.02303200030545576,0.09705279702197278,48.12595698684454,-92.24360919585227,84.22370748782159
2024-09-23 16:23:26.508171,43.6,34.852831,-0.0028354659767690416,-0.02303200030545576,0.09690356060148622,40.106058693909645,-92.24360919585227,84.22370748782159
2024-09-23 16:23:26.521922,43.6,34.852921,-0.0029847020175114316,-0.02303200030545576,0.09690356060148622,40.106058693909645,-92.24360919585227,80.21211738781929
2024-09-23 16:23:26.554154,43.6,34.852921,-0.0029847020175114316,-0.022982261414192504,0.09685382322919964,40.106058693909645,-92.24360919585227,80.21211738781929
2024-09-23 16:23:26.565414,43.6,34.853016,-0.0029847020175114316,-0.022982261414192504,0.09685382322919964,32.08287849390507,-100.26678939585686,80.21211738781929
2024-09-23 16:23:26.607823,43.6,34.853016,-0.0028852147413806935,-0.02308174982955575,0.09705279702197278,44.11764879391193,-104.27510100388527,80.21211738781929
2024-09-23 16:23:26.618707,43.6,34.853016,-0.0028852147413806935,-0.02308174982955575,0.09705279702197278,44.11764879391193,-104.27510100388527,76.200527287817
2024-09-23 16:23:26.651289,43.6,34.853067,-0.0028852147413806935,-0.02308174982955575,0.09705279702197278,44.11764879391193,-104.27510100388527,76.200527287817
2024-09-23 16:23:26.662493,43.6,34.853067,-0.0028852147413806935,-0.02303200030545576,0.09745075675933246,36.09446859390736,-104.27510100388527,76.200527287817
2024-09-23 16:23:26.704891,43.6,34.853118,-0.0028354659767690416,-0.023429960042815445,0.09740101331113918,36.09446859390736,-104.27510100388527,80.21211738781929
2024-09-23 16:23:26.716839,43.6,34.853118,-0.0028354659767690416,-0.023429960042815445,0.09740101331113918,24.06297849342227,-104.27510100388527,80.21211738781929
2024-09-23 16:23:26.749769,43.6,34.853118,-0.0028354659767690416,-0.023429960042815445,0.09740101331113918,24.06297849342227,-104.27510100388527,80.21211738781929
2024-09-23 16:23:26.761899,43.6,34.853169,-0.0030841997366068195,-0.022733528983459317,0.09685382322919964,24.06297849342227,-104.27510100388527,80.21211738781929
2024-09-23 16:23:26.804601,43.6,34.853219,-0.0034324103296106863,-0.02268379009219606,0.09685382322919964,36.09446859390736,-88.23529758782387,88.23529758782387
2024-09-23 16:23:26.846938,43.6,34.853219,-0.0034324103296106863,-0.02268379009219606,0.09759999317981902,48.12595698684454,-88.23529758782387,88.23529758782387
2024-09-23 16:23:26.858360,43.6,34.85327,-0.0028852147413806935,-0.02268379009219606,0.09759999317981902,48.12595698684454,-92.24360919585227,76.200527287817
2024-09-23 16:23:26.900945,43.6,34.85327,-0.0028852147413806935,-0.023728432883788564,0.09755024973162574,44.11764879391193,-100.26678939585686,80.21211738781929
2024-09-23 16:23:26.912873,43.6,34.853357,-0.0028852147413806935,-0.023728432883788564,0.09755024973162574,44.11764879391193,-100.26678939585686,80.21211738781929
2024-09-23 16:23:26.945162,43.6,34.853357,-0.0029349636958644295,-0.023479709566915436,0.09725178296655933,44.11764879391193,-100.26678939585686,80.21211738781929
2024-09-23 16:23:26.956895,43.6,34.853357,-0.0029349636958644295,-0.023479709566915436,0.09725178296655933,44.11764879391193,-100.26678939585686,80.21211738781929
2024-09-23 16:23:26.999216,43.6,34.853408,-0.0028354659767690416,-0.02338022115155219,0.09764974270391902,44.11764879391193,-96.25519929585457,80.21211738781929
2024-09-23 16:23:27.042169,43.6,34.853459,-0.0028354659767690416,-0.02338022115155219,0.09764974270391902,44.11764879391193,-96.25519929585457,80.21211738781929
2024-09-23 16:23:27.053941,43.6,34.853459,-0.002636491424507565,-0.02313149783467906,0.09755024973162574,44.11764879391193,-96.25519929585457,80.21211738781929
2024-09-23 16:23:27.095875,43.6,34.85351,-0.0033329230534799477,-0.0228827638849692,0.09755024973162574,44.11764879391193,-96.25519929585457,80.21211738781929
2024-09-23 16:23:27.108300,43.6,34.85351,-0.0033329230534799477,-0.0228827638849692,0.09705279702197278,44.11764879391193,-96.25519929585457,80.21211738781929
2024-09-23 16:23:27.142305,43.6,34.85351,-0.0033329230534799477,-0.0228827638849692,0.09705279702197278,40.106058693909645,-92.24360919585227,80.21211738781929
2024-09-23 16:23:27.154064,43.6,34.85356,-0.0031836870127375577,-0.023230986250042305,0.09705279702197278,40.106058693909645,-92.24360919585227,80.21211738781929
2024-09-23 16:23:27.186260,43.6,34.85356,-0.0031836870127375577,-0.023230986250042305,0.09655535038822652,40.106058693909645,-92.24360919585227,80.21211738781929
2024-09-23 16:23:27.198093,43.6,34.853611,-0.0032831742888682963,-0.023230986250042305,0.09655535038822652,48.12595698684454,-92.24360919585227,80.21211738781929
2024-09-23 16:23:27.240913,43.84,34.853611,-0.0032831742888682963,-0.02367869399252531,0.09789846602079214,28.07457030097246,-100.26678939585686,84.22370748782159
2024-09-23 16:23:27.252935,43.84,34.853698,-0.0032831742888682963,-0.02367869399252531,0.09789846602079214,28.07457030097246,-100.26678939585686,84.22370748782159
2024-09-23 16:23:27.285227,43.84,34.853698,-0.003233425524256645,-0.0228827638849692,0.09789846602079214,28.07457030097246,-100.26678939585686,84.22370748782159
2024-09-23 16:23:27.296546,43.84,34.853698,-0.003233425524256645,-0.0228827638849692,0.09670458680871308,32.08287849390507,-92.24360919585227,84.22370748782159
2024-09-23 16:23:27.338943,43.84,34.85375,-0.003382661564999035,-0.02293251340906919,0.0970030596496862,32.08287849390507,-92.24360919585227,84.22370748782159
2024-09-23 16:23:27.351308,43.84,34.85375,-0.003382661564999035,-0.02293251340906919,0.0970030596496862,36.09446859390736,-100.26678939585686,84.22370748782159
2024-09-23 16:23:27.384050,43.84,34.8538,-0.003382661564999035,-0.02293251340906919,0.0970030596496862,36.09446859390736,-100.26678939585686,76.200527287817
2024-09-23 16:23:27.395884,43.84,34.8538,-0.002586742470023829,-0.02352945757203875,0.09745075675933246,36.09446859390736,-100.26678939585686,76.200527287817
2024-09-23 16:23:27.439048,43.84,34.853851,-0.0028852147413806935,-0.02313149783467906,0.09725178296655933,36.09446859390736,-100.26678939585686,76.200527287817
2024-09-23 16:23:27.481724,43.84,34.853851,-0.0028852147413806935,-0.02313149783467906,0.09725178296655933,40.106058693909645,-92.24360919585227,84.22370748782159
2024-09-23 16:23:27.493910,43.84,34.853902,-0.0030841997366068195,-0.02293251340906919,0.09725178296655933,40.106058693909645,-92.24360919585227,84.22370748782159
2024-09-23 16:23:27.538172,43.84,34.853952,-0.002785727465249955,-0.02293251340906919,0.09720203344245934,36.09446859390736,-108.28669110388756,76.200527287817
2024-09-23 16:23:27.581597,43.84,34.853952,-0.002785727465249955,-0.023181236725942318,0.09720203344245934,32.08287849390507,-108.28669110388756,76.200527287817
2024-09-23 16:23:27.593139,43.84,34.854039,-0.002785727465249955,-0.023181236725942318,0.09720203344245934,32.08287849390507,-104.27510100388527,72.1922225099802
2024-09-23 16:23:27.627180,43.84,34.854039,-0.0035816467500972456,-0.02338022115155219,0.09720203344245934,32.08287849390507,-104.27510100388527,72.1922225099802
2024-09-23 16:23:27.638121,43.84,34.854039,-0.0035816467500972456,-0.02338022115155219,0.0976994861521123,32.08287849390507,-92.24360919585227,84.22370748782159
2024-09-23 16:23:27.680189,43.84,34.854091,-0.0031836870127375577,-0.023280723622328886,0.09750050628343246,48.12595698684454,-92.24360919585227,84.22370748782159
2024-09-23 16:23:27.691764,43.84,34.854091,-0.0031836870127375577,-0.023280723622328886,0.09750050628343246,48.12595698684454,-96.25519929585457,84.22370748782159
2024-09-23 16:23:27.723596,43.84,34.854091,-0.0031836870127375577,-0.023280723622328886,0.09750050628343246,48.12595698684454,-96.25519929585457,72.1922225099802
2024-09-23 16:23:27.735805,43.84,34.854142,-0.0032831742888682963,-0.02338022115155219,0.09720203344245934,36.09446859390736,-96.25519929585457,72.1922225099802
2024-09-23 16:23:27.778364,43.84,34.854192,-0.0024872551938930902,-0.02352945757203875,0.09720203344245934,36.09446859390736,-100.26678939585686,72.1922225099802
2024-09-23 16:23:27.790418,43.84,34.854192,-0.0024872551938930902,-0.02352945757203875,0.09740101331113918,36.09446859390736,-100.26678939585686,72.1922225099802
2024-09-23 16:23:27.821925,43.84,34.854192,-0.0024872551938930902,-0.02352945757203875,0.09740101331113918,32.08287849390507,-100.26678939585686,72.1922225099802
2024-09-23 16:23:27.833211,43.84,34.854243,-0.0031339382481259063,-0.023330473146428877,0.09740101331113918,32.08287849390507,-100.26678939585686,76.200527287817
2024-09-23 16:23:27.876429,43.84,34.854294,-0.0030344509719951677,-0.023330473146428877,0.09690356060148622,44.11764879391193,-96.25519929585457,76.200527287817
2024-09-23 16:23:27.919119,43.84,34.854294,-0.0030344509719951677,-0.023181236725942318,0.09705279702197278,44.11764879391193,-96.25519929585457,76.200527287817
2024-09-23 16:23:27.930075,43.84,34.854381,-0.0030344509719951677,-0.023181236725942318,0.09705279702197278,40.106058693909645,-96.25519929585457,76.200527287817
2024-09-23 16:23:27.972087,43.84,34.854381,-0.0026862297461545674,-0.02278327698858263,0.09710254654607277,32.08287849390507,-96.25519929585457,76.200527287817
2024-09-23 16:23:28.015670,43.84,34.854381,-0.0026862297461545674,-0.02278327698858263,0.09710254654607277,32.08287849390507,-100.26678939585686,76.200527287817
2024-09-23 16:23:28.027061,43.84,34.854432,-0.0023380189632786156,-0.023230986250042305,0.0973512698629459,32.08287849390507,-100.26678939585686,84.22370748782159
2024-09-23 16:23:28.070191,43.84,34.854483,-0.0028852147413806935,-0.023230986250042305,0.0973512698629459,28.07457030097246,-100.26678939585686,84.22370748782159
2024-09-23 16:23:28.081851,43.84,34.854483,-0.0028852147413806935,-0.02268379009219606,0.0973512698629459,28.07457030097246,-100.26678939585686,84.22370748782159
2024-09-23 16:23:28.114610,43.84,34.854483,-0.0028852147413806935,-0.02268379009219606,0.0970030596496862,28.07457030097246,-100.26678939585686,84.22370748782159
2024-09-23 16:23:28.126659,43.84,34.854534,-0.002785727465249955,-0.02268379009219606,0.0970030596496862,32.08287849390507,-100.26678939585686,84.22370748782159
2024-09-23 16:23:28.168832,43.84,34.854584,-0.002785727465249955,-0.023280723622328886,0.0973512698629459,36.09446859390736,-96.25519929585457,76.200527287817
2024-09-23 16:23:28.211280,43.84,34.854584,-0.0029349636958644295,-0.02338022115155219,0.0973512698629459,36.09446859390736,-96.25519929585457,76.200527287817
2024-09-23 16:23:28.222992,43.84,34.854584,-0.0029349636958644295,-0.02338022115155219,0.09715228999426605,36.09446859390736,-100.26678939585686,76.200527287817
2024-09-23 16:23:28.265482,43.94,34.854674,-0.0035816467500972456,-0.02352945757203875,0.09695331012558621,32.08287849390507,-100.26678939585686,76.200527287817
2024-09-23 16:23:28.277420,43.94,34.854674,-0.0035816467500972456,-0.02352945757203875,0.09695331012558621,32.08287849390507,-104.27510100388527,76.200527287817
2024-09-23 16:23:28.309461,43.94,34.854725,-0.0035816467500972456,-0.02352945757203875,0.09695331012558621,32.08287849390507,-104.27510100388527,84.22370748782159
2024-09-23 16:23:28.321407,43.94,34.854725,-0.0034324103296106863,-0.02367869399252531,0.0976994861521123,36.09446859390736,-104.27510100388527,84.22370748782159
2024-09-23 16:23:28.364805,43.94,34.854776,-0.0031836870127375577,-0.02338022115155219,0.09755024973162574,36.09446859390736,-100.26678939585686,76.200527287817
2024-09-23 16:23:28.406436,43.94,34.854776,-0.0031836870127375577,-0.02338022115155219,0.09755024973162574,36.09446859390736,-100.26678939585686,76.200527287817
2024-09-23 16:23:28.417984,43.94,34.854826,-0.0034324103296106863,-0.023728432883788564,0.09755024973162574,36.09446859390736,-100.26678939585686,80.21211738781929
2024-09-23 16:23:28.460940,43.94,34.854877,-0.0034324103296106863,-0.023728432883788564,0.09620712802315341,32.08287849390507,-88.23529758782387,88.23529758782387
2024-09-23 16:23:28.473239,43.94,34.854877,-0.0030344509719951677,-0.023728432883788564,0.09620712802315341,32.08287849390507,-88.23529758782387,88.23529758782387
2024-09-23 16:23:28.506161,43.94,34.854877,-0.0030344509719951677,-0.023330473146428877,0.09670458680871308,32.08287849390507,-88.23529758782387,88.23529758782387
2024-09-23 16:23:28.517776,43.94,34.854966,-0.0030344509719951677,-0.023330473146428877,0.09670458680871308,36.09446859390736,-88.23529758782387,84.22370748782159
2024-09-23 16:23:28.560419,43.94,34.854966,-0.0030344509719951677,-0.023479709566915436,0.09695331012558621,36.09446859390736,-88.23529758782387,84.22370748782159
2024-09-23 16:23:28.602189,43.94,34.854966,-0.0030344509719951677,-0.023479709566915436,0.09695331012558621,36.09446859390736,-96.25519929585457,84.22370748782159
2024-09-23 16:23:28.613651,43.94,34.855017,-0.0031836870127375577,-0.02352945757203875,0.09695331012558621,36.09446859390736,-96.25519929585457,88.23529758782387
2024-09-23 16:23:28.657078,43.94,34.855068,-0.0031836870127375577,-0.02352945757203875,0.09690356060148622,36.09446859390736,-96.25519929585457,76.200527287817
2024-09-23 16:23:28.668974,43.94,34.855068,-0.0032831742888682963,-0.02352945757203875,0.09690356060148622,36.09446859390736,-96.25519929585457,76.200527287817
2024-09-23 16:23:28.702533,43.94,34.855068,-0.0032831742888682963,-0.023479709566915436,0.0966050877605131,36.09446859390736,-96.25519929585457,76.200527287817
2024-09-23 16:23:28.714174,43.94,34.855119,-0.0032831742888682963,-0.023479709566915436,0.0966050877605131,36.09446859390736,-96.25519929585457,84.22370748782159
2024-09-23 16:23:28.746858,43.94,34.855119,-0.002636491424507565,-0.023479709566915436,0.0966050877605131,36.09446859390736,-96.25519929585457,84.22370748782159
2024-09-23 16:23:28.758367,43.94,34.855119,-0.002636491424507565,-0.023429960042815445,0.09750050628343246,40.106058693909645,-88.23529758782387,76.200527287817
2024-09-23 16:23:28.800576,43.94,34.855169,-0.0030841997366068195,-0.023181236725942318,0.09695331012558621,32.08287849390507,-88.23529758782387,76.200527287817
2024-09-23 16:23:28.812828,43.94,34.855169,-0.0030841997366068195,-0.023181236725942318,0.09695331012558621,32.08287849390507,-100.26678939585686,76.200527287817
2024-09-23 16:23:28.846112,43.94,34.855259,-0.0030841997366068195,-0.023181236725942318,0.09695331012558621,32.08287849390507,-100.26678939585686,80.21211738781929
2024-09-23 16:23:28.857649,43.94,34.855259,-0.0029847020175114316,-0.02303200030545576,0.09675432418099966,36.09446859390736,-100.26678939585686,80.21211738781929
2024-09-23 16:23:28.900088,43.94,34.85531,-0.0028852147413806935,-0.023429960042815445,0.0973015264147526,36.09446859390736,-92.24360919585227,76.200527287817
2024-09-23 16:23:28.942562,43.94,34.85531,-0.0028852147413806935,-0.023429960042815445,0.0973015264147526,44.11764879391193,-92.24360919585227,76.200527287817
2024-09-23 16:23:28.954649,43.94,34.855361,-0.0029847020175114316,-0.023579196463302005,0.0973015264147526,44.11764879391193,-92.24360919585227,76.200527287817
2024-09-23 16:23:28.997648,43.94,34.855412,-0.0029847020175114316,-0.023579196463302005,0.09710254654607277,32.08287849390507,-96.25519929585457,76.200527287817
2024-09-23 16:23:29.009714,43.94,34.855412,-0.0029847020175114316,-0.023579196463302005,0.09710254654607277,32.08287849390507,-96.25519929585457,76.200527287817
2024-09-23 16:23:29.042744,43.94,34.855412,-0.0029847020175114316,-0.02338022115155219,0.0970030596496862,36.09446859390736,-96.25519929585457,76.200527287817
2024-09-23 16:23:29.053839,43.94,34.855502,-0.0029847020175114316,-0.02338022115155219,0.0970030596496862,36.09446859390736,-96.25519929585457,80.21211738781929
2024-09-23 16:23:29.097386,43.94,34.855502,-0.0026862297461545674,-0.023778180888911878,0.0973015264147526,40.106058693909645,-100.26678939585686,80.21211738781929
2024-09-23 16:23:29.140450,43.94,34.855553,-0.0030841997366068195,-0.02278327698858263,0.09725178296655933,40.106058693909645,-100.26678939585686,80.21211738781929
2024-09-23 16:23:29.152472,43.94,34.855553,-0.0030841997366068195,-0.02278327698858263,0.09725178296655933,40.106058693909645,-100.26678939585686,80.21211738781929
2024-09-23 16:23:29.184706,43.94,34.855553,-0.0030841997366068195,-0.02278327698858263,0.09725178296655933,40.106058693909645,-100.26678939585686,80.21211738781929
2024-09-23 16:23:29.198004,43.94,34.855604,-0.0029349636958644295,-0.022982261414192504,0.09695331012558621,40.106058693909645,-100.26678939585686,72.1922225099802
2024-09-23 16:23:29.240719,43.94,34.855655,-0.0029349636958644295,-0.022982261414192504,0.09695331012558621,36.09446859390736,-104.27510100388527,80.21211738781929
2024-09-23 16:23:29.253582,43.94,34.855655,-0.0029349636958644295,-0.02313149783467906,0.09695331012558621,36.09446859390736,-104.27510100388527,80.21211738781929
2024-09-23 16:23:29.285914,43.96,34.855655,-0.0029349636958644295,-0.02313149783467906,0.0970030596496862,36.09446859390736,-96.25519929585457,80.21211738781929
2024-09-23 16:23:29.297471,43.96,34.855705,-0.0030344509719951677,-0.02313149783467906,0.0970030596496862,36.09446859390736,-96.25519929585457,80.21211738781929
2024-09-23 16:23:29.341155,43.96,34.855756,-0.0030344509719951677,-0.023778180888911878,0.09635636444363997,44.11764879391193,-92.24360919585227,76.200527287817
2024-09-23 16:23:29.384215,43.96,34.855756,-0.002785727465249955,-0.02293251340906919,0.09675432418099966,44.11764879391193,-92.24360919585227,76.200527287817
2024-09-23 16:23:29.395349,43.96,34.855756,-0.002785727465249955,-0.02293251340906919,0.09675432418099966,36.09446859390736,-96.25519929585457,76.200527287817
2024-09-23 16:23:29.438777,43.96,34.855844,-0.0024872551938930902,-0.02303200030545576,0.09750050628343246,32.08287849390507,-96.25519929585457,76.200527287817
2024-09-23 16:23:29.481332,43.96,34.855895,-0.0024872551938930902,-0.02303200030545576,0.09750050628343246,32.08287849390507,-96.25519929585457,72.1922225099802
2024-09-23 16:23:29.492630,43.96,34.855895,-0.0024872551938930902,-0.02313149783467906,0.09675432418099966,24.06297849342227,-96.25519929585457,72.1922225099802
2024-09-23 16:23:29.536212,43.96,34.855946,-0.0035816467500972456,-0.02338022115155219,0.09720203344245934,24.06297849342227,-96.25519929585457,76.200527287817
2024-09-23 16:23:29.579617,43.96,34.855946,-0.0035816467500972456,-0.02338022115155219,0.09720203344245934,40.106058693909645,-100.26678939585686,80.21211738781929
2024-09-23 16:23:29.591413,43.96,34.855996,-0.0028852147413806935,-0.0228827638849692,0.09720203344245934,40.106058693909645,-100.26678939585686,80.21211738781929
2024-09-23 16:23:29.623872,43.96,34.855996,-0.0028852147413806935,-0.0228827638849692,0.0973512698629459,40.106058693909645,-100.26678939585686,80.21211738781929
2024-09-23 16:23:29.636029,43.96,34.856047,-0.0028852147413806935,-0.0228827638849692,0.0973512698629459,36.09446859390736,-96.25519929585457,80.21211738781929
2024-09-23 16:23:29.679399,43.96,34.856047,-0.0028852147413806935,-0.02293251340906919,0.0973512698629459,32.08287849390507,-100.26678939585686,80.21211738781929
2024-09-23 16:23:29.691540,43.96,34.856136,-0.0028852147413806935,-0.02293251340906919,0.0973512698629459,32.08287849390507,-100.26678939585686,80.21211738781929
2024-09-23 16:23:29.724503,43.96,34.856136,-0.0028354659767690416,-0.023230986250042305,0.09680407370509965,32.08287849390507,-100.26678939585686,80.21211738781929
2024-09-23 16:23:29.736128,43.96,34.856136,-0.0028354659767690416,-0.023230986250042305,0.09680407370509965,32.08287849390507,-100.26678939585686,76.200527287817
2024-09-23 16:23:29.778909,43.96,34.856187,-0.0031836870127375577,-0.023479709566915436,0.09665483728461309,32.08287849390507,-92.24360919585227,76.200527287817
2024-09-23 16:23:29.821342,43.96,34.856238,-0.0031836870127375577,-0.023479709566915436,0.09665483728461309,32.08287849390507,-92.24360919585227,76.200527287817
2024-09-23 16:23:29.832785,43.96,34.856238,-0.003233425524256645,-0.023230986250042305,0.09755024973162574,36.09446859390736,-92.24360919585227,76.200527287817
2024-09-23 16:23:29.876080,43.96,34.856289,-0.0029349636958644295,-0.023280723622328886,0.09655535038822652,36.09446859390736,-100.26678939585686,76.200527287817
2024-09-23 16:23:29.920127,43.96,34.856289,-0.0029349636958644295,-0.023280723622328886,0.09655535038822652,40.106058693909645,-92.24360919585227,80.21211738781929
2024-09-23 16:23:29.931435,43.96,34.856339,-0.0029847020175114316,-0.02397715620066169,0.09655535038822652,40.106058693909645,-92.24360919585227,80.21211738781929
2024-09-23 16:23:29.975441,43.96,34.85639,-0.002785727465249955,-0.02397715620066169,0.09685382322919964,32.08287849390507,-96.25519929585457,84.22370748782159
2024-09-23 16:23:30.018239,43.96,34.85639,-0.002785727465249955,-0.023330473146428877,0.09720203344245934,32.08287849390507,-96.25519929585457,84.22370748782159
2024-09-23 16:23:30.029214,43.96,34.856477,-0.002785727465249955,-0.023330473146428877,0.09720203344245934,32.08287849390507,-100.26678939585686,80.21211738781929
2024-09-23 16:23:30.071881,43.96,34.856477,-0.0029847020175114316,-0.02303200030545576,0.0973015264147526,40.106058693909645,-96.25519929585457,84.22370748782159
2024-09-23 16:23:30.114155,43.96,34.856529,-0.0029847020175114316,-0.02303200030545576,0.0973015264147526,40.106058693909645,-96.25519929585457,84.22370748782159
2024-09-23 16:23:30.126050,43.96,34.856529,-0.0029847020175114316,-0.023181236725942318,0.09715228999426605,52.137550501942634,-92.24360919585227,84.22370748782159
2024-09-23 16:23:30.169203,43.96,34.856579,-0.0029847020175114316,-0.022982261414192504,0.09685382322919964,52.137550501942634,-92.24360919585227,76.200527287817
2024-09-23 16:23:30.211450,43.96,34.85663,-0.0029847020175114316,-0.022982261414192504,0.09685382322919964,52.137550501942634,-100.26678939585686,76.200527287817
2024-09-23 16:23:30.223144,43.96,34.85663,-0.0028852147413806935,-0.022733528983459317,0.09670458680871308,52.137550501942634,-100.26678939585686,76.200527287817
2024-09-23 16:23:30.266266,43.96,34.856681,-0.0034324103296106863,-0.022733528983459317,0.09670458680871308,40.106058693909645,-100.26678939585686,80.21211738781929
2024-09-23 16:23:30.308106,43.96,34.856681,-0.0034324103296106863,-0.022733528983459317,0.0966050877605131,44.11764879391193,-100.26678939585686,80.21211738781929
2024-09-23 16:23:30.319187,43.96,34.856732,-0.002437506429281439,-0.022733528983459317,0.0966050877605131,44.11764879391193,-96.25519929585457,76.200527287817
2024-09-23 16:23:30.362005,43.96,34.856732,-0.002437506429281439,-0.02362894446842532,0.09680407370509965,40.106058693909645,-100.26678939585686,80.21211738781929
2024-09-23 16:23:30.404976,43.96,34.856818,-0.002437506429281439,-0.02362894446842532,0.09680407370509965,40.106058693909645,-100.26678939585686,80.21211738781929
2024-09-23 16:23:30.416682,43.96,34.856818,-0.0025369937054121774,-0.02293251340906919,0.0973015264147526,40.106058693909645,-100.26678939585686,80.21211738781929
2024-09-23 16:23:30.458523,43.96,34.85687,-0.0028852147413806935,-0.023429960042815445,0.0973015264147526,40.106058693909645,-100.26678939585686,72.1922225099802
2024-09-23 16:23:30.470031,43.96,34.85687,-0.0028852147413806935,-0.023429960042815445,0.09740101331113918,36.09446859390736,-100.26678939585686,72.1922225099802
2024-09-23 16:23:30.504625,43.96,34.85687,-0.0028852147413806935,-0.023429960042815445,0.09740101331113918,36.09446859390736,-100.26678939585686,84.22370748782159
2024-09-23 16:23:30.515790,43.96,34.85692,-0.002785727465249955,-0.023181236725942318,0.0970030596496862,36.09446859390736,-100.26678939585686,84.22370748782159
2024-09-23 16:23:30.558774,43.96,34.856971,-0.0026862297461545674,-0.022833026512682618,0.0970030596496862,40.106058693909645,-104.27510100388527,76.200527287817
2024-09-23 16:23:30.601377,43.96,34.856971,-0.0026862297461545674,-0.022833026512682618,0.09715228999426605,36.09446859390736,-96.25519929585457,76.200527287817
2024-09-23 16:23:30.613644,43.96,34.857022,-0.0035318979854855937,-0.022833026512682618,0.09715228999426605,36.09446859390736,-96.25519929585457,80.21211738781929
2024-09-23 16:23:30.656706,43.96,34.857111,-0.0035318979854855937,-0.023230986250042305,0.09774922960030558,44.11764879391193,-96.25519929585457,84.22370748782159
2024-09-23 16:23:30.699374,43.96,34.857111,-0.0031339382481259063,-0.02263404056809607,0.09695331012558621,44.11764879391193,-96.25519929585457,84.22370748782159
2024-09-23 16:23:30.710641,43.96,34.857111,-0.0031339382481259063,-0.02263404056809607,0.09695331012558621,40.106058693909645,-92.24360919585227,84.22370748782159
2024-09-23 16:23:30.754498,43.96,34.857162,-0.003482159473966507,-0.023827930413011865,0.09740101331113918,32.08287849390507,-96.25519929585457,84.22370748782159
2024-09-23 16:23:30.798461,43.96,34.857213,-0.0031836870127375577,-0.023827930413011865,0.09740101331113918,32.08287849390507,-96.25519929585457,80.21211738781929
2024-09-23 16:23:30.809985,43.96,34.857213,-0.0031836870127375577,-0.02303200030545576,0.09715228999426605,48.12595698684454,-96.25519929585457,80.21211738781929
2024-09-23 16:23:30.841918,43.96,34.857213,-0.0031836870127375577,-0.02303200030545576,0.09715228999426605,48.12595698684454,-88.23529758782387,80.21211738781929
2024-09-23 16:23:30.853304,43.96,34.857264,-0.0029847020175114316,-0.02308174982955575,0.09715228999426605,48.12595698684454,-88.23529758782387,88.23529758782387
2024-09-23 16:23:30.895810,43.96,34.857314,-0.0029847020175114316,-0.02308174982955575,0.09715228999426605,44.11764879391193,-92.24360919585227,84.22370748782159
2024-09-23 16:23:30.907577,43.96,34.857314,-0.002785727465249955,-0.02293251340906919,0.09715228999426605,44.11764879391193,-92.24360919585227,84.22370748782159
2024-09-23 16:23:30.940253,43.96,34.857314,-0.002785727465249955,-0.02293251340906919,0.09720203344245934,44.11764879391193,-92.24360919585227,84.22370748782159
2024-09-23 16:23:30.951117,43.96,34.857365,-0.002785727465249955,-0.02293251340906919,0.09720203344245934,40.106058693909645,-96.25519929585457,80.21211738781929
2024-09-23 16:23:30.994724,43.96,34.857365,-0.0029847020175114316,-0.023181236725942318,0.09750050628343246,36.09446859390736,-96.25519929585457,80.21211738781929
2024-09-23 16:23:31.006366,43.96,34.857365,-0.0029847020175114316,-0.023181236725942318,0.09750050628343246,36.09446859390736,-96.25519929585457,84.22370748782159
2024-09-23 16:23:31.038459,43.96,34.857452,-0.0029847020175114316,-0.023181236725942318,0.09750050628343246,36.09446859390736,-96.25519929585457,84.22370748782159
2024-09-23 16:23:31.050118,43.96,34.857452,-0.0031836870127375577,-0.023181236725942318,0.09665483728461309,36.09446859390736,-92.24360919585227,84.22370748782159
2024-09-23 16:23:31.093108,43.96,34.857504,-0.002586742470023829,-0.022982261414192504,0.09750050628343246,36.09446859390736,-92.24360919585227,80.21211738781929
2024-09-23 16:23:31.105367,43.96,34.857504,-0.002586742470023829,-0.022982261414192504,0.09750050628343246,36.09446859390736,-92.24360919585227,80.21211738781929
2024-09-23 16:23:31.138375,43.96,34.857555,-0.002586742470023829,-0.022982261414192504,0.09750050628343246,36.09446859390736,-100.26678939585686,80.21211738781929
2024-09-23 16:23:31.149799,43.96,34.857555,-0.0032831742888682963,-0.02293251340906919,0.09695331012558621,36.09446859390736,-100.26678939585686,80.21211738781929
2024-09-23 16:23:31.233942,43.96,34.857555,-0.0032831742888682963,-0.02293251340906919,0.09695331012558621,32.08287849390507,-100.26678939585686,80.21211738781929
2024-09-23 16:23:31.246301,43.96,34.857605,-0.0028852147413806935,-0.023479709566915436,0.09695331012558621,32.08287849390507,-96.25519929585457,80.21211738781929
2024-09-23 16:23:31.290294,43.96,34.857656,-0.0032831742888682963,-0.023479709566915436,0.09695331012558621,44.11764879391193,-96.25519929585457,76.200527287817
2024-09-23 16:23:31.333639,43.55,34.857656,-0.0032831742888682963,-0.02303200030545576,0.09764974270391902,32.08287849390507,-96.25519929585457,76.200527287817
2024-09-23 16:23:31.344811,43.55,34.857744,-0.0032831742888682963,-0.02303200030545576,0.09764974270391902,32.08287849390507,-92.24360919585227,84.22370748782159
2024-09-23 16:23:31.387927,43.55,34.857744,-0.0026862297461545674,-0.023778180888911878,0.09665483728461309,32.08287849390507,-92.24360919585227,84.22370748782159
2024-09-23 16:23:31.430413,43.55,34.857796,-0.0029847020175114316,-0.02352945757203875,0.09665483728461309,32.08287849390507,-92.24360919585227,84.22370748782159
2024-09-23 16:23:31.442081,43.55,34.857796,-0.0029847020175114316,-0.02352945757203875,0.09665483728461309,28.07457030097246,-100.26678939585686,84.22370748782159
2024-09-23 16:23:31.483918,43.55,34.857892,-0.0030841997366068195,-0.023429960042815445,0.0970030596496862,28.07457030097246,-100.26678939585686,84.22370748782159
2024-09-23 16:23:31.526308,43.55,34.857892,-0.0030841997366068195,-0.023429960042815445,0.0970030596496862,28.07457030097246,-100.26678939585686,72.1922225099802
2024-09-23 16:23:31.538218,43.55,34.857943,-0.0030841997366068195,-0.02303200030545576,0.0970030596496862,28.07457030097246,-100.26678939585686,72.1922225099802
2024-09-23 16:23:31.579945,43.55,34.857943,-0.0030841997366068195,-0.02303200030545576,0.09740101331113918,28.07457030097246,-100.26678939585686,72.1922225099802
2024-09-23 16:23:31.623140,43.55,34.857943,-0.0030841997366068195,-0.02303200030545576,0.09740101331113918,36.09446859390736,-100.26678939585686,72.1922225099802
2024-09-23 16:23:31.634517,43.55,34.857994,-0.0035318979854855937,-0.022833026512682618,0.09740101331113918,36.09446859390736,-108.28669110388756,76.200527287817
2024-09-23 16:23:31.679008,43.55,34.858044,-0.0035318979854855937,-0.022833026512682618,0.09740101331113918,32.08287849390507,-100.26678939585686,84.22370748782159
2024-09-23 16:23:31.691410,43.55,34.858044,-0.0026862297461545674,-0.022833026512682618,0.09740101331113918,32.08287849390507,-100.26678939585686,84.22370748782159
2024-09-23 16:23:31.723073,43.55,34.858044,-0.0026862297461545674,-0.02313149783467906,0.09725178296655933,40.106058693909645,-100.26678939585686,84.22370748782159
2024-09-23 16:23:31.734630,43.55,34.858134,-0.0026862297461545674,-0.02313149783467906,0.09725178296655933,40.106058693909645,-100.26678939585686,80.21211738781929
2024-09-23 16:23:31.777686,43.55,34.858134,-0.0030344509719951677,-0.02303200030545576,0.09715228999426605,32.08287849390507,-104.27510100388527,84.22370748782159
2024-09-23 16:23:31.821782,43.55,34.858186,-0.0032831742888682963,-0.02308174982955575,0.09759999317981902,32.08287849390507,-104.27510100388527,84.22370748782159
2024-09-23 16:23:31.833282,43.55,34.858186,-0.0032831742888682963,-0.02308174982955575,0.09759999317981902,32.08287849390507,-100.26678939585686,84.22370748782159
2024-09-23 16:23:31.876198,43.55,34.858282,-0.002785727465249955,-0.02293251340906919,0.0970030596496862,40.106058693909645,-100.26678939585686,76.200527287817
2024-09-23 16:23:31.920325,43.55,34.858333,-0.002785727465249955,-0.02293251340906919,0.0970030596496862,40.106058693909645,-96.25519929585457,76.200527287817
2024-09-23 16:23:31.932234,43.55,34.858333,-0.0031339382481259063,-0.023479709566915436,0.09695331012558621,40.106058693909645,-96.25519929585457,76.200527287817
2024-09-23 16:23:31.963988,43.55,34.858333,-0.0031339382481259063,-0.023479709566915436,0.09695331012558621,32.08287849390507,-96.25519929585457,76.200527287817
2024-09-23 16:23:31.975360,43.55,34.858384,-0.0030841997366068195,-0.023429960042815445,0.09695331012558621,32.08287849390507,-96.25519929585457,80.21211738781929
2024-09-23 16:23:32.018332,43.55,34.858384,-0.0030841997366068195,-0.023429960042815445,0.09705279702197278,32.08287849390507,-92.24360919585227,80.21211738781929
2024-09-23 16:23:32.030662,43.55,34.858434,-0.003382661564999035,-0.023429960042815445,0.09705279702197278,32.08287849390507,-92.24360919585227,80.21211738781929
2024-09-23 16:23:32.063090,43.55,34.858434,-0.003382661564999035,-0.02338022115155219,0.09695331012558621,32.08287849390507,-92.24360919585227,80.21211738781929
2024-09-23 16:23:32.074446,43.55,34.858524,-0.003382661564999035,-0.02338022115155219,0.09695331012558621,32.08287849390507,-92.24360919585227,80.21211738781929
2024-09-23 16:23:32.116249,43.55,34.858524,-0.003233425524256645,-0.022982261414192504,0.09645586349183995,32.08287849390507,-88.23529758782387,80.21211738781929
2024-09-23 16:23:32.128307,43.55,34.858524,-0.003233425524256645,-0.022982261414192504,0.09645586349183995,32.08287849390507,-88.23529758782387,80.21211738781929
2024-09-23 16:23:32.160943,43.55,34.858576,-0.003382661564999035,-0.022982261414192504,0.09645586349183995,32.08287849390507,-88.23529758782387,80.21211738781929
2024-09-23 16:23:32.172060,43.55,34.858576,-0.003382661564999035,-0.023330473146428877,0.0970030596496862,36.09446859390736,-100.26678939585686,80.21211738781929
2024-09-23 16:23:32.214834,43.55,34.858627,-0.0029349636958644295,-0.023330473146428877,0.0970030596496862,36.09446859390736,-100.26678939585686,76.200527287817
2024-09-23 16:23:32.258065,43.55,34.858627,-0.0029349636958644295,-0.02308174982955575,0.09695331012558621,36.09446859390736,-100.26678939585686,76.200527287817
2024-09-23 16:23:32.269649,43.55,34.858677,-0.0029349636958644295,-0.02308174982955575,0.09695331012558621,32.08287849390507,-92.24360919585227,80.21211738781929
2024-09-23 16:23:32.311906,43.55,34.858677,-0.0028354659767690416,-0.02313149783467906,0.0970030596496862,44.11764879391193,-92.24360919585227,80.21211738781929
2024-09-23 16:23:32.323872,43.55,34.858677,-0.0028354659767690416,-0.02313149783467906,0.0970030596496862,44.11764879391193,-92.24360919585227,84.22370748782159
2024-09-23 16:23:32.355519,43.37,34.858728,-0.0026862297461545674,-0.02313149783467906,0.0970030596496862,44.11764879391193,-92.24360919585227,84.22370748782159
2024-09-23 16:23:32.367044,43.37,34.858728,-0.0026862297461545674,-0.023330473146428877,0.09710254654607277,40.106058693909645,-100.26678939585686,84.22370748782159
2024-09-23 16:23:32.410336,43.37,34.858779,-0.0030841997366068195,-0.023330473146428877,0.09690356060148622,36.09446859390736,-100.26678939585686,84.22370748782159
2024-09-23 16:23:32.452524,43.37,34.858779,-0.0030841997366068195,-0.023330473146428877,0.09690356060148622,36.09446859390736,-96.25519929585457,80.21211738781929
2024-09-23 16:23:32.463822,43.37,34.858866,-0.0028852147413806935,-0.02308174982955575,0.09745075675933246,36.09446859390736,-96.25519929585457,80.21211738781929
2024-09-23 16:23:32.506787,43.37,34.858917,-0.0031836870127375577,-0.02308174982955575,0.09745075675933246,40.106058693909645,-88.23529758782387,84.22370748782159
2024-09-23 16:23:32.519443,43.37,34.858917,-0.0031836870127375577,-0.023330473146428877,0.09745075675933246,40.106058693909645,-88.23529758782387,84.22370748782159
2024-09-23 16:23:32.551532,43.37,34.858917,-0.0031836870127375577,-0.023330473146428877,0.09705279702197278,40.106058693909645,-92.24360919585227,84.22370748782159
2024-09-23 16:23:32.563005,43.37,34.858968,-0.0028852147413806935,-0.023330473146428877,0.09705279702197278,40.106058693909645,-92.24360919585227,80.21211738781929
2024-09-23 16:23:32.604858,43.37,34.858968,-0.0028852147413806935,-0.02313149783467906,0.09685382322919964,32.08287849390507,-104.27510100388527,80.21211738781929
2024-09-23 16:23:32.616444,43.37,34.859061,-0.0028852147413806935,-0.02313149783467906,0.09685382322919964,32.08287849390507,-104.27510100388527,80.21211738781929
2024-09-23 16:23:32.650492,43.37,34.859061,-0.0030841997366068195,-0.02278327698858263,0.09764974270391902,32.08287849390507,-104.27510100388527,80.21211738781929
2024-09-23 16:23:32.662448,43.37,34.859061,-0.0030841997366068195,-0.02278327698858263,0.09764974270391902,32.08287849390507,-104.27510100388527,84.22370748782159
2024-09-23 16:23:32.694875,43.37,34.859112,-0.0030841997366068195,-0.02278327698858263,0.09764974270391902,32.08287849390507,-104.27510100388527,84.22370748782159
2024-09-23 16:23:32.707391,43.37,34.859112,-0.003233425524256645,-0.023330473146428877,0.09665483728461309,36.09446859390736,-96.25519929585457,84.22370748782159
2024-09-23 16:23:32.750101,43.37,34.859163,-0.0027359787006383035,-0.022733528983459317,0.09750050628343246,36.09446859390736,-96.25519929585457,76.200527287817
2024-09-23 16:23:32.762042,43.37,34.859163,-0.0027359787006383035,-0.022733528983459317,0.09750050628343246,40.106058693909645,-96.25519929585457,76.200527287817
2024-09-23 16:23:32.793859,43.37,34.859163,-0.0027359787006383035,-0.022733528983459317,0.09750050628343246,40.106058693909645,-92.24360919585227,72.1922225099802
2024-09-23 16:23:32.805441,43.37,34.859214,-0.0028354659767690416,-0.023230986250042305,0.09630662707135339,40.106058693909645,-92.24360919585227,72.1922225099802
2024-09-23 16:23:32.847420,43.37,34.859264,-0.0028354659767690416,-0.023230986250042305,0.09630662707135339,32.08287849390507,-100.26678939585686,72.1922225099802
2024-09-23 16:23:32.889755,43.37,34.859264,-0.0030344509719951677,-0.023230986250042305,0.09630662707135339,32.08287849390507,-100.26678939585686,72.1922225099802
2024-09-23 16:23:32.901258,43.37,34.859264,-0.0030344509719951677,-0.023181236725942318,0.09720203344245934,48.12595698684454,-100.26678939585686,80.21211738781929
2024-09-23 16:23:32.943939,43.37,34.859315,-0.0026862297461545674,-0.023827930413011865,0.0973015264147526,48.12595698684454,-100.26678939585686,80.21211738781929
2024-09-23 16:23:32.955549,43.37,34.859315,-0.0026862297461545674,-0.023827930413011865,0.0973015264147526,36.09446859390736,-96.25519929585457,80.21211738781929
2024-09-23 16:23:32.987519,43.37,34.859315,-0.0026862297461545674,-0.023827930413011865,0.0973015264147526,36.09446859390736,-96.25519929585457,80.21211738781929
2024-09-23 16:23:32.999323,43.37,34.859402,-0.0029847020175114316,-0.023728432883788564,0.09715228999426605,44.11764879391193,-96.25519929585457,80.21211738781929
2024-09-23 16:23:33.042437,43.37,34.859454,-0.0026862297461545674,-0.023429960042815445,0.09715228999426605,44.11764879391193,-96.25519929585457,80.21211738781929
2024-09-23 16:23:33.054081,43.37,34.859454,-0.0026862297461545674,-0.023429960042815445,0.09715228999426605,44.11764879391193,-96.25519929585457,80.21211738781929
2024-09-23 16:23:33.086130,43.37,34.859454,-0.0026862297461545674,-0.023429960042815445,0.09715228999426605,40.106058693909645,-96.25519929585457,80.21211738781929
2024-09-23 16:23:33.097236,43.37,34.859504,-0.0027359787006383035,-0.023479709566915436,0.09715228999426605,40.106058693909645,-100.26678939585686,72.1922225099802
2024-09-23 16:23:33.140163,43.37,34.859504,-0.0027359787006383035,-0.023479709566915436,0.09720203344245934,44.11764879391193,-100.26678939585686,80.21211738781929
2024-09-23 16:23:33.152190,43.37,34.859555,-0.002387757474797703,-0.023479709566915436,0.09720203344245934,44.11764879391193,-100.26678939585686,80.21211738781929
2024-09-23 16:23:33.184235,43.37,34.859555,-0.002387757474797703,-0.023181236725942318,0.09680407370509965,44.11764879391193,-100.26678939585686,80.21211738781929
2024-09-23 16:23:33.195710,43.37,34.859646,-0.002387757474797703,-0.023181236725942318,0.09680407370509965,40.106058693909645,-100.26678939585686,80.21211738781929
2024-09-23 16:23:33.237389,43.37,34.859646,-0.0028354659767690416,-0.02308174982955575,0.0973512698629459,40.106058693909645,-96.25519929585457,80.21211738781929
2024-09-23 16:23:33.249042,43.37,34.859646,-0.0028354659767690416,-0.02308174982955575,0.0973512698629459,40.106058693909645,-96.25519929585457,80.21211738781929
2024-09-23 16:23:33.281729,43.37,34.859697,-0.002437506429281439,-0.02308174982955575,0.0973512698629459,40.106058693909645,-96.25519929585457,80.21211738781929
2024-09-23 16:23:33.293147,43.37,34.859697,-0.002437506429281439,-0.023181236725942318,0.09685382322919964,44.11764879391193,-96.25519929585457,80.21211738781929
2024-09-23 16:23:33.334828,43.37,34.859748,-0.0028852147413806935,-0.02338022115155219,0.09715228999426605,44.11764879391193,-96.25519929585457,80.21211738781929
2024-09-23 16:23:33.346723,43.37,34.859748,-0.0028852147413806935,-0.02338022115155219,0.09715228999426605,40.106058693909645,-96.25519929585457,80.21211738781929
2024-09-23 16:23:33.379453,43.98,34.859748,-0.0028852147413806935,-0.02338022115155219,0.09715228999426605,40.106058693909645,-100.26678939585686,80.21211738781929
2024-09-23 16:23:33.393979,43.98,34.859799,-0.0029847020175114316,-0.023579196463302005,0.09764974270391902,40.106058693909645,-100.26678939585686,80.21211738781929
2024-09-23 16:23:33.427202,43.98,34.859799,-0.0029847020175114316,-0.023579196463302005,0.09764974270391902,36.09446859390736,-100.26678939585686,80.21211738781929
2024-09-23 16:23:33.438832,43.98,34.859849,-0.002586742470023829,-0.023579196463302005,0.09764974270391902,36.09446859390736,-96.25519929585457,88.23529758782387
2024-09-23 16:23:33.480951,43.98,34.859849,-0.002586742470023829,-0.0225345536717095,0.0970030596496862,36.09446859390736,-88.23529758782387,88.23529758782387
2024-09-23 16:23:33.492665,43.98,34.8599,-0.002586742470023829,-0.0225345536717095,0.0970030596496862,36.09446859390736,-88.23529758782387,80.21211738781929
2024-09-23 16:23:33.526843,43.98,34.8599,-0.0027359787006383035,-0.02352945757203875,0.09764974270391902,36.09446859390736,-88.23529758782387,80.21211738781929
2024-09-23 16:23:33.538459,43.98,34.8599,-0.0027359787006383035,-0.02352945757203875,0.09764974270391902,36.09446859390736,-100.26678939585686,80.21211738781929
2024-09-23 16:23:33.581024,43.98,34.859987,-0.0030344509719951677,-0.02293251340906919,0.09720203344245934,44.11764879391193,-92.24360919585227,80.21211738781929
2024-09-23 16:23:33.624256,43.98,34.860039,-0.0029847020175114316,-0.02293251340906919,0.09720203344245934,44.11764879391193,-92.24360919585227,84.22370748782159
2024-09-23 16:23:33.635986,43.98,34.860039,-0.0029847020175114316,-0.023181236725942318,0.09675432418099966,48.12595698684454,-92.24360919585227,84.22370748782159
2024-09-23 16:23:33.678605,43.98,34.860089,-0.003382661564999035,-0.02268379009219606,0.0966050877605131,48.12595698684454,-92.24360919585227,80.21211738781929
2024-09-23 16:23:33.720670,43.98,34.860089,-0.003382661564999035,-0.02268379009219606,0.0966050877605131,44.11764879391193,-92.24360919585227,80.21211738781929
2024-09-23 16:23:33.731716,43.98,34.86014,-0.0029847020175114316,-0.02362894446842532,0.0966050877605131,44.11764879391193,-92.24360919585227,84.22370748782159
2024-09-23 16:23:33.774452,43.98,34.860191,-0.0029847020175114316,-0.02362894446842532,0.0973512698629459,36.09446859390736,-100.26678939585686,76.200527287817
2024-09-23 16:23:33.786517,43.98,34.860191,-0.0026862297461545674,-0.02362894446842532,0.0973512698629459,36.09446859390736,-100.26678939585686,76.200527287817
2024-09-23 16:23:33.818335,43.98,34.860191,-0.0026862297461545674,-0.023429960042815445,0.09710254654607277,36.09446859390736,-100.26678939585686,76.200527287817
2024-09-23 16:23:33.830357,43.98,34.860279,-0.0026862297461545674,-0.023429960042815445,0.09710254654607277,32.08287849390507,-104.27510100388527,76.200527287817
2024-09-23 16:23:33.873372,43.98,34.860279,-0.0027359787006383035,-0.023230986250042305,0.09690356060148622,36.09446859390736,-96.25519929585457,84.22370748782159
2024-09-23 16:23:33.917829,43.98,34.860331,-0.002636491424507565,-0.023230986250042305,0.09690356060148622,36.09446859390736,-96.25519929585457,84.22370748782159
2024-09-23 16:23:33.929341,43.98,34.860331,-0.002636491424507565,-0.023230986250042305,0.09720203344245934,40.106058693909645,-96.25519929585457,84.22370748782159
2024-09-23 16:23:33.971712,43.98,34.860382,-0.003382661564999035,-0.023280723622328886,0.09670458680871308,48.12595698684454,-96.25519929585457,80.21211738781929
2024-09-23 16:23:34.013934,43.98,34.860382,-0.003382661564999035,-0.023280723622328886,0.09670458680871308,48.12595698684454,-96.25519929585457,76.200527287817
2024-09-23 16:23:34.026075,43.98,34.860432,-0.003382661564999035,-0.023280723622328886,0.09670458680871308,48.12595698684454,-96.25519929585457,76.200527287817
2024-09-23 16:23:34.068814,43.98,34.860432,-0.0026862297461545674,-0.022982261414192504,0.09690356060148622,48.12595698684454,-100.26678939585686,72.1922225099802
2024-09-23 16:23:34.112657,43.98,34.860483,-0.0031339382481259063,-0.023230986250042305,0.09690356060148622,48.12595698684454,-100.26678939585686,72.1922225099802
2024-09-23 16:23:34.124042,43.98,34.860483,-0.0031339382481259063,-0.023230986250042305,0.09690356060148622,36.09446859390736,-100.26678939585686,72.1922225099802
2024-09-23 16:23:34.167496,43.98,34.860534,-0.002785727465249955,-0.023181236725942318,0.09685382322919964,36.09446859390736,-100.26678939585686,80.21211738781929
2024-09-23 16:23:34.210562,43.98,34.860621,-0.0029349636958644295,-0.023181236725942318,0.09685382322919964,36.09446859390736,-96.25519929585457,80.21211738781929
2024-09-23 16:23:34.222110,43.98,34.860621,-0.0029349636958644295,-0.02308174982955575,0.09695331012558621,36.09446859390736,-96.25519929585457,80.21211738781929
2024-09-23 16:23:34.264944,43.98,34.860672,-0.0021887829225362256,-0.022982261414192504,0.09695331012558621,40.106058693909645,-96.25519929585457,76.200527287817
2024-09-23 16:23:34.307960,43.98,34.860672,-0.0021887829225362256,-0.022982261414192504,0.09759999317981902,36.09446859390736,-100.26678939585686,84.22370748782159
2024-09-23 16:23:34.319423,43.98,34.860722,-0.0028852147413806935,-0.022982261414192504,0.09759999317981902,36.09446859390736,-100.26678939585686,84.22370748782159
2024-09-23 16:23:34.361300,43.98,34.860816,-0.0028852147413806935,-0.023479709566915436,0.09745075675933246,40.106058693909645,-104.27510100388527,76.200527287817
2024-09-23 16:23:34.404344,43.66,34.860816,-0.002636491424507565,-0.02278327698858263,0.09705279702197278,40.106058693909645,-104.27510100388527,76.200527287817
2024-09-23 16:23:34.415865,43.66,34.860816,-0.002636491424507565,-0.02278327698858263,0.09705279702197278,36.09446859390736,-96.25519929585457,76.200527287817
2024-09-23 16:23:34.459167,43.66,34.860867,-0.003233425524256645,-0.02352945757203875,0.09725178296655933,40.106058693909645,-96.25519929585457,76.200527287817
2024-09-23 16:23:34.502237,43.66,34.860918,-0.0028852147413806935,-0.02352945757203875,0.09725178296655933,40.106058693909645,-96.25519929585457,76.200527287817
2024-09-23 16:23:34.513960,43.66,34.860918,-0.0028852147413806935,-0.023181236725942318,0.0966050877605131,44.11764879391193,-96.25519929585457,76.200527287817
2024-09-23 16:23:34.556571,43.66,34.860969,-0.0030841997366068195,-0.023728432883788564,0.09705279702197278,44.11764879391193,-104.27510100388527,80.21211738781929
2024-09-23 16:23:34.598660,43.66,34.860969,-0.0030841997366068195,-0.023728432883788564,0.09705279702197278,36.09446859390736,-96.25519929585457,80.21211738781929
2024-09-23 16:23:34.610572,43.66,34.861019,-0.0030344509719951677,-0.02338022115155219,0.09705279702197278,36.09446859390736,-96.25519929585457,80.21211738781929
2024-09-23 16:23:34.653657,43.66,34.86107,-0.0027359787006383035,-0.02338022115155219,0.09670458680871308,32.08287849390507,-92.24360919585227,80.21211738781929
2024-09-23 16:23:34.697715,43.66,34.86107,-0.0027359787006383035,-0.023728432883788564,0.09715228999426605,44.11764879391193,-92.24360919585227,80.21211738781929
2024-09-23 16:23:34.709670,43.66,34.861157,-0.0027359787006383035,-0.023728432883788564,0.09715228999426605,44.11764879391193,-96.25519929585457,84.22370748782159
2024-09-23 16:23:34.742172,43.66,34.861157,-0.0031836870127375577,-0.023728432883788564,0.09715228999426605,44.11764879391193,-96.25519929585457,84.22370748782159
2024-09-23 16:23:34.753989,43.66,34.861157,-0.0031836870127375577,-0.023330473146428877,0.09710254654607277,40.106058693909645,-96.25519929585457,80.21211738781929
2024-09-23 16:23:34.796792,43.66,34.861209,-0.0028852147413806935,-0.022982261414192504,0.09720203344245934,32.08287849390507,-96.25519929585457,80.21211738781929
2024-09-23 16:23:34.808531,43.66,34.861209,-0.0028852147413806935,-0.022982261414192504,0.09720203344245934,32.08287849390507,-100.26678939585686,80.21211738781929
2024-09-23 16:23:34.841060,43.66,34.861209,-0.0028852147413806935,-0.022982261414192504,0.09720203344245934,32.08287849390507,-100.26678939585686,84.22370748782159
2024-09-23 16:23:34.853049,43.66,34.861259,-0.003233425524256645,-0.022833026512682618,0.09710254654607277,44.11764879391193,-100.26678939585686,84.22370748782159
2024-09-23 16:23:34.896046,43.66,34.861259,-0.003233425524256645,-0.022833026512682618,0.09710254654607277,44.11764879391193,-88.23529758782387,84.22370748782159
2024-09-23 16:23:34.939184,43.66,34.86131,-0.0030344509719951677,-0.022833026512682618,0.09710254654607277,44.11764879391193,-88.23529758782387,84.22370748782159
2024-09-23 16:23:34.950260,43.66,34.86131,-0.0030344509719951677,-0.023827930413011865,0.0973512698629459,36.09446859390736,-96.25519929585457,84.22370748782159
2024-09-23 16:23:34.992896,43.66,34.861361,-0.0029349636958644295,-0.02352945757203875,0.0973015264147526,36.09446859390736,-96.25519929585457,80.21211738781929
2024-09-23 16:23:35.005043,43.66,34.861361,-0.0029349636958644295,-0.02352945757203875,0.0973015264147526,36.09446859390736,-96.25519929585457,80.21211738781929
2024-09-23 16:23:35.039357,43.66,34.861411,-0.0029349636958644295,-0.02352945757203875,0.0973015264147526,36.09446859390736,-96.25519929585457,80.21211738781929
2024-09-23 16:23:35.050988,43.66,34.861411,-0.0028852147413806935,-0.022484804147609512,0.0970030596496862,36.09446859390736,-96.25519929585457,80.21211738781929
2024-09-23 16:23:35.084593,43.66,34.861411,-0.0028852147413806935,-0.022484804147609512,0.0970030596496862,48.12595698684454,-96.25519929585457,80.21211738781929
2024-09-23 16:23:35.096199,43.66,34.861498,-0.0029349636958644295,-0.0228827638849692,0.0970030596496862,48.12595698684454,-92.24360919585227,80.21211738781929
2024-09-23 16:23:35.139312,43.66,34.861549,-0.0029349636958644295,-0.0228827638849692,0.09720203344245934,44.11764879391193,-96.25519929585457,80.21211738781929
2024-09-23 16:23:35.151309,43.66,34.861549,-0.0032831742888682963,-0.0228827638849692,0.09720203344245934,44.11764879391193,-96.25519929585457,80.21211738781929
2024-09-23 16:23:35.183457,43.66,34.861549,-0.0032831742888682963,-0.02313149783467906,0.09665483728461309,44.11764879391193,-96.25519929585457,80.21211738781929
2024-09-23 16:23:35.194956,43.66,34.861644,-0.0032831742888682963,-0.02313149783467906,0.09665483728461309,40.106058693909645,-100.26678939585686,72.1922225099802
2024-09-23 16:23:35.237978,43.66,34.861644,-0.0029349636958644295,-0.02313149783467906,0.09685382322919964,36.09446859390736,-100.26678939585686,72.1922225099802
2024-09-23 16:23:35.250195,43.66,34.861644,-0.0029349636958644295,-0.02313149783467906,0.09685382322919964,36.09446859390736,-96.25519929585457,80.21211738781929
2024-09-23 16:23:35.282512,43.66,34.861696,-0.0029349636958644295,-0.02313149783467906,0.09685382322919964,36.09446859390736,-96.25519929585457,80.21211738781929
2024-09-23 16:23:35.335322,43.66,34.861696,-0.0029349636958644295,-0.02313149783467906,0.09715228999426605,40.106058693909645,-96.25519929585457,84.22370748782159
2024-09-23 16:23:35.347079,43.66,34.861747,-0.0029349636958644295,-0.02313149783467906,0.09715228999426605,40.106058693909645,-96.25519929585457,84.22370748782159
2024-09-23 16:23:35.379910,43.66,34.861747,-0.002586742470023829,-0.02293251340906919,0.0970030596496862,40.106058693909645,-96.25519929585457,84.22370748782159
2024-09-23 16:23:35.391517,43.66,34.861747,-0.002586742470023829,-0.02293251340906919,0.0970030596496862,44.11764879391193,-96.25519929585457,80.21211738781929
2024-09-23 16:23:35.434625,43.56,34.861797,-0.002785727465249955,-0.02313149783467906,0.09725178296655933,48.12595698684454,-88.23529758782387,80.21211738781929
2024-09-23 16:23:35.476443,43.56,34.861848,-0.0026862297461545674,-0.02313149783467906,0.09725178296655933,48.12595698684454,-88.23529758782387,80.21211738781929
2024-09-23 16:23:35.487459,43.56,34.861848,-0.0026862297461545674,-0.023330473146428877,0.0973512698629459,36.09446859390736,-88.23529758782387,80.21211738781929
2024-09-23 16:23:35.530077,43.56,34.861899,-0.0024872551938930902,-0.02313149783467906,0.09745075675933246,36.09446859390736,-104.27510100388527,76.200527287817
2024-09-23 16:23:35.573112,43.56,34.861899,-0.0024872551938930902,-0.02313149783467906,0.09745075675933246,32.08287849390507,-104.27510100388527,76.200527287817
2024-09-23 16:23:35.584172,43.56,34.861988,-0.0027359787006383035,-0.023827930413011865,0.09745075675933246,32.08287849390507,-104.27510100388527,80.21211738781929
2024-09-23 16:23:35.626201,43.56,34.862039,-0.0027359787006383035,-0.023827930413011865,0.09690356060148622,44.11764879391193,-96.25519929585457,80.21211738781929
2024-09-23 16:23:35.638342,43.56,34.862039,-0.0032831742888682963,-0.023827930413011865,0.09690356060148622,44.11764879391193,-96.25519929585457,80.21211738781929
2024-09-23 16:23:35.670600,43.56,34.862039,-0.0032831742888682963,-0.023778180888911878,0.09695331012558621,44.11764879391193,-96.25519929585457,80.21211738781929
2024-09-23 16:23:35.682568,43.56,34.862132,-0.0032831742888682963,-0.023778180888911878,0.09695331012558621,36.09446859390736,-100.26678939585686,80.21211738781929
2024-09-23 16:23:35.725941,43.56,34.862132,-0.0029847020175114316,-0.02308174982955575,0.09710254654607277,44.11764879391193,-96.25519929585457,72.1922225099802
2024-09-23 16:23:35.768059,43.56,34.862184,-0.0030841997366068195,-0.02308174982955575,0.09710254654607277,44.11764879391193,-96.25519929585457,72.1922225099802
2024-09-23 16:23:35.780314,43.56,34.862184,-0.0030841997366068195,-0.02338022115155219,0.0973015264147526,52.137550501942634,-104.27510100388527,72.1922225099802
2024-09-23 16:23:35.822817,43.56,34.862234,-0.0030841997366068195,-0.023429960042815445,0.09755024973162574,52.137550501942634,-104.27510100388527,68.18063240997792
2024-09-23 16:23:35.834351,43.56,34.862234,-0.0030841997366068195,-0.023429960042815445,0.09755024973162574,48.12595698684454,-104.27510100388527,68.18063240997792
2024-09-23 16:23:35.867185,43.56,34.862285,-0.0030841997366068195,-0.023429960042815445,0.09755024973162574,48.12595698684454,-104.27510100388527,72.1922225099802
2024-09-23 16:23:35.878501,43.56,34.862285,-0.003382661564999035,-0.023230986250042305,0.09710254654607277,48.12595698684454,-104.27510100388527,72.1922225099802
2024-09-23 16:23:35.921726,43.56,34.862285,-0.003382661564999035,-0.023230986250042305,0.09710254654607277,40.106058693909645,-100.26678939585686,80.21211738781929
2024-09-23 16:23:35.964698,43.56,34.862336,-0.0029847020175114316,-0.023181236725942318,0.09710254654607277,40.106058693909645,-100.26678939585686,80.21211738781929
2024-09-23 16:23:35.976370,43.56,34.862336,-0.0029847020175114316,-0.023181236725942318,0.09720203344245934,40.106058693909645,-100.26678939585686,80.21211738781929
2024-09-23 16:23:36.018876,43.56,34.862386,-0.0026862297461545674,-0.023330473146428877,0.09784872257259886,36.09446859390736,-100.26678939585686,76.200527287817
2024-09-23 16:23:36.062095,43.56,34.862386,-0.0026862297461545674,-0.023330473146428877,0.09784872257259886,36.09446859390736,-104.27510100388527,84.22370748782159
2024-09-23 16:23:36.114473,43.56,34.862474,-0.0028852147413806935,-0.02362894446842532,0.09685382322919964,40.106058693909645,-104.27510100388527,84.22370748782159
2024-09-23 16:23:36.126430,43.56,34.862474,-0.0028852147413806935,-0.02362894446842532,0.09685382322919964,40.106058693909645,-100.26678939585686,84.22370748782159
2024-09-23 16:23:36.159896,43.56,34.862525,-0.0029349636958644295,-0.02362894446842532,0.09685382322919964,40.106058693909645,-100.26678939585686,84.22370748782159
2024-09-23 16:23:36.171256,43.56,34.862525,-0.0029349636958644295,-0.023181236725942318,0.0973015264147526,40.106058693909645,-100.26678939585686,84.22370748782159
2024-09-23 16:23:36.213872,43.56,34.862576,-0.0032831742888682963,-0.02308174982955575,0.09715228999426605,40.106058693909645,-96.25519929585457,76.200527287817
2024-09-23 16:23:36.257055,43.56,34.862576,-0.0032831742888682963,-0.02308174982955575,0.09715228999426605,32.08287849390507,-92.24360919585227,80.21211738781929
2024-09-23 16:23:36.268450,43.56,34.862668,-0.0031836870127375577,-0.023181236725942318,0.09715228999426605,32.08287849390507,-92.24360919585227,80.21211738781929
2024-09-23 16:23:36.311456,43.56,34.862719,-0.0032831742888682963,-0.023181236725942318,0.09759999317981902,36.09446859390736,-92.24360919585227,80.21211738781929
2024-09-23 16:23:36.354032,43.56,34.862719,-0.0032831742888682963,-0.023927417309398437,0.09720203344245934,36.09446859390736,-92.24360919585227,80.21211738781929
2024-09-23 16:23:36.365896,43.56,34.862815,-0.0032831742888682963,-0.023927417309398437,0.09720203344245934,28.07457030097246,-96.25519929585457,84.22370748782159
2024-09-23 16:23:36.409205,43.56,34.862815,-0.002785727465249955,-0.023230986250042305,0.0973015264147526,40.106058693909645,-92.24360919585227,84.22370748782159
2024-09-23 16:23:36.452624,43.36,34.862866,-0.002586742470023829,-0.02303200030545576,0.0973015264147526,40.106058693909645,-92.24360919585227,84.22370748782159
2024-09-23 16:23:36.464608,43.36,34.862866,-0.002586742470023829,-0.02303200030545576,0.09710254654607277,48.12595698684454,-88.23529758782387,84.22370748782159
2024-09-23 16:23:36.507261,43.36,34.862866,-0.002586742470023829,-0.02303200030545576,0.09710254654607277,48.12595698684454,-88.23529758782387,76.200527287817
2024-09-23 16:23:36.549728,43.36,34.862917,-0.0024872551938930902,-0.023429960042815445,0.09710254654607277,48.12595698684454,-88.23529758782387,76.200527287817
2024-09-23 16:23:36.561572,43.36,34.862917,-0.0024872551938930902,-0.023429960042815445,0.0973512698629459,36.09446859390736,-88.23529758782387,76.200527287817
2024-09-23 16:23:36.603693,43.36,34.862967,-0.003233425524256645,-0.0228827638849692,0.09725178296655933,36.09446859390736,-108.28669110388756,72.1922225099802
2024-09-23 16:23:36.645730,43.36,34.862967,-0.003233425524256645,-0.0228827638849692,0.09725178296655933,28.07457030097246,-92.24360919585227,72.1922225099802
2024-09-23 16:23:36.657851,43.36,34.863018,-0.003233425524256645,-0.022833026512682618,0.09725178296655933,28.07457030097246,-92.24360919585227,76.200527287817
2024-09-23 16:23:36.701172,43.36,34.863069,-0.0031836870127375577,-0.022833026512682618,0.09745075675933246,32.08287849390507,-100.26678939585686,76.200527287817
2024-09-23 16:23:36.745222,43.36,34.863069,-0.0031836870127375577,-0.02338022115155219,0.09690356060148622,36.09446859390736,-100.26678939585686,76.200527287817
2024-09-23 16:23:36.757066,43.36,34.863156,-0.0031836870127375577,-0.02338022115155219,0.09690356060148622,36.09446859390736,-92.24360919585227,76.200527287817
2024-09-23 16:23:36.789297,43.36,34.863156,-0.0032831742888682963,-0.02338022115155219,0.09690356060148622,36.09446859390736,-92.24360919585227,76.200527287817
2024-09-23 16:23:36.800472,43.36,34.863156,-0.0032831742888682963,-0.022833026512682618,0.09665483728461309,44.11764879391193,-96.25519929585457,76.200527287817
2024-09-23 16:23:36.843217,43.36,34.863254,-0.0031339382481259063,-0.023827930413011865,0.09670458680871308,44.11764879391193,-96.25519929585457,76.200527287817
2024-09-23 16:23:36.854443,43.36,34.863254,-0.0031339382481259063,-0.023827930413011865,0.09670458680871308,44.11764879391193,-92.24360919585227,76.200527287817
2024-09-23 16:23:36.897267,43.36,34.863305,-0.0029349636958644295,-0.022833026512682618,0.09640611396773996,36.09446859390736,-92.24360919585227,76.200527287817
2024-09-23 16:23:36.940325,43.36,34.863356,-0.0029349636958644295,-0.022833026512682618,0.09640611396773996,36.09446859390736,-100.26678939585686,80.21211738781929
2024-09-23 16:23:36.951227,43.36,34.863356,-0.0034324103296106863,-0.023181236725942318,0.09635636444363997,36.09446859390736,-100.26678939585686,80.21211738781929
2024-09-23 16:23:36.993729,43.36,34.863407,-0.0028354659767690416,-0.023280723622328886,0.09635636444363997,36.09446859390736,-96.25519929585457,80.21211738781929
2024-09-23 16:23:37.035324,43.36,34.863407,-0.0028354659767690416,-0.023280723622328886,0.09755024973162574,44.11764879391193,-96.25519929585457,80.21211738781929
2024-09-23 16:23:37.047017,43.36,34.863457,-0.003482159473966507,-0.023280723622328886,0.09755024973162574,44.11764879391193,-100.26678939585686,80.21211738781929
2024-09-23 16:23:37.089960,43.36,34.863546,-0.003482159473966507,-0.023181236725942318,0.0973015264147526,48.12595698684454,-88.23529758782387,80.21211738781929
2024-09-23 16:23:37.132385,43.36,34.863546,-0.003631395514708897,-0.023330473146428877,0.0973015264147526,48.12595698684454,-88.23529758782387,80.21211738781929
2024-09-23 16:23:37.143473,43.36,34.863546,-0.003631395514708897,-0.023330473146428877,0.09715228999426605,48.12595698684454,-92.24360919585227,76.200527287817
2024-09-23 16:23:37.185759,43.36,34.863597,-0.0031836870127375577,-0.02338022115155219,0.0973015264147526,52.137550501942634,-92.24360919585227,76.200527287817
2024-09-23 16:23:37.197448,43.36,34.863597,-0.0031836870127375577,-0.02338022115155219,0.0973015264147526,52.137550501942634,-96.25519929585457,76.200527287817
2024-09-23 16:23:37.230524,43.36,34.863648,-0.0031836870127375577,-0.02338022115155219,0.0973015264147526,52.137550501942634,-96.25519929585457,84.22370748782159
2024-09-23 16:23:37.241754,43.36,34.863648,-0.0027359787006383035,-0.02263404056809607,0.09690356060148622,40.106058693909645,-96.25519929585457,84.22370748782159
2024-09-23 16:23:37.284435,43.36,34.863699,-0.0031836870127375577,-0.023330473146428877,0.09690356060148622,40.106058693909645,-88.23529758782387,92.24360919585227
2024-09-23 16:23:37.297161,43.36,34.863699,-0.0031836870127375577,-0.023330473146428877,0.09720203344245934,40.106058693909645,-88.23529758782387,92.24360919585227
2024-09-23 16:23:37.329407,43.36,34.863699,-0.0031836870127375577,-0.023330473146428877,0.09720203344245934,44.11764879391193,-96.25519929585457,84.22370748782159
2024-09-23 16:23:37.341126,43.36,34.863749,-0.0033329230534799477,-0.023230986250042305,0.09720203344245934,44.11764879391193,-96.25519929585457,84.22370748782159
2024-09-23 16:23:37.384109,43.36,34.8638,-0.0030344509719951677,-0.023230986250042305,0.09715228999426605,40.106058693909645,-88.23529758782387,76.200527287817
2024-09-23 16:23:37.426543,43.36,34.8638,-0.0030344509719951677,-0.023728432883788564,0.09725178296655933,28.07457030097246,-88.23529758782387,76.200527287817
2024-09-23 16:23:37.437804,43.36,34.863887,-0.0030344509719951677,-0.023728432883788564,0.09725178296655933,28.07457030097246,-96.25519929585457,84.22370748782159
2024-09-23 16:23:37.480681,42.97,34.863887,-0.0029847020175114316,-0.02338022115155219,0.09715228999426605,36.09446859390736,-96.25519929585457,84.22370748782159
2024-09-23 16:23:37.522927,42.97,34.863939,-0.0032831742888682963,-0.02338022115155219,0.09715228999426605,36.09446859390736,-96.25519929585457,84.22370748782159
2024-09-23 16:23:37.534061,42.97,34.863939,-0.0032831742888682963,-0.02313149783467906,0.09710254654607277,40.106058693909645,-92.24360919585227,84.22370748782159
2024-09-23 16:23:37.577330,42.97,34.86399,-0.0030841997366068195,-0.022733528983459317,0.09764974270391902,40.106058693909645,-92.24360919585227,84.22370748782159
2024-09-23 16:23:37.589018,42.97,34.86399,-0.0030841997366068195,-0.022733528983459317,0.09764974270391902,36.09446859390736,-92.24360919585227,84.22370748782159
2024-09-23 16:23:37.620292,42.97,34.86399,-0.0030841997366068195,-0.022733528983459317,0.09764974270391902,36.09446859390736,-96.25519929585457,80.21211738781929
2024-09-23 16:23:37.631593,42.97,34.864041,-0.0028852147413806935,-0.02293251340906919,0.09745075675933246,36.09446859390736,-96.25519929585457,80.21211738781929
2024-09-23 16:23:37.673228,42.97,34.864091,-0.0034324103296106863,-0.02293251340906919,0.09745075675933246,32.08287849390507,-100.26678939585686,80.21211738781929
2024-09-23 16:23:37.685379,42.97,34.864091,-0.0034324103296106863,-0.023280723622328886,0.09745075675933246,32.08287849390507,-100.26678939585686,80.21211738781929
2024-09-23 16:23:37.717841,42.97,34.864091,-0.0034324103296106863,-0.023280723622328886,0.09750050628343246,32.08287849390507,-100.26678939585686,80.21211738781929
2024-09-23 16:23:37.729124,42.97,34.864142,-0.0030344509719951677,-0.023280723622328886,0.09750050628343246,32.08287849390507,-96.25519929585457,84.22370748782159
2024-09-23 16:23:37.771107,42.97,34.864142,-0.0030344509719951677,-0.023579196463302005,0.0976994861521123,52.137550501942634,-92.24360919585227,80.21211738781929
2024-09-23 16:23:37.782824,42.97,34.864228,-0.0030344509719951677,-0.023579196463302005,0.0976994861521123,52.137550501942634,-92.24360919585227,80.21211738781929
2024-09-23 16:23:37.815458,42.97,34.864228,-0.0026862297461545674,-0.02362894446842532,0.0976994861521123,52.137550501942634,-92.24360919585227,80.21211738781929
2024-09-23 16:23:37.826706,42.97,34.864228,-0.0026862297461545674,-0.02362894446842532,0.09720203344245934,40.106058693909645,-96.25519929585457,72.1922225099802
2024-09-23 16:23:37.868437,42.97,34.86428,-0.0031339382481259063,-0.02293251340906919,0.09710254654607277,40.106058693909645,-96.25519929585457,72.1922225099802
2024-09-23 16:23:37.879889,42.97,34.86428,-0.0031339382481259063,-0.02293251340906919,0.09710254654607277,36.09446859390736,-100.26678939585686,72.1922225099802
2024-09-23 16:23:37.913000,42.97,34.86433,-0.0031339382481259063,-0.02293251340906919,0.09710254654607277,36.09446859390736,-100.26678939585686,80.21211738781929
2024-09-23 16:23:37.925206,42.97,34.86433,-0.0033329230534799477,-0.02278327698858263,0.09630662707135339,40.106058693909645,-100.26678939585686,80.21211738781929
2024-09-23 16:23:37.962201,42.97,34.86433,-0.0033329230534799477,-0.02278327698858263,0.09630662707135339,40.106058693909645,-100.26678939585686,80.21211738781929
2024-09-23 16:23:37.973320,42.97,34.864381,-0.0029349636958644295,-0.02293251340906919,0.09705279702197278,40.106058693909645,-100.26678939585686,80.21211738781929
2024-09-23 16:23:38.016447,42.97,34.864432,-0.003382661564999035,-0.02263404056809607,0.09705279702197278,32.08287849390507,-96.25519929585457,88.23529758782387
2024-09-23 16:23:38.060155,42.97,34.864432,-0.003382661564999035,-0.02263404056809607,0.09695331012558621,40.106058693909645,-96.25519929585457,88.23529758782387
2024-09-23 16:23:38.071480,42.97,34.864483,-0.0029349636958644295,-0.02263404056809607,0.09695331012558621,40.106058693909645,-96.25519929585457,76.200527287817
2024-09-23 16:23:38.114924,42.97,34.86457,-0.0029349636958644295,-0.023429960042815445,0.09685382322919964,36.09446859390736,-104.27510100388527,80.21211738781929
2024-09-23 16:23:38.158098,42.97,34.86457,-0.0032831742888682963,-0.023429960042815445,0.09720203344245934,36.09446859390736,-104.27510100388527,80.21211738781929
2024-09-23 16:23:38.169903,42.97,34.86457,-0.0032831742888682963,-0.023429960042815445,0.09720203344245934,44.11764879391193,-96.25519929585457,88.23529758782387
2024-09-23 16:23:38.213646,42.97,34.864621,-0.0028852147413806935,-0.023330473146428877,0.09725178296655933,44.11764879391193,-96.25519929585457,88.23529758782387
2024-09-23 16:23:38.255907,42.97,34.864672,-0.0029349636958644295,-0.023330473146428877,0.09725178296655933,44.11764879391193,-96.25519929585457,76.200527287817
2024-09-23 16:23:38.267682,42.97,34.864672,-0.0029349636958644295,-0.022733528983459317,0.09710254654607277,44.11764879391193,-96.25519929585457,76.200527287817
2024-09-23 16:23:38.310551,42.97,34.864722,-0.0027359787006383035,-0.023330473146428877,0.09690356060148622,44.11764879391193,-104.27510100388527,76.200527287817
2024-09-23 16:23:38.352938,42.97,34.864722,-0.0027359787006383035,-0.023330473146428877,0.09690356060148622,40.106058693909645,-100.26678939585686,80.21211738781929
2024-09-23 16:23:38.364010,42.97,34.864773,-0.002785727465249955,-0.023330473146428877,0.09690356060148622,40.106058693909645,-100.26678939585686,80.21211738781929
2024-09-23 16:23:38.407277,42.97,34.864824,-0.002586742470023829,-0.023330473146428877,0.09725178296655933,36.09446859390736,-100.26678939585686,80.21211738781929
2024-09-23 16:23:38.450216,42.97,34.864824,-0.002586742470023829,-0.02352945757203875,0.09759999317981902,36.09446859390736,-100.26678939585686,80.21211738781929
2024-09-23 16:23:38.461451,42.97,34.864911,-0.002586742470023829,-0.02352945757203875,0.09759999317981902,36.09446859390736,-100.26678939585686,72.1922225099802
2024-09-23 16:23:38.504725,42.78,34.864911,-0.0028354659767690416,-0.02352945757203875,0.09695331012558621,48.12595698684454,-104.27510100388527,76.200527287817
2024-09-23 16:23:38.547111,42.78,34.864962,-0.0031339382481259063,-0.02352945757203875,0.09695331012558621,48.12595698684454,-104.27510100388527,76.200527287817
2024-09-23 16:23:38.559034,42.78,34.864962,-0.0031339382481259063,-0.023479709566915436,0.09725178296655933,32.08287849390507,-92.24360919585227,76.200527287817
2024-09-23 16:23:38.602427,42.78,34.865013,-0.002636491424507565,-0.023479709566915436,0.09675432418099966,32.08287849390507,-92.24360919585227,76.200527287817
2024-09-23 16:23:38.614126,42.78,34.865013,-0.002636491424507565,-0.023479709566915436,0.09675432418099966,40.106058693909645,-92.24360919585227,76.200527287817
2024-09-23 16:23:38.646304,42.78,34.865064,-0.002636491424507565,-0.023479709566915436,0.09675432418099966,40.106058693909645,-96.25519929585457,80.21211738781929
2024-09-23 16:23:38.658048,42.78,34.865064,-0.003482159473966507,-0.0228827638849692,0.09755024973162574,40.106058693909645,-96.25519929585457,80.21211738781929
2024-09-23 16:23:38.690879,42.78,34.865064,-0.003482159473966507,-0.0228827638849692,0.09755024973162574,36.09446859390736,-96.25519929585457,80.21211738781929
2024-09-23 16:23:38.702699,42.78,34.865114,-0.0029847020175114316,-0.023330473146428877,0.09755024973162574,36.09446859390736,-104.27510100388527,76.200527287817
2024-09-23 16:23:38.745987,42.78,34.865165,-0.0029847020175114316,-0.023330473146428877,0.0973015264147526,36.09446859390736,-96.25519929585457,80.21211738781929
2024-09-23 16:23:38.757700,42.78,34.865165,-0.003382661564999035,-0.023330473146428877,0.0973015264147526,36.09446859390736,-96.25519929585457,80.21211738781929
2024-09-23 16:23:38.789449,42.78,34.865165,-0.003382661564999035,-0.02303200030545576,0.09710254654607277,36.09446859390736,-96.25519929585457,80.21211738781929
