Ayaan's Suite
Timestamp,Sample Rate (Hz),Time,Ax,Ay,Az,Gx,Gy,Gz
2024-09-23 20:31:21.082769,0,49.727764,0.0004974468710863627,-0.023181236725942318,0.09764974270391902,36.09446859390736,-92.24360919585227,76.200527287817
2024-09-23 20:31:21.124537,0,49.727815,0.0004974468710863627,-0.023181236725942318,0.09764974270391902,36.09446859390736,-92.24360919585227,72.1922225099802
2024-09-23 20:31:21.135684,0,49.727815,0.0011441298778511575,-0.023230986250042305,0.09720203344245934,40.106058693909645,-92.24360919585227,72.1922225099802
2024-09-23 20:31:21.177867,0,49.727866,0.00044769805900669,-0.02308174982955575,0.09720203344245934,40.106058693909645,-92.24360919585227,80.21211738781929
2024-09-23 20:31:21.189855,0,49.727866,0.00044769805900669,-0.02308174982955575,0.09695331012558621,40.106058693909645,-92.24360919585227,80.21211738781929
2024-09-23 20:31:21.222270,0,49.727866,0.00044769805900669,-0.02308174982955575,0.09695331012558621,40.106058693909645,-92.24360919585227,80.21211738781929
2024-09-23 20:31:21.233323,0,49.727917,0.0007461703303635545,-0.02293251340906919,0.09695331012558621,40.106058693909645,-92.24360919585227,76.200527287817
2024-09-23 20:31:21.275947,0,49.727967,0.0007461703303635545,-0.02293251340906919,0.09799795899308542,52.137550501942634,-96.25519929585457,72.1922225099802
2024-09-23 20:31:21.288107,0,49.727967,0.0005969341946851222,-0.02293251340906919,0.09799795899308542,52.137550501942634,-96.25519929585457,72.1922225099802
2024-09-23 20:31:21.320765,0,49.727967,0.0005969341946851222,-0.023230986250042305,0.09720203344245934,40.106058693909645,-96.25519929585457,72.1922225099802
2024-09-23 20:31:21.331795,0,49.728056,0.0005969341946851222,-0.023230986250042305,0.09720203344245934,40.106058693909645,-92.24360919585227,76.200527287817
2024-09-23 20:31:21.373986,0,49.728056,0.0005969341946851222,-0.02308174982955575,0.09789846602079214,48.12595698684454,-92.24360919585227,76.200527287817
2024-09-23 20:31:21.416631,0,49.728108,0.0005969341946851222,-0.02308174982955575,0.09789846602079214,48.12595698684454,-92.24360919585227,76.200527287817
2024-09-23 20:31:21.469411,0,49.728108,0.0007461703303635545,-0.02338022115155219,0.09799795899308542,52.137550501942634,-92.24360919585227,76.200527287817
2024-09-23 20:31:21.480725,0,49.728108,0.0007461703303635545,-0.02338022115155219,0.09799795899308542,52.137550501942634,-92.24360919585227,80.21211738781929
2024-09-23 20:31:21.512415,0,49.728158,0.0007461703303635545,-0.02338022115155219,0.09799795899308542,52.137550501942634,-92.24360919585227,80.21211738781929
2024-09-23 20:31:21.523734,0,49.728158,0.0003979595949556242,-0.023827930413011865,0.09665483728461309,32.08287849390507,-88.23529758782387,80.21211738781929
2024-09-23 20:31:21.566863,0,49.728209,0.0009451553255896806,-0.02268379009219606,0.09665483728461309,32.08287849390507,-88.23529758782387,80.21211738781929
2024-09-23 20:31:21.578315,0,49.728209,0.0009451553255896806,-0.02268379009219606,0.09745075675933246,36.09446859390736,-88.23529758782387,80.21211738781929
2024-09-23 20:31:21.611284,0,49.728209,0.0009451553255896806,-0.02268379009219606,0.09745075675933246,36.09446859390736,-92.24360919585227,68.18063240997792
2024-09-23 20:31:21.622730,0,49.72826,0.00044769805900669,-0.0225345536717095,0.09725178296655933,36.09446859390736,-92.24360919585227,68.18063240997792
2024-09-23 20:31:21.664790,0,49.728311,0.00044769805900669,-0.0225345536717095,0.09725178296655933,44.11764879391193,-92.24360919585227,72.1922225099802
2024-09-23 20:31:21.676870,0,49.728311,0.00044769805900669,-0.023280723622328886,0.09725178296655933,44.11764879391193,-92.24360919585227,72.1922225099802
2024-09-23 20:31:21.709123,0,49.728311,0.00044769805900669,-0.023280723622328886,0.09750050628343246,40.106058693909645,-92.24360919585227,72.1922225099802
2024-09-23 20:31:21.720647,0,49.728311,0.00044769805900669,-0.023280723622328886,0.09750050628343246,40.106058693909645,-92.24360919585227,72.1922225099802
2024-09-23 20:31:21.762844,0,49.7284,0.0005969341946851222,-0.022833026512682618,0.09759999317981902,44.11764879391193,-92.24360919585227,72.1922225099802
2024-09-23 20:31:21.774941,0,49.7284,0.0005969341946851222,-0.022833026512682618,0.09759999317981902,44.11764879391193,-88.23529758782387,72.1922225099802
2024-09-23 20:31:21.808724,0,49.728495,0.0005471957306340564,-0.022833026512682618,0.09759999317981902,44.11764879391193,-88.23529758782387,76.200527287817
2024-09-23 20:31:21.820195,0,49.728495,0.0005471957306340564,-0.02338022115155219,0.09755024973162574,40.106058693909645,-88.23529758782387,76.200527287817
2024-09-23 20:31:21.863229,0,49.728547,0.0006964318663124887,-0.023181236725942318,0.09755024973162574,40.106058693909645,-88.23529758782387,72.1922225099802
2024-09-23 20:31:21.905413,0,49.728547,0.0006964318663124887,-0.023181236725942318,0.09755024973162574,40.106058693909645,-100.26678939585686,72.1922225099802
2024-09-23 20:31:21.917370,0,49.728597,0.0006466830067647949,-0.02313149783467906,0.09755024973162574,40.106058693909645,-100.26678939585686,68.18063240997792
2024-09-23 20:31:21.960337,0,49.728648,0.000845657606494293,-0.02313149783467906,0.09799795899308542,48.12595698684454,-96.25519929585457,72.1922225099802
2024-09-23 20:31:22.054367,41.38,49.728648,0.000845657606494293,-0.02308174982955575,0.09695331012558621,40.106058693909645,-96.25519929585457,72.1922225099802
2024-09-23 20:31:22.066925,41.38,49.728739,0.000845657606494293,-0.02308174982955575,0.09695331012558621,40.106058693909645,-92.24360919585227,80.21211738781929
2024-09-23 20:31:22.099869,41.38,49.728739,0.0007959191899112484,-0.02338022115155219,0.09695331012558621,40.106058693909645,-92.24360919585227,80.21211738781929
2024-09-23 20:31:22.111511,41.38,49.728739,0.0007959191899112484,-0.02338022115155219,0.09725178296655933,44.11764879391193,-92.24360919585227,68.18063240997792
2024-09-23 20:31:22.153872,41.38,49.72879,0.001044642601720419,-0.022833026512682618,0.09705279702197278,40.106058693909645,-92.24360919585227,68.18063240997792
2024-09-23 20:31:22.196443,41.38,49.728841,0.001044642601720419,-0.022833026512682618,0.09705279702197278,40.106058693909645,-92.24360919585227,76.200527287817
2024-09-23 20:31:22.208079,41.38,49.728841,0.0013431148730772837,-0.023230986250042305,0.09764974270391902,36.09446859390736,-92.24360919585227,76.200527287817
2024-09-23 20:31:22.250318,41.38,49.728892,0.0007959191899112484,-0.023230986250042305,0.09764974270391902,36.09446859390736,-100.26678939585686,76.200527287817
2024-09-23 20:31:22.262999,41.38,49.728892,0.0007959191899112484,-0.02313149783467906,0.09705279702197278,36.09446859390736,-100.26678939585686,76.200527287817
2024-09-23 20:31:22.295736,41.38,49.728892,0.0007959191899112484,-0.02313149783467906,0.09705279702197278,48.12595698684454,-88.23529758782387,76.200527287817
2024-09-23 20:31:22.307297,41.38,49.728985,0.00029846189959424716,-0.02293251340906919,0.09705279702197278,48.12595698684454,-88.23529758782387,76.200527287817
2024-09-23 20:31:22.350040,41.38,49.729035,0.0005471957306340564,-0.02293251340906919,0.09705279702197278,40.106058693909645,-96.25519929585457,76.200527287817
2024-09-23 20:31:22.395173,41.38,49.729035,0.0005471957306340564,-0.02313149783467906,0.09784872257259886,40.106058693909645,-96.25519929585457,76.200527287817
2024-09-23 20:31:22.406678,41.38,49.729129,0.0005471957306340564,-0.02313149783467906,0.09784872257259886,40.106058693909645,-96.25519929585457,80.21211738781929
2024-09-23 20:31:22.440159,41.38,49.729129,0.001044642601720419,-0.02278327698858263,0.09784872257259886,40.106058693909645,-96.25519929585457,80.21211738781929
2024-09-23 20:31:22.451453,41.38,49.729129,0.001044642601720419,-0.02278327698858263,0.09740101331113918,48.12595698684454,-92.24360919585227,72.1922225099802
2024-09-23 20:31:22.493453,41.38,49.72918,0.0006964318663124887,-0.023429960042815445,0.0970030596496862,40.106058693909645,-92.24360919585227,72.1922225099802
2024-09-23 20:31:22.505784,41.38,49.72918,0.0006964318663124887,-0.023429960042815445,0.0970030596496862,40.106058693909645,-100.26678939585686,72.1922225099802
2024-09-23 20:31:22.538058,41.38,49.72918,0.0006964318663124887,-0.023429960042815445,0.0970030596496862,40.106058693909645,-100.26678939585686,72.1922225099802
2024-09-23 20:31:22.550189,41.38,49.729231,0.00034821073540793035,-0.023280723622328886,0.0973015264147526,32.08287849390507,-100.26678939585686,72.1922225099802
2024-09-23 20:31:22.593864,41.38,49.729282,0.0005969341946851222,-0.02308174982955575,0.09764974270391902,32.08287849390507,-92.24360919585227,76.200527287817
2024-09-23 20:31:22.637784,41.38,49.729282,0.0005969341946851222,-0.02308174982955575,0.09764974270391902,48.12595698684454,-100.26678939585686,68.18063240997792
2024-09-23 20:31:22.649729,41.38,49.729332,0.0003979595949556242,-0.023827930413011865,0.09764974270391902,48.12595698684454,-100.26678939585686,68.18063240997792
2024-09-23 20:31:22.732691,41.38,49.729332,0.0003979595949556242,-0.023827930413011865,0.0976994861521123,40.106058693909645,-100.26678939585686,68.18063240997792
2024-09-23 20:31:22.744978,41.38,49.729383,0.000845657606494293,-0.023827930413011865,0.0976994861521123,40.106058693909645,-96.25519929585457,72.1922225099802
2024-09-23 20:31:22.788677,41.38,49.72947,0.000845657606494293,-0.023479709566915436,0.09779897304849887,36.09446859390736,-92.24360919585227,80.21211738781929
2024-09-23 20:31:22.830840,41.38,49.72947,0.0009948937421727254,-0.023181236725942318,0.09779897304849887,36.09446859390736,-92.24360919585227,80.21211738781929
2024-09-23 20:31:22.842528,41.38,49.72947,0.0009948937421727254,-0.023181236725942318,0.09705279702197278,36.09446859390736,-100.26678939585686,72.1922225099802
2024-09-23 20:31:22.886081,41.38,49.729522,0.0013431148730772837,-0.02303200030545576,0.09745075675933246,40.106058693909645,-96.25519929585457,72.1922225099802
2024-09-23 20:31:22.927915,41.38,49.729572,0.0013431148730772837,-0.02303200030545576,0.09745075675933246,40.106058693909645,-96.25519929585457,72.1922225099802
2024-09-23 20:31:22.939379,41.38,49.729572,0.0009948937421727254,-0.02303200030545576,0.09750050628343246,40.106058693909645,-96.25519929585457,72.1922225099802
2024-09-23 20:31:22.981573,41.38,49.729667,9.948729986474904e-05,-0.023330473146428877,0.09750050628343246,40.106058693909645,-96.25519929585457,72.1922225099802
2024-09-23 20:31:22.993339,41.38,49.729667,9.948729986474904e-05,-0.023330473146428877,0.09705279702197278,40.106058693909645,-96.25519929585457,72.1922225099802
2024-09-23 20:31:23.026469,41.38,49.729667,9.948729986474904e-05,-0.023330473146428877,0.09705279702197278,32.08287849390507,-92.24360919585227,76.200527287817
2024-09-23 20:31:23.038047,41.38,49.729718,0.0006466830067647949,-0.022982261414192504,0.09705279702197278,32.08287849390507,-92.24360919585227,76.200527287817
2024-09-23 20:31:23.079879,41.66,49.729768,0.0011441298778511575,-0.022982261414192504,0.0976994861521123,40.106058693909645,-100.26678939585686,80.21211738781929
2024-09-23 20:31:23.123008,41.66,49.729768,0.0011441298778511575,-0.023579196463302005,0.09784872257259886,40.106058693909645,-100.26678939585686,80.21211738781929
2024-09-23 20:31:23.134642,41.66,49.72986,0.0011441298778511575,-0.023579196463302005,0.09784872257259886,40.106058693909645,-88.23529758782387,76.200527287817
2024-09-23 20:31:23.178413,41.66,49.72986,0.0005471957306340564,-0.02303200030545576,0.09829641968224512,40.106058693909645,-92.24360919585227,76.200527287817
2024-09-23 20:31:23.190172,41.66,49.72986,0.0005471957306340564,-0.02303200030545576,0.09829641968224512,40.106058693909645,-92.24360919585227,76.200527287817
2024-09-23 20:31:23.222328,41.66,49.729912,0.0005969341946851222,-0.023330473146428877,0.09829641968224512,40.106058693909645,-92.24360919585227,76.200527287817
2024-09-23 20:31:23.233927,41.66,49.729912,0.0005969341946851222,-0.023330473146428877,0.09774922960030558,40.106058693909645,-92.24360919585227,76.200527287817
2024-09-23 20:31:23.267039,41.66,49.729912,0.0005969341946851222,-0.023330473146428877,0.09774922960030558,40.106058693909645,-92.24360919585227,76.200527287817
2024-09-23 20:31:23.277958,41.66,49.729962,0.0005969341946851222,-0.023479709566915436,0.09680407370509965,44.11764879391193,-92.24360919585227,76.200527287817
2024-09-23 20:31:23.320750,41.66,49.730013,0.00029846189959424716,-0.023479709566915436,0.09680407370509965,44.11764879391193,-88.23529758782387,80.21211738781929
2024-09-23 20:31:23.332117,41.66,49.730013,0.00029846189959424716,-0.0225345536717095,0.0973015264147526,44.11764879391193,-88.23529758782387,80.21211738781929
2024-09-23 20:31:23.364004,41.66,49.730013,0.00029846189959424716,-0.0225345536717095,0.0973015264147526,32.08287849390507,-88.23529758782387,80.21211738781929
2024-09-23 20:31:23.376554,41.66,49.730064,0.0006964318663124887,-0.02338022115155219,0.0973015264147526,32.08287849390507,-88.23529758782387,76.200527287817
2024-09-23 20:31:23.419590,41.66,49.730114,0.0006964318663124887,-0.02338022115155219,0.09779897304849887,44.11764879391193,-88.23529758782387,80.21211738781929
2024-09-23 20:31:23.431550,41.66,49.730114,0.0005471957306340564,-0.02338022115155219,0.09779897304849887,44.11764879391193,-88.23529758782387,80.21211738781929
2024-09-23 20:31:23.463807,41.66,49.730114,0.0005471957306340564,-0.022733528983459317,0.09824668230995855,44.11764879391193,-88.23529758782387,80.21211738781929
2024-09-23 20:31:23.475981,41.66,49.730201,0.0005471957306340564,-0.022733528983459317,0.09824668230995855,40.106058693909645,-100.26678939585686,84.22370748782159
2024-09-23 20:31:23.519471,41.66,49.730201,0.0011441298778511575,-0.02352945757203875,0.0976994861521123,44.11764879391193,-84.22370748782159,92.24360919585227
2024-09-23 20:31:23.562472,41.66,49.730253,0.0008954064660419869,-0.02228583035483637,0.0976994861521123,44.11764879391193,-84.22370748782159,92.24360919585227
2024-09-23 20:31:23.574372,41.66,49.730253,0.0008954064660419869,-0.02228583035483637,0.09740101331113918,52.137550501942634,-92.24360919585227,92.24360919585227
2024-09-23 20:31:23.617799,41.66,49.730253,0.0008954064660419869,-0.02228583035483637,0.09740101331113918,52.137550501942634,-92.24360919585227,84.22370748782159
2024-09-23 20:31:23.763834,41.66,49.730304,0.0006964318663124887,-0.023230986250042305,0.09759999317981902,40.106058693909645,-92.24360919585227,84.22370748782159
2024-09-23 20:31:23.806707,41.66,49.730354,0.0006964318663124887,-0.023230986250042305,0.09759999317981902,40.106058693909645,-96.25519929585457,76.200527287817
2024-09-23 20:31:23.818248,41.66,49.730354,0.0008954064660419869,-0.02338022115155219,0.09740101331113918,40.106058693909645,-96.25519929585457,76.200527287817
2024-09-23 20:31:23.860998,41.66,49.730405,0.000845657606494293,-0.022982261414192504,0.09740101331113918,32.08287849390507,-96.25519929585457,76.200527287817
2024-09-23 20:31:23.904037,41.66,49.730405,0.000845657606494293,-0.022982261414192504,0.09715228999426605,40.106058693909645,-92.24360919585227,76.200527287817
2024-09-23 20:31:23.916036,41.66,49.730456,0.0009451553255896806,-0.022982261414192504,0.09715228999426605,40.106058693909645,-92.24360919585227,76.200527287817
2024-09-23 20:31:23.958676,41.66,49.730543,0.0009451553255896806,-0.02352945757203875,0.09720203344245934,40.106058693909645,-96.25519929585457,80.21211738781929
2024-09-23 20:31:24.001408,41.66,49.730543,0.0004974468710863627,-0.023280723622328886,0.09764974270391902,40.106058693909645,-96.25519929585457,80.21211738781929
2024-09-23 20:31:24.013029,41.66,49.730543,0.0004974468710863627,-0.023280723622328886,0.09764974270391902,44.11764879391193,-100.26678939585686,80.21211738781929
2024-09-23 20:31:24.056680,41.66,49.730738,0.0005969341946851222,-0.02313149783467906,0.09715228999426605,40.106058693909645,-92.24360919585227,80.21211738781929
2024-09-23 20:31:24.100806,40.5,49.73079,0.0006964318663124887,-0.02313149783467906,0.09715228999426605,40.106058693909645,-92.24360919585227,76.200527287817
2024-09-23 20:31:24.112593,40.5,49.73079,0.0006964318663124887,-0.02338022115155219,0.09715228999426605,40.106058693909645,-92.24360919585227,76.200527287817
2024-09-23 20:31:24.144095,40.5,49.73079,0.0006964318663124887,-0.02338022115155219,0.09715228999426605,40.106058693909645,-96.25519929585457,76.200527287817
2024-09-23 20:31:24.156416,40.5,49.73084,0.0011938787373988514,-0.02303200030545576,0.09809744588947199,40.106058693909645,-96.25519929585457,80.21211738781929
2024-09-23 20:31:24.198938,40.5,49.730891,0.0011938787373988514,-0.02303200030545576,0.09809744588947199,32.08287849390507,-96.25519929585457,80.21211738781929
2024-09-23 20:31:24.210239,40.5,49.730891,0.0006466830067647949,-0.023181236725942318,0.09809744588947199,32.08287849390507,-96.25519929585457,80.21211738781929
2024-09-23 20:31:24.242633,40.5,49.730891,0.0006466830067647949,-0.023181236725942318,0.0973015264147526,32.08287849390507,-96.25519929585457,80.21211738781929
2024-09-23 20:31:24.253843,40.5,49.730942,0.0005471957306340564,-0.023181236725942318,0.0973015264147526,40.106058693909645,-92.24360919585227,80.21211738781929
2024-09-23 20:31:24.296580,40.5,49.730942,0.0005471957306340564,-0.023330473146428877,0.09789846602079214,52.137550501942634,-100.26678939585686,80.21211738781929
2024-09-23 20:31:24.307674,40.5,49.73103,0.0005471957306340564,-0.023330473146428877,0.09789846602079214,52.137550501942634,-100.26678939585686,68.18063240997792
2024-09-23 20:31:24.339750,40.5,49.73103,0.00014922575204880957,-0.023330473146428877,0.09789846602079214,52.137550501942634,-100.26678939585686,68.18063240997792
2024-09-23 20:31:24.392324,40.5,49.73103,0.00014922575204880957,-0.02338022115155219,0.09720203344245934,40.106058693909645,-100.26678939585686,68.18063240997792
2024-09-23 20:31:24.404327,40.5,49.731082,0.00014922575204880957,-0.02338022115155219,0.09720203344245934,40.106058693909645,-96.25519929585457,72.1922225099802
2024-09-23 20:31:24.436525,40.5,49.731082,0.0008954064660419869,-0.02338022115155219,0.09720203344245934,40.106058693909645,-96.25519929585457,72.1922225099802
2024-09-23 20:31:24.447989,40.5,49.731082,0.0008954064660419869,-0.023230986250042305,0.09725178296655933,40.106058693909645,-88.23529758782387,80.21211738781929
2024-09-23 20:31:24.490869,40.5,49.731132,0.0005471957306340564,-0.023429960042815445,0.09715228999426605,40.106058693909645,-88.23529758782387,80.21211738781929
2024-09-23 20:31:24.502384,40.5,49.731132,0.0005471957306340564,-0.023429960042815445,0.09715228999426605,40.106058693909645,-96.25519929585457,80.21211738781929
2024-09-23 20:31:24.535140,40.5,49.731132,0.0005471957306340564,-0.023429960042815445,0.09715228999426605,40.106058693909645,-96.25519929585457,76.200527287817
2024-09-23 20:31:24.546510,40.5,49.731183,0.0007461703303635545,-0.0228827638849692,0.09745075675933246,36.09446859390736,-96.25519929585457,76.200527287817
2024-09-23 20:31:24.589167,40.5,49.731234,0.0010943914612681128,-0.02313149783467906,0.09745075675933246,36.09446859390736,-96.25519929585457,76.200527287817
2024-09-23 20:31:24.600956,40.5,49.731234,0.0010943914612681128,-0.02313149783467906,0.09755024973162574,36.09446859390736,-96.25519929585457,76.200527287817
2024-09-23 20:31:24.632540,40.5,49.731234,0.0010943914612681128,-0.02313149783467906,0.09755024973162574,44.11764879391193,-96.25519929585457,76.200527287817
2024-09-23 20:31:24.644087,40.5,49.731325,0.0005471957306340564,-0.023330473146428877,0.09755024973162574,44.11764879391193,-100.26678939585686,72.1922225099802
2024-09-23 20:31:24.686597,40.5,49.731375,0.0005471957306340564,-0.023330473146428877,0.09710254654607277,48.12595698684454,-92.24360919585227,80.21211738781929
2024-09-23 20:31:24.698874,40.5,49.731375,0.0009948937421727254,-0.023330473146428877,0.09710254654607277,48.12595698684454,-92.24360919585227,80.21211738781929
2024-09-23 20:31:24.730930,40.5,49.731375,0.0009948937421727254,-0.02303200030545576,0.09710254654607277,48.12595698684454,-92.24360919585227,80.21211738781929
2024-09-23 20:31:24.784915,40.5,49.731375,0.0009948937421727254,-0.02303200030545576,0.09759999317981902,44.11764879391193,-96.25519929585457,80.21211738781929
2024-09-23 20:31:24.797128,40.5,49.731469,0.0009948937421727254,-0.02303200030545576,0.09759999317981902,44.11764879391193,-96.25519929585457,80.21211738781929
2024-09-23 20:31:24.829300,40.5,49.731469,0.0005969341946851222,-0.02313149783467906,0.09759999317981902,44.11764879391193,-96.25519929585457,80.21211738781929
2024-09-23 20:31:24.840788,40.5,49.731469,0.0005969341946851222,-0.02313149783467906,0.0973512698629459,40.106058693909645,-100.26678939585686,80.21211738781929
2024-09-23 20:31:24.884119,40.5,49.73152,0.0005471957306340564,-0.02263404056809607,0.09755024973162574,40.106058693909645,-92.24360919585227,80.21211738781929
2024-09-23 20:31:24.926207,40.5,49.731571,0.0005471957306340564,-0.02263404056809607,0.09755024973162574,40.106058693909645,-92.24360919585227,76.200527287817
2024-09-23 20:31:24.937634,40.5,49.731571,0.0006964318663124887,-0.023479709566915436,0.0973512698629459,44.11764879391193,-92.24360919585227,76.200527287817
2024-09-23 20:31:24.980814,40.5,49.731622,0.0011938787373988514,-0.02303200030545576,0.0976994861521123,44.11764879391193,-96.25519929585457,72.1922225099802
2024-09-23 20:31:25.023656,40.5,49.731622,0.0011938787373988514,-0.02303200030545576,0.0976994861521123,32.08287849390507,-104.27510100388527,72.1922225099802
2024-09-23 20:31:25.034756,40.5,49.731714,0.0011938787373988514,-0.022982261414192504,0.0976994861521123,32.08287849390507,-104.27510100388527,72.1922225099802
2024-09-23 20:31:25.078155,40.5,49.731714,0.0011938787373988514,-0.022982261414192504,0.09799795899308542,32.08287849390507,-104.27510100388527,72.1922225099802
2024-09-23 20:31:25.120932,41.41,49.731714,0.0011938787373988514,-0.022982261414192504,0.09799795899308542,44.11764879391193,-96.25519929585457,72.1922225099802
2024-09-23 20:31:25.132236,41.41,49.731765,0.0010943914612681128,-0.023181236725942318,0.09799795899308542,44.11764879391193,-96.25519929585457,76.200527287817
2024-09-23 20:31:25.174831,41.41,49.731859,0.0010943914612681128,-0.023181236725942318,0.0973512698629459,44.11764879391193,-92.24360919585227,80.21211738781929
2024-09-23 20:31:25.186977,41.41,49.731859,0.0001989745997294981,-0.023181236725942318,0.0973512698629459,44.11764879391193,-92.24360919585227,80.21211738781929
2024-09-23 20:31:25.219894,41.41,49.731859,0.0001989745997294981,-0.02338022115155219,0.09755024973162574,44.11764879391193,-92.24360919585227,80.21211738781929
2024-09-23 20:31:25.230841,41.41,49.73191,0.0001989745997294981,-0.02338022115155219,0.09755024973162574,44.11764879391193,-88.23529758782387,84.22370748782159
2024-09-23 20:31:25.272817,41.41,49.73191,0.00029846189959424716,-0.0228827638849692,0.09745075675933246,40.106058693909645,-96.25519929585457,76.200527287817
2024-09-23 20:31:25.316034,41.41,49.731961,0.0005471957306340564,-0.0228827638849692,0.09745075675933246,40.106058693909645,-96.25519929585457,76.200527287817
2024-09-23 20:31:25.327605,41.41,49.731961,0.0005471957306340564,-0.023330473146428877,0.0973015264147526,44.11764879391193,-96.25519929585457,76.200527287817
2024-09-23 20:31:25.370325,41.41,49.732055,0.0007461703303635545,-0.023230986250042305,0.0973015264147526,44.11764879391193,-96.25519929585457,76.200527287817
2024-09-23 20:31:25.382079,41.41,49.732055,0.0007461703303635545,-0.023230986250042305,0.0973015264147526,40.106058693909645,-96.25519929585457,76.200527287817
2024-09-23 20:31:25.414949,41.41,49.732106,0.0007461703303635545,-0.023230986250042305,0.0973015264147526,40.106058693909645,-104.27510100388527,72.1922225099802
2024-09-23 20:31:25.426807,41.41,49.732106,0.0006466830067647949,-0.023479709566915436,0.09750050628343246,40.106058693909645,-104.27510100388527,72.1922225099802
2024-09-23 20:31:25.470107,41.41,49.732157,0.0006964318663124887,-0.023827930413011865,0.09750050628343246,44.11764879391193,-96.25519929585457,76.200527287817
2024-09-23 20:31:25.512377,41.41,49.732157,0.0006964318663124887,-0.023827930413011865,0.09670458680871308,40.106058693909645,-96.25519929585457,76.200527287817
2024-09-23 20:31:25.523434,41.41,49.732207,0.0005969341946851222,-0.023827930413011865,0.09670458680871308,40.106058693909645,-88.23529758782387,76.200527287817
2024-09-23 20:31:25.565580,41.41,49.732298,0.0005969341946851222,-0.023230986250042305,0.09755024973162574,44.11764879391193,-96.25519929585457,72.1922225099802
2024-09-23 20:31:25.608150,41.41,49.732298,0.0012933660135295898,-0.023230986250042305,0.09755024973162574,44.11764879391193,-96.25519929585457,72.1922225099802
2024-09-23 20:31:25.619686,41.41,49.732298,0.0012933660135295898,-0.023230986250042305,0.09695331012558621,40.106058693909645,-92.24360919585227,68.18063240997792
2024-09-23 20:31:25.662725,41.41,49.732349,0.0007959191899112484,-0.023181236725942318,0.09750050628343246,44.11764879391193,-92.24360919585227,68.18063240997792
2024-09-23 20:31:25.705640,41.41,49.732349,0.0007959191899112484,-0.023181236725942318,0.09750050628343246,44.11764879391193,-88.23529758782387,72.1922225099802
2024-09-23 20:31:25.717214,41.41,49.7324,0.0012436275969465451,-0.02367869399252531,0.09725178296655933,44.11764879391193,-88.23529758782387,72.1922225099802
2024-09-23 20:31:25.760134,41.41,49.73245,0.0009948937421727254,-0.02367869399252531,0.09725178296655933,44.11764879391193,-88.23529758782387,80.21211738781929
2024-09-23 20:31:25.771838,41.41,49.73245,0.0009948937421727254,-0.02263404056809607,0.09725178296655933,44.11764879391193,-88.23529758782387,80.21211738781929
2024-09-23 20:31:25.803520,41.41,49.73245,0.0009948937421727254,-0.02263404056809607,0.09799795899308542,40.106058693909645,-88.23529758782387,80.21211738781929
2024-09-23 20:31:25.814702,41.41,49.732501,0.0012436275969465451,-0.02263404056809607,0.09799795899308542,40.106058693909645,-96.25519929585457,76.200527287817
2024-09-23 20:31:25.857985,41.41,49.732552,0.0012436275969465451,-0.02308174982955575,0.09789846602079214,48.12595698684454,-100.26678939585686,76.200527287817
2024-09-23 20:31:25.900314,41.41,49.732552,0.00044769805900669,-0.02308174982955575,0.09789846602079214,48.12595698684454,-100.26678939585686,76.200527287817
2024-09-23 20:31:25.911927,41.41,49.732552,0.00044769805900669,-0.02308174982955575,0.0973512698629459,36.09446859390736,-96.25519929585457,76.200527287817
2024-09-23 20:31:25.954460,41.41,49.732639,0.00034821073540793035,-0.023181236725942318,0.09750050628343246,52.137550501942634,-96.25519929585457,76.200527287817
2024-09-23 20:31:25.966634,41.41,49.732639,0.00034821073540793035,-0.023181236725942318,0.09750050628343246,52.137550501942634,-92.24360919585227,76.200527287817
2024-09-23 20:31:25.998452,41.41,49.732691,0.00034821073540793035,-0.023181236725942318,0.09750050628343246,52.137550501942634,-92.24360919585227,72.1922225099802
2024-09-23 20:31:26.010460,41.41,49.732691,0.0007461703303635545,-0.023280723622328886,0.09759999317981902,44.11764879391193,-92.24360919585227,72.1922225099802
2024-09-23 20:31:26.052528,41.41,49.732742,0.0008954064660419869,-0.0228827638849692,0.09759999317981902,44.11764879391193,-96.25519929585457,72.1922225099802
2024-09-23 20:31:26.064310,41.41,49.732742,0.0008954064660419869,-0.0228827638849692,0.0973015264147526,44.11764879391193,-96.25519929585457,72.1922225099802
2024-09-23 20:31:26.096284,41.41,49.732742,0.0008954064660419869,-0.0228827638849692,0.0973015264147526,40.106058693909645,-92.24360919585227,72.1922225099802
2024-09-23 20:31:26.107332,41.41,49.732792,0.0010943914612681128,-0.02397715620066169,0.0973015264147526,40.106058693909645,-92.24360919585227,72.1922225099802
2024-09-23 20:31:26.149905,41.87,49.732843,0.000845657606494293,-0.02397715620066169,0.09705279702197278,40.106058693909645,-88.23529758782387,68.18063240997792
2024-09-23 20:31:26.192228,41.87,49.732843,0.000845657606494293,-0.023181236725942318,0.09705279702197278,40.106058693909645,-88.23529758782387,68.18063240997792
2024-09-23 20:31:26.203639,41.87,49.732931,0.000845657606494293,-0.023181236725942318,0.09740101331113918,44.11764879391193,-88.23529758782387,76.200527287817
2024-09-23 20:31:26.246272,41.87,49.732931,0.0006964318663124887,-0.023330473146428877,0.09755024973162574,56.14914060194492,-92.24360919585227,76.200527287817
2024-09-23 20:31:26.257914,41.87,49.732931,0.0006964318663124887,-0.023330473146428877,0.09755024973162574,56.14914060194492,-92.24360919585227,76.200527287817
2024-09-23 20:31:26.289939,41.87,49.732983,0.0006964318663124887,-0.023330473146428877,0.09755024973162574,56.14914060194492,-92.24360919585227,76.200527287817
2024-09-23 20:31:26.301805,41.87,49.732983,0.0008954064660419869,-0.023181236725942318,0.09750050628343246,44.11764879391193,-92.24360919585227,76.200527287817
2024-09-23 20:31:26.344713,41.87,49.733034,0.0004974468710863627,-0.02308174982955575,0.09745075675933246,44.11764879391193,-92.24360919585227,76.200527287817
2024-09-23 20:31:26.356461,41.87,49.733034,0.0004974468710863627,-0.02308174982955575,0.09745075675933246,40.106058693909645,-92.24360919585227,76.200527287817
2024-09-23 20:31:26.388574,41.87,49.733034,0.0004974468710863627,-0.02308174982955575,0.09745075675933246,40.106058693909645,-96.25519929585457,80.21211738781929
2024-09-23 20:31:26.399762,41.87,49.733084,0.0006466830067647949,-0.023230986250042305,0.09784872257259886,40.106058693909645,-96.25519929585457,80.21211738781929
2024-09-23 20:31:26.442392,41.87,49.733135,0.00044769805900669,-0.023230986250042305,0.09784872257259886,40.106058693909645,-96.25519929585457,76.200527287817
2024-09-23 20:31:26.454449,41.87,49.733135,0.00044769805900669,-0.0228827638849692,0.09784872257259886,40.106058693909645,-96.25519929585457,76.200527287817
2024-09-23 20:31:26.487340,41.87,49.733135,0.00044769805900669,-0.0228827638849692,0.0970030596496862,48.12595698684454,-96.25519929585457,76.200527287817
2024-09-23 20:31:26.499240,41.87,49.733186,0.0009948937421727254,-0.0228827638849692,0.0970030596496862,48.12595698684454,-96.25519929585457,80.21211738781929
2024-09-23 20:31:26.583274,41.87,49.733186,0.0009948937421727254,-0.02303200030545576,0.09695331012558621,48.12595698684454,-96.25519929585457,80.21211738781929
2024-09-23 20:31:26.595455,41.87,49.733273,0.0009948937421727254,-0.02303200030545576,0.09695331012558621,44.11764879391193,-92.24360919585227,76.200527287817
2024-09-23 20:31:26.638638,41.87,49.733273,0.0009948937421727254,-0.02313149783467906,0.09710254654607277,48.12595698684454,-96.25519929585457,76.200527287817
2024-09-23 20:31:26.683245,41.87,49.733324,0.00044769805900669,-0.023429960042815445,0.09710254654607277,48.12595698684454,-96.25519929585457,76.200527287817
2024-09-23 20:31:26.694636,41.87,49.733324,0.00044769805900669,-0.023429960042815445,0.09764974270391902,44.11764879391193,-88.23529758782387,76.200527287817
2024-09-23 20:31:26.778813,41.87,49.733375,0.00044769805900669,-0.023429960042815445,0.09764974270391902,44.11764879391193,-88.23529758782387,72.1922225099802
2024-09-23 20:31:26.832023,41.87,49.733375,0.0004974468710863627,-0.0228827638849692,0.09715228999426605,44.11764879391193,-96.25519929585457,72.1922225099802
2024-09-23 20:31:26.844131,41.87,49.733375,0.0004974468710863627,-0.0228827638849692,0.09715228999426605,44.11764879391193,-96.25519929585457,76.200527287817
2024-09-23 20:31:26.877427,41.87,49.733425,0.0006466830067647949,-0.02362894446842532,0.09715228999426605,44.11764879391193,-96.25519929585457,76.200527287817
2024-09-23 20:31:26.888997,41.87,49.733425,0.0006466830067647949,-0.02362894446842532,0.09680407370509965,40.106058693909645,-96.25519929585457,76.200527287817
2024-09-23 20:31:26.931400,41.87,49.733519,0.0012436275969465451,-0.02362894446842532,0.09720203344245934,44.11764879391193,-96.25519929585457,72.1922225099802
2024-09-23 20:31:26.973372,41.87,49.733519,0.0012436275969465451,-0.02362894446842532,0.09720203344245934,44.11764879391193,-92.24360919585227,84.22370748782159
2024-09-23 20:31:26.985325,41.87,49.733569,0.000845657606494293,-0.022982261414192504,0.09759999317981902,44.11764879391193,-92.24360919585227,84.22370748782159
2024-09-23 20:31:27.028843,41.87,49.733663,0.000845657606494293,-0.023579196463302005,0.09759999317981902,56.14914060194492,-92.24360919585227,80.21211738781929
2024-09-23 20:31:27.072455,41.87,49.733663,0.000845657606494293,-0.023579196463302005,0.09720203344245934,44.11764879391193,-96.25519929585457,80.21211738781929
2024-09-23 20:31:27.083596,41.87,49.733763,0.00044769805900669,-0.023579196463302005,0.09720203344245934,44.11764879391193,-96.25519929585457,76.200527287817
2024-09-23 20:31:27.127160,41.87,49.733858,0.00044769805900669,-0.023230986250042305,0.09759999317981902,40.106058693909645,-92.24360919585227,76.200527287817
2024-09-23 20:31:27.169468,41.43,49.733858,0.0009948937421727254,-0.023230986250042305,0.098047696365372,40.106058693909645,-92.24360919585227,76.200527287817
2024-09-23 20:31:27.181113,41.43,49.733858,0.0009948937421727254,-0.023230986250042305,0.098047696365372,48.12595698684454,-92.24360919585227,72.1922225099802
2024-09-23 20:31:27.223590,41.43,49.733909,0.0007959191899112484,-0.02278327698858263,0.09784872257259886,40.106058693909645,-88.23529758782387,72.1922225099802
2024-09-23 20:31:27.318160,41.43,49.733909,0.0007959191899112484,-0.02278327698858263,0.09784872257259886,40.106058693909645,-88.23529758782387,72.1922225099802
2024-09-23 20:31:27.360814,41.43,49.73396,0.0007959191899112484,-0.02278327698858263,0.09784872257259886,40.106058693909645,-88.23529758782387,72.1922225099802
2024-09-23 20:31:27.373182,41.43,49.73396,0.0008954064660419869,-0.023330473146428877,0.09715228999426605,48.12595698684454,-92.24360919585227,72.1922225099802
2024-09-23 20:31:27.416886,41.43,49.734011,0.0009948937421727254,-0.02278327698858263,0.09740101331113918,48.12595698684454,-92.24360919585227,72.1922225099802
2024-09-23 20:31:27.428764,41.43,49.734011,0.0009948937421727254,-0.02278327698858263,0.09740101331113918,52.137550501942634,-92.24360919585227,72.1922225099802
2024-09-23 20:31:27.460573,41.43,49.734011,0.0009948937421727254,-0.02278327698858263,0.09740101331113918,52.137550501942634,-96.25519929585457,80.21211738781929
2024-09-23 20:31:27.471586,41.43,49.734061,0.0007461703303635545,-0.02313149783467906,0.0973015264147526,52.137550501942634,-96.25519929585457,80.21211738781929
2024-09-23 20:31:27.514511,41.43,49.734112,0.001044642601720419,-0.02352945757203875,0.0973015264147526,44.11764879391193,-92.24360919585227,80.21211738781929
2024-09-23 20:31:27.557464,41.43,49.734112,0.001044642601720419,-0.02352945757203875,0.09675432418099966,44.11764879391193,-92.24360919585227,80.21211738781929
2024-09-23 20:31:27.569111,41.43,49.734199,0.0006466830067647949,-0.02352945757203875,0.09675432418099966,44.11764879391193,-96.25519929585457,76.200527287817
2024-09-23 20:31:27.611870,41.43,49.734199,0.0006466830067647949,-0.02293251340906919,0.09779897304849887,32.08287849390507,-96.25519929585457,72.1922225099802
2024-09-23 20:31:27.624498,41.43,49.734345,0.0006466830067647949,-0.02293251340906919,0.09779897304849887,32.08287849390507,-96.25519929585457,72.1922225099802
2024-09-23 20:31:27.657035,41.43,49.734345,-9.948729986474904e-05,-0.02293251340906919,0.0973512698629459,32.08287849390507,-96.25519929585457,72.1922225099802
2024-09-23 20:31:27.668560,41.43,49.734345,-9.948729986474904e-05,-0.02293251340906919,0.0973512698629459,40.106058693909645,-96.25519929585457,72.1922225099802
2024-09-23 20:31:27.711261,41.43,49.734397,0.0012933660135295898,-0.02308174982955575,0.0973512698629459,44.11764879391193,-92.24360919585227,72.1922225099802
2024-09-23 20:31:27.805326,41.43,49.734447,0.0012933660135295898,-0.02308174982955575,0.0973512698629459,44.11764879391193,-92.24360919585227,72.1922225099802
2024-09-23 20:31:27.848040,41.43,49.734447,0.0007959191899112484,-0.02308174982955575,0.0973512698629459,44.11764879391193,-92.24360919585227,72.1922225099802
2024-09-23 20:31:27.859845,41.43,49.734447,0.0007959191899112484,-0.02293251340906919,0.09755024973162574,44.11764879391193,-92.24360919585227,76.200527287817
2024-09-23 20:31:27.902297,41.43,49.734498,0.000845657606494293,-0.023330473146428877,0.09794820946898543,44.11764879391193,-92.24360919585227,76.200527287817
2024-09-23 20:31:27.913258,41.43,49.734498,0.000845657606494293,-0.023330473146428877,0.09794820946898543,44.11764879391193,-96.25519929585457,76.200527287817
2024-09-23 20:31:27.946591,41.43,49.734498,0.000845657606494293,-0.023330473146428877,0.09794820946898543,44.11764879391193,-96.25519929585457,72.1922225099802
2024-09-23 20:31:27.957908,41.43,49.734549,0.000845657606494293,-0.0228827638849692,0.09779897304849887,40.106058693909645,-96.25519929585457,72.1922225099802
2024-09-23 20:31:28.052536,41.43,49.734599,0.0010943914612681128,-0.02293251340906919,0.09779897304849887,40.106058693909645,-100.26678939585686,80.21211738781929
2024-09-23 20:31:28.064152,41.43,49.734599,0.0010943914612681128,-0.02293251340906919,0.09720203344245934,40.106058693909645,-100.26678939585686,80.21211738781929
2024-09-23 20:31:28.097753,41.43,49.734687,0.0010943914612681128,-0.02293251340906919,0.09720203344245934,40.106058693909645,-96.25519929585457,80.21211738781929
2024-09-23 20:31:28.109197,41.43,49.734687,0.0007959191899112484,-0.022833026512682618,0.09720203344245934,40.106058693909645,-96.25519929585457,80.21211738781929
2024-09-23 20:31:28.142735,41.43,49.734687,0.0007959191899112484,-0.022833026512682618,0.0976994861521123,32.08287849390507,-96.25519929585457,80.21211738781929
2024-09-23 20:31:28.154063,41.43,49.734787,0.0006964318663124887,-0.022833026512682618,0.0976994861521123,32.08287849390507,-96.25519929585457,80.21211738781929
2024-09-23 20:31:28.197321,40.93,49.734881,0.0006964318663124887,-0.02278327698858263,0.09759999317981902,44.11764879391193,-100.26678939585686,76.200527287817
2024-09-23 20:31:28.240161,40.93,49.734881,0.0008954064660419869,-0.023280723622328886,0.09759999317981902,44.11764879391193,-100.26678939585686,76.200527287817
2024-09-23 20:31:28.251239,40.93,49.734881,0.0008954064660419869,-0.023280723622328886,0.0973512698629459,32.08287849390507,-92.24360919585227,76.200527287817
2024-09-23 20:31:28.294536,40.93,49.734979,0.0010943914612681128,-0.023280723622328886,0.09725178296655933,44.11764879391193,-92.24360919585227,76.200527287817
2024-09-23 20:31:28.306815,40.93,49.734979,0.0010943914612681128,-0.023280723622328886,0.09725178296655933,44.11764879391193,-100.26678939585686,76.200527287817
2024-09-23 20:31:28.339640,40.93,49.735031,0.0010943914612681128,-0.023280723622328886,0.09725178296655933,44.11764879391193,-100.26678939585686,76.200527287817
2024-09-23 20:31:28.351149,40.93,49.735031,0.0005969341946851222,-0.02313149783467906,0.09705279702197278,44.11764879391193,-100.26678939585686,76.200527287817
2024-09-23 20:31:28.393136,40.93,49.735082,0.0008954064660419869,-0.023181236725942318,0.09720203344245934,44.11764879391193,-92.24360919585227,76.200527287817
2024-09-23 20:31:28.435052,40.93,49.735082,0.0008954064660419869,-0.023181236725942318,0.09720203344245934,44.11764879391193,-88.23529758782387,76.200527287817
2024-09-23 20:31:28.446761,40.93,49.735132,0.0007959191899112484,-0.023479709566915436,0.09720203344245934,44.11764879391193,-88.23529758782387,76.200527287817
2024-09-23 20:31:28.490013,40.93,49.735183,0.0012933660135295898,-0.023479709566915436,0.09725178296655933,40.106058693909645,-92.24360919585227,76.200527287817
2024-09-23 20:31:28.532050,40.93,49.735183,0.0012933660135295898,-0.023230986250042305,0.0973015264147526,40.106058693909645,-92.24360919585227,76.200527287817
2024-09-23 20:31:28.543363,40.93,49.735271,0.0012933660135295898,-0.023230986250042305,0.0973015264147526,36.09446859390736,-100.26678939585686,68.18063240997792
2024-09-23 20:31:28.585650,40.93,49.735271,0.0006466830067647949,-0.02367869399252531,0.09740101331113918,48.12595698684454,-96.25519929585457,68.18063240997792
2024-09-23 20:31:28.597275,40.93,49.735271,0.0006466830067647949,-0.02367869399252531,0.09740101331113918,48.12595698684454,-96.25519929585457,76.200527287817
2024-09-23 20:31:28.629821,40.93,49.735323,0.0009948937421727254,-0.02367869399252531,0.09740101331113918,48.12595698684454,-96.25519929585457,76.200527287817
2024-09-23 20:31:28.641456,40.93,49.735323,0.0009948937421727254,-0.023330473146428877,0.09710254654607277,48.12595698684454,-100.26678939585686,76.200527287817
2024-09-23 20:31:28.735298,40.93,49.735374,0.0008954064660419869,-0.023181236725942318,0.09784872257259886,48.12595698684454,-100.26678939585686,72.1922225099802
2024-09-23 20:31:28.778151,40.93,49.735424,0.0008954064660419869,-0.023181236725942318,0.09784872257259886,48.12595698684454,-96.25519929585457,72.1922225099802
2024-09-23 20:31:28.789583,40.93,49.735424,0.0009948937421727254,-0.023330473146428877,0.09725178296655933,48.12595698684454,-96.25519929585457,72.1922225099802
2024-09-23 20:31:28.832172,40.93,49.735475,0.0006964318663124887,-0.023181236725942318,0.09725178296655933,36.09446859390736,-92.24360919585227,72.1922225099802
2024-09-23 20:31:28.874672,40.93,49.735475,0.0006964318663124887,-0.023181236725942318,0.0976994861521123,40.106058693909645,-92.24360919585227,72.1922225099802
2024-09-23 20:31:28.886351,40.93,49.735526,0.0006466830067647949,-0.023181236725942318,0.0976994861521123,40.106058693909645,-88.23529758782387,76.200527287817
2024-09-23 20:31:28.930452,40.93,49.735526,0.0006466830067647949,-0.023280723622328886,0.0976994861521123,40.106058693909645,-88.23529758782387,76.200527287817
2024-09-23 20:31:28.973040,40.93,49.735526,0.0006466830067647949,-0.023280723622328886,0.09750050628343246,40.106058693909645,-88.23529758782387,76.200527287817
2024-09-23 20:31:29.026435,40.93,49.735613,0.00024872343554318134,-0.023280723622328886,0.09750050628343246,44.11764879391193,-88.23529758782387,76.200527287817
2024-09-23 20:31:29.038888,40.93,49.735613,0.00024872343554318134,-0.022733528983459317,0.09750050628343246,44.11764879391193,-88.23529758782387,76.200527287817
2024-09-23 20:31:29.071357,40.93,49.735613,0.00024872343554318134,-0.022733528983459317,0.09705279702197278,36.09446859390736,-92.24360919585227,76.200527287817
2024-09-23 20:31:29.082551,40.93,49.735711,0.0006466830067647949,-0.022733528983459317,0.09705279702197278,36.09446859390736,-92.24360919585227,80.21211738781929
2024-09-23 20:31:29.125718,40.93,49.735762,0.0006466830067647949,-0.022733528983459317,0.0973512698629459,44.11764879391193,-84.22370748782159,76.200527287817
2024-09-23 20:31:29.167326,40.93,49.735762,0.0006466830067647949,-0.023479709566915436,0.09695331012558621,44.11764879391193,-84.22370748782159,76.200527287817
2024-09-23 20:31:29.179580,40.93,49.735762,0.0006466830067647949,-0.023479709566915436,0.09695331012558621,44.11764879391193,-96.25519929585457,76.200527287817
2024-09-23 20:31:29.221918,40.57,49.735813,0.0005969341946851222,-0.022833026512682618,0.09764974270391902,52.137550501942634,-92.24360919585227,76.200527287817
2024-09-23 20:31:29.265048,40.57,49.735955,0.0007959191899112484,-0.022833026512682618,0.09764974270391902,52.137550501942634,-92.24360919585227,84.22370748782159
2024-09-23 20:31:29.276515,40.57,49.735955,0.0007959191899112484,-0.022733528983459317,0.09759999317981902,40.106058693909645,-92.24360919585227,84.22370748782159
2024-09-23 20:31:29.319489,40.57,49.736007,0.0009451553255896806,-0.02278327698858263,0.09764974270391902,40.106058693909645,-96.25519929585457,80.21211738781929
2024-09-23 20:31:29.362137,40.57,49.736007,0.0009451553255896806,-0.02278327698858263,0.09764974270391902,44.11764879391193,-100.26678939585686,80.21211738781929
2024-09-23 20:31:29.373384,40.57,49.736057,0.0007959191899112484,-0.02308174982955575,0.09764974270391902,44.11764879391193,-100.26678939585686,80.21211738781929
2024-09-23 20:31:29.415397,40.57,49.736108,0.0010943914612681128,-0.02308174982955575,0.09725178296655933,36.09446859390736,-100.26678939585686,72.1922225099802
2024-09-23 20:31:29.510144,40.57,49.736108,0.0010943914612681128,-0.023230986250042305,0.09720203344245934,36.09446859390736,-96.25519929585457,72.1922225099802
2024-09-23 20:31:29.521630,40.57,49.736198,0.0010943914612681128,-0.023230986250042305,0.09720203344245934,36.09446859390736,-96.25519929585457,76.200527287817
2024-09-23 20:31:29.554328,40.57,49.736198,0.00014922575204880957,-0.023230986250042305,0.09720203344245934,36.09446859390736,-96.25519929585457,76.200527287817
2024-09-23 20:31:29.566008,40.57,49.736198,0.00014922575204880957,-0.02303200030545576,0.0970030596496862,40.106058693909645,-100.26678939585686,76.200527287817
2024-09-23 20:31:29.608498,40.57,49.736249,0.0013928637326249774,-0.02293251340906919,0.09705279702197278,40.106058693909645,-100.26678939585686,76.200527287817
2024-09-23 20:31:29.620344,40.57,49.736249,0.0013928637326249774,-0.02293251340906919,0.09705279702197278,40.106058693909645,-96.25519929585457,76.200527287817
2024-09-23 20:31:29.653021,40.57,49.7363,0.0013928637326249774,-0.02293251340906919,0.09705279702197278,40.106058693909645,-96.25519929585457,80.21211738781929
2024-09-23 20:31:29.665235,40.57,49.7363,0.0008954064660419869,-0.023330473146428877,0.09759999317981902,40.106058693909645,-96.25519929585457,80.21211738781929
2024-09-23 20:31:29.708034,40.57,49.736351,0.0011938787373988514,-0.02278327698858263,0.09779897304849887,40.106058693909645,-96.25519929585457,80.21211738781929
2024-09-23 20:31:29.751182,40.57,49.736351,0.0011938787373988514,-0.02278327698858263,0.09779897304849887,40.106058693909645,-92.24360919585227,80.21211738781929
2024-09-23 20:31:29.762256,40.57,49.736444,0.0011441298778511575,-0.02308174982955575,0.09779897304849887,40.106058693909645,-92.24360919585227,76.200527287817
2024-09-23 20:31:29.804908,40.57,49.736494,0.0011441298778511575,-0.02308174982955575,0.09764974270391902,40.106058693909645,-88.23529758782387,76.200527287817
2024-09-23 20:31:29.816947,40.57,49.736494,0.0004974468710863627,-0.02308174982955575,0.09764974270391902,40.106058693909645,-88.23529758782387,76.200527287817
2024-09-23 20:31:29.849273,40.57,49.736494,0.0004974468710863627,-0.022584292562972758,0.0973512698629459,36.09446859390736,-88.23529758782387,76.200527287817
2024-09-23 20:31:29.901457,40.57,49.736588,0.000845657606494293,-0.02308174982955575,0.0973512698629459,36.09446859390736,-100.26678939585686,80.21211738781929
2024-09-23 20:31:29.913590,40.57,49.736588,0.000845657606494293,-0.02308174982955575,0.09755024973162574,36.09446859390736,-100.26678939585686,80.21211738781929
2024-09-23 20:31:29.946191,40.57,49.736588,0.000845657606494293,-0.02308174982955575,0.09755024973162574,32.08287849390507,-96.25519929585457,80.21211738781929
2024-09-23 20:31:29.957235,40.57,49.736639,0.0006964318663124887,-0.023280723622328886,0.09755024973162574,32.08287849390507,-96.25519929585457,76.200527287817
2024-09-23 20:31:29.999848,40.57,49.73669,0.0006964318663124887,-0.023280723622328886,0.09764974270391902,44.11764879391193,-100.26678939585686,64.16903547978401
2024-09-23 20:31:30.011804,40.57,49.73669,0.0007461703303635545,-0.023280723622328886,0.09764974270391902,44.11764879391193,-100.26678939585686,64.16903547978401
2024-09-23 20:31:30.044002,40.57,49.73669,0.0007461703303635545,-0.0224350561424862,0.09764974270391902,44.11764879391193,-100.26678939585686,64.16903547978401
2024-09-23 20:31:30.096533,40.57,49.736741,0.0007461703303635545,-0.0224350561424862,0.09789846602079214,52.137550501942634,-92.24360919585227,76.200527287817
2024-09-23 20:31:30.108276,40.57,49.736741,0.0007461703303635545,-0.0224350561424862,0.09789846602079214,52.137550501942634,-92.24360919585227,76.200527287817
2024-09-23 20:31:30.140982,40.57,49.736741,0.0007461703303635545,-0.02308174982955575,0.09710254654607277,52.137550501942634,-92.24360919585227,76.200527287817
2024-09-23 20:31:30.152447,40.57,49.736832,0.0007461703303635545,-0.02308174982955575,0.09710254654607277,32.08287849390507,-96.25519929585457,72.1922225099802
2024-09-23 20:31:30.194772,40.57,49.736832,0.0006466830067647949,-0.02293251340906919,0.09710254654607277,44.11764879391193,-104.27510100388527,72.1922225099802
2024-09-23 20:31:30.206747,40.57,49.736832,0.0006466830067647949,-0.02293251340906919,0.09710254654607277,44.11764879391193,-104.27510100388527,68.18063240997792
2024-09-23 20:31:30.240228,40.65,49.736883,0.0005969341946851222,-0.02293251340906919,0.09710254654607277,44.11764879391193,-104.27510100388527,68.18063240997792
2024-09-23 20:31:30.251892,40.65,49.736883,0.0005969341946851222,-0.02293251340906919,0.09740101331113918,48.12595698684454,-92.24360919585227,68.18063240997792
2024-09-23 20:31:30.295537,40.65,49.736934,0.0005969341946851222,-0.022833026512682618,0.09745075675933246,40.106058693909645,-92.24360919585227,80.21211738781929
2024-09-23 20:31:30.337419,40.65,49.737028,0.0005969341946851222,-0.022833026512682618,0.09745075675933246,40.106058693909645,-96.25519929585457,72.1922225099802
2024-09-23 20:31:30.349829,40.65,49.737028,0.0009451553255896806,-0.02313149783467906,0.09745075675933246,40.106058693909645,-96.25519929585457,72.1922225099802
2024-09-23 20:31:30.392997,40.65,49.737079,0.000845657606494293,-0.023230986250042305,0.09745075675933246,36.09446859390736,-92.24360919585227,80.21211738781929
2024-09-23 20:31:30.435723,40.65,49.737079,0.000845657606494293,-0.023230986250042305,0.09680407370509965,40.106058693909645,-92.24360919585227,80.21211738781929
2024-09-23 20:31:30.446674,40.65,49.73713,0.0008954064660419869,-0.023230986250042305,0.09680407370509965,40.106058693909645,-92.24360919585227,72.1922225099802
2024-09-23 20:31:30.488945,40.65,49.737221,0.0008954064660419869,-0.022833026512682618,0.0976994861521123,40.106058693909645,-88.23529758782387,76.200527287817
2024-09-23 20:31:30.532289,40.65,49.737221,0.0007959191899112484,-0.022733528983459317,0.09705279702197278,40.106058693909645,-88.23529758782387,76.200527287817
2024-09-23 20:31:30.543876,40.65,49.737221,0.0007959191899112484,-0.022733528983459317,0.09705279702197278,44.11764879391193,-96.25519929585457,80.21211738781929
2024-09-23 20:31:30.586451,40.65,49.737273,0.0011441298778511575,-0.023479709566915436,0.0973015264147526,36.09446859390736,-96.25519929585457,80.21211738781929
2024-09-23 20:31:30.628378,40.65,49.737324,0.0011441298778511575,-0.023479709566915436,0.0973015264147526,36.09446859390736,-96.25519929585457,80.21211738781929
2024-09-23 20:31:30.639644,40.65,49.737324,0.0012933660135295898,-0.023479709566915436,0.09745075675933246,40.106058693909645,-96.25519929585457,80.21211738781929
2024-09-23 20:31:30.682861,40.65,49.737374,0.0004974468710863627,-0.022833026512682618,0.09759999317981902,40.106058693909645,-100.26678939585686,76.200527287817
2024-09-23 20:31:30.725842,40.65,49.737374,0.0004974468710863627,-0.022833026512682618,0.09759999317981902,44.11764879391193,-92.24360919585227,76.200527287817
2024-09-23 20:31:30.737343,40.65,49.737425,0.0007959191899112484,-0.023230986250042305,0.09759999317981902,44.11764879391193,-92.24360919585227,72.1922225099802
2024-09-23 20:31:30.779772,40.65,49.737476,0.0007959191899112484,-0.023230986250042305,0.09755024973162574,40.106058693909645,-100.26678939585686,80.21211738781929
2024-09-23 20:31:30.792098,40.65,49.737476,0.0004974468710863627,-0.023230986250042305,0.09755024973162574,40.106058693909645,-100.26678939585686,80.21211738781929
2024-09-23 20:31:30.825660,40.65,49.737476,0.0004974468710863627,-0.023778180888911878,0.09725178296655933,40.106058693909645,-100.26678939585686,80.21211738781929
2024-09-23 20:31:30.836683,40.65,49.737563,0.0004974468710863627,-0.023778180888911878,0.09725178296655933,40.106058693909645,-88.23529758782387,76.200527287817
2024-09-23 20:31:30.879528,40.65,49.737563,0.0006964318663124887,-0.023181236725942318,0.09665483728461309,44.11764879391193,-88.23529758782387,76.200527287817
2024-09-23 20:31:30.973028,40.65,49.737614,0.0009948937421727254,-0.022733528983459317,0.09665483728461309,44.11764879391193,-88.23529758782387,72.1922225099802
2024-09-23 20:31:30.984879,40.65,49.737614,0.0009948937421727254,-0.022733528983459317,0.09774922960030558,44.11764879391193,-88.23529758782387,72.1922225099802
2024-09-23 20:31:31.017406,40.65,49.737614,0.0009948937421727254,-0.022733528983459317,0.09774922960030558,44.11764879391193,-92.24360919585227,72.1922225099802
2024-09-23 20:31:31.029194,40.65,49.737665,0.0007461703303635545,-0.022982261414192504,0.09745075675933246,44.11764879391193,-92.24360919585227,76.200527287817
2024-09-23 20:31:31.072129,40.65,49.737716,0.0006964318663124887,-0.022982261414192504,0.09745075675933246,48.12595698684454,-96.25519929585457,80.21211738781929
2024-09-23 20:31:31.084249,40.65,49.737716,0.0006964318663124887,-0.0225345536717095,0.09745075675933246,48.12595698684454,-96.25519929585457,80.21211738781929
2024-09-23 20:31:31.117375,40.65,49.737716,0.0006964318663124887,-0.0225345536717095,0.09720203344245934,32.08287849390507,-96.25519929585457,80.21211738781929
2024-09-23 20:31:31.128907,40.65,49.737766,0.000845657606494293,-0.0225345536717095,0.09720203344245934,32.08287849390507,-96.25519929585457,80.21211738781929
2024-09-23 20:31:31.171826,40.65,49.737817,0.000845657606494293,-0.02362894446842532,0.09755024973162574,40.106058693909645,-92.24360919585227,72.1922225099802
2024-09-23 20:31:31.214098,40.65,49.737817,0.0006466830067647949,-0.023429960042815445,0.09750050628343246,40.106058693909645,-92.24360919585227,72.1922225099802
2024-09-23 20:31:31.225399,40.65,49.737817,0.0006466830067647949,-0.023429960042815445,0.09750050628343246,40.106058693909645,-96.25519929585457,76.200527287817
2024-09-23 20:31:31.268518,40.57,49.737953,0.00029846189959424716,-0.02313149783467906,0.09725178296655933,44.11764879391193,-92.24360919585227,76.200527287817
2024-09-23 20:31:31.310826,40.57,49.738005,0.00029846189959424716,-0.02313149783467906,0.09725178296655933,44.11764879391193,-92.24360919585227,76.200527287817
2024-09-23 20:31:31.321759,40.57,49.738005,0.0009451553255896806,-0.023579196463302005,0.09750050628343246,36.09446859390736,-92.24360919585227,76.200527287817
2024-09-23 20:31:31.364549,40.57,49.738055,0.00034821073540793035,-0.02293251340906919,0.09750050628343246,36.09446859390736,-96.25519929585457,76.200527287817
2024-09-23 20:31:31.376398,40.57,49.738055,0.00034821073540793035,-0.02293251340906919,0.09779897304849887,36.09446859390736,-96.25519929585457,76.200527287817
2024-09-23 20:31:31.408443,40.57,49.738055,0.00034821073540793035,-0.02293251340906919,0.09779897304849887,48.12595698684454,-96.25519929585457,76.200527287817
2024-09-23 20:31:31.419520,40.57,49.738106,0.0006964318663124887,-0.02293251340906919,0.09779897304849887,48.12595698684454,-96.25519929585457,76.200527287817
2024-09-23 20:31:31.461575,40.57,49.738157,0.0006964318663124887,-0.02293251340906919,0.09745075675933246,40.106058693909645,-100.26678939585686,76.200527287817
2024-09-23 20:31:31.473579,40.57,49.738157,0.0009948937421727254,-0.02293251340906919,0.09745075675933246,40.106058693909645,-100.26678939585686,76.200527287817
2024-09-23 20:31:31.505385,40.57,49.738157,0.0009948937421727254,-0.023280723622328886,0.0973015264147526,40.106058693909645,-100.26678939585686,76.200527287817
2024-09-23 20:31:31.516784,40.57,49.738245,0.0009948937421727254,-0.023280723622328886,0.0973015264147526,36.09446859390736,-88.23529758782387,76.200527287817
2024-09-23 20:31:31.559229,40.57,49.738245,0.0005969341946851222,-0.022982261414192504,0.09774922960030558,40.106058693909645,-96.25519929585457,76.200527287817
2024-09-23 20:31:31.570829,40.57,49.738245,0.0005969341946851222,-0.022982261414192504,0.09774922960030558,40.106058693909645,-96.25519929585457,76.200527287817
2024-09-23 20:31:31.604242,40.57,49.738297,0.0011938787373988514,-0.02352945757203875,0.09774922960030558,40.106058693909645,-96.25519929585457,76.200527287817
2024-09-23 20:31:31.615359,40.57,49.738297,0.0011938787373988514,-0.02352945757203875,0.09720203344245934,44.11764879391193,-88.23529758782387,76.200527287817
2024-09-23 20:31:31.698489,40.57,49.738297,0.0011938787373988514,-0.02352945757203875,0.09720203344245934,44.11764879391193,-88.23529758782387,72.1922225099802
2024-09-23 20:31:31.709841,40.57,49.738347,0.0009451553255896806,-0.023579196463302005,0.09779897304849887,44.11764879391193,-88.23529758782387,72.1922225099802
2024-09-23 20:31:31.752736,40.57,49.738398,0.0009451553255896806,-0.023579196463302005,0.09779897304849887,44.11764879391193,-88.23529758782387,80.21211738781929
2024-09-23 20:31:31.764596,40.57,49.738398,0.0009451553255896806,-0.023429960042815445,0.0973015264147526,44.11764879391193,-88.23529758782387,80.21211738781929
2024-09-23 20:31:31.796867,40.57,49.738398,0.0009451553255896806,-0.023429960042815445,0.0973015264147526,36.09446859390736,-88.23529758782387,80.21211738781929
2024-09-23 20:31:31.808221,40.57,49.738449,0.00029846189959424716,-0.023230986250042305,0.0973015264147526,36.09446859390736,-96.25519929585457,80.21211738781929
2024-09-23 20:31:31.850728,40.57,49.738449,0.00029846189959424716,-0.023230986250042305,0.09784872257259886,40.106058693909645,-96.25519929585457,80.21211738781929
2024-09-23 20:31:31.893169,40.57,49.738449,0.00029846189959424716,-0.023230986250042305,0.09784872257259886,40.106058693909645,-96.25519929585457,72.1922225099802
2024-09-23 20:31:31.905038,40.57,49.738499,0.0003979595949556242,-0.02278327698858263,0.09784872257259886,40.106058693909645,-96.25519929585457,72.1922225099802
2024-09-23 20:31:31.947578,40.57,49.738499,0.0003979595949556242,-0.02278327698858263,0.09774922960030558,48.12595698684454,-96.25519929585457,72.1922225099802
2024-09-23 20:31:31.959784,40.57,49.738586,0.0006964318663124887,-0.02278327698858263,0.09774922960030558,48.12595698684454,-96.25519929585457,72.1922225099802
2024-09-23 20:31:31.993203,40.57,49.738586,0.0006964318663124887,-0.02308174982955575,0.0973015264147526,48.12595698684454,-96.25519929585457,72.1922225099802
2024-09-23 20:31:32.005218,40.57,49.738684,0.0006964318663124887,-0.02308174982955575,0.0973015264147526,52.137550501942634,-96.25519929585457,76.200527287817
2024-09-23 20:31:32.048549,40.57,49.738684,0.0005471957306340564,-0.022733528983459317,0.09755024973162574,40.106058693909645,-88.23529758782387,76.200527287817
2024-09-23 20:31:32.092237,40.57,49.738736,0.0011441298778511575,-0.02218633282561307,0.09755024973162574,40.106058693909645,-88.23529758782387,76.200527287817
2024-09-23 20:31:32.103568,40.57,49.738736,0.0011441298778511575,-0.02218633282561307,0.09720203344245934,40.106058693909645,-100.26678939585686,76.200527287817
2024-09-23 20:31:32.146076,40.57,49.738786,0.0011441298778511575,-0.02218633282561307,0.09720203344245934,40.106058693909645,-100.26678939585686,72.1922225099802
2024-09-23 20:31:32.187979,40.57,49.738786,0.000845657606494293,-0.023579196463302005,0.09720203344245934,40.106058693909645,-100.26678939585686,72.1922225099802
2024-09-23 20:31:32.200237,40.57,49.738786,0.000845657606494293,-0.023579196463302005,0.0970030596496862,36.09446859390736,-104.27510100388527,72.1922225099802
2024-09-23 20:31:32.243767,40.57,49.738881,0.00044769805900669,-0.02308174982955575,0.09725178296655933,44.11764879391193,-96.25519929585457,72.1922225099802
2024-09-23 20:31:32.337598,40.46,49.738931,0.0007959191899112484,-0.022982261414192504,0.09725178296655933,44.11764879391193,-96.25519929585457,80.21211738781929
2024-09-23 20:31:32.349584,40.46,49.738931,0.0007959191899112484,-0.022982261414192504,0.09715228999426605,40.106058693909645,-96.25519929585457,80.21211738781929
2024-09-23 20:31:32.382137,40.46,49.738931,0.0007959191899112484,-0.022982261414192504,0.09715228999426605,40.106058693909645,-96.25519929585457,80.21211738781929
2024-09-23 20:31:32.393406,40.46,49.738982,0.0007461703303635545,-0.022833026512682618,0.09725178296655933,40.106058693909645,-96.25519929585457,76.200527287817
2024-09-23 20:31:32.436744,40.46,49.739074,0.0010943914612681128,-0.022833026512682618,0.09725178296655933,32.08287849390507,-84.22370748782159,76.200527287817
2024-09-23 20:31:32.480056,40.46,49.739074,0.0010943914612681128,-0.022833026512682618,0.09794820946898543,32.08287849390507,-84.22370748782159,76.200527287817
2024-09-23 20:31:32.491750,40.46,49.739074,0.0010943914612681128,-0.022833026512682618,0.09794820946898543,44.11764879391193,-92.24360919585227,76.200527287817
2024-09-23 20:31:32.534282,40.46,49.739126,0.0007959191899112484,-0.023479709566915436,0.09710254654607277,44.11764879391193,-92.24360919585227,72.1922225099802
2024-09-23 20:31:32.546432,40.46,49.739126,0.0007959191899112484,-0.023479709566915436,0.09710254654607277,44.11764879391193,-92.24360919585227,72.1922225099802
2024-09-23 20:31:32.577996,40.46,49.739126,0.0007959191899112484,-0.023479709566915436,0.09710254654607277,44.11764879391193,-92.24360919585227,64.16903547978401
2024-09-23 20:31:32.589276,40.46,49.739269,0.0001989745997294981,-0.023230986250042305,0.09725178296655933,44.11764879391193,-92.24360919585227,64.16903547978401
2024-09-23 20:31:32.632355,40.46,49.739321,0.0005969341946851222,-0.02293251340906919,0.09725178296655933,44.11764879391193,-96.25519929585457,76.200527287817
2024-09-23 20:31:32.675606,40.46,49.739321,0.0005969341946851222,-0.02293251340906919,0.09655535038822652,36.09446859390736,-96.25519929585457,76.200527287817
2024-09-23 20:31:32.686737,40.46,49.739372,0.0006964318663124887,-0.02293251340906919,0.09655535038822652,36.09446859390736,-100.26678939585686,76.200527287817
2024-09-23 20:31:32.729294,40.46,49.739372,0.0006964318663124887,-0.023181236725942318,0.09715228999426605,40.106058693909645,-92.24360919585227,76.200527287817
2024-09-23 20:31:32.741606,40.46,49.739422,0.0006964318663124887,-0.023181236725942318,0.09715228999426605,40.106058693909645,-92.24360919585227,76.200527287817
2024-09-23 20:31:32.774531,40.46,49.739422,0.0005471957306340564,-0.022833026512682618,0.09715228999426605,40.106058693909645,-92.24360919585227,76.200527287817
2024-09-23 20:31:32.785757,40.46,49.739422,0.0005471957306340564,-0.022833026512682618,0.09715228999426605,40.106058693909645,-100.26678939585686,76.200527287817
2024-09-23 20:31:32.871240,40.46,49.739514,0.0007461703303635545,-0.022733528983459317,0.09715228999426605,40.106058693909645,-100.26678939585686,76.200527287817
2024-09-23 20:31:32.882641,40.46,49.739514,0.0007461703303635545,-0.022733528983459317,0.09705279702197278,36.09446859390736,-92.24360919585227,76.200527287817
2024-09-23 20:31:32.926578,40.46,49.739514,0.0007461703303635545,-0.022733528983459317,0.09705279702197278,36.09446859390736,-92.24360919585227,76.200527287817
2024-09-23 20:31:32.968558,40.46,49.739565,0.0007461703303635545,-0.022733528983459317,0.09705279702197278,36.09446859390736,-92.24360919585227,76.200527287817
2024-09-23 20:31:33.022019,40.46,49.739565,0.0007461703303635545,-0.02338022115155219,0.09794820946898543,40.106058693909645,-92.24360919585227,76.200527287817
2024-09-23 20:31:33.034140,40.46,49.739565,0.0007461703303635545,-0.02338022115155219,0.09794820946898543,40.106058693909645,-92.24360919585227,76.200527287817
2024-09-23 20:31:33.066941,40.46,49.739615,0.0006466830067647949,-0.0225345536717095,0.09794820946898543,40.106058693909645,-92.24360919585227,76.200527287817
2024-09-23 20:31:33.078215,40.46,49.739615,0.0006466830067647949,-0.0225345536717095,0.09779897304849887,44.11764879391193,-96.25519929585457,76.200527287817
2024-09-23 20:31:33.121295,40.46,49.739666,0.000845657606494293,-0.02352945757203875,0.0976994861521123,40.106058693909645,-96.25519929585457,80.21211738781929
2024-09-23 20:31:33.163608,40.46,49.739717,0.000845657606494293,-0.02352945757203875,0.0976994861521123,40.106058693909645,-88.23529758782387,72.1922225099802
2024-09-23 20:31:33.175277,40.46,49.739717,0.0013431148730772837,-0.022833026512682618,0.09794820946898543,40.106058693909645,-88.23529758782387,72.1922225099802
2024-09-23 20:31:33.218822,40.46,49.739854,0.000845657606494293,-0.022833026512682618,0.09794820946898543,36.09446859390736,-92.24360919585227,72.1922225099802
2024-09-23 20:31:33.261865,40.46,49.739854,0.000845657606494293,-0.023330473146428877,0.0973015264147526,44.11764879391193,-92.24360919585227,72.1922225099802
2024-09-23 20:31:33.273090,40.46,49.739954,0.000845657606494293,-0.023330473146428877,0.0973015264147526,44.11764879391193,-92.24360919585227,76.200527287817
2024-09-23 20:31:33.317075,40.46,49.739954,0.0006964318663124887,-0.023230986250042305,0.0973512698629459,48.12595698684454,-96.25519929585457,80.21211738781929
2024-09-23 20:31:33.358917,40.28,49.740049,0.0008954064660419869,-0.023230986250042305,0.0973512698629459,48.12595698684454,-96.25519929585457,80.21211738781929
2024-09-23 20:31:33.370813,40.28,49.740049,0.0008954064660419869,-0.023230986250042305,0.09740101331113918,36.09446859390736,-92.24360919585227,80.21211738781929
2024-09-23 20:31:33.413420,40.28,49.7401,0.001442602149208022,-0.02308174982955575,0.09750050628343246,44.11764879391193,-92.24360919585227,72.1922225099802
2024-09-23 20:31:33.456185,40.28,49.740151,0.001442602149208022,-0.02308174982955575,0.09750050628343246,44.11764879391193,-100.26678939585686,76.200527287817
2024-09-23 20:31:33.467253,40.28,49.740151,0.0006964318663124887,-0.02362894446842532,0.09755024973162574,44.11764879391193,-100.26678939585686,76.200527287817
2024-09-23 20:31:33.509184,40.28,49.740202,0.0009451553255896806,-0.02362894446842532,0.09755024973162574,36.09446859390736,-88.23529758782387,80.21211738781929
2024-09-23 20:31:33.520923,40.28,49.740202,0.0009451553255896806,-0.023230986250042305,0.09755024973162574,36.09446859390736,-88.23529758782387,80.21211738781929
2024-09-23 20:31:33.554628,40.28,49.740202,0.0009451553255896806,-0.023230986250042305,0.0973512698629459,44.11764879391193,-96.25519929585457,80.21211738781929
2024-09-23 20:31:33.566963,40.28,49.740252,0.0005471957306340564,-0.023230986250042305,0.0973512698629459,44.11764879391193,-96.25519929585457,76.200527287817
2024-09-23 20:31:33.609803,40.28,49.740341,0.0005471957306340564,-0.023429960042815445,0.09740101331113918,40.106058693909645,-88.23529758782387,76.200527287817
2024-09-23 20:31:33.651405,40.28,49.740341,0.0004974468710863627,-0.0228827638849692,0.09750050628343246,40.106058693909645,-88.23529758782387,76.200527287817
2024-09-23 20:31:33.663329,40.28,49.740341,0.0004974468710863627,-0.0228827638849692,0.09750050628343246,48.12595698684454,-92.24360919585227,72.1922225099802
2024-09-23 20:31:33.705830,40.28,49.740393,0.0005969341946851222,-0.022733528983459317,0.09774922960030558,48.12595698684454,-92.24360919585227,72.1922225099802
2024-09-23 20:31:33.747584,40.28,49.740444,0.0005969341946851222,-0.022733528983459317,0.09774922960030558,48.12595698684454,-92.24360919585227,80.21211738781929
2024-09-23 20:31:33.759375,40.28,49.740444,0.00029846189959424716,-0.023230986250042305,0.09764974270391902,44.11764879391193,-92.24360919585227,80.21211738781929
2024-09-23 20:31:33.802442,40.28,49.740494,0.0007959191899112484,-0.02308174982955575,0.09715228999426605,44.11764879391193,-92.24360919585227,76.200527287817
2024-09-23 20:31:33.897178,40.28,49.740545,0.0007959191899112484,-0.02308174982955575,0.09715228999426605,52.137550501942634,-92.24360919585227,76.200527287817
2024-09-23 20:31:33.909182,40.28,49.740545,0.001044642601720419,-0.02293251340906919,0.09715228999426605,52.137550501942634,-92.24360919585227,76.200527287817
2024-09-23 20:31:33.941936,40.28,49.740545,0.001044642601720419,-0.02293251340906919,0.0973512698629459,52.137550501942634,-92.24360919585227,76.200527287817
2024-09-23 20:31:33.953670,40.28,49.740596,0.0009948937421727254,-0.02293251340906919,0.0973512698629459,44.11764879391193,-92.24360919585227,76.200527287817
2024-09-23 20:31:33.995983,40.28,49.740596,0.0009948937421727254,-0.02293251340906919,0.0973015264147526,40.106058693909645,-92.24360919585227,76.200527287817
2024-09-23 20:31:34.007046,40.28,49.740683,0.0009948937421727254,-0.02293251340906919,0.0973015264147526,40.106058693909645,-92.24360919585227,76.200527287817
2024-09-23 20:31:34.039492,40.28,49.740683,0.000845657606494293,-0.02293251340906919,0.0973015264147526,40.106058693909645,-92.24360919585227,76.200527287817
2024-09-23 20:31:34.050562,40.28,49.740683,0.000845657606494293,-0.02293251340906919,0.09690356060148622,36.09446859390736,-92.24360919585227,76.200527287817
2024-09-23 20:31:34.093850,40.28,49.740734,0.0009451553255896806,-0.0228827638849692,0.09784872257259886,36.09446859390736,-92.24360919585227,76.200527287817
2024-09-23 20:31:34.105006,40.28,49.740734,0.0009451553255896806,-0.0228827638849692,0.09784872257259886,36.09446859390736,-100.26678939585686,76.200527287817
2024-09-23 20:31:34.137732,40.28,49.74083,0.0009451553255896806,-0.0228827638849692,0.09784872257259886,36.09446859390736,-100.26678939585686,76.200527287817
2024-09-23 20:31:34.149897,40.28,49.74083,0.0011938787373988514,-0.023330473146428877,0.09759999317981902,40.106058693909645,-100.26678939585686,76.200527287817
2024-09-23 20:31:34.192299,40.28,49.740881,0.0010943914612681128,-0.02308174982955575,0.0973512698629459,40.106058693909645,-92.24360919585227,76.200527287817
2024-09-23 20:31:34.234264,40.28,49.740881,0.0010943914612681128,-0.02308174982955575,0.0973512698629459,44.11764879391193,-96.25519929585457,76.200527287817
2024-09-23 20:31:34.245548,40.28,49.740932,0.0005969341946851222,-0.02303200030545576,0.0973512698629459,44.11764879391193,-96.25519929585457,68.18063240997792
2024-09-23 20:31:34.287769,40.28,49.740932,0.0005969341946851222,-0.02303200030545576,0.0973512698629459,44.11764879391193,-96.25519929585457,76.200527287817
2024-09-23 20:31:34.298998,40.28,49.740983,0.0008954064660419869,-0.02303200030545576,0.0973512698629459,44.11764879391193,-96.25519929585457,76.200527287817
2024-09-23 20:31:34.332587,40.28,49.740983,0.0008954064660419869,-0.0228827638849692,0.0973015264147526,44.11764879391193,-96.25519929585457,76.200527287817
2024-09-23 20:31:34.343741,40.28,49.741073,0.0008954064660419869,-0.0228827638849692,0.0973015264147526,44.11764879391193,-96.25519929585457,80.21211738781929
2024-09-23 20:31:34.386354,40.64,49.741073,0.0007959191899112484,-0.023330473146428877,0.09755024973162574,36.09446859390736,-96.25519929585457,80.21211738781929
2024-09-23 20:31:34.398545,40.64,49.741073,0.0007959191899112484,-0.023330473146428877,0.09755024973162574,36.09446859390736,-96.25519929585457,72.1922225099802
2024-09-23 20:31:34.431909,40.64,49.741124,0.0007959191899112484,-0.023479709566915436,0.09755024973162574,36.09446859390736,-96.25519929585457,72.1922225099802
2024-09-23 20:31:34.443099,40.64,49.741124,0.0007959191899112484,-0.023479709566915436,0.09755024973162574,44.11764879391193,-92.24360919585227,72.1922225099802
2024-09-23 20:31:34.485979,40.64,49.741175,0.000845657606494293,-0.0228827638849692,0.0976994861521123,48.12595698684454,-92.24360919585227,76.200527287817
2024-09-23 20:31:34.527494,40.64,49.741175,0.000845657606494293,-0.0228827638849692,0.0976994861521123,48.12595698684454,-96.25519929585457,72.1922225099802
2024-09-23 20:31:34.539054,40.64,49.741226,0.0007959191899112484,-0.023280723622328886,0.09750050628343246,48.12595698684454,-96.25519929585457,72.1922225099802
2024-09-23 20:31:34.582046,40.64,49.741276,0.0009948937421727254,-0.023280723622328886,0.09750050628343246,40.106058693909645,-92.24360919585227,80.21211738781929
2024-09-23 20:31:34.594320,40.64,49.741276,0.0009948937421727254,-0.02308174982955575,0.09750050628343246,40.106058693909645,-92.24360919585227,80.21211738781929
2024-09-23 20:31:34.626719,40.64,49.741276,0.0009948937421727254,-0.02308174982955575,0.09725178296655933,36.09446859390736,-92.24360919585227,80.21211738781929
2024-09-23 20:31:34.637923,40.64,49.741327,0.0007461703303635545,-0.02308174982955575,0.09725178296655933,36.09446859390736,-92.24360919585227,76.200527287817
2024-09-23 20:31:34.680996,40.64,49.741414,0.0007461703303635545,-0.023479709566915436,0.09784872257259886,36.09446859390736,-96.25519929585457,72.1922225099802
2024-09-23 20:31:34.723322,40.64,49.741414,0.001044642601720419,-0.02338022115155219,0.0973512698629459,36.09446859390736,-96.25519929585457,72.1922225099802
2024-09-23 20:31:34.734305,40.64,49.741414,0.001044642601720419,-0.02338022115155219,0.0973512698629459,40.106058693909645,-108.28669110388756,72.1922225099802
2024-09-23 20:31:34.777036,40.64,49.741466,0.0005969341946851222,-0.02313149783467906,0.09794820946898543,40.106058693909645,-108.28669110388756,72.1922225099802
2024-09-23 20:31:34.820651,40.64,49.741466,0.0005969341946851222,-0.02313149783467906,0.09794820946898543,44.11764879391193,-100.26678939585686,72.1922225099802
2024-09-23 20:31:34.832600,40.64,49.741516,0.00044769805900669,-0.023330473146428877,0.09794820946898543,44.11764879391193,-100.26678939585686,80.21211738781929
2024-09-23 20:31:34.916549,40.64,49.741516,0.00044769805900669,-0.023330473146428877,0.09740101331113918,44.11764879391193,-100.26678939585686,80.21211738781929
2024-09-23 20:31:34.929975,40.64,49.741567,0.0004974468710863627,-0.023330473146428877,0.09740101331113918,52.137550501942634,-100.26678939585686,76.200527287817
2024-09-23 20:31:34.972859,40.64,49.741618,0.0004974468710863627,-0.022982261414192504,0.09715228999426605,44.11764879391193,-92.24360919585227,68.18063240997792
2024-09-23 20:31:35.015440,40.64,49.741618,0.0005471957306340564,-0.0228827638849692,0.09715228999426605,44.11764879391193,-92.24360919585227,68.18063240997792
2024-09-23 20:31:35.026810,40.64,49.741618,0.0005471957306340564,-0.0228827638849692,0.0976994861521123,52.137550501942634,-84.22370748782159,76.200527287817
2024-09-23 20:31:35.070615,40.64,49.741668,0.0008954064660419869,-0.022733528983459317,0.09755024973162574,40.106058693909645,-96.25519929585457,76.200527287817
2024-09-23 20:31:35.113251,40.64,49.741756,0.0011441298778511575,-0.022733528983459317,0.09755024973162574,40.106058693909645,-96.25519929585457,76.200527287817
2024-09-23 20:31:35.124281,40.64,49.741756,0.0011441298778511575,-0.02313149783467906,0.09750050628343246,36.09446859390736,-96.25519929585457,76.200527287817
2024-09-23 20:31:35.167557,40.64,49.741854,0.00024872343554318134,-0.023181236725942318,0.09784872257259886,36.09446859390736,-96.25519929585457,84.22370748782159
2024-09-23 20:31:35.209976,40.64,49.741854,0.00024872343554318134,-0.023181236725942318,0.09784872257259886,44.11764879391193,-92.24360919585227,84.22370748782159
2024-09-23 20:31:35.220895,40.64,49.741905,0.0006964318663124887,-0.023230986250042305,0.09784872257259886,44.11764879391193,-92.24360919585227,76.200527287817
2024-09-23 20:31:35.263166,40.64,49.741956,0.0006964318663124887,-0.023230986250042305,0.09779897304849887,44.11764879391193,-96.25519929585457,72.1922225099802
2024-09-23 20:31:35.275724,40.64,49.741956,0.0012933660135295898,-0.023230986250042305,0.09779897304849887,44.11764879391193,-96.25519929585457,72.1922225099802
2024-09-23 20:31:35.307851,40.64,49.741956,0.0012933660135295898,-0.02278327698858263,0.09764974270391902,44.11764879391193,-96.25519929585457,72.1922225099802
2024-09-23 20:31:35.319531,40.64,49.742048,0.0012933660135295898,-0.02278327698858263,0.09764974270391902,44.11764879391193,-92.24360919585227,80.21211738781929
2024-09-23 20:31:35.363013,40.64,49.742048,0.0011441298778511575,-0.023181236725942318,0.09764974270391902,40.106058693909645,-100.26678939585686,84.22370748782159
2024-09-23 20:31:35.406762,40.25,49.742099,0.0006466830067647949,-0.023181236725942318,0.09764974270391902,40.106058693909645,-100.26678939585686,84.22370748782159
2024-09-23 20:31:35.418520,40.25,49.742099,0.0006466830067647949,-0.022982261414192504,0.09784872257259886,44.11764879391193,-100.26678939585686,84.22370748782159
2024-09-23 20:31:35.451361,40.25,49.742099,0.0006466830067647949,-0.022982261414192504,0.09784872257259886,44.11764879391193,-100.26678939585686,80.21211738781929
2024-09-23 20:31:35.463653,40.25,49.74215,0.0007461703303635545,-0.022833026512682618,0.0973015264147526,36.09446859390736,-100.26678939585686,80.21211738781929
2024-09-23 20:31:35.506473,40.25,49.742201,0.0005471957306340564,-0.02313149783467906,0.0973015264147526,36.09446859390736,-92.24360919585227,80.21211738781929
2024-09-23 20:31:35.518127,40.25,49.742201,0.0005471957306340564,-0.02313149783467906,0.09750050628343246,36.09446859390736,-92.24360919585227,80.21211738781929
2024-09-23 20:31:35.550751,40.25,49.742201,0.0005471957306340564,-0.02313149783467906,0.09750050628343246,44.11764879391193,-88.23529758782387,80.21211738781929
2024-09-23 20:31:35.562279,40.25,49.742251,0.000845657606494293,-0.02278327698858263,0.09750050628343246,44.11764879391193,-88.23529758782387,76.200527287817
2024-09-23 20:31:35.604729,40.25,49.742302,0.000845657606494293,-0.02278327698858263,0.09740101331113918,52.137550501942634,-96.25519929585457,76.200527287817
2024-09-23 20:31:35.616662,40.25,49.742302,0.0005969341946851222,-0.02278327698858263,0.09740101331113918,52.137550501942634,-96.25519929585457,76.200527287817
2024-09-23 20:31:35.649170,40.25,49.742302,0.0005969341946851222,-0.022833026512682618,0.09755024973162574,52.137550501942634,-96.25519929585457,76.200527287817
2024-09-23 20:31:35.661383,40.25,49.742389,0.0005969341946851222,-0.022833026512682618,0.09755024973162574,32.08287849390507,-92.24360919585227,76.200527287817
2024-09-23 20:31:35.704481,40.25,49.742389,0.0006466830067647949,-0.023230986250042305,0.0970030596496862,40.106058693909645,-92.24360919585227,72.1922225099802
2024-09-23 20:31:35.746603,40.25,49.742441,0.00024872343554318134,-0.022982261414192504,0.0970030596496862,40.106058693909645,-92.24360919585227,72.1922225099802
2024-09-23 20:31:35.757818,40.25,49.742441,0.00024872343554318134,-0.022982261414192504,0.09710254654607277,44.11764879391193,-96.25519929585457,72.1922225099802
2024-09-23 20:31:35.800856,40.25,49.742491,0.000845657606494293,-0.02338022115155219,0.09715228999426605,32.08287849390507,-96.25519929585457,76.200527287817
2024-09-23 20:31:35.843279,40.25,49.742491,0.000845657606494293,-0.02338022115155219,0.09715228999426605,32.08287849390507,-92.24360919585227,80.21211738781929
2024-09-23 20:31:35.855174,40.25,49.742542,0.0012436275969465451,-0.02338022115155219,0.0973015264147526,32.08287849390507,-92.24360919585227,80.21211738781929
2024-09-23 20:31:35.938527,40.25,49.742542,0.0012436275969465451,-0.02338022115155219,0.0973015264147526,48.12595698684454,-92.24360919585227,80.21211738781929
2024-09-23 20:31:35.950687,40.25,49.742542,0.0012436275969465451,-0.02338022115155219,0.0973015264147526,48.12595698684454,-92.24360919585227,80.21211738781929
2024-09-23 20:31:35.992854,40.25,49.742593,0.0004974468710863627,-0.023230986250042305,0.0973015264147526,48.12595698684454,-92.24360919585227,72.1922225099802
2024-09-23 20:31:36.004797,40.25,49.742593,0.0004974468710863627,-0.023230986250042305,0.09755024973162574,40.106058693909645,-92.24360919585227,72.1922225099802
2024-09-23 20:31:36.088615,40.25,49.742643,0.0004974468710863627,-0.023230986250042305,0.09755024973162574,40.106058693909645,-92.24360919585227,76.200527287817
2024-09-23 20:31:36.100062,40.25,49.742643,0.0013431148730772837,-0.022484804147609512,0.09814718933766527,40.106058693909645,-92.24360919585227,76.200527287817
2024-09-23 20:31:36.143443,40.25,49.74273,0.0012933660135295898,-0.0228827638849692,0.09814718933766527,48.12595698684454,-96.25519929585457,72.1922225099802
2024-09-23 20:31:36.186481,40.25,49.74273,0.0012933660135295898,-0.0228827638849692,0.09759999317981902,48.12595698684454,-84.22370748782159,72.1922225099802
2024-09-23 20:31:36.197766,40.25,49.742782,0.000845657606494293,-0.0228827638849692,0.09759999317981902,48.12595698684454,-84.22370748782159,76.200527287817
2024-09-23 20:31:36.241301,40.25,49.742878,0.000845657606494293,-0.02338022115155219,0.09789846602079214,40.106058693909645,-92.24360919585227,84.22370748782159
2024-09-23 20:31:36.283114,40.25,49.742878,0.0005969341946851222,-0.02303200030545576,0.09755024973162574,40.106058693909645,-92.24360919585227,84.22370748782159
2024-09-23 20:31:36.294715,40.25,49.742878,0.0005969341946851222,-0.02303200030545576,0.09755024973162574,48.12595698684454,-92.24360919585227,80.21211738781929
2024-09-23 20:31:36.337584,40.25,49.743023,0.0005969341946851222,-0.023230986250042305,0.09779897304849887,44.11764879391193,-92.24360919585227,80.21211738781929
2024-09-23 20:31:36.381004,40.25,49.743075,0.0007461703303635545,-0.023230986250042305,0.09779897304849887,44.11764879391193,-92.24360919585227,76.200527287817
2024-09-23 20:31:36.392505,40.25,49.743075,0.0007461703303635545,-0.02338022115155219,0.09715228999426605,40.106058693909645,-92.24360919585227,76.200527287817
2024-09-23 20:31:36.435069,39.86,49.743125,0.0006964318663124887,-0.02293251340906919,0.09779897304849887,40.106058693909645,-92.24360919585227,76.200527287817
2024-09-23 20:31:36.478268,39.86,49.743125,0.0006964318663124887,-0.02293251340906919,0.09779897304849887,36.09446859390736,-96.25519929585457,76.200527287817
2024-09-23 20:31:36.490329,39.86,49.743176,0.0006466830067647949,-0.02278327698858263,0.09779897304849887,36.09446859390736,-96.25519929585457,76.200527287817
2024-09-23 20:31:36.533699,39.86,49.743227,0.0007959191899112484,-0.02278327698858263,0.09715228999426605,44.11764879391193,-96.25519929585457,80.21211738781929
2024-09-23 20:31:36.576485,39.86,49.743227,0.0007959191899112484,-0.02303200030545576,0.09745075675933246,44.11764879391193,-96.25519929585457,80.21211738781929
2024-09-23 20:31:36.588173,39.86,49.743315,0.0007959191899112484,-0.02303200030545576,0.09745075675933246,36.09446859390736,-92.24360919585227,84.22370748782159
2024-09-23 20:31:36.631394,39.86,49.743315,0.00044769805900669,-0.023330473146428877,0.09819693278585856,44.11764879391193,-92.24360919585227,80.21211738781929
2024-09-23 20:31:36.673251,39.86,49.743367,0.00024872343554318134,-0.023330473146428877,0.09819693278585856,44.11764879391193,-92.24360919585227,80.21211738781929
2024-09-23 20:31:36.684538,39.86,49.743367,0.00024872343554318134,-0.02338022115155219,0.09720203344245934,48.12595698684454,-88.23529758782387,80.21211738781929
2024-09-23 20:31:36.726724,39.86,49.743418,0.0011441298778511575,-0.02303200030545576,0.09755024973162574,52.137550501942634,-88.23529758782387,80.21211738781929
2024-09-23 20:31:36.769665,39.86,49.743418,0.0011441298778511575,-0.02303200030545576,0.09755024973162574,52.137550501942634,-92.24360919585227,72.1922225099802
2024-09-23 20:31:36.781207,39.86,49.743468,0.001044642601720419,-0.02338022115155219,0.09720203344245934,52.137550501942634,-92.24360919585227,72.1922225099802
2024-09-23 20:31:36.823151,39.86,49.743519,0.001044642601720419,-0.02338022115155219,0.09720203344245934,40.106058693909645,-96.25519929585457,80.21211738781929
2024-09-23 20:31:36.865093,39.86,49.743519,0.0006466830067647949,-0.02338022115155219,0.09720203344245934,40.106058693909645,-96.25519929585457,80.21211738781929
2024-09-23 20:31:36.881919,39.86,49.743519,0.0006466830067647949,-0.022982261414192504,0.09814718933766527,44.11764879391193,-100.26678939585686,80.21211738781929
2024-09-23 20:31:36.965924,39.86,49.74357,0.001044642601720419,-0.02352945757203875,0.09814718933766527,44.11764879391193,-100.26678939585686,80.21211738781929
2024-09-23 20:31:36.978425,39.86,49.74357,0.001044642601720419,-0.02352945757203875,0.09715228999426605,44.11764879391193,-100.26678939585686,80.21211738781929
2024-09-23 20:31:37.011839,39.86,49.74357,0.001044642601720419,-0.02352945757203875,0.09715228999426605,48.12595698684454,-100.26678939585686,80.21211738781929
2024-09-23 20:31:37.023714,39.86,49.743657,0.0008954064660419869,-0.0228827638849692,0.09715228999426605,48.12595698684454,-96.25519929585457,68.18063240997792
2024-09-23 20:31:37.067148,39.86,49.743708,0.0008954064660419869,-0.0228827638849692,0.09789846602079214,48.12595698684454,-92.24360919585227,84.22370748782159
2024-09-23 20:31:37.078808,39.86,49.743708,0.0007461703303635545,-0.0228827638849692,0.09789846602079214,48.12595698684454,-92.24360919585227,84.22370748782159
2024-09-23 20:31:37.112431,39.86,49.743708,0.0007461703303635545,-0.02313149783467906,0.09725178296655933,44.11764879391193,-92.24360919585227,84.22370748782159
2024-09-23 20:31:37.124014,39.86,49.743759,0.0007461703303635545,-0.02313149783467906,0.09725178296655933,44.11764879391193,-96.25519929585457,72.1922225099802
2024-09-23 20:31:37.166860,39.86,49.743759,0.00034821073540793035,-0.023230986250042305,0.09745075675933246,44.11764879391193,-92.24360919585227,76.200527287817
2024-09-23 20:31:37.209694,39.86,49.743809,0.001044642601720419,-0.022982261414192504,0.09745075675933246,44.11764879391193,-92.24360919585227,76.200527287817
2024-09-23 20:31:37.221378,39.86,49.743809,0.001044642601720419,-0.022982261414192504,0.09759999317981902,44.11764879391193,-92.24360919585227,76.200527287817
2024-09-23 20:31:37.263689,39.86,49.74395,0.0010943914612681128,-0.02313149783467906,0.09705279702197278,40.106058693909645,-92.24360919585227,76.200527287817
2024-09-23 20:31:37.307371,39.86,49.744001,0.0010943914612681128,-0.02313149783467906,0.09705279702197278,40.106058693909645,-92.24360919585227,76.200527287817
2024-09-23 20:31:37.318787,39.86,49.744001,0.0009451553255896806,-0.02313149783467906,0.09720203344245934,40.106058693909645,-92.24360919585227,76.200527287817
2024-09-23 20:31:37.362010,39.86,49.744052,4.973845218406054e-05,-0.02308174982955575,0.09720203344245934,40.106058693909645,-92.24360919585227,72.1922225099802
2024-09-23 20:31:37.403872,39.86,49.744052,4.973845218406054e-05,-0.02308174982955575,0.09750050628343246,44.11764879391193,-92.24360919585227,72.1922225099802
2024-09-23 20:31:37.415431,39.86,49.744103,0.0012933660135295898,-0.02308174982955575,0.09750050628343246,44.11764879391193,-88.23529758782387,72.1922225099802
2024-09-23 20:31:37.458158,39.85,49.744103,0.0012933660135295898,-0.022733528983459317,0.09759999317981902,40.106058693909645,-88.23529758782387,80.21211738781929
2024-09-23 20:31:37.469956,39.85,49.744193,0.0012933660135295898,-0.022733528983459317,0.09759999317981902,40.106058693909645,-88.23529758782387,80.21211738781929
2024-09-23 20:31:37.502658,39.85,49.744193,0.0007461703303635545,-0.023429960042815445,0.09750050628343246,40.106058693909645,-88.23529758782387,80.21211738781929
2024-09-23 20:31:37.513808,39.85,49.744193,0.0007461703303635545,-0.023429960042815445,0.09750050628343246,52.137550501942634,-88.23529758782387,84.22370748782159
2024-09-23 20:31:37.556612,39.85,49.744244,0.0007959191899112484,-0.023330473146428877,0.09819693278585856,40.106058693909645,-96.25519929585457,84.22370748782159
2024-09-23 20:31:37.599455,39.85,49.744295,0.0005969341946851222,-0.023330473146428877,0.09819693278585856,40.106058693909645,-96.25519929585457,72.1922225099802
2024-09-23 20:31:37.611091,39.85,49.744295,0.0005969341946851222,-0.02352945757203875,0.09794820946898543,48.12595698684454,-96.25519929585457,72.1922225099802
2024-09-23 20:31:37.654246,39.85,49.744346,0.0006964318663124887,-0.023230986250042305,0.09710254654607277,48.12595698684454,-92.24360919585227,68.18063240997792
2024-09-23 20:31:37.696310,39.85,49.744346,0.0006964318663124887,-0.023230986250042305,0.09710254654607277,40.106058693909645,-100.26678939585686,76.200527287817
2024-09-23 20:31:37.707584,39.85,49.744396,0.0006466830067647949,-0.02313149783467906,0.09710254654607277,40.106058693909645,-100.26678939585686,76.200527287817
2024-09-23 20:31:37.750085,39.85,49.744447,0.00034821073540793035,-0.02313149783467906,0.09720203344245934,40.106058693909645,-100.26678939585686,72.1922225099802
2024-09-23 20:31:37.792435,39.85,49.744447,0.00034821073540793035,-0.02338022115155219,0.09764974270391902,40.106058693909645,-100.26678939585686,72.1922225099802
2024-09-23 20:31:37.803826,39.85,49.744534,0.00034821073540793035,-0.02338022115155219,0.09764974270391902,44.11764879391193,-88.23529758782387,76.200527287817
2024-09-23 20:31:37.845850,39.85,49.744534,0.0004974468710863627,-0.023181236725942318,0.0976994861521123,44.11764879391193,-88.23529758782387,76.200527287817
2024-09-23 20:31:37.857987,39.85,49.744534,0.0004974468710863627,-0.023181236725942318,0.0976994861521123,44.11764879391193,-100.26678939585686,68.18063240997792
2024-09-23 20:31:37.890808,39.85,49.744586,0.0009948937421727254,-0.023181236725942318,0.0976994861521123,44.11764879391193,-100.26678939585686,68.18063240997792
2024-09-23 20:31:37.902459,39.85,49.744586,0.0009948937421727254,-0.022833026512682618,0.09710254654607277,40.106058693909645,-92.24360919585227,68.18063240997792
2024-09-23 20:31:37.946078,39.85,49.744636,0.0011441298778511575,-0.022584292562972758,0.09755024973162574,36.09446859390736,-92.24360919585227,80.21211738781929
2024-09-23 20:31:37.988728,39.85,49.744687,0.0011441298778511575,-0.022584292562972758,0.09755024973162574,36.09446859390736,-92.24360919585227,72.1922225099802
2024-09-23 20:31:38.042209,39.85,49.744687,0.0007959191899112484,-0.022584292562972758,0.09755024973162574,36.09446859390736,-92.24360919585227,72.1922225099802
2024-09-23 20:31:38.084798,39.85,49.744687,0.0007959191899112484,-0.022982261414192504,0.09755024973162574,36.09446859390736,-92.24360919585227,72.1922225099802
2024-09-23 20:31:38.095772,39.85,49.744738,0.0007959191899112484,-0.022982261414192504,0.09745075675933246,40.106058693909645,-92.24360919585227,76.200527287817
2024-09-23 20:31:38.139200,39.85,49.744738,0.000845657606494293,-0.023280723622328886,0.09720203344245934,48.12595698684454,-92.24360919585227,76.200527287817
2024-09-23 20:31:38.151507,39.85,49.744738,0.000845657606494293,-0.023280723622328886,0.09720203344245934,48.12595698684454,-92.24360919585227,76.200527287817
2024-09-23 20:31:38.183990,39.85,49.744788,0.0012436275969465451,-0.02303200030545576,0.09720203344245934,48.12595698684454,-92.24360919585227,76.200527287817
2024-09-23 20:31:38.195121,39.85,49.744788,0.0012436275969465451,-0.02303200030545576,0.09774922960030558,44.11764879391193,-96.25519929585457,76.200527287817
2024-09-23 20:31:38.278144,39.85,49.744788,0.0012436275969465451,-0.02303200030545576,0.09774922960030558,44.11764879391193,-96.25519929585457,76.200527287817
2024-09-23 20:31:38.289773,39.85,49.744875,0.0006964318663124887,-0.022833026512682618,0.09685382322919964,40.106058693909645,-96.25519929585457,76.200527287817
2024-09-23 20:31:38.332448,39.85,49.744926,0.0011441298778511575,-0.022833026512682618,0.09685382322919964,40.106058693909645,-100.26678939585686,76.200527287817
2024-09-23 20:31:38.344240,39.85,49.744926,0.0011441298778511575,-0.02308174982955575,0.09750050628343246,40.106058693909645,-100.26678939585686,76.200527287817
2024-09-23 20:31:38.377021,39.85,49.744926,0.0011441298778511575,-0.02308174982955575,0.09750050628343246,44.11764879391193,-100.26678939585686,76.200527287817
2024-09-23 20:31:38.388864,39.85,49.745024,0.0007959191899112484,-0.023230986250042305,0.09750050628343246,44.11764879391193,-92.24360919585227,76.200527287817
2024-09-23 20:31:38.432528,39.85,49.745074,0.0007959191899112484,-0.023230986250042305,0.09725178296655933,48.12595698684454,-92.24360919585227,72.1922225099802
2024-09-23 20:31:38.444312,39.85,49.745074,0.0010943914612681128,-0.023230986250042305,0.09725178296655933,48.12595698684454,-92.24360919585227,72.1922225099802
2024-09-23 20:31:38.476585,40.18,49.745074,0.0010943914612681128,-0.023280723622328886,0.09764974270391902,44.11764879391193,-92.24360919585227,72.1922225099802
2024-09-23 20:31:38.488356,40.18,49.745217,0.0010943914612681128,-0.023280723622328886,0.09764974270391902,44.11764879391193,-92.24360919585227,80.21211738781929
2024-09-23 20:31:38.531704,40.18,49.745217,0.0006964318663124887,-0.02308174982955575,0.09750050628343246,40.106058693909645,-92.24360919585227,80.21211738781929
2024-09-23 20:31:38.543486,40.18,49.745217,0.0006964318663124887,-0.02308174982955575,0.09750050628343246,40.106058693909645,-92.24360919585227,80.21211738781929
2024-09-23 20:31:38.576022,40.18,49.745268,0.000845657606494293,-0.023877669304275123,0.09740101331113918,40.106058693909645,-92.24360919585227,80.21211738781929
2024-09-23 20:31:38.586934,40.18,49.745268,0.000845657606494293,-0.023877669304275123,0.09740101331113918,28.07457030097246,-88.23529758782387,80.21211738781929
2024-09-23 20:31:38.629183,40.18,49.745319,0.0008954064660419869,-0.023429960042815445,0.09750050628343246,44.11764879391193,-88.23529758782387,80.21211738781929
2024-09-23 20:31:38.673595,40.18,49.745369,0.0008954064660419869,-0.023429960042815445,0.09750050628343246,44.11764879391193,-84.22370748782159,76.200527287817
2024-09-23 20:31:38.685243,40.18,49.745369,0.0003979595949556242,-0.023230986250042305,0.09750050628343246,44.11764879391193,-84.22370748782159,76.200527287817
2024-09-23 20:31:38.717688,40.18,49.745369,0.0003979595949556242,-0.023230986250042305,0.09750050628343246,36.09446859390736,-84.22370748782159,76.200527287817
2024-09-23 20:31:38.728754,40.18,49.74542,0.00034821073540793035,-0.023429960042815445,0.09750050628343246,36.09446859390736,-88.23529758782387,72.1922225099802
2024-09-23 20:31:38.770795,40.18,49.74542,0.00034821073540793035,-0.023429960042815445,0.09720203344245934,48.12595698684454,-84.22370748782159,76.200527287817
2024-09-23 20:31:38.782522,40.18,49.745471,0.0012436275969465451,-0.023429960042815445,0.09720203344245934,48.12595698684454,-84.22370748782159,76.200527287817
2024-09-23 20:31:38.816233,40.18,49.745471,0.0012436275969465451,-0.022982261414192504,0.09715228999426605,48.12595698684454,-84.22370748782159,76.200527287817
2024-09-23 20:31:38.827273,40.18,49.745558,0.0012436275969465451,-0.022982261414192504,0.09715228999426605,44.11764879391193,-84.22370748782159,76.200527287817
2024-09-23 20:31:38.870112,40.18,49.745558,0.000845657606494293,-0.023330473146428877,0.09740101331113918,36.09446859390736,-92.24360919585227,76.200527287817
2024-09-23 20:31:38.881673,40.18,49.745558,0.000845657606494293,-0.023330473146428877,0.09740101331113918,36.09446859390736,-92.24360919585227,80.21211738781929
2024-09-23 20:31:38.913972,40.18,49.745609,0.000845657606494293,-0.023330473146428877,0.09740101331113918,36.09446859390736,-92.24360919585227,80.21211738781929
2024-09-23 20:31:38.926053,40.18,49.745609,0.000845657606494293,-0.023479709566915436,0.09725178296655933,36.09446859390736,-96.25519929585457,80.21211738781929
2024-09-23 20:31:38.968644,40.18,49.74566,0.0010943914612681128,-0.023280723622328886,0.09764974270391902,40.106058693909645,-96.25519929585457,76.200527287817
2024-09-23 20:31:39.011345,40.18,49.74566,0.0010943914612681128,-0.023280723622328886,0.09764974270391902,40.106058693909645,-88.23529758782387,88.23529758782387
2024-09-23 20:31:39.022318,40.18,49.745711,0.0012436275969465451,-0.02338022115155219,0.09799795899308542,40.106058693909645,-88.23529758782387,88.23529758782387
2024-09-23 20:31:39.065769,40.18,49.745761,0.0009948937421727254,-0.02338022115155219,0.09799795899308542,44.11764879391193,-84.22370748782159,80.21211738781929
2024-09-23 20:31:39.108292,40.18,49.745761,0.0009948937421727254,-0.02338022115155219,0.09774922960030558,48.12595698684454,-84.22370748782159,80.21211738781929
2024-09-23 20:31:39.119778,40.18,49.745812,0.0006466830067647949,-0.02338022115155219,0.09774922960030558,48.12595698684454,-80.21211738781929,72.1922225099802
2024-09-23 20:31:39.162522,40.18,49.745812,0.0006466830067647949,-0.023429960042815445,0.0973015264147526,36.09446859390736,-92.24360919585227,80.21211738781929
2024-09-23 20:31:39.174219,40.18,49.745899,0.0006466830067647949,-0.023429960042815445,0.0973015264147526,36.09446859390736,-92.24360919585227,80.21211738781929
2024-09-23 20:31:39.206443,40.18,49.745899,-0.00014922575204880957,-0.02362894446842532,0.0973015264147526,36.09446859390736,-92.24360919585227,80.21211738781929
2024-09-23 20:31:39.218294,40.18,49.745899,-0.00014922575204880957,-0.02362894446842532,0.09745075675933246,40.106058693909645,-96.25519929585457,80.21211738781929
2024-09-23 20:31:39.261132,40.18,49.745951,0.00044769805900669,-0.023429960042815445,0.09745075675933246,48.12595698684454,-96.25519929585457,80.21211738781929
2024-09-23 20:31:39.273667,40.18,49.745951,0.00044769805900669,-0.023429960042815445,0.09745075675933246,48.12595698684454,-92.24360919585227,80.21211738781929
2024-09-23 20:31:39.305616,40.18,49.746002,0.00034821073540793035,-0.023429960042815445,0.09745075675933246,48.12595698684454,-92.24360919585227,80.21211738781929
2024-09-23 20:31:39.317583,40.18,49.746002,0.00034821073540793035,-0.02278327698858263,0.09720203344245934,40.106058693909645,-92.24360919585227,80.21211738781929
2024-09-23 20:31:39.359571,40.18,49.746053,0.0007959191899112484,-0.022982261414192504,0.0973015264147526,40.106058693909645,-96.25519929585457,76.200527287817
2024-09-23 20:31:39.401688,40.18,49.746053,0.0007959191899112484,-0.022982261414192504,0.0973015264147526,48.12595698684454,-92.24360919585227,76.200527287817
2024-09-23 20:31:39.413436,40.18,49.746103,0.0006964318663124887,-0.02238531725122294,0.0973015264147526,48.12595698684454,-92.24360919585227,76.200527287817
2024-09-23 20:31:39.456005,40.18,49.746154,0.0007461703303635545,-0.02238531725122294,0.09750050628343246,40.106058693909645,-96.25519929585457,80.21211738781929
2024-09-23 20:31:39.498867,40.77,49.746154,0.0007461703303635545,-0.023181236725942318,0.09750050628343246,40.106058693909645,-96.25519929585457,80.21211738781929
2024-09-23 20:31:39.510567,40.77,49.74624,0.0007461703303635545,-0.023181236725942318,0.09759999317981902,40.106058693909645,-88.23529758782387,72.1922225099802
2024-09-23 20:31:39.554475,40.77,49.74624,0.0005969341946851222,-0.023479709566915436,0.0973015264147526,52.137550501942634,-100.26678939585686,76.200527287817
2024-09-23 20:31:39.597273,40.77,49.746292,0.0005969341946851222,-0.02362894446842532,0.0973015264147526,52.137550501942634,-100.26678939585686,76.200527287817
2024-09-23 20:31:39.608511,40.77,49.746292,0.0005969341946851222,-0.02362894446842532,0.09774922960030558,40.106058693909645,-104.27510100388527,76.200527287817
2024-09-23 20:31:39.650561,40.77,49.746343,0.0006964318663124887,-0.022584292562972758,0.09774922960030558,48.12595698684454,-104.27510100388527,76.200527287817
2024-09-23 20:31:39.693603,40.77,49.746343,0.0006964318663124887,-0.022584292562972758,0.09774922960030558,48.12595698684454,-100.26678939585686,76.200527287817
2024-09-23 20:31:39.704996,40.77,49.746393,0.0003979595949556242,-0.022982261414192504,0.09784872257259886,48.12595698684454,-100.26678939585686,76.200527287817
2024-09-23 20:31:39.747081,40.77,49.746444,0.00044769805900669,-0.022982261414192504,0.09784872257259886,40.106058693909645,-96.25519929585457,80.21211738781929
2024-09-23 20:31:39.758760,40.77,49.746444,0.00044769805900669,-0.02308174982955575,0.09784872257259886,40.106058693909645,-96.25519929585457,80.21211738781929
2024-09-23 20:31:39.792004,40.77,49.746444,0.00044769805900669,-0.02308174982955575,0.09725178296655933,40.106058693909645,-96.25519929585457,80.21211738781929
2024-09-23 20:31:39.803563,40.77,49.746495,0.0005969341946851222,-0.02308174982955575,0.09725178296655933,40.106058693909645,-92.24360919585227,80.21211738781929
2024-09-23 20:31:39.846198,40.77,49.746582,0.0005969341946851222,-0.02278327698858263,0.09755024973162574,40.106058693909645,-96.25519929585457,76.200527287817
2024-09-23 20:31:39.888386,40.77,49.746582,0.0006964318663124887,-0.02293251340906919,0.09755024973162574,40.106058693909645,-96.25519929585457,76.200527287817
2024-09-23 20:31:39.901041,40.77,49.746582,0.0006964318663124887,-0.02293251340906919,0.09829641968224512,40.106058693909645,-100.26678939585686,68.18063240997792
2024-09-23 20:31:39.944412,40.77,49.746633,0.0008954064660419869,-0.02303200030545576,0.09705279702197278,44.11764879391193,-92.24360919585227,68.18063240997792
2024-09-23 20:31:39.987857,40.77,49.746684,0.0011441298778511575,-0.02303200030545576,0.09705279702197278,44.11764879391193,-92.24360919585227,76.200527287817
2024-09-23 20:31:39.999332,40.77,49.746684,0.0011441298778511575,-0.02293251340906919,0.09794820946898543,40.106058693909645,-92.24360919585227,76.200527287817
2024-09-23 20:31:40.042495,40.77,49.746734,0.0007959191899112484,-0.02293251340906919,0.09794820946898543,40.106058693909645,-96.25519929585457,76.200527287817
2024-09-23 20:31:40.084684,40.77,49.746734,0.0007959191899112484,-0.02303200030545576,0.09799795899308542,36.09446859390736,-96.25519929585457,76.200527287817
2024-09-23 20:31:40.096370,40.77,49.746734,0.0007959191899112484,-0.02303200030545576,0.09799795899308542,36.09446859390736,-96.25519929585457,76.200527287817
2024-09-23 20:31:40.138809,40.77,49.746785,0.0005471957306340564,-0.023280723622328886,0.09755024973162574,44.11764879391193,-96.25519929585457,76.200527287817
2024-09-23 20:31:40.182840,40.77,49.746836,0.0006466830067647949,-0.023280723622328886,0.09755024973162574,44.11764879391193,-96.25519929585457,76.200527287817
2024-09-23 20:31:40.194374,40.77,49.746836,0.0006466830067647949,-0.02293251340906919,0.09710254654607277,36.09446859390736,-96.25519929585457,76.200527287817
2024-09-23 20:31:40.237081,40.77,49.746923,0.00034821073540793035,-0.02338022115155219,0.09755024973162574,36.09446859390736,-88.23529758782387,84.22370748782159
2024-09-23 20:31:40.279664,40.77,49.746923,0.00034821073540793035,-0.02338022115155219,0.09755024973162574,32.08287849390507,-88.23529758782387,76.200527287817
2024-09-23 20:31:40.291725,40.77,49.746974,0.0009451553255896806,-0.02278327698858263,0.09755024973162574,32.08287849390507,-88.23529758782387,76.200527287817
2024-09-23 20:31:40.334237,40.77,49.747025,0.000845657606494293,-0.02278327698858263,0.09675432418099966,44.11764879391193,-92.24360919585227,84.22370748782159
2024-09-23 20:31:40.376778,40.77,49.747025,0.000845657606494293,-0.02338022115155219,0.0973015264147526,40.106058693909645,-92.24360919585227,84.22370748782159
2024-09-23 20:31:40.387940,40.77,49.747118,0.000845657606494293,-0.02338022115155219,0.0973015264147526,40.106058693909645,-92.24360919585227,76.200527287817
2024-09-23 20:31:40.471386,40.77,49.747118,0.0004974468710863627,-0.02338022115155219,0.0973015264147526,40.106058693909645,-92.24360919585227,76.200527287817
2024-09-23 20:31:40.482384,40.77,49.747118,0.0004974468710863627,-0.02303200030545576,0.09720203344245934,36.09446859390736,-92.24360919585227,80.21211738781929
2024-09-23 20:31:40.524710,40.55,49.747169,0.0007461703303635545,-0.02268379009219606,0.09720203344245934,36.09446859390736,-92.24360919585227,80.21211738781929
2024-09-23 20:31:40.536670,40.55,49.747169,0.0007461703303635545,-0.02268379009219606,0.0973512698629459,36.09446859390736,-96.25519929585457,80.21211738781929
2024-09-23 20:31:40.568949,40.55,49.747169,0.0007461703303635545,-0.02268379009219606,0.0973512698629459,36.09446859390736,-96.25519929585457,76.200527287817
2024-09-23 20:31:40.580193,40.55,49.74722,0.0006964318663124887,-0.023181236725942318,0.09755024973162574,40.106058693909645,-96.25519929585457,76.200527287817
2024-09-23 20:31:40.622375,40.55,49.747271,0.0006964318663124887,-0.023181236725942318,0.09755024973162574,40.106058693909645,-92.24360919585227,84.22370748782159
2024-09-23 20:31:40.675841,40.55,49.747271,0.00029846189959424716,-0.02313149783467906,0.0973015264147526,44.11764879391193,-96.25519929585457,80.21211738781929
2024-09-23 20:31:40.719188,40.55,49.747321,0.0006466830067647949,-0.023181236725942318,0.0973015264147526,44.11764879391193,-96.25519929585457,80.21211738781929
2024-09-23 20:31:40.730288,40.55,49.747321,0.0006466830067647949,-0.023181236725942318,0.09779897304849887,52.137550501942634,-92.24360919585227,80.21211738781929
2024-09-23 20:31:40.773803,40.55,49.747321,0.0006466830067647949,-0.023181236725942318,0.09779897304849887,52.137550501942634,-92.24360919585227,76.200527287817
2024-09-23 20:31:40.816074,40.55,49.747413,0.00014922575204880957,-0.02308174982955575,0.09779897304849887,52.137550501942634,-92.24360919585227,76.200527287817
2024-09-23 20:31:40.827958,40.55,49.747413,0.00014922575204880957,-0.02308174982955575,0.0973015264147526,40.106058693909645,-96.25519929585457,76.200527287817
2024-09-23 20:31:40.870899,40.55,49.747508,0.0008954064660419869,-0.02308174982955575,0.0973015264147526,36.09446859390736,-96.25519929585457,76.200527287817
2024-09-23 20:31:40.913680,40.55,49.747559,0.0008954064660419869,-0.02308174982955575,0.0973015264147526,36.09446859390736,-104.27510100388527,72.1922225099802
2024-09-23 20:31:40.925810,40.55,49.747559,0.0007959191899112484,-0.0228827638849692,0.09779897304849887,36.09446859390736,-104.27510100388527,72.1922225099802
2024-09-23 20:31:41.009851,40.55,49.747559,0.0007959191899112484,-0.0228827638849692,0.09779897304849887,40.106058693909645,-96.25519929585457,72.1922225099802
2024-09-23 20:31:41.021275,40.55,49.74761,0.0011938787373988514,-0.022833026512682618,0.09779897304849887,40.106058693909645,-96.25519929585457,76.200527287817
2024-09-23 20:31:41.063680,40.55,49.74761,0.0011938787373988514,-0.022833026512682618,0.09779897304849887,44.11764879391193,-96.25519929585457,72.1922225099802
2024-09-23 20:31:41.108175,40.55,49.747703,0.0005471957306340564,-0.022833026512682618,0.09779897304849887,44.11764879391193,-96.25519929585457,72.1922225099802
2024-09-23 20:31:41.119153,40.55,49.747703,0.0005471957306340564,-0.0228827638849692,0.09779897304849887,48.12595698684454,-96.25519929585457,72.1922225099802
2024-09-23 20:31:41.162233,40.55,49.7478,0.0005969341946851222,-0.02313149783467906,0.09705279702197278,44.11764879391193,-96.25519929585457,72.1922225099802
2024-09-23 20:31:41.205573,40.55,49.747852,0.0005969341946851222,-0.02313149783467906,0.09705279702197278,44.11764879391193,-100.26678939585686,68.18063240997792
2024-09-23 20:31:41.258978,40.55,49.747852,0.000845657606494293,-0.023181236725942318,0.0973015264147526,36.09446859390736,-92.24360919585227,68.18063240997792
2024-09-23 20:31:41.270617,40.55,49.747852,0.000845657606494293,-0.023181236725942318,0.0973015264147526,36.09446859390736,-92.24360919585227,80.21211738781929
2024-09-23 20:31:41.302723,40.55,49.747948,0.0008954064660419869,-0.023181236725942318,0.0973015264147526,36.09446859390736,-92.24360919585227,80.21211738781929
2024-09-23 20:31:41.314361,40.55,49.747948,0.0008954064660419869,-0.02362894446842532,0.09774922960030558,36.09446859390736,-92.24360919585227,80.21211738781929
2024-09-23 20:31:41.357806,40.55,49.747998,0.0009451553255896806,-0.023479709566915436,0.09774922960030558,36.09446859390736,-92.24360919585227,80.21211738781929
2024-09-23 20:31:41.400361,40.55,49.748093,0.0009451553255896806,-0.023479709566915436,0.09774922960030558,36.09446859390736,-100.26678939585686,80.21211738781929
2024-09-23 20:31:41.411719,40.55,49.748093,0.0003979595949556242,-0.02313149783467906,0.09794820946898543,36.09446859390736,-100.26678939585686,80.21211738781929
2024-09-23 20:31:41.455213,40.55,49.748144,0.0009948937421727254,-0.023230986250042305,0.09794820946898543,40.106058693909645,-100.26678939585686,80.21211738781929
2024-09-23 20:31:41.498639,40.55,49.748144,0.0009948937421727254,-0.023230986250042305,0.09774922960030558,44.11764879391193,-100.26678939585686,80.21211738781929
2024-09-23 20:31:41.510080,40.55,49.748195,0.0014923510087557158,-0.023230986250042305,0.09774922960030558,44.11764879391193,-100.26678939585686,76.200527287817
2024-09-23 20:31:41.552898,40.35,49.748288,0.0014923510087557158,-0.023230986250042305,0.09755024973162574,40.106058693909645,-88.23529758782387,84.22370748782159
2024-09-23 20:31:41.595592,40.35,49.748288,0.0009451553255896806,-0.02293251340906919,0.09720203344245934,40.106058693909645,-88.23529758782387,84.22370748782159
2024-09-23 20:31:41.609907,40.35,49.748288,0.0009451553255896806,-0.02293251340906919,0.09720203344245934,44.11764879391193,-92.24360919585227,72.1922225099802
2024-09-23 20:31:41.641867,40.35,49.74834,0.0009451553255896806,-0.02293251340906919,0.09720203344245934,44.11764879391193,-92.24360919585227,72.1922225099802
2024-09-23 20:31:41.652722,40.35,49.74834,0.0007461703303635545,-0.023280723622328886,0.09720203344245934,44.11764879391193,-100.26678939585686,72.1922225099802
2024-09-23 20:31:41.694935,40.35,49.748391,0.00029846189959424716,-0.02338022115155219,0.09720203344245934,44.11764879391193,-100.26678939585686,72.1922225099802
2024-09-23 20:31:41.706070,40.35,49.748391,0.00029846189959424716,-0.02338022115155219,0.09695331012558621,44.11764879391193,-100.26678939585686,72.1922225099802
2024-09-23 20:31:41.738676,40.35,49.748391,0.00029846189959424716,-0.02338022115155219,0.09695331012558621,44.11764879391193,-100.26678939585686,72.1922225099802
2024-09-23 20:31:41.750010,40.35,49.748441,0.0006964318663124887,-0.02293251340906919,0.09750050628343246,44.11764879391193,-100.26678939585686,72.1922225099802
2024-09-23 20:31:41.791863,40.35,49.748441,0.0006964318663124887,-0.02293251340906919,0.09750050628343246,36.09446859390736,-96.25519929585457,80.21211738781929
2024-09-23 20:31:41.802777,40.35,49.748492,0.0006964318663124887,-0.023181236725942318,0.09750050628343246,36.09446859390736,-96.25519929585457,80.21211738781929
2024-09-23 20:31:41.845351,40.35,49.748543,0.00024872343554318134,-0.023181236725942318,0.09690356060148622,40.106058693909645,-92.24360919585227,80.21211738781929
2024-09-23 20:31:41.888717,40.35,49.748543,0.00024872343554318134,-0.022982261414192504,0.09710254654607277,40.106058693909645,-92.24360919585227,80.21211738781929
2024-09-23 20:31:41.900359,40.35,49.748629,0.00024872343554318134,-0.022982261414192504,0.09710254654607277,40.106058693909645,-100.26678939585686,76.200527287817
2024-09-23 20:31:41.942911,40.35,49.748629,0.0006466830067647949,-0.023330473146428877,0.09819693278585856,40.106058693909645,-88.23529758782387,76.200527287817
2024-09-23 20:31:42.036048,40.35,49.748681,0.0011441298778511575,-0.02303200030545576,0.09685382322919964,40.106058693909645,-88.23529758782387,76.200527287817
2024-09-23 20:31:42.049632,40.35,49.748681,0.0011441298778511575,-0.02303200030545576,0.09685382322919964,44.11764879391193,-96.25519929585457,76.200527287817
2024-09-23 20:31:42.082576,40.35,49.748731,0.0011441298778511575,-0.02303200030545576,0.09685382322919964,44.11764879391193,-96.25519929585457,72.1922225099802
2024-09-23 20:31:42.094253,40.35,49.748731,0.001044642601720419,-0.023728432883788564,0.0973015264147526,44.11764879391193,-96.25519929585457,72.1922225099802
2024-09-23 20:31:42.137300,40.35,49.748782,0.0007461703303635545,-0.02238531725122294,0.0973015264147526,36.09446859390736,-92.24360919585227,80.21211738781929
2024-09-23 20:31:42.181568,40.35,49.748782,0.0007461703303635545,-0.02238531725122294,0.09764974270391902,40.106058693909645,-92.24360919585227,80.21211738781929
2024-09-23 20:31:42.192541,40.35,49.748833,0.0010943914612681128,-0.02238531725122294,0.09764974270391902,40.106058693909645,-92.24360919585227,80.21211738781929
2024-09-23 20:31:42.235119,40.35,49.748883,0.0010943914612681128,-0.023429960042815445,0.09725178296655933,40.106058693909645,-92.24360919585227,76.200527287817
2024-09-23 20:31:42.277277,40.35,49.748883,0.000845657606494293,-0.023429960042815445,0.09725178296655933,40.106058693909645,-92.24360919585227,76.200527287817
2024-09-23 20:31:42.289718,40.35,49.748883,0.000845657606494293,-0.023429960042815445,0.09720203344245934,36.09446859390736,-92.24360919585227,76.200527287817
2024-09-23 20:31:42.332354,40.35,49.749019,0.0005471957306340564,-0.02308174982955575,0.09685382322919964,44.11764879391193,-88.23529758782387,76.200527287817
2024-09-23 20:31:42.374537,40.35,49.749071,0.0005471957306340564,-0.02308174982955575,0.09685382322919964,44.11764879391193,-88.23529758782387,80.21211738781929
2024-09-23 20:31:42.386392,40.35,49.749071,0.0008954064660419869,-0.023479709566915436,0.09710254654607277,40.106058693909645,-88.23529758782387,80.21211738781929
2024-09-23 20:31:42.429008,40.35,49.749121,0.0009451553255896806,-0.02303200030545576,0.0976994861521123,40.106058693909645,-92.24360919585227,76.200527287817
2024-09-23 20:31:42.471810,40.35,49.749121,0.0009451553255896806,-0.02303200030545576,0.0976994861521123,44.11764879391193,-92.24360919585227,76.200527287817
2024-09-23 20:31:42.482931,40.35,49.749172,0.00044769805900669,-0.022733528983459317,0.0976994861521123,44.11764879391193,-92.24360919585227,76.200527287817
2024-09-23 20:31:42.525578,40.35,49.749223,0.00044769805900669,-0.022733528983459317,0.09720203344245934,36.09446859390736,-92.24360919585227,80.21211738781929
2024-09-23 20:31:42.538031,40.35,49.749223,0.0009948937421727254,-0.022733528983459317,0.09720203344245934,36.09446859390736,-92.24360919585227,80.21211738781929
2024-09-23 20:31:42.570880,40.36,49.749223,0.0009948937421727254,-0.023479709566915436,0.09784872257259886,44.11764879391193,-92.24360919585227,80.21211738781929
2024-09-23 20:31:42.582847,40.36,49.749312,0.0009948937421727254,-0.023479709566915436,0.09784872257259886,44.11764879391193,-92.24360919585227,72.1922225099802
2024-09-23 20:31:42.666252,40.36,49.749312,0.00044769805900669,-0.02238531725122294,0.09784872257259886,44.11764879391193,-92.24360919585227,72.1922225099802
2024-09-23 20:31:42.677611,40.36,49.749312,0.00044769805900669,-0.02238531725122294,0.09764974270391902,40.106058693909645,-88.23529758782387,72.1922225099802
2024-09-23 20:31:42.720525,40.36,49.749363,0.0015420998683034098,-0.02293251340906919,0.09690356060148622,48.12595698684454,-88.23529758782387,72.1922225099802
2024-09-23 20:31:42.732664,40.36,49.749363,0.0015420998683034098,-0.02293251340906919,0.09690356060148622,48.12595698684454,-96.25519929585457,72.1922225099802
2024-09-23 20:31:42.764477,40.36,49.749414,0.0015420998683034098,-0.02293251340906919,0.09690356060148622,48.12595698684454,-96.25519929585457,76.200527287817
2024-09-23 20:31:42.776208,40.36,49.749414,0.0009948937421727254,-0.02313149783467906,0.0973512698629459,52.137550501942634,-96.25519929585457,76.200527287817
2024-09-23 20:31:42.820280,40.36,49.749465,0.0010943914612681128,-0.02293251340906919,0.09710254654607277,52.137550501942634,-96.25519929585457,80.21211738781929
2024-09-23 20:31:42.863147,40.36,49.749465,0.0010943914612681128,-0.02293251340906919,0.09710254654607277,36.09446859390736,-92.24360919585227,72.1922225099802
2024-09-23 20:31:42.874435,40.36,49.749515,0.0009948937421727254,-0.02352945757203875,0.09710254654607277,36.09446859390736,-92.24360919585227,72.1922225099802
2024-09-23 20:31:42.916264,40.36,49.749607,0.0005471957306340564,-0.02352945757203875,0.098047696365372,36.09446859390736,-96.25519929585457,76.200527287817
2024-09-23 20:31:42.959092,40.36,49.749607,0.0005471957306340564,-0.02238531725122294,0.09740101331113918,36.09446859390736,-96.25519929585457,76.200527287817
2024-09-23 20:31:42.970191,40.36,49.749702,0.0005471957306340564,-0.02238531725122294,0.09740101331113918,48.12595698684454,-96.25519929585457,72.1922225099802
2024-09-23 20:31:43.064049,40.36,49.749702,0.0008954064660419869,-0.023579196463302005,0.09784872257259886,52.137550501942634,-96.25519929585457,72.1922225099802
2024-09-23 20:31:43.107191,40.36,49.749753,0.0007461703303635545,-0.0228827638849692,0.09784872257259886,52.137550501942634,-96.25519929585457,72.1922225099802
2024-09-23 20:31:43.118801,40.36,49.749753,0.0007461703303635545,-0.0228827638849692,0.09740101331113918,40.106058693909645,-96.25519929585457,72.1922225099802
2024-09-23 20:31:43.161093,40.36,49.749804,0.0012933660135295898,-0.02303200030545576,0.09799795899308542,40.106058693909645,-92.24360919585227,76.200527287817
2024-09-23 20:31:43.203957,40.36,49.749804,0.0012933660135295898,-0.02303200030545576,0.09799795899308542,44.11764879391193,-88.23529758782387,76.200527287817
2024-09-23 20:31:43.216037,40.36,49.749855,0.0006466830067647949,-0.02313149783467906,0.09799795899308542,44.11764879391193,-88.23529758782387,76.200527287817
2024-09-23 20:31:43.258602,40.36,49.749906,0.0003979595949556242,-0.02313149783467906,0.09720203344245934,36.09446859390736,-96.25519929585457,76.200527287817
2024-09-23 20:31:43.302028,40.36,49.749906,0.0003979595949556242,-0.02313149783467906,0.0973512698629459,36.09446859390736,-96.25519929585457,76.200527287817
2024-09-23 20:31:43.313293,40.36,49.749997,0.0003979595949556242,-0.02313149783467906,0.0973512698629459,44.11764879391193,-88.23529758782387,76.200527287817
2024-09-23 20:31:43.357300,40.36,49.749997,0.0005969341946851222,-0.023728432883788564,0.0976994861521123,40.106058693909645,-92.24360919585227,76.200527287817
2024-09-23 20:31:43.399702,40.36,49.750092,0.0004974468710863627,-0.023728432883788564,0.0976994861521123,40.106058693909645,-92.24360919585227,76.200527287817
2024-09-23 20:31:43.453274,40.36,49.750092,0.0004974468710863627,-0.023181236725942318,0.09755024973162574,52.137550501942634,-96.25519929585457,72.1922225099802
2024-09-23 20:31:43.465462,40.36,49.750144,0.0004974468710863627,-0.023181236725942318,0.09755024973162574,52.137550501942634,-96.25519929585457,72.1922225099802
2024-09-23 20:31:43.498299,40.36,49.750144,0.0012933660135295898,-0.02308174982955575,0.09750050628343246,44.11764879391193,-96.25519929585457,72.1922225099802
2024-09-23 20:31:43.509735,40.36,49.750144,0.0012933660135295898,-0.02308174982955575,0.09750050628343246,44.11764879391193,-88.23529758782387,80.21211738781929
2024-09-23 20:31:43.541450,40.36,49.750194,0.0012933660135295898,-0.02308174982955575,0.09750050628343246,44.11764879391193,-88.23529758782387,80.21211738781929
2024-09-23 20:31:43.552734,40.36,49.750194,0.0011938787373988514,-0.02308174982955575,0.09759999317981902,36.09446859390736,-92.24360919585227,80.21211738781929
2024-09-23 20:31:43.595235,40.06,49.750245,0.0006964318663124887,-0.022733528983459317,0.09759999317981902,36.09446859390736,-92.24360919585227,80.21211738781929
2024-09-23 20:31:43.607413,40.06,49.750245,0.0006964318663124887,-0.022733528983459317,0.0973512698629459,44.11764879391193,-92.24360919585227,80.21211738781929
2024-09-23 20:31:43.639382,40.06,49.750245,0.0006964318663124887,-0.022733528983459317,0.0973512698629459,44.11764879391193,-100.26678939585686,80.21211738781929
2024-09-23 20:31:43.650514,40.06,49.750296,0.00034821073540793035,-0.0228827638849692,0.0973015264147526,44.11764879391193,-100.26678939585686,72.1922225099802
2024-09-23 20:31:43.693919,40.06,49.750386,0.00034821073540793035,-0.0228827638849692,0.0973015264147526,48.12595698684454,-96.25519929585457,76.200527287817
2024-09-23 20:31:43.705195,40.06,49.750386,0.0009948937421727254,-0.023479709566915436,0.0973015264147526,48.12595698684454,-96.25519929585457,76.200527287817
2024-09-23 20:31:43.737225,40.06,49.750386,0.0009948937421727254,-0.023479709566915436,0.09705279702197278,48.12595698684454,-96.25519929585457,76.200527287817
2024-09-23 20:31:43.748420,40.06,49.750437,0.00044769805900669,-0.023479709566915436,0.09705279702197278,40.106058693909645,-96.25519929585457,72.1922225099802
2024-09-23 20:31:43.790260,40.06,49.750437,0.00044769805900669,-0.023330473146428877,0.09759999317981902,40.106058693909645,-92.24360919585227,72.1922225099802
