Ayaan's Suite
Timestamp,Sample Rate (Hz),Time,Ax,Ay,Az,Gx,Gy,Gz
2024-09-23 19:33:20.275270,0,46.246924,0.0005471957306340564,-0.023479709566915436,0.09705279702197278,40.106058693909645,-92.24360919585227,80.21211738781929
2024-09-23 19:33:20.307079,0,46.246924,0.0005471957306340564,-0.023479709566915436,0.09720203344245934,40.106058693909645,-92.24360919585227,80.21211738781929
2024-09-23 19:33:20.318497,0,46.246975,0.0010943914612681128,-0.023479709566915436,0.09720203344245934,28.07457030097246,-100.26678939585686,72.1922225099802
2024-09-23 19:33:20.360215,0,46.246975,0.0010943914612681128,-0.023429960042815445,0.0970030596496862,36.09446859390736,-96.25519929585457,72.1922225099802
2024-09-23 19:33:20.371865,0,46.247068,0.0010943914612681128,-0.023429960042815445,0.0970030596496862,36.09446859390736,-96.25519929585457,76.200527287817
2024-09-23 19:33:20.404065,0,46.247068,0.0006466830067647949,-0.023429960042815445,0.0970030596496862,36.09446859390736,-96.25519929585457,76.200527287817
2024-09-23 19:33:20.415935,0,46.247068,0.0006466830067647949,-0.023330473146428877,0.09705279702197278,48.12595698684454,-96.25519929585457,76.200527287817
2024-09-23 19:33:20.458845,0,46.24712,0.0009451553255896806,-0.02303200030545576,0.09690356060148622,48.12595698684454,-96.25519929585457,76.200527287817
2024-09-23 19:33:20.470957,0,46.24712,0.0009451553255896806,-0.02303200030545576,0.09690356060148622,40.106058693909645,-92.24360919585227,76.200527287817
2024-09-23 19:33:20.504109,0,46.24717,0.0009451553255896806,-0.02303200030545576,0.09690356060148622,40.106058693909645,-92.24360919585227,76.200527287817
2024-09-23 19:33:20.515719,0,46.24717,0.0007959191899112484,-0.023280723622328886,0.09695331012558621,40.106058693909645,-92.24360919585227,76.200527287817
2024-09-23 19:33:20.557975,0,46.247221,0.0009451553255896806,-0.02338022115155219,0.09695331012558621,40.106058693909645,-100.26678939585686,76.200527287817
2024-09-23 19:33:20.570348,0,46.247221,0.0009451553255896806,-0.02338022115155219,0.09764974270391902,40.106058693909645,-100.26678939585686,76.200527287817
2024-09-23 19:33:20.603337,0,46.247221,0.0009451553255896806,-0.02338022115155219,0.09764974270391902,40.106058693909645,-92.24360919585227,80.21211738781929
2024-09-23 19:33:20.615505,0,46.247272,0.0007959191899112484,-0.023778180888911878,0.09764974270391902,40.106058693909645,-92.24360919585227,80.21211738781929
2024-09-23 19:33:20.658080,0,46.247322,0.0005969341946851222,-0.023778180888911878,0.09720203344245934,44.11764879391193,-96.25519929585457,76.200527287817
2024-09-23 19:33:20.700553,0,46.247322,0.0005969341946851222,-0.023728432883788564,0.09720203344245934,40.106058693909645,-96.25519929585457,76.200527287817
2024-09-23 19:33:20.712080,0,46.247409,0.0005969341946851222,-0.023728432883788564,0.09720203344245934,40.106058693909645,-96.25519929585457,80.21211738781929
2024-09-23 19:33:20.755782,0,46.247409,0.0011441298778511575,-0.023728432883788564,0.09725178296655933,36.09446859390736,-96.25519929585457,76.200527287817
2024-09-23 19:33:20.798107,0,46.247461,0.001044642601720419,-0.02303200030545576,0.09725178296655933,36.09446859390736,-96.25519929585457,76.200527287817
2024-09-23 19:33:20.809741,0,46.247461,0.001044642601720419,-0.02303200030545576,0.0973015264147526,36.09446859390736,-92.24360919585227,76.200527287817
2024-09-23 19:33:20.852430,0,46.247512,0.0009451553255896806,-0.023280723622328886,0.09764974270391902,32.08287849390507,-92.24360919585227,76.200527287817
2024-09-23 19:33:20.895010,0,46.247562,0.0009451553255896806,-0.023280723622328886,0.09764974270391902,32.08287849390507,-96.25519929585457,80.21211738781929
2024-09-23 19:33:20.905978,0,46.247562,0.00029846189959424716,-0.023579196463302005,0.09755024973162574,32.08287849390507,-96.25519929585457,80.21211738781929
2024-09-23 19:33:20.948636,0,46.247613,0.00044769805900669,-0.023579196463302005,0.09755024973162574,32.08287849390507,-96.25519929585457,80.21211738781929
2024-09-23 19:33:20.960353,0,46.247613,0.00044769805900669,-0.023181236725942318,0.09755024973162574,32.08287849390507,-96.25519929585457,80.21211738781929
2024-09-23 19:33:20.993964,0,46.247613,0.00044769805900669,-0.023181236725942318,0.0973512698629459,32.08287849390507,-96.25519929585457,80.21211738781929
2024-09-23 19:33:21.005436,0,46.247664,0.0012436275969465451,-0.023181236725942318,0.0973512698629459,32.08287849390507,-96.25519929585457,80.21211738781929
2024-09-23 19:33:21.048334,0,46.247751,0.0012436275969465451,-0.02367869399252531,0.09710254654607277,40.106058693909645,-96.25519929585457,76.200527287817
2024-09-23 19:33:21.089953,0,46.247751,0.0009948937421727254,-0.02338022115155219,0.09745075675933246,40.106058693909645,-96.25519929585457,76.200527287817
2024-09-23 19:33:21.101100,0,46.247751,0.0009948937421727254,-0.02338022115155219,0.09745075675933246,48.12595698684454,-92.24360919585227,76.200527287817
2024-09-23 19:33:21.145360,0,46.247802,0.0005969341946851222,-0.02352945757203875,0.09745075675933246,44.11764879391193,-100.26678939585686,76.200527287817
2024-09-23 19:33:21.188303,0,46.247853,0.0005969341946851222,-0.02352945757203875,0.09745075675933246,44.11764879391193,-100.26678939585686,72.1922225099802
2024-09-23 19:33:21.199227,0,46.247853,0.0009948937421727254,-0.02362894446842532,0.09750050628343246,36.09446859390736,-100.26678939585686,72.1922225099802
2024-09-23 19:33:21.243235,0,46.247903,0.0007959191899112484,-0.02352945757203875,0.09750050628343246,36.09446859390736,-96.25519929585457,72.1922225099802
2024-09-23 19:33:21.254651,0,46.247903,0.0007959191899112484,-0.02352945757203875,0.09745075675933246,36.09446859390736,-96.25519929585457,72.1922225099802
2024-09-23 19:33:21.286465,44.01,46.247954,0.0007959191899112484,-0.02352945757203875,0.09745075675933246,40.106058693909645,-92.24360919585227,88.23529758782387
2024-09-23 19:33:21.298235,44.01,46.247954,0.00014922575204880957,-0.02308174982955575,0.09745075675933246,40.106058693909645,-92.24360919585227,88.23529758782387
2024-09-23 19:33:21.330402,44.01,46.247954,0.00014922575204880957,-0.02308174982955575,0.09759999317981902,40.106058693909645,-92.24360919585227,88.23529758782387
2024-09-23 19:33:21.341896,44.01,46.248005,0.0006964318663124887,-0.02308174982955575,0.09759999317981902,40.106058693909645,-92.24360919585227,80.21211738781929
2024-09-23 19:33:21.384612,44.01,46.248005,0.0006964318663124887,-0.0228827638849692,0.09740101331113918,44.11764879391193,-92.24360919585227,80.21211738781929
2024-09-23 19:33:21.397356,44.01,46.248092,0.0006964318663124887,-0.0228827638849692,0.09740101331113918,44.11764879391193,-92.24360919585227,80.21211738781929
2024-09-23 19:33:21.428951,44.01,46.248092,0.0001989745997294981,-0.0228827638849692,0.09740101331113918,44.11764879391193,-92.24360919585227,80.21211738781929
2024-09-23 19:33:21.440742,44.01,46.248092,0.0001989745997294981,-0.02338022115155219,0.09695331012558621,44.11764879391193,-96.25519929585457,72.1922225099802
2024-09-23 19:33:21.483329,44.01,46.248143,0.000845657606494293,-0.02308174982955575,0.09764974270391902,44.11764879391193,-96.25519929585457,72.1922225099802
2024-09-23 19:33:21.494293,44.01,46.248143,0.000845657606494293,-0.02308174982955575,0.09764974270391902,32.08287849390507,-92.24360919585227,72.1922225099802
2024-09-23 19:33:21.525972,44.01,46.248143,0.000845657606494293,-0.02308174982955575,0.09764974270391902,32.08287849390507,-92.24360919585227,76.200527287817
2024-09-23 19:33:21.537871,44.01,46.248194,0.0009948937421727254,-0.023280723622328886,0.09710254654607277,40.106058693909645,-92.24360919585227,76.200527287817
2024-09-23 19:33:21.581010,44.01,46.248245,0.0005471957306340564,-0.02313149783467906,0.09710254654607277,40.106058693909645,-88.23529758782387,80.21211738781929
2024-09-23 19:33:21.593113,44.01,46.248245,0.0005471957306340564,-0.02313149783467906,0.09750050628343246,40.106058693909645,-88.23529758782387,80.21211738781929
2024-09-23 19:33:21.626207,44.01,46.248245,0.0005471957306340564,-0.02313149783467906,0.09750050628343246,36.09446859390736,-92.24360919585227,72.1922225099802
2024-09-23 19:33:21.637397,44.01,46.248295,0.0012933660135295898,-0.023429960042815445,0.09750050628343246,36.09446859390736,-92.24360919585227,72.1922225099802
2024-09-23 19:33:21.679642,44.01,46.248346,0.0012933660135295898,-0.023429960042815445,0.09695331012558621,44.11764879391193,-92.24360919585227,72.1922225099802
2024-09-23 19:33:21.691297,44.01,46.248346,0.0006964318663124887,-0.023429960042815445,0.09695331012558621,44.11764879391193,-92.24360919585227,72.1922225099802
2024-09-23 19:33:21.724519,44.01,46.248346,0.0006964318663124887,-0.02338022115155219,0.09759999317981902,28.07457030097246,-92.24360919585227,72.1922225099802
2024-09-23 19:33:21.735928,44.01,46.248346,0.0006964318663124887,-0.02338022115155219,0.09759999317981902,28.07457030097246,-92.24360919585227,72.1922225099802
2024-09-23 19:33:21.819551,44.01,46.248346,0.0006964318663124887,-0.02338022115155219,0.09759999317981902,28.07457030097246,-92.24360919585227,80.21211738781929
2024-09-23 19:33:21.830863,44.01,46.248433,0.001442602149208022,-0.02308174982955575,0.09779897304849887,40.106058693909645,-92.24360919585227,80.21211738781929
2024-09-23 19:33:21.873255,44.01,46.248485,0.0007959191899112484,-0.02308174982955575,0.09779897304849887,40.106058693909645,-96.25519929585457,80.21211738781929
2024-09-23 19:33:21.885185,44.01,46.248485,0.0007959191899112484,-0.023479709566915436,0.09745075675933246,40.106058693909645,-96.25519929585457,80.21211738781929
2024-09-23 19:33:21.918144,44.01,46.248485,0.0007959191899112484,-0.023479709566915436,0.09745075675933246,44.11764879391193,-92.24360919585227,80.21211738781929
2024-09-23 19:33:21.929847,44.01,46.248485,0.0007959191899112484,-0.023479709566915436,0.09745075675933246,44.11764879391193,-92.24360919585227,76.200527287817
2024-09-23 19:33:21.973899,44.01,46.248536,0.0006466830067647949,-0.023728432883788564,0.09675432418099966,36.09446859390736,-100.26678939585686,76.200527287817
2024-09-23 19:33:22.017014,44.01,46.248587,0.0010943914612681128,-0.023728432883788564,0.09675432418099966,36.09446859390736,-100.26678939585686,76.200527287817
2024-09-23 19:33:22.028475,44.01,46.248587,0.0010943914612681128,-0.023230986250042305,0.0973015264147526,36.09446859390736,-100.26678939585686,76.200527287817
2024-09-23 19:33:22.070534,44.01,46.248637,0.0011441298778511575,-0.023778180888911878,0.09715228999426605,36.09446859390736,-96.25519929585457,80.21211738781929
2024-09-23 19:33:22.114237,44.01,46.248637,0.0011441298778511575,-0.023778180888911878,0.09715228999426605,44.11764879391193,-92.24360919585227,72.1922225099802
2024-09-23 19:33:22.126005,44.01,46.248775,0.0007461703303635545,-0.02352945757203875,0.09715228999426605,44.11764879391193,-92.24360919585227,72.1922225099802
2024-09-23 19:33:22.169049,44.01,46.248826,0.0007461703303635545,-0.02352945757203875,0.09690356060148622,44.11764879391193,-92.24360919585227,76.200527287817
2024-09-23 19:33:22.211760,44.01,46.248826,0.0007461703303635545,-0.02308174982955575,0.09725178296655933,44.11764879391193,-92.24360919585227,76.200527287817
2024-09-23 19:33:22.222954,44.01,46.248921,0.0007461703303635545,-0.02308174982955575,0.09725178296655933,44.11764879391193,-96.25519929585457,84.22370748782159
2024-09-23 19:33:22.265414,44.01,46.248921,0.0015918383798224967,-0.023181236725942318,0.0970030596496862,44.11764879391193,-100.26678939585686,80.21211738781929
2024-09-23 19:33:22.309013,43.52,46.248972,0.0007461703303635545,-0.023230986250042305,0.0970030596496862,44.11764879391193,-100.26678939585686,80.21211738781929
2024-09-23 19:33:22.320588,43.52,46.248972,0.0007461703303635545,-0.023230986250042305,0.09834616920634512,40.106058693909645,-100.26678939585686,80.21211738781929
2024-09-23 19:33:22.364260,43.52,46.249023,0.0008954064660419869,-0.023330473146428877,0.09715228999426605,36.09446859390736,-100.26678939585686,80.21211738781929
2024-09-23 19:33:22.407297,43.52,46.249074,0.0008954064660419869,-0.023330473146428877,0.09715228999426605,36.09446859390736,-100.26678939585686,76.200527287817
2024-09-23 19:33:22.418557,43.52,46.249074,0.0011441298778511575,-0.02338022115155219,0.09705279702197278,36.09446859390736,-100.26678939585686,76.200527287817
2024-09-23 19:33:22.461237,43.52,46.249124,0.0006964318663124887,-0.023181236725942318,0.09705279702197278,40.106058693909645,-100.26678939585686,76.200527287817
2024-09-23 19:33:22.504747,43.52,46.249124,0.0006964318663124887,-0.023181236725942318,0.09685382322919964,48.12595698684454,-100.26678939585686,76.200527287817
2024-09-23 19:33:22.516351,43.52,46.249175,0.0012933660135295898,-0.023181236725942318,0.09685382322919964,48.12595698684454,-100.26678939585686,76.200527287817
2024-09-23 19:33:22.559840,43.52,46.249262,0.0012933660135295898,-0.023280723622328886,0.0973512698629459,48.12595698684454,-92.24360919585227,72.1922225099802
2024-09-23 19:33:22.601997,43.52,46.249262,0.0006466830067647949,-0.02308174982955575,0.09774922960030558,48.12595698684454,-92.24360919585227,72.1922225099802
2024-09-23 19:33:22.613395,43.52,46.249262,0.0006466830067647949,-0.02308174982955575,0.09774922960030558,48.12595698684454,-96.25519929585457,76.200527287817
2024-09-23 19:33:22.656302,43.52,46.249313,0.0007461703303635545,-0.023280723622328886,0.09750050628343246,52.137550501942634,-88.23529758782387,76.200527287817
2024-09-23 19:33:22.698842,43.52,46.249364,0.0009948937421727254,-0.023280723622328886,0.09750050628343246,52.137550501942634,-88.23529758782387,76.200527287817
2024-09-23 19:33:22.710729,43.52,46.249364,0.0009948937421727254,-0.023429960042815445,0.09720203344245934,40.106058693909645,-88.23529758782387,76.200527287817
2024-09-23 19:33:22.753812,43.52,46.249415,0.0012933660135295898,-0.023181236725942318,0.09655535038822652,40.106058693909645,-84.22370748782159,84.22370748782159
2024-09-23 19:33:22.796899,43.52,46.249415,0.0012933660135295898,-0.023181236725942318,0.09655535038822652,52.137550501942634,-100.26678939585686,76.200527287817
2024-09-23 19:33:22.808529,43.52,46.249465,0.0008954064660419869,-0.023429960042815445,0.09655535038822652,52.137550501942634,-100.26678939585686,76.200527287817
2024-09-23 19:33:22.851209,43.52,46.249516,0.0012933660135295898,-0.023429960042815445,0.09789846602079214,40.106058693909645,-96.25519929585457,72.1922225099802
2024-09-23 19:33:22.894006,43.52,46.249516,0.0012933660135295898,-0.02362894446842532,0.09740101331113918,48.12595698684454,-96.25519929585457,72.1922225099802
2024-09-23 19:33:22.905159,43.52,46.249604,0.0012933660135295898,-0.02362894446842532,0.09740101331113918,48.12595698684454,-96.25519929585457,80.21211738781929
2024-09-23 19:33:22.947991,43.52,46.249604,0.0009948937421727254,-0.02308174982955575,0.09685382322919964,40.106058693909645,-92.24360919585227,80.21211738781929
2024-09-23 19:33:22.990331,43.52,46.249655,0.0009451553255896806,-0.02308174982955575,0.09685382322919964,40.106058693909645,-92.24360919585227,80.21211738781929
2024-09-23 19:33:23.002533,43.52,46.249655,0.0009451553255896806,-0.02303200030545576,0.09755024973162574,36.09446859390736,-96.25519929585457,80.21211738781929
2024-09-23 19:33:23.046148,43.52,46.249706,0.00044769805900669,-0.02338022115155219,0.09715228999426605,36.09446859390736,-96.25519929585457,76.200527287817
2024-09-23 19:33:23.089338,43.52,46.249757,0.00044769805900669,-0.02338022115155219,0.09715228999426605,36.09446859390736,-96.25519929585457,80.21211738781929
2024-09-23 19:33:23.101073,43.52,46.249757,0.001044642601720419,-0.023429960042815445,0.09740101331113918,36.09446859390736,-96.25519929585457,80.21211738781929
2024-09-23 19:33:23.144587,43.52,46.249808,0.0005471957306340564,-0.02313149783467906,0.09740101331113918,40.106058693909645,-104.27510100388527,80.21211738781929
2024-09-23 19:33:23.186706,43.52,46.249808,0.0005471957306340564,-0.02313149783467906,0.0970030596496862,40.106058693909645,-100.26678939585686,80.21211738781929
2024-09-23 19:33:23.198004,43.52,46.249858,0.00044769805900669,-0.02313149783467906,0.0970030596496862,40.106058693909645,-100.26678939585686,76.200527287817
2024-09-23 19:33:23.241732,43.52,46.249944,0.00044769805900669,-0.023181236725942318,0.0970030596496862,48.12595698684454,-96.25519929585457,80.21211738781929
2024-09-23 19:33:23.285928,43.52,46.249944,0.0006466830067647949,-0.023230986250042305,0.09705279702197278,44.11764879391193,-96.25519929585457,80.21211738781929
2024-09-23 19:33:23.297187,43.52,46.249944,0.0006466830067647949,-0.023230986250042305,0.09705279702197278,44.11764879391193,-92.24360919585227,72.1922225099802
2024-09-23 19:33:23.329083,42.08,46.249996,0.0006466830067647949,-0.023230986250042305,0.09705279702197278,44.11764879391193,-92.24360919585227,72.1922225099802
2024-09-23 19:33:23.341010,42.08,46.249996,0.0005471957306340564,-0.024026904205785005,0.09725178296655933,36.09446859390736,-92.24360919585227,72.1922225099802
2024-09-23 19:33:23.383556,42.08,46.250047,0.0008954064660419869,-0.02352945757203875,0.09725178296655933,36.09446859390736,-92.24360919585227,72.1922225099802
2024-09-23 19:33:23.396479,42.08,46.250047,0.0008954064660419869,-0.02352945757203875,0.09745075675933246,36.09446859390736,-92.24360919585227,72.1922225099802
2024-09-23 19:33:23.428976,42.08,46.250047,0.0008954064660419869,-0.02352945757203875,0.09745075675933246,36.09446859390736,-96.25519929585457,76.200527287817
2024-09-23 19:33:23.440110,42.08,46.250097,0.0007959191899112484,-0.023479709566915436,0.0973015264147526,36.09446859390736,-96.25519929585457,76.200527287817
2024-09-23 19:33:23.482564,42.08,46.250148,0.0007959191899112484,-0.023479709566915436,0.0973015264147526,44.11764879391193,-88.23529758782387,84.22370748782159
2024-09-23 19:33:23.494366,42.08,46.250148,0.0010943914612681128,-0.023479709566915436,0.0973015264147526,44.11764879391193,-88.23529758782387,84.22370748782159
2024-09-23 19:33:23.526822,42.08,46.250148,0.0010943914612681128,-0.023479709566915436,0.09710254654607277,48.12595698684454,-88.23529758782387,84.22370748782159
2024-09-23 19:33:23.538017,42.08,46.250199,0.000845657606494293,-0.023479709566915436,0.09710254654607277,48.12595698684454,-92.24360919585227,80.21211738781929
2024-09-23 19:33:23.580547,42.08,46.250199,0.000845657606494293,-0.023579196463302005,0.09764974270391902,28.07457030097246,-100.26678939585686,76.200527287817
2024-09-23 19:33:23.592434,42.08,46.250286,0.000845657606494293,-0.023579196463302005,0.09764974270391902,28.07457030097246,-100.26678939585686,76.200527287817
2024-09-23 19:33:23.625192,42.08,46.250286,0.0003979595949556242,-0.022584292562972758,0.09685382322919964,28.07457030097246,-100.26678939585686,76.200527287817
2024-09-23 19:33:23.636466,42.08,46.250286,0.0003979595949556242,-0.022584292562972758,0.09685382322919964,52.137550501942634,-84.22370748782159,88.23529758782387
2024-09-23 19:33:23.680079,42.08,46.250337,0.0007959191899112484,-0.02362894446842532,0.09720203344245934,64.16903547978401,-100.26678939585686,88.23529758782387
2024-09-23 19:33:23.724076,42.08,46.250388,0.0005969341946851222,-0.02362894446842532,0.09720203344245934,64.16903547978401,-100.26678939585686,76.200527287817
2024-09-23 19:33:23.735641,42.08,46.250388,0.0005969341946851222,-0.02367869399252531,0.09745075675933246,52.137550501942634,-100.26678939585686,76.200527287817
2024-09-23 19:33:23.768130,42.08,46.250388,0.0005969341946851222,-0.02367869399252531,0.09745075675933246,52.137550501942634,-100.26678939585686,76.200527287817
2024-09-23 19:33:23.779976,42.08,46.250439,0.0005969341946851222,-0.02367869399252531,0.09745075675933246,52.137550501942634,-100.26678939585686,76.200527287817
2024-09-23 19:33:23.822371,42.08,46.250439,0.0008954064660419869,-0.02362894446842532,0.09725178296655933,32.08287849390507,-100.26678939585686,76.200527287817
2024-09-23 19:33:23.833364,42.08,46.250439,0.0008954064660419869,-0.02362894446842532,0.09725178296655933,32.08287849390507,-96.25519929585457,80.21211738781929
2024-09-23 19:33:23.866854,42.08,46.250489,0.0008954064660419869,-0.02362894446842532,0.09725178296655933,32.08287849390507,-96.25519929585457,80.21211738781929
2024-09-23 19:33:23.878769,42.08,46.250489,0.0006964318663124887,-0.023479709566915436,0.0973512698629459,40.106058693909645,-92.24360919585227,80.21211738781929
2024-09-23 19:33:23.921704,42.08,46.25054,0.0009948937421727254,-0.02352945757203875,0.09720203344245934,40.106058693909645,-92.24360919585227,80.21211738781929
2024-09-23 19:33:23.933599,42.08,46.25054,0.0009948937421727254,-0.02352945757203875,0.09720203344245934,44.11764879391193,-92.24360919585227,80.21211738781929
2024-09-23 19:33:23.965115,42.08,46.25054,0.0009948937421727254,-0.02352945757203875,0.09720203344245934,44.11764879391193,-92.24360919585227,76.200527287817
2024-09-23 19:33:23.976780,42.08,46.250627,0.0013928637326249774,-0.02352945757203875,0.09720203344245934,44.11764879391193,-92.24360919585227,76.200527287817
2024-09-23 19:33:24.019710,42.08,46.250627,0.0013928637326249774,-0.02313149783467906,0.0970030596496862,40.106058693909645,-100.26678939585686,76.200527287817
2024-09-23 19:33:24.031194,42.08,46.250678,0.0013928637326249774,-0.02313149783467906,0.0970030596496862,40.106058693909645,-100.26678939585686,76.200527287817
2024-09-23 19:33:24.062789,42.08,46.250678,0.0006964318663124887,-0.02367869399252531,0.0970030596496862,40.106058693909645,-100.26678939585686,76.200527287817
2024-09-23 19:33:24.074830,42.08,46.250678,0.0006964318663124887,-0.02367869399252531,0.0970030596496862,44.11764879391193,-88.23529758782387,76.200527287817
2024-09-23 19:33:24.118101,42.08,46.250729,0.0004974468710863627,-0.023181236725942318,0.0976994861521123,36.09446859390736,-92.24360919585227,76.200527287817
2024-09-23 19:33:24.161219,42.08,46.250822,0.00044769805900669,-0.023181236725942318,0.0976994861521123,36.09446859390736,-92.24360919585227,80.21211738781929
2024-09-23 19:33:24.172311,42.08,46.250822,0.00044769805900669,-0.023181236725942318,0.09745075675933246,32.08287849390507,-92.24360919585227,80.21211738781929
2024-09-23 19:33:24.214936,42.08,46.250873,0.0010943914612681128,-0.023579196463302005,0.09745075675933246,32.08287849390507,-92.24360919585227,76.200527287817
2024-09-23 19:33:24.256918,42.08,46.250873,0.0010943914612681128,-0.023579196463302005,0.09745075675933246,36.09446859390736,-96.25519929585457,76.200527287817
2024-09-23 19:33:24.268700,42.08,46.250924,0.0005969341946851222,-0.02308174982955575,0.09745075675933246,36.09446859390736,-96.25519929585457,80.21211738781929
2024-09-23 19:33:24.311565,42.08,46.250975,0.0005969341946851222,-0.02308174982955575,0.09799795899308542,36.09446859390736,-92.24360919585227,84.22370748782159
2024-09-23 19:33:24.323180,42.08,46.250975,0.0006964318663124887,-0.02308174982955575,0.09799795899308542,36.09446859390736,-92.24360919585227,84.22370748782159
2024-09-23 19:33:24.355273,43.01,46.250975,0.0006964318663124887,-0.023181236725942318,0.09675432418099966,36.09446859390736,-92.24360919585227,84.22370748782159
2024-09-23 19:33:24.366561,43.01,46.251066,0.0006964318663124887,-0.023181236725942318,0.09675432418099966,36.09446859390736,-100.26678939585686,76.200527287817
2024-09-23 19:33:24.409806,43.01,46.251066,0.000845657606494293,-0.02313149783467906,0.09705279702197278,44.11764879391193,-96.25519929585457,80.21211738781929
2024-09-23 19:33:24.452931,43.01,46.251117,0.0009451553255896806,-0.02313149783467906,0.09705279702197278,44.11764879391193,-96.25519929585457,80.21211738781929
2024-09-23 19:33:24.463807,43.01,46.251117,0.0009451553255896806,-0.02338022115155219,0.09720203344245934,40.106058693909645,-96.25519929585457,80.21211738781929
2024-09-23 19:33:24.505688,43.01,46.251168,0.0007959191899112484,-0.02338022115155219,0.09715228999426605,40.106058693909645,-96.25519929585457,76.200527287817
2024-09-23 19:33:24.517824,43.01,46.251168,0.0007959191899112484,-0.02338022115155219,0.09715228999426605,44.11764879391193,-96.25519929585457,76.200527287817
2024-09-23 19:33:24.551791,43.01,46.251219,0.0007959191899112484,-0.02338022115155219,0.09715228999426605,44.11764879391193,-96.25519929585457,76.200527287817
2024-09-23 19:33:24.563398,43.01,46.251219,0.001044642601720419,-0.02303200030545576,0.09789846602079214,44.11764879391193,-96.25519929585457,76.200527287817
2024-09-23 19:33:24.606844,43.01,46.251269,0.0009948937421727254,-0.023778180888911878,0.09789846602079214,36.09446859390736,-92.24360919585227,76.200527287817
2024-09-23 19:33:24.649875,43.01,46.251269,0.0009948937421727254,-0.023778180888911878,0.09720203344245934,36.09446859390736,-96.25519929585457,76.200527287817
2024-09-23 19:33:24.661038,43.01,46.25132,0.0006964318663124887,-0.023778180888911878,0.09720203344245934,36.09446859390736,-96.25519929585457,80.21211738781929
2024-09-23 19:33:24.703643,43.01,46.251407,0.0006964318663124887,-0.023280723622328886,0.09695331012558621,36.09446859390736,-96.25519929585457,80.21211738781929
2024-09-23 19:33:24.747035,43.01,46.251407,0.000845657606494293,-0.02338022115155219,0.09720203344245934,36.09446859390736,-96.25519929585457,80.21211738781929
2024-09-23 19:33:24.758454,43.01,46.251407,0.000845657606494293,-0.02338022115155219,0.09720203344245934,52.137550501942634,-92.24360919585227,76.200527287817
2024-09-23 19:33:24.801317,43.01,46.251459,0.0004974468710863627,-0.02303200030545576,0.09740101331113918,48.12595698684454,-92.24360919585227,76.200527287817
2024-09-23 19:33:24.844503,43.01,46.251509,0.0005969341946851222,-0.02303200030545576,0.09740101331113918,48.12595698684454,-92.24360919585227,80.21211738781929
2024-09-23 19:33:24.856316,43.01,46.251509,0.0005969341946851222,-0.02362894446842532,0.0973015264147526,52.137550501942634,-92.24360919585227,80.21211738781929
2024-09-23 19:33:24.939687,43.01,46.251509,0.0005969341946851222,-0.02362894446842532,0.0973015264147526,52.137550501942634,-92.24360919585227,76.200527287817
2024-09-23 19:33:24.992291,43.01,46.25156,0.0006466830067647949,-0.023280723622328886,0.0966050877605131,52.137550501942634,-92.24360919585227,76.200527287817
2024-09-23 19:33:25.004618,43.01,46.25156,0.0006466830067647949,-0.023280723622328886,0.0966050877605131,48.12595698684454,-92.24360919585227,76.200527287817
2024-09-23 19:33:25.036873,43.01,46.25156,0.0006466830067647949,-0.023280723622328886,0.0966050877605131,48.12595698684454,-96.25519929585457,76.200527287817
2024-09-23 19:33:25.048325,43.01,46.25161,0.00034821073540793035,-0.023827930413011865,0.09755024973162574,48.12595698684454,-96.25519929585457,76.200527287817
2024-09-23 19:33:25.091873,43.01,46.251661,0.0006964318663124887,-0.023827930413011865,0.09755024973162574,40.106058693909645,-96.25519929585457,80.21211738781929
2024-09-23 19:33:25.103537,43.01,46.251661,0.0006964318663124887,-0.02352945757203875,0.09755024973162574,40.106058693909645,-96.25519929585457,80.21211738781929
2024-09-23 19:33:25.137126,43.01,46.251661,0.0006964318663124887,-0.02352945757203875,0.09759999317981902,44.11764879391193,-96.25519929585457,80.21211738781929
2024-09-23 19:33:25.148293,43.01,46.251748,0.0005471957306340564,-0.02352945757203875,0.09759999317981902,44.11764879391193,-96.25519929585457,76.200527287817
2024-09-23 19:33:25.190717,43.01,46.251847,0.0005471957306340564,-0.02412639262114825,0.09705279702197278,40.106058693909645,-92.24360919585227,76.200527287817
2024-09-23 19:33:25.233847,43.01,46.251847,0.0009948937421727254,-0.02338022115155219,0.0973512698629459,40.106058693909645,-92.24360919585227,76.200527287817
2024-09-23 19:33:25.246141,43.01,46.251847,0.0009948937421727254,-0.02338022115155219,0.0973512698629459,44.11764879391193,-96.25519929585457,72.1922225099802
2024-09-23 19:33:25.289580,43.01,46.251944,0.0009451553255896806,-0.02303200030545576,0.09740101331113918,48.12595698684454,-92.24360919585227,72.1922225099802
2024-09-23 19:33:25.333623,43.01,46.251995,0.0009451553255896806,-0.02303200030545576,0.09740101331113918,48.12595698684454,-92.24360919585227,84.22370748782159
2024-09-23 19:33:25.344755,43.01,46.251995,0.0009451553255896806,-0.023429960042815445,0.0973015264147526,40.106058693909645,-92.24360919585227,84.22370748782159
2024-09-23 19:33:25.388086,42.54,46.252046,0.0006964318663124887,-0.023181236725942318,0.09725178296655933,40.106058693909645,-96.25519929585457,80.21211738781929
2024-09-23 19:33:25.431469,42.54,46.252096,0.0006964318663124887,-0.023181236725942318,0.09725178296655933,48.12595698684454,-92.24360919585227,80.21211738781929
2024-09-23 19:33:25.443157,42.54,46.252096,0.0003979595949556242,-0.02338022115155219,0.09725178296655933,48.12595698684454,-92.24360919585227,80.21211738781929
2024-09-23 19:33:25.476287,42.54,46.252096,0.0003979595949556242,-0.02338022115155219,0.09720203344245934,52.137550501942634,-92.24360919585227,80.21211738781929
2024-09-23 19:33:25.487979,42.54,46.252096,0.0003979595949556242,-0.02338022115155219,0.09720203344245934,52.137550501942634,-100.26678939585686,76.200527287817
2024-09-23 19:33:25.530233,42.54,46.252147,0.000845657606494293,-0.023429960042815445,0.09720203344245934,32.08287849390507,-100.26678939585686,76.200527287817
2024-09-23 19:33:25.542333,42.54,46.252147,0.000845657606494293,-0.023429960042815445,0.09720203344245934,32.08287849390507,-92.24360919585227,76.200527287817
2024-09-23 19:33:25.574661,42.54,46.252236,0.000845657606494293,-0.023429960042815445,0.09720203344245934,32.08287849390507,-92.24360919585227,80.21211738781929
2024-09-23 19:33:25.585963,42.54,46.252236,0.0007461703303635545,-0.024176140626271565,0.09774922960030558,28.07457030097246,-92.24360919585227,80.21211738781929
2024-09-23 19:33:25.629669,42.54,46.252288,0.00034821073540793035,-0.023877669304275123,0.09710254654607277,28.07457030097246,-96.25519929585457,76.200527287817
2024-09-23 19:33:25.673057,42.54,46.252288,0.00034821073540793035,-0.023877669304275123,0.09710254654607277,40.106058693909645,-104.27510100388527,76.200527287817
2024-09-23 19:33:25.684540,42.54,46.252338,0.000845657606494293,-0.023330473146428877,0.09710254654607277,40.106058693909645,-104.27510100388527,76.200527287817
2024-09-23 19:33:25.726960,42.54,46.252389,0.0008954064660419869,-0.023330473146428877,0.09745075675933246,36.09446859390736,-96.25519929585457,80.21211738781929
2024-09-23 19:33:25.769852,42.54,46.252389,0.0008954064660419869,-0.02352945757203875,0.09720203344245934,40.106058693909645,-96.25519929585457,80.21211738781929
2024-09-23 19:33:25.780941,42.54,46.252479,0.0008954064660419869,-0.02352945757203875,0.09720203344245934,40.106058693909645,-96.25519929585457,80.21211738781929
2024-09-23 19:33:25.823634,42.54,46.252479,0.000845657606494293,-0.023181236725942318,0.09740101331113918,40.106058693909645,-104.27510100388527,76.200527287817
2024-09-23 19:33:25.866778,42.54,46.252531,0.0005471957306340564,-0.023181236725942318,0.09740101331113918,40.106058693909645,-104.27510100388527,76.200527287817
2024-09-23 19:33:25.878753,42.54,46.252531,0.0005471957306340564,-0.02308174982955575,0.09759999317981902,32.08287849390507,-96.25519929585457,76.200527287817
2024-09-23 19:33:25.921813,42.54,46.252582,0.0006466830067647949,-0.023579196463302005,0.09750050628343246,40.106058693909645,-96.25519929585457,80.21211738781929
2024-09-23 19:33:25.964157,42.54,46.252582,0.0006466830067647949,-0.023579196463302005,0.09750050628343246,40.106058693909645,-96.25519929585457,80.21211738781929
2024-09-23 19:33:25.975450,42.54,46.252632,0.0006466830067647949,-0.023280723622328886,0.09710254654607277,40.106058693909645,-96.25519929585457,80.21211738781929
2024-09-23 19:33:26.018481,42.54,46.252683,0.0006466830067647949,-0.023330473146428877,0.09710254654607277,40.106058693909645,-96.25519929585457,76.200527287817
2024-09-23 19:33:26.111812,42.54,46.252683,0.0006466830067647949,-0.023330473146428877,0.09740101331113918,40.106058693909645,-112.29828120388984,76.200527287817
2024-09-23 19:33:26.124016,42.54,46.252734,0.0005969341946851222,-0.023330473146428877,0.09740101331113918,40.106058693909645,-112.29828120388984,72.1922225099802
2024-09-23 19:33:26.167138,42.54,46.252821,0.0005969341946851222,-0.02338022115155219,0.09715228999426605,44.11764879391193,-92.24360919585227,76.200527287817
2024-09-23 19:33:26.209179,42.54,46.252821,0.0011938787373988514,-0.023479709566915436,0.09715228999426605,44.11764879391193,-92.24360919585227,76.200527287817
2024-09-23 19:33:26.263183,42.54,46.252872,0.0012436275969465451,-0.023479709566915436,0.09750050628343246,40.106058693909645,-92.24360919585227,76.200527287817
2024-09-23 19:33:26.306675,42.54,46.252872,0.0012436275969465451,-0.02338022115155219,0.09715228999426605,40.106058693909645,-92.24360919585227,76.200527287817
2024-09-23 19:33:26.318157,42.54,46.252923,0.0012436275969465451,-0.02338022115155219,0.09715228999426605,40.106058693909645,-92.24360919585227,76.200527287817
2024-09-23 19:33:26.360816,42.54,46.252923,0.0008954064660419869,-0.02303200030545576,0.09759999317981902,40.106058693909645,-92.24360919585227,76.200527287817
2024-09-23 19:33:26.403456,41.53,46.253017,0.0007959191899112484,-0.02313149783467906,0.09759999317981902,40.106058693909645,-92.24360919585227,76.200527287817
2024-09-23 19:33:26.415613,41.53,46.253017,0.0007959191899112484,-0.02313149783467906,0.09799795899308542,40.106058693909645,-92.24360919585227,76.200527287817
2024-09-23 19:33:26.459471,41.53,46.253068,0.0011441298778511575,-0.02352945757203875,0.09740101331113918,36.09446859390736,-92.24360919585227,72.1922225099802
2024-09-23 19:33:26.501101,41.53,46.253164,0.0011441298778511575,-0.02352945757203875,0.09740101331113918,36.09446859390736,-92.24360919585227,72.1922225099802
2024-09-23 19:33:26.513109,41.53,46.253164,0.001044642601720419,-0.02362894446842532,0.09759999317981902,36.09446859390736,-92.24360919585227,72.1922225099802
2024-09-23 19:33:26.555879,41.53,46.253214,0.0006466830067647949,-0.023728432883788564,0.09759999317981902,40.106058693909645,-92.24360919585227,72.1922225099802
2024-09-23 19:33:26.597869,41.53,46.253214,0.0006466830067647949,-0.023728432883788564,0.09705279702197278,44.11764879391193,-92.24360919585227,72.1922225099802
2024-09-23 19:33:26.609685,41.53,46.253265,0.0006466830067647949,-0.023728432883788564,0.09705279702197278,44.11764879391193,-92.24360919585227,80.21211738781929
2024-09-23 19:33:26.692862,41.53,46.253265,0.0006466830067647949,-0.023181236725942318,0.09705279702197278,44.11764879391193,-92.24360919585227,80.21211738781929
2024-09-23 19:33:26.747319,41.53,46.253265,0.0006466830067647949,-0.023181236725942318,0.09740101331113918,56.14914060194492,-96.25519929585457,76.200527287817
2024-09-23 19:33:26.758412,41.53,46.253357,0.0008954064660419869,-0.023181236725942318,0.09740101331113918,56.14914060194492,-96.25519929585457,76.200527287817
2024-09-23 19:33:26.790533,41.53,46.253357,0.0008954064660419869,-0.023230986250042305,0.09740101331113918,56.14914060194492,-96.25519929585457,76.200527287817
2024-09-23 19:33:26.802371,41.53,46.253357,0.0008954064660419869,-0.023230986250042305,0.0973512698629459,44.11764879391193,-96.25519929585457,76.200527287817
2024-09-23 19:33:26.844916,41.53,46.253409,0.0009451553255896806,-0.023230986250042305,0.0973512698629459,44.11764879391193,-96.25519929585457,76.200527287817
2024-09-23 19:33:26.856028,41.53,46.253409,0.0009451553255896806,-0.023230986250042305,0.09750050628343246,44.11764879391193,-96.25519929585457,76.200527287817
2024-09-23 19:33:26.888002,41.53,46.253409,0.0009451553255896806,-0.023230986250042305,0.09750050628343246,36.09446859390736,-96.25519929585457,76.200527287817
2024-09-23 19:33:26.899667,41.53,46.253459,0.0007959191899112484,-0.02338022115155219,0.09750050628343246,36.09446859390736,-104.27510100388527,76.200527287817
2024-09-23 19:33:26.942220,41.53,46.253459,0.0007959191899112484,-0.02338022115155219,0.09774922960030558,36.09446859390736,-92.24360919585227,80.21211738781929
2024-09-23 19:33:26.953669,41.53,46.25351,0.0009451553255896806,-0.02338022115155219,0.09774922960030558,36.09446859390736,-92.24360919585227,80.21211738781929
2024-09-23 19:33:26.985708,41.53,46.25351,0.0009451553255896806,-0.02313149783467906,0.09774922960030558,36.09446859390736,-92.24360919585227,80.21211738781929
2024-09-23 19:33:26.997209,41.53,46.253651,0.0009451553255896806,-0.02313149783467906,0.09764974270391902,40.106058693909645,-96.25519929585457,84.22370748782159
2024-09-23 19:33:27.039386,41.53,46.253651,0.0007959191899112484,-0.023330473146428877,0.0973015264147526,44.11764879391193,-96.25519929585457,84.22370748782159
2024-09-23 19:33:27.050365,41.53,46.253651,0.0007959191899112484,-0.023330473146428877,0.0973015264147526,44.11764879391193,-96.25519929585457,76.200527287817
2024-09-23 19:33:27.093697,41.53,46.253748,0.0007461703303635545,-0.02308174982955575,0.09720203344245934,36.09446859390736,-96.25519929585457,76.200527287817
2024-09-23 19:33:27.137245,41.53,46.253799,4.973845218406054e-05,-0.02338022115155219,0.09720203344245934,36.09446859390736,-96.25519929585457,80.21211738781929
2024-09-23 19:33:27.149799,41.53,46.253799,4.973845218406054e-05,-0.02338022115155219,0.09715228999426605,48.12595698684454,-96.25519929585457,80.21211738781929
2024-09-23 19:33:27.182908,41.53,46.253799,4.973845218406054e-05,-0.02338022115155219,0.09715228999426605,48.12595698684454,-96.25519929585457,76.200527287817
2024-09-23 19:33:27.194715,41.53,46.25385,0.0005471957306340564,-0.023429960042815445,0.09725178296655933,48.12595698684454,-96.25519929585457,76.200527287817
2024-09-23 19:33:27.237821,41.53,46.2539,0.0015420998683034098,-0.023429960042815445,0.09725178296655933,48.12595698684454,-100.26678939585686,72.1922225099802
2024-09-23 19:33:27.280322,41.53,46.2539,0.0015420998683034098,-0.02278327698858263,0.09705279702197278,48.12595698684454,-100.26678939585686,72.1922225099802
2024-09-23 19:33:27.291343,41.53,46.253951,0.0015420998683034098,-0.02278327698858263,0.09705279702197278,48.12595698684454,-96.25519929585457,76.200527287817
2024-09-23 19:33:27.333692,41.53,46.253951,0.0009451553255896806,-0.023181236725942318,0.09665483728461309,40.106058693909645,-88.23529758782387,76.200527287817
2024-09-23 19:33:27.345277,41.53,46.253951,0.0009451553255896806,-0.023181236725942318,0.09665483728461309,40.106058693909645,-88.23529758782387,76.200527287817
2024-09-23 19:33:27.376966,41.53,46.25404,0.0006466830067647949,-0.023181236725942318,0.09665483728461309,40.106058693909645,-88.23529758782387,76.200527287817
2024-09-23 19:33:27.430123,41.44,46.25404,0.0006466830067647949,-0.02352945757203875,0.09710254654607277,44.11764879391193,-92.24360919585227,76.200527287817
2024-09-23 19:33:27.442355,41.44,46.254091,0.0006466830067647949,-0.02352945757203875,0.09710254654607277,44.11764879391193,-92.24360919585227,76.200527287817
2024-09-23 19:33:27.475397,41.44,46.254091,0.0008954064660419869,-0.023927417309398437,0.09710254654607277,44.11764879391193,-92.24360919585227,76.200527287817
2024-09-23 19:33:27.486432,41.44,46.254091,0.0008954064660419869,-0.023927417309398437,0.0973015264147526,40.106058693909645,-92.24360919585227,80.21211738781929
2024-09-23 19:33:27.528179,41.44,46.254142,0.0011938787373988514,-0.023429960042815445,0.09690356060148622,40.106058693909645,-92.24360919585227,80.21211738781929
2024-09-23 19:33:27.539625,41.44,46.254142,0.0011938787373988514,-0.023429960042815445,0.09690356060148622,44.11764879391193,-100.26678939585686,80.21211738781929
2024-09-23 19:33:27.571670,41.44,46.254142,0.0011938787373988514,-0.023429960042815445,0.09690356060148622,44.11764879391193,-100.26678939585686,80.21211738781929
2024-09-23 19:33:27.582570,41.44,46.254192,0.0007461703303635545,-0.02362894446842532,0.09715228999426605,44.11764879391193,-100.26678939585686,80.21211738781929
2024-09-23 19:33:27.625024,41.44,46.254243,0.000845657606494293,-0.02362894446842532,0.09715228999426605,44.11764879391193,-96.25519929585457,72.1922225099802
2024-09-23 19:33:27.636723,41.44,46.254243,0.000845657606494293,-0.022982261414192504,0.09720203344245934,44.11764879391193,-96.25519929585457,72.1922225099802
2024-09-23 19:33:27.669017,41.44,46.254243,0.000845657606494293,-0.022982261414192504,0.09720203344245934,36.09446859390736,-96.25519929585457,72.1922225099802
2024-09-23 19:33:27.680927,41.44,46.254334,0.0006964318663124887,-0.023429960042815445,0.09720203344245934,36.09446859390736,-96.25519929585457,68.18063240997792
2024-09-23 19:33:27.723988,41.44,46.254385,0.0006964318663124887,-0.023429960042815445,0.09705279702197278,32.08287849390507,-92.24360919585227,88.23529758782387
2024-09-23 19:33:27.736072,41.44,46.254385,0.00014922575204880957,-0.023429960042815445,0.09705279702197278,32.08287849390507,-92.24360919585227,88.23529758782387
2024-09-23 19:33:27.767862,41.44,46.254385,0.00014922575204880957,-0.02313149783467906,0.0973512698629459,32.08287849390507,-92.24360919585227,88.23529758782387
2024-09-23 19:33:27.779763,41.44,46.254478,0.00014922575204880957,-0.02313149783467906,0.0973512698629459,52.137550501942634,-92.24360919585227,80.21211738781929
2024-09-23 19:33:27.864632,41.44,46.254478,0.0005471957306340564,-0.023728432883788564,0.0973512698629459,52.137550501942634,-92.24360919585227,80.21211738781929
2024-09-23 19:33:27.876551,41.44,46.254478,0.0005471957306340564,-0.023728432883788564,0.0970030596496862,40.106058693909645,-100.26678939585686,80.21211738781929
2024-09-23 19:33:27.919087,41.44,46.25453,0.0006964318663124887,-0.02397715620066169,0.0973512698629459,40.106058693909645,-100.26678939585686,76.200527287817
2024-09-23 19:33:27.931260,41.44,46.25453,0.0006964318663124887,-0.02397715620066169,0.0973512698629459,44.11764879391193,-100.26678939585686,76.200527287817
2024-09-23 19:33:27.963605,41.44,46.25453,0.0006964318663124887,-0.02397715620066169,0.0973512698629459,44.11764879391193,-96.25519929585457,80.21211738781929
2024-09-23 19:33:27.975481,41.44,46.25458,0.001044642601720419,-0.023330473146428877,0.09774922960030558,44.11764879391193,-96.25519929585457,80.21211738781929
2024-09-23 19:33:28.018320,41.44,46.254631,0.0007959191899112484,-0.02303200030545576,0.09774922960030558,44.11764879391193,-88.23529758782387,76.200527287817
2024-09-23 19:33:28.060316,41.44,46.254631,0.0007959191899112484,-0.02303200030545576,0.0970030596496862,40.106058693909645,-88.23529758782387,76.200527287817
2024-09-23 19:33:28.071992,41.44,46.254682,0.0004974468710863627,-0.02303200030545576,0.0970030596496862,40.106058693909645,-96.25519929585457,76.200527287817
2024-09-23 19:33:28.114853,41.44,46.254774,0.0004974468710863627,-0.02293251340906919,0.09745075675933246,36.09446859390736,-96.25519929585457,76.200527287817
2024-09-23 19:33:28.157253,41.44,46.254774,0.0005471957306340564,-0.023429960042815445,0.09745075675933246,36.09446859390736,-96.25519929585457,76.200527287817
2024-09-23 19:33:28.168933,41.44,46.254774,0.0005471957306340564,-0.023429960042815445,0.09710254654607277,36.09446859390736,-96.25519929585457,80.21211738781929
2024-09-23 19:33:28.212120,41.44,46.254869,0.0012933660135295898,-0.024026904205785005,0.09774922960030558,44.11764879391193,-104.27510100388527,80.21211738781929
2024-09-23 19:33:28.254551,41.44,46.25492,0.0012933660135295898,-0.024026904205785005,0.09774922960030558,44.11764879391193,-104.27510100388527,76.200527287817
2024-09-23 19:33:28.265988,41.44,46.25492,0.0014923510087557158,-0.02308174982955575,0.09695331012558621,32.08287849390507,-104.27510100388527,76.200527287817
2024-09-23 19:33:28.308983,41.44,46.254971,0.0006466830067647949,-0.023778180888911878,0.09695331012558621,32.08287849390507,-92.24360919585227,80.21211738781929
2024-09-23 19:33:28.321163,41.44,46.254971,0.0006466830067647949,-0.023778180888911878,0.09715228999426605,32.08287849390507,-92.24360919585227,80.21211738781929
2024-09-23 19:33:28.354837,41.44,46.254971,0.0006466830067647949,-0.023778180888911878,0.09715228999426605,40.106058693909645,-96.25519929585457,76.200527287817
2024-09-23 19:33:28.365883,41.44,46.255022,0.0003979595949556242,-0.02303200030545576,0.09715228999426605,40.106058693909645,-96.25519929585457,76.200527287817
2024-09-23 19:33:28.408638,41.44,46.255072,0.0009451553255896806,-0.02303200030545576,0.09705279702197278,32.08287849390507,-92.24360919585227,76.200527287817
2024-09-23 19:33:28.451171,41.64,46.255072,0.0009451553255896806,-0.02338022115155219,0.0970030596496862,48.12595698684454,-92.24360919585227,76.200527287817
2024-09-23 19:33:28.463232,41.64,46.255161,0.0009451553255896806,-0.02338022115155219,0.0970030596496862,48.12595698684454,-100.26678939585686,72.1922225099802
2024-09-23 19:33:28.506525,41.64,46.255161,0.0006466830067647949,-0.02303200030545576,0.09685382322919964,40.106058693909645,-100.26678939585686,72.1922225099802
2024-09-23 19:33:28.549052,41.64,46.255212,0.0006466830067647949,-0.02303200030545576,0.09685382322919964,40.106058693909645,-96.25519929585457,72.1922225099802
2024-09-23 19:33:28.560722,41.64,46.255212,0.0006964318663124887,-0.023330473146428877,0.09764974270391902,40.106058693909645,-96.25519929585457,72.1922225099802
2024-09-23 19:33:28.603508,41.64,46.255263,0.0005471957306340564,-0.02313149783467906,0.09764974270391902,40.106058693909645,-96.25519929585457,80.21211738781929
2024-09-23 19:33:28.696701,41.64,46.255263,0.0005471957306340564,-0.02313149783467906,0.09680407370509965,36.09446859390736,-100.26678939585686,76.200527287817
2024-09-23 19:33:28.708350,41.64,46.255314,0.00024872343554318134,-0.02313149783467906,0.09680407370509965,36.09446859390736,-100.26678939585686,76.200527287817
2024-09-23 19:33:28.740574,41.64,46.255314,0.00024872343554318134,-0.023728432883788564,0.09680407370509965,36.09446859390736,-100.26678939585686,76.200527287817
2024-09-23 19:33:28.751939,41.64,46.255364,0.00024872343554318134,-0.023728432883788564,0.0973015264147526,36.09446859390736,-100.26678939585686,76.200527287817
2024-09-23 19:33:28.794617,41.64,46.255364,0.000845657606494293,-0.022982261414192504,0.09695331012558621,40.106058693909645,-100.26678939585686,76.200527287817
2024-09-23 19:33:28.806568,41.64,46.255364,0.000845657606494293,-0.022982261414192504,0.09695331012558621,40.106058693909645,-92.24360919585227,76.200527287817
2024-09-23 19:33:28.840584,41.64,46.255454,0.0009948937421727254,-0.022982261414192504,0.09695331012558621,40.106058693909645,-92.24360919585227,76.200527287817
2024-09-23 19:33:28.852382,41.64,46.255454,0.0009948937421727254,-0.02313149783467906,0.09789846602079214,36.09446859390736,-92.24360919585227,76.200527287817
2024-09-23 19:33:28.894469,41.64,46.255454,0.0009948937421727254,-0.02313149783467906,0.09789846602079214,36.09446859390736,-92.24360919585227,76.200527287817
2024-09-23 19:33:28.936499,41.64,46.255505,0.0009948937421727254,-0.02313149783467906,0.09789846602079214,36.09446859390736,-92.24360919585227,76.200527287817
2024-09-23 19:33:28.989615,41.64,46.255505,0.0009948937421727254,-0.023230986250042305,0.09740101331113918,40.106058693909645,-92.24360919585227,76.200527287817
2024-09-23 19:33:29.001557,41.64,46.255505,0.0009948937421727254,-0.023230986250042305,0.09740101331113918,40.106058693909645,-104.27510100388527,76.200527287817
2024-09-23 19:33:29.033378,41.64,46.255601,0.0009948937421727254,-0.023230986250042305,0.09740101331113918,40.106058693909645,-104.27510100388527,76.200527287817
2024-09-23 19:33:29.045086,41.64,46.255601,0.0008954064660419869,-0.023280723622328886,0.09725178296655933,40.106058693909645,-96.25519929585457,76.200527287817
2024-09-23 19:33:29.088026,41.64,46.255652,0.0009948937421727254,-0.02303200030545576,0.09725178296655933,40.106058693909645,-96.25519929585457,76.200527287817
2024-09-23 19:33:29.099492,41.64,46.255652,0.0009948937421727254,-0.02303200030545576,0.09720203344245934,48.12595698684454,-96.25519929585457,76.200527287817
2024-09-23 19:33:29.183052,41.64,46.255652,0.0009948937421727254,-0.02303200030545576,0.09720203344245934,48.12595698684454,-96.25519929585457,76.200527287817
2024-09-23 19:33:29.277768,41.64,46.255703,0.0009948937421727254,-0.02303200030545576,0.09720203344245934,48.12595698684454,-96.25519929585457,76.200527287817
2024-09-23 19:33:29.289627,41.64,46.255703,0.000845657606494293,-0.023579196463302005,0.09645586349183995,36.09446859390736,-96.25519929585457,76.200527287817
2024-09-23 19:33:29.334179,41.64,46.255795,0.0006466830067647949,-0.022982261414192504,0.09715228999426605,36.09446859390736,-96.25519929585457,80.21211738781929
2024-09-23 19:33:29.346396,41.64,46.255795,0.0006466830067647949,-0.022982261414192504,0.09715228999426605,36.09446859390736,-96.25519929585457,80.21211738781929
2024-09-23 19:33:29.379263,41.64,46.255895,0.0011938787373988514,-0.022982261414192504,0.09715228999426605,36.09446859390736,-96.25519929585457,76.200527287817
2024-09-23 19:33:29.390557,41.64,46.255895,0.0011938787373988514,-0.022584292562972758,0.09759999317981902,36.09446859390736,-96.25519929585457,76.200527287817
2024-09-23 19:33:29.422882,41.64,46.255895,0.0011938787373988514,-0.022584292562972758,0.09759999317981902,40.106058693909645,-96.25519929585457,76.200527287817
2024-09-23 19:33:29.434397,41.64,46.255989,0.0001989745997294981,-0.023230986250042305,0.09759999317981902,40.106058693909645,-92.24360919585227,76.200527287817
2024-09-23 19:33:29.477230,41.35,46.255989,0.0001989745997294981,-0.023230986250042305,0.09715228999426605,36.09446859390736,-100.26678939585686,80.21211738781929
2024-09-23 19:33:29.488945,41.35,46.256088,0.0007461703303635545,-0.023230986250042305,0.09715228999426605,36.09446859390736,-100.26678939585686,80.21211738781929
2024-09-23 19:33:29.520442,41.35,46.256088,0.0007461703303635545,-0.02293251340906919,0.09715228999426605,36.09446859390736,-100.26678939585686,80.21211738781929
2024-09-23 19:33:29.532142,41.35,46.256088,0.0007461703303635545,-0.02293251340906919,0.09784872257259886,32.08287849390507,-96.25519929585457,72.1922225099802
2024-09-23 19:33:29.574696,41.35,46.256233,0.000845657606494293,-0.02367869399252531,0.09750050628343246,32.08287849390507,-96.25519929585457,72.1922225099802
2024-09-23 19:33:29.586281,41.35,46.256233,0.000845657606494293,-0.02367869399252531,0.09750050628343246,40.106058693909645,-96.25519929585457,72.1922225099802
2024-09-23 19:33:29.618202,41.35,46.256233,0.000845657606494293,-0.02367869399252531,0.09750050628343246,40.106058693909645,-96.25519929585457,80.21211738781929
2024-09-23 19:33:29.630455,41.35,46.256285,0.001044642601720419,-0.02338022115155219,0.09710254654607277,40.106058693909645,-96.25519929585457,80.21211738781929
2024-09-23 19:33:29.766172,41.35,46.256285,0.001044642601720419,-0.02338022115155219,0.09710254654607277,40.106058693909645,-92.24360919585227,80.21211738781929
2024-09-23 19:33:29.777786,41.35,46.256335,0.0007461703303635545,-0.023181236725942318,0.09740101331113918,40.106058693909645,-92.24360919585227,76.200527287817
2024-09-23 19:33:29.820339,41.35,46.256335,0.0007461703303635545,-0.023181236725942318,0.09740101331113918,36.09446859390736,-92.24360919585227,76.200527287817
2024-09-23 19:33:29.863155,41.35,46.256335,0.0007461703303635545,-0.023181236725942318,0.09740101331113918,36.09446859390736,-96.25519929585457,76.200527287817
2024-09-23 19:33:29.874570,41.35,46.256386,0.0013928637326249774,-0.022982261414192504,0.09784872257259886,36.09446859390736,-96.25519929585457,80.21211738781929
2024-09-23 19:33:29.918174,41.35,46.256437,0.0005969341946851222,-0.022982261414192504,0.09784872257259886,44.11764879391193,-96.25519929585457,76.200527287817
2024-09-23 19:33:29.929819,41.35,46.256437,0.0005969341946851222,-0.02352945757203875,0.09784872257259886,44.11764879391193,-96.25519929585457,76.200527287817
2024-09-23 19:33:29.961711,41.35,46.256437,0.0005969341946851222,-0.02352945757203875,0.09725178296655933,48.12595698684454,-96.25519929585457,76.200527287817
2024-09-23 19:33:29.973460,41.35,46.256526,0.0006466830067647949,-0.02352945757203875,0.09725178296655933,48.12595698684454,-96.25519929585457,76.200527287817
2024-09-23 19:33:30.015587,41.35,46.256526,0.0006466830067647949,-0.02303200030545576,0.09665483728461309,44.11764879391193,-96.25519929585457,76.200527287817
2024-09-23 19:33:30.058362,41.35,46.256526,0.0006466830067647949,-0.02303200030545576,0.09665483728461309,44.11764879391193,-88.23529758782387,76.200527287817
2024-09-23 19:33:30.070337,41.35,46.256673,0.0007461703303635545,-0.02367869399252531,0.0973015264147526,44.11764879391193,-88.23529758782387,76.200527287817
2024-09-23 19:33:30.113374,41.35,46.25677,0.0009451553255896806,-0.02367869399252531,0.0973015264147526,40.106058693909645,-96.25519929585457,76.200527287817
2024-09-23 19:33:30.125374,41.35,46.25677,0.0009451553255896806,-0.02313149783467906,0.0973015264147526,40.106058693909645,-96.25519929585457,76.200527287817
2024-09-23 19:33:30.157971,41.35,46.25677,0.0009451553255896806,-0.02313149783467906,0.09725178296655933,44.11764879391193,-88.23529758782387,76.200527287817
2024-09-23 19:33:30.169728,41.35,46.256822,0.0006466830067647949,-0.02313149783467906,0.09725178296655933,44.11764879391193,-88.23529758782387,76.200527287817
2024-09-23 19:33:30.211852,41.35,46.256872,0.0006466830067647949,-0.023280723622328886,0.09690356060148622,36.09446859390736,-96.25519929585457,76.200527287817
2024-09-23 19:33:30.254168,41.35,46.256872,0.00029846189959424716,-0.023230986250042305,0.09690356060148622,36.09446859390736,-96.25519929585457,76.200527287817
2024-09-23 19:33:30.265480,41.35,46.256872,0.00029846189959424716,-0.023230986250042305,0.09759999317981902,40.106058693909645,-96.25519929585457,68.18063240997792
2024-09-23 19:33:30.308381,41.35,46.256965,0.0008954064660419869,-0.023181236725942318,0.09779897304849887,40.106058693909645,-96.25519929585457,68.18063240997792
2024-09-23 19:33:30.350602,41.35,46.256965,0.0008954064660419869,-0.023181236725942318,0.09779897304849887,44.11764879391193,-92.24360919585227,68.18063240997792
2024-09-23 19:33:30.362454,41.35,46.257016,0.0011441298778511575,-0.02362894446842532,0.09779897304849887,44.11764879391193,-92.24360919585227,72.1922225099802
2024-09-23 19:33:30.448105,41.35,46.257016,0.0011441298778511575,-0.02362894446842532,0.09725178296655933,44.11764879391193,-92.24360919585227,72.1922225099802
2024-09-23 19:33:30.459276,41.35,46.257016,0.0011441298778511575,-0.02362894446842532,0.09725178296655933,40.106058693909645,-92.24360919585227,76.200527287817
2024-09-23 19:33:30.502451,41.12,46.257067,0.0012933660135295898,-0.023181236725942318,0.09740101331113918,40.106058693909645,-92.24360919585227,76.200527287817
2024-09-23 19:33:30.514683,41.12,46.257067,0.0012933660135295898,-0.023181236725942318,0.09740101331113918,40.106058693909645,-96.25519929585457,76.200527287817
2024-09-23 19:33:30.546919,41.12,46.257118,0.0012933660135295898,-0.023181236725942318,0.09740101331113918,40.106058693909645,-96.25519929585457,76.200527287817
2024-09-23 19:33:30.558643,41.12,46.257118,0.0007461703303635545,-0.02352945757203875,0.09685382322919964,36.09446859390736,-96.25519929585457,76.200527287817
2024-09-23 19:33:30.600744,41.12,46.257169,0.0008954064660419869,-0.02338022115155219,0.0973015264147526,36.09446859390736,-96.25519929585457,76.200527287817
2024-09-23 19:33:30.643713,41.12,46.257169,0.0008954064660419869,-0.02338022115155219,0.0973015264147526,36.09446859390736,-92.24360919585227,76.200527287817
2024-09-23 19:33:30.655626,41.12,46.257258,0.0005471957306340564,-0.02362894446842532,0.0973015264147526,36.09446859390736,-92.24360919585227,72.1922225099802
2024-09-23 19:33:30.698567,41.12,46.257356,0.00044769805900669,-0.02362894446842532,0.09705279702197278,40.106058693909645,-92.24360919585227,76.200527287817
2024-09-23 19:33:30.740966,41.12,46.257356,0.00044769805900669,-0.02352945757203875,0.09680407370509965,40.106058693909645,-92.24360919585227,76.200527287817
2024-09-23 19:33:30.752374,41.12,46.257452,0.00044769805900669,-0.02352945757203875,0.09680407370509965,48.12595698684454,-96.25519929585457,72.1922225099802
2024-09-23 19:33:30.795394,41.12,46.257452,0.0009451553255896806,-0.023778180888911878,0.09784872257259886,44.11764879391193,-96.25519929585457,72.1922225099802
2024-09-23 19:33:30.807187,41.12,46.257452,0.0009451553255896806,-0.023778180888911878,0.09784872257259886,44.11764879391193,-96.25519929585457,76.200527287817
2024-09-23 19:33:30.838903,41.12,46.257504,0.0009948937421727254,-0.023778180888911878,0.09784872257259886,44.11764879391193,-96.25519929585457,76.200527287817
2024-09-23 19:33:30.851234,41.12,46.257504,0.0009948937421727254,-0.02352945757203875,0.09695331012558621,44.11764879391193,-88.23529758782387,76.200527287817
2024-09-23 19:33:30.934260,41.12,46.257504,0.0009948937421727254,-0.02352945757203875,0.09695331012558621,44.11764879391193,-88.23529758782387,72.1922225099802
2024-09-23 19:33:30.946299,41.12,46.257555,0.0012436275969465451,-0.02352945757203875,0.09695331012558621,44.11764879391193,-88.23529758782387,72.1922225099802
2024-09-23 19:33:31.040682,41.12,46.257555,0.0012436275969465451,-0.023429960042815445,0.09750050628343246,40.106058693909645,-88.23529758782387,72.1922225099802
2024-09-23 19:33:31.084777,41.12,46.257605,0.0012436275969465451,-0.023429960042815445,0.09750050628343246,40.106058693909645,-92.24360919585227,72.1922225099802
2024-09-23 19:33:31.096105,41.12,46.257605,0.0008954064660419869,-0.023778180888911878,0.0973512698629459,40.106058693909645,-92.24360919585227,72.1922225099802
2024-09-23 19:33:31.138188,41.12,46.257656,0.0,-0.023330473146428877,0.0973512698629459,40.106058693909645,-96.25519929585457,76.200527287817
2024-09-23 19:33:31.180491,41.12,46.257656,0.0,-0.023330473146428877,0.0973512698629459,36.09446859390736,-96.25519929585457,76.200527287817
2024-09-23 19:33:31.192419,41.12,46.257707,0.0003979595949556242,-0.023330473146428877,0.0973512698629459,36.09446859390736,-92.24360919585227,80.21211738781929
2024-09-23 19:33:31.234875,41.12,46.257793,0.0003979595949556242,-0.023579196463302005,0.09755024973162574,40.106058693909645,-96.25519929585457,84.22370748782159
2024-09-23 19:33:31.278144,41.12,46.257793,0.0007959191899112484,-0.023877669304275123,0.09755024973162574,40.106058693909645,-96.25519929585457,84.22370748782159
2024-09-23 19:33:31.289638,41.12,46.257793,0.0007959191899112484,-0.023877669304275123,0.09740101331113918,32.08287849390507,-100.26678939585686,80.21211738781929
2024-09-23 19:33:31.332414,41.12,46.257989,0.0008954064660419869,-0.023330473146428877,0.09774922960030558,40.106058693909645,-100.26678939585686,80.21211738781929
2024-09-23 19:33:31.344233,41.12,46.257989,0.0008954064660419869,-0.023330473146428877,0.09774922960030558,40.106058693909645,-100.26678939585686,80.21211738781929
2024-09-23 19:33:31.376801,41.12,46.25804,0.0007461703303635545,-0.023330473146428877,0.09774922960030558,40.106058693909645,-100.26678939585686,80.21211738781929
2024-09-23 19:33:31.388310,41.12,46.25804,0.0007461703303635545,-0.023927417309398437,0.09685382322919964,40.106058693909645,-100.26678939585686,80.21211738781929
2024-09-23 19:33:31.431586,41.12,46.258091,0.0008954064660419869,-0.02362894446842532,0.098047696365372,40.106058693909645,-96.25519929585457,80.21211738781929
2024-09-23 19:33:31.473801,41.12,46.258091,0.0008954064660419869,-0.02362894446842532,0.098047696365372,40.106058693909645,-96.25519929585457,76.200527287817
2024-09-23 19:33:31.485639,41.12,46.258142,0.0012436275969465451,-0.023330473146428877,0.098047696365372,40.106058693909645,-96.25519929585457,76.200527287817
2024-09-23 19:33:31.528370,40.61,46.258142,0.0012436275969465451,-0.023330473146428877,0.09720203344245934,40.106058693909645,-96.25519929585457,72.1922225099802
2024-09-23 19:33:31.570132,40.61,46.258192,0.00044769805900669,-0.023330473146428877,0.09720203344245934,40.106058693909645,-96.25519929585457,72.1922225099802
2024-09-23 19:33:31.582545,40.61,46.258192,0.00044769805900669,-0.023429960042815445,0.09799795899308542,40.106058693909645,-92.24360919585227,72.1922225099802
2024-09-23 19:33:31.626799,40.61,46.258192,0.00044769805900669,-0.023429960042815445,0.09799795899308542,40.106058693909645,-92.24360919585227,80.21211738781929
2024-09-23 19:33:31.669914,40.61,46.258281,0.0007461703303635545,-0.02308174982955575,0.09799795899308542,40.106058693909645,-92.24360919585227,80.21211738781929
2024-09-23 19:33:31.681833,40.61,46.258281,0.0007461703303635545,-0.02308174982955575,0.09675432418099966,36.09446859390736,-96.25519929585457,80.21211738781929
2024-09-23 19:33:31.715257,40.61,46.258281,0.0007461703303635545,-0.02308174982955575,0.09675432418099966,36.09446859390736,-96.25519929585457,72.1922225099802
2024-09-23 19:33:31.727048,40.61,46.258332,0.0001989745997294981,-0.023479709566915436,0.09750050628343246,36.09446859390736,-96.25519929585457,72.1922225099802
2024-09-23 19:33:31.769348,40.61,46.258383,0.0001989745997294981,-0.023479709566915436,0.09750050628343246,36.09446859390736,-92.24360919585227,76.200527287817
2024-09-23 19:33:31.782190,40.61,46.258383,0.0006466830067647949,-0.02362894446842532,0.09750050628343246,36.09446859390736,-92.24360919585227,76.200527287817
2024-09-23 19:33:31.866281,40.61,46.258383,0.0006466830067647949,-0.02362894446842532,0.09715228999426605,32.08287849390507,-104.27510100388527,72.1922225099802
2024-09-23 19:33:31.878171,40.61,46.258434,0.001044642601720419,-0.02362894446842532,0.09715228999426605,32.08287849390507,-104.27510100388527,72.1922225099802
2024-09-23 19:33:31.910748,40.61,46.258434,0.001044642601720419,-0.022982261414192504,0.09715228999426605,32.08287849390507,-104.27510100388527,72.1922225099802
2024-09-23 19:33:31.926066,40.61,46.258525,0.001044642601720419,-0.022982261414192504,0.0973015264147526,32.08287849390507,-96.25519929585457,80.21211738781929
2024-09-23 19:33:31.958497,40.61,46.258525,0.00044769805900669,-0.022982261414192504,0.0973015264147526,32.08287849390507,-96.25519929585457,80.21211738781929
2024-09-23 19:33:31.970227,40.61,46.258525,0.00044769805900669,-0.02313149783467906,0.09685382322919964,36.09446859390736,-104.27510100388527,76.200527287817
2024-09-23 19:33:32.012410,40.61,46.258622,0.0009948937421727254,-0.02278327698858263,0.09720203344245934,36.09446859390736,-104.27510100388527,76.200527287817
2024-09-23 19:33:32.023946,40.61,46.258622,0.0009948937421727254,-0.02278327698858263,0.09720203344245934,48.12595698684454,-96.25519929585457,76.200527287817
2024-09-23 19:33:32.056970,40.61,46.258674,0.0009948937421727254,-0.02278327698858263,0.09720203344245934,48.12595698684454,-96.25519929585457,80.21211738781929
2024-09-23 19:33:32.068027,40.61,46.258674,0.0009451553255896806,-0.02293251340906919,0.09720203344245934,36.09446859390736,-96.25519929585457,80.21211738781929
2024-09-23 19:33:32.305884,40.61,46.25877,0.0009948937421727254,-0.02293251340906919,0.09720203344245934,36.09446859390736,-92.24360919585227,76.200527287817
2024-09-23 19:33:32.318308,40.61,46.25877,0.0009948937421727254,-0.0228827638849692,0.0973512698629459,36.09446859390736,-92.24360919585227,76.200527287817
2024-09-23 19:33:32.351829,40.61,46.25877,0.0009948937421727254,-0.0228827638849692,0.0973512698629459,32.08287849390507,-92.24360919585227,76.200527287817
2024-09-23 19:33:32.363288,40.61,46.258821,0.000845657606494293,-0.02313149783467906,0.0973512698629459,32.08287849390507,-92.24360919585227,76.200527287817
2024-09-23 19:33:32.405863,40.61,46.258871,0.0007461703303635545,-0.02313149783467906,0.09695331012558621,44.11764879391193,-96.25519929585457,76.200527287817
2024-09-23 19:33:32.448449,40.61,46.258871,0.0007461703303635545,-0.02263404056809607,0.09789846602079214,44.11764879391193,-96.25519929585457,76.200527287817
2024-09-23 19:33:32.460596,40.61,46.258963,0.0007461703303635545,-0.02263404056809607,0.09789846602079214,36.09446859390736,-100.26678939585686,80.21211738781929
2024-09-23 19:33:32.503289,40.61,46.258963,0.0008954064660419869,-0.023429960042815445,0.09690356060148622,44.11764879391193,-92.24360919585227,72.1922225099802
2024-09-23 19:33:32.546787,39.75,46.259208,0.00029846189959424716,-0.023778180888911878,0.09690356060148622,44.11764879391193,-92.24360919585227,72.1922225099802
2024-09-23 19:33:32.558512,39.75,46.259208,0.00029846189959424716,-0.023778180888911878,0.09715228999426605,40.106058693909645,-88.23529758782387,72.1922225099802
2024-09-23 19:33:32.602064,39.75,46.259259,-4.973845218406054e-05,-0.023230986250042305,0.09720203344245934,48.12595698684454,-88.23529758782387,72.1922225099802
2024-09-23 19:33:32.644329,39.75,46.25931,-4.973845218406054e-05,-0.023230986250042305,0.09720203344245934,48.12595698684454,-96.25519929585457,76.200527287817
2024-09-23 19:33:32.655647,39.75,46.25931,0.00014922575204880957,-0.023280723622328886,0.0970030596496862,48.12595698684454,-96.25519929585457,76.200527287817
2024-09-23 19:33:32.699032,39.75,46.25931,0.00014922575204880957,-0.023280723622328886,0.0970030596496862,36.09446859390736,-96.25519929585457,76.200527287817
2024-09-23 19:33:32.742896,39.75,46.25936,0.00014922575204880957,-0.023280723622328886,0.0970030596496862,36.09446859390736,-96.25519929585457,72.1922225099802
2024-09-23 19:33:32.754153,39.75,46.25936,0.0008954064660419869,-0.023230986250042305,0.09740101331113918,36.09446859390736,-96.25519929585457,72.1922225099802
2024-09-23 19:33:32.796924,39.75,46.259411,0.0003979595949556242,-0.023230986250042305,0.09740101331113918,36.09446859390736,-100.26678939585686,76.200527287817
2024-09-23 19:33:32.839933,39.75,46.259411,0.0003979595949556242,-0.023429960042815445,0.09695331012558621,36.09446859390736,-100.26678939585686,76.200527287817
2024-09-23 19:33:32.852233,39.75,46.2595,0.0003979595949556242,-0.023429960042815445,0.09695331012558621,36.09446859390736,-96.25519929585457,84.22370748782159
2024-09-23 19:33:32.885024,39.75,46.2595,0.0007959191899112484,-0.023429960042815445,0.09695331012558621,36.09446859390736,-96.25519929585457,84.22370748782159
2024-09-23 19:33:32.896480,39.75,46.2595,0.0007959191899112484,-0.023230986250042305,0.09710254654607277,36.09446859390736,-96.25519929585457,76.200527287817
2024-09-23 19:33:32.938504,39.75,46.259551,0.0005471957306340564,-0.02338022115155219,0.09720203344245934,36.09446859390736,-96.25519929585457,76.200527287817
2024-09-23 19:33:32.950199,39.75,46.259551,0.0005471957306340564,-0.02338022115155219,0.09720203344245934,36.09446859390736,-96.25519929585457,76.200527287817
2024-09-23 19:33:32.984030,39.75,46.259646,0.0005471957306340564,-0.02338022115155219,0.09720203344245934,36.09446859390736,-96.25519929585457,76.200527287817
2024-09-23 19:33:32.995007,39.75,46.259646,0.0007461703303635545,-0.02352945757203875,0.09695331012558621,40.106058693909645,-96.25519929585457,76.200527287817
2024-09-23 19:33:33.037295,39.75,46.259698,0.00034821073540793035,-0.023330473146428877,0.09695331012558621,40.106058693909645,-92.24360919585227,72.1922225099802
2024-09-23 19:33:33.049082,39.75,46.259698,0.00034821073540793035,-0.023330473146428877,0.09710254654607277,40.106058693909645,-92.24360919585227,72.1922225099802
2024-09-23 19:33:33.081737,39.75,46.259698,0.00034821073540793035,-0.023330473146428877,0.09710254654607277,44.11764879391193,-96.25519929585457,72.1922225099802
2024-09-23 19:33:33.093372,39.75,46.259748,0.001044642601720419,-0.023330473146428877,0.09710254654607277,44.11764879391193,-96.25519929585457,76.200527287817
2024-09-23 19:33:33.135880,39.75,46.259799,0.00034821073540793035,-0.023330473146428877,0.09740101331113918,36.09446859390736,-88.23529758782387,76.200527287817
2024-09-23 19:33:33.179880,39.75,46.259799,0.00034821073540793035,-0.02303200030545576,0.09774922960030558,36.09446859390736,-88.23529758782387,76.200527287817
2024-09-23 19:33:33.191145,39.75,46.25989,0.00034821073540793035,-0.02303200030545576,0.09774922960030558,36.09446859390736,-92.24360919585227,80.21211738781929
2024-09-23 19:33:33.235232,39.75,46.25989,0.0015918383798224967,-0.02303200030545576,0.09685382322919964,40.106058693909645,-92.24360919585227,72.1922225099802
2024-09-23 19:33:33.277837,39.75,46.259941,0.0015918383798224967,-0.02303200030545576,0.09685382322919964,40.106058693909645,-92.24360919585227,72.1922225099802
2024-09-23 19:33:33.382407,39.75,46.259941,0.0009451553255896806,-0.02338022115155219,0.09705279702197278,44.11764879391193,-92.24360919585227,72.1922225099802
2024-09-23 19:33:33.425036,39.75,46.259992,0.0009451553255896806,-0.02338022115155219,0.09705279702197278,44.11764879391193,-96.25519929585457,72.1922225099802
2024-09-23 19:33:33.436268,39.75,46.259992,0.0005471957306340564,-0.02397715620066169,0.09680407370509965,44.11764879391193,-96.25519929585457,72.1922225099802
2024-09-23 19:33:33.479336,39.75,46.260042,0.00044769805900669,-0.02308174982955575,0.09680407370509965,40.106058693909645,-96.25519929585457,80.21211738781929
2024-09-23 19:33:33.521361,39.75,46.260042,0.00044769805900669,-0.02308174982955575,0.09640611396773996,44.11764879391193,-96.25519929585457,80.21211738781929
2024-09-23 19:33:33.532738,39.75,46.260093,0.0011938787373988514,-0.02308174982955575,0.09640611396773996,44.11764879391193,-92.24360919585227,84.22370748782159
2024-09-23 19:33:33.575378,39.72,46.260093,0.0011938787373988514,-0.023778180888911878,0.09740101331113918,44.11764879391193,-92.24360919585227,84.22370748782159
2024-09-23 19:33:33.617339,39.72,46.260093,0.0011938787373988514,-0.023778180888911878,0.09740101331113918,44.11764879391193,-100.26678939585686,80.21211738781929
2024-09-23 19:33:33.629234,39.72,46.260144,0.0011938787373988514,-0.023778180888911878,0.09740101331113918,44.11764879391193,-100.26678939585686,80.21211738781929
2024-09-23 19:33:33.673137,39.72,46.260144,0.00044769805900669,-0.022733528983459317,0.09759999317981902,44.11764879391193,-100.26678939585686,72.1922225099802
2024-09-23 19:33:33.715599,39.72,46.260329,0.00024872343554318134,-0.022733528983459317,0.09759999317981902,44.11764879391193,-100.26678939585686,72.1922225099802
2024-09-23 19:33:33.726863,39.72,46.260329,0.00024872343554318134,-0.023429960042815445,0.0973512698629459,36.09446859390736,-92.24360919585227,72.1922225099802
2024-09-23 19:33:33.810640,39.72,46.260329,0.00024872343554318134,-0.023429960042815445,0.0973512698629459,36.09446859390736,-92.24360919585227,76.200527287817
2024-09-23 19:33:33.822432,39.72,46.26038,0.0007461703303635545,-0.023429960042815445,0.0973512698629459,36.09446859390736,-92.24360919585227,76.200527287817
2024-09-23 19:33:33.864639,39.72,46.26038,0.0007461703303635545,-0.02367869399252531,0.09725178296655933,40.106058693909645,-96.25519929585457,76.200527287817
2024-09-23 19:33:33.875631,39.72,46.260431,0.0007461703303635545,-0.02367869399252531,0.09725178296655933,40.106058693909645,-96.25519929585457,76.200527287817
2024-09-23 19:33:33.958743,39.72,46.260431,0.000845657606494293,-0.02367869399252531,0.09725178296655933,40.106058693909645,-96.25519929585457,76.200527287817
2024-09-23 19:33:34.012753,39.72,46.260431,0.000845657606494293,-0.02362894446842532,0.09740101331113918,40.106058693909645,-92.24360919585227,76.200527287817
2024-09-23 19:33:34.158461,39.72,46.260524,0.0007461703303635545,-0.02362894446842532,0.09740101331113918,40.106058693909645,-92.24360919585227,76.200527287817
2024-09-23 19:33:34.202581,39.72,46.260524,0.0007461703303635545,-0.02338022115155219,0.0973512698629459,40.106058693909645,-92.24360919585227,76.200527287817
2024-09-23 19:33:34.214515,39.72,46.260575,0.0007461703303635545,-0.02338022115155219,0.0973512698629459,40.106058693909645,-96.25519929585457,76.200527287817
2024-09-23 19:33:34.299286,39.72,46.260575,0.0005969341946851222,-0.02338022115155219,0.0973512698629459,40.106058693909645,-96.25519929585457,76.200527287817
2024-09-23 19:33:34.311225,39.72,46.260575,0.0005969341946851222,-0.02293251340906919,0.09670458680871308,44.11764879391193,-92.24360919585227,76.200527287817
2024-09-23 19:33:34.406529,39.72,46.26067,0.0007959191899112484,-0.023429960042815445,0.09755024973162574,44.11764879391193,-88.23529758782387,76.200527287817
2024-09-23 19:33:34.449926,39.72,46.260769,0.0007461703303635545,-0.02338022115155219,0.09755024973162574,44.11764879391193,-88.23529758782387,76.200527287817
2024-09-23 19:33:34.461685,39.72,46.260769,0.0007461703303635545,-0.02338022115155219,0.09779897304849887,36.09446859390736,-88.23529758782387,76.200527287817
2024-09-23 19:33:34.495094,39.72,46.260769,0.0007461703303635545,-0.02338022115155219,0.09779897304849887,36.09446859390736,-92.24360919585227,80.21211738781929
2024-09-23 19:33:34.506957,39.72,46.260915,0.0008954064660419869,-0.023927417309398437,0.09784872257259886,36.09446859390736,-92.24360919585227,80.21211738781929
2024-09-23 19:33:34.549568,39.72,46.26111,0.0008954064660419869,-0.023927417309398437,0.09784872257259886,40.106058693909645,-92.24360919585227,76.200527287817
2024-09-23 19:33:34.592648,38.08,46.26111,0.0003979595949556242,-0.023728432883788564,0.09784872257259886,40.106058693909645,-92.24360919585227,76.200527287817
2024-09-23 19:33:34.603820,38.08,46.26111,0.0003979595949556242,-0.023728432883788564,0.0973512698629459,40.106058693909645,-96.25519929585457,76.200527287817
2024-09-23 19:33:34.645596,38.08,46.261209,0.0007461703303635545,-0.02352945757203875,0.09720203344245934,44.11764879391193,-96.25519929585457,76.200527287817
2024-09-23 19:33:34.657667,38.08,46.261209,0.0007461703303635545,-0.02352945757203875,0.09720203344245934,44.11764879391193,-100.26678939585686,76.200527287817
2024-09-23 19:33:34.689295,38.08,46.261352,0.0007461703303635545,-0.02352945757203875,0.09720203344245934,44.11764879391193,-100.26678939585686,76.200527287817
2024-09-23 19:33:34.700954,38.08,46.261352,0.0011938787373988514,-0.023579196463302005,0.09720203344245934,36.09446859390736,-100.26678939585686,76.200527287817
2024-09-23 19:33:34.743659,38.08,46.261404,0.0006466830067647949,-0.02313149783467906,0.09720203344245934,36.09446859390736,-92.24360919585227,80.21211738781929
2024-09-23 19:33:34.755858,38.08,46.261404,0.0006466830067647949,-0.02313149783467906,0.0973512698629459,36.09446859390736,-92.24360919585227,80.21211738781929
2024-09-23 19:33:34.789329,38.08,46.261404,0.0006466830067647949,-0.02313149783467906,0.0973512698629459,44.11764879391193,-92.24360919585227,72.1922225099802
2024-09-23 19:33:34.800779,38.08,46.261454,0.0005969341946851222,-0.023579196463302005,0.0973512698629459,44.11764879391193,-92.24360919585227,72.1922225099802
2024-09-23 19:33:34.843368,38.08,46.261505,0.0011938787373988514,-0.023579196463302005,0.09755024973162574,44.11764879391193,-100.26678939585686,76.200527287817
2024-09-23 19:33:34.885976,38.08,46.261505,0.0011938787373988514,-0.023479709566915436,0.09725178296655933,44.11764879391193,-100.26678939585686,76.200527287817
2024-09-23 19:33:34.897444,38.08,46.261596,0.0011938787373988514,-0.023479709566915436,0.09725178296655933,44.11764879391193,-96.25519929585457,76.200527287817
2024-09-23 19:33:34.941035,38.08,46.261596,0.0008954064660419869,-0.023728432883788564,0.09720203344245934,36.09446859390736,-96.25519929585457,76.200527287817
2024-09-23 19:33:34.984449,38.08,46.261647,0.0004974468710863627,-0.023230986250042305,0.09720203344245934,36.09446859390736,-96.25519929585457,76.200527287817
2024-09-23 19:33:34.996003,38.08,46.261647,0.0004974468710863627,-0.023230986250042305,0.0970030596496862,32.08287849390507,-104.27510100388527,76.200527287817
2024-09-23 19:33:35.029018,38.08,46.261647,0.0004974468710863627,-0.023230986250042305,0.0970030596496862,32.08287849390507,-104.27510100388527,84.22370748782159
2024-09-23 19:33:35.040502,38.08,46.261698,0.0003979595949556242,-0.023429960042815445,0.09725178296655933,44.11764879391193,-104.27510100388527,84.22370748782159
2024-09-23 19:33:35.082541,38.08,46.261749,0.0011441298778511575,-0.023429960042815445,0.09725178296655933,44.11764879391193,-96.25519929585457,64.16903547978401
2024-09-23 19:33:35.094077,38.08,46.261749,0.0011441298778511575,-0.023479709566915436,0.09725178296655933,44.11764879391193,-96.25519929585457,64.16903547978401
2024-09-23 19:33:35.136855,38.08,46.261749,0.0011441298778511575,-0.023479709566915436,0.0973015264147526,44.11764879391193,-96.25519929585457,64.16903547978401
2024-09-23 19:33:35.232055,38.08,46.261749,0.0011441298778511575,-0.023479709566915436,0.0973015264147526,36.09446859390736,-96.25519929585457,64.16903547978401
2024-09-23 19:33:35.274926,38.08,46.261799,0.0011441298778511575,-0.023479709566915436,0.0973015264147526,36.09446859390736,-96.25519929585457,76.200527287817
2024-09-23 19:33:35.287995,38.08,46.261799,4.973845218406054e-05,-0.02362894446842532,0.09685382322919964,36.09446859390736,-96.25519929585457,76.200527287817
2024-09-23 19:33:35.333959,38.08,46.26185,0.0004974468710863627,-0.02263404056809607,0.0970030596496862,36.09446859390736,-96.25519929585457,84.22370748782159
2024-09-23 19:33:35.376152,38.08,46.261937,0.0004974468710863627,-0.02263404056809607,0.0970030596496862,44.11764879391193,-92.24360919585227,76.200527287817
2024-09-23 19:33:35.388000,38.08,46.261937,0.0001989745997294981,-0.023330473146428877,0.0970030596496862,44.11764879391193,-92.24360919585227,76.200527287817
2024-09-23 19:33:35.420582,38.08,46.261937,0.0001989745997294981,-0.023330473146428877,0.09710254654607277,44.11764879391193,-92.24360919585227,76.200527287817
2024-09-23 19:33:35.432598,38.08,46.261988,0.0007959191899112484,-0.023330473146428877,0.09710254654607277,36.09446859390736,-96.25519929585457,68.18063240997792
2024-09-23 19:33:35.474858,38.08,46.261988,0.0007959191899112484,-0.02313149783467906,0.09779897304849887,40.106058693909645,-96.25519929585457,76.200527287817
2024-09-23 19:33:35.486939,38.08,46.262133,0.0007959191899112484,-0.02313149783467906,0.09779897304849887,40.106058693909645,-96.25519929585457,76.200527287817
2024-09-23 19:33:35.519068,38.08,46.262133,0.0007461703303635545,-0.02313149783467906,0.09779897304849887,40.106058693909645,-96.25519929585457,76.200527287817
2024-09-23 19:33:35.530950,38.08,46.262133,0.0007461703303635545,-0.023479709566915436,0.09759999317981902,44.11764879391193,-96.25519929585457,76.200527287817
2024-09-23 19:33:35.574467,38.08,46.26223,0.0007959191899112484,-0.02313149783467906,0.09750050628343246,40.106058693909645,-100.26678939585686,76.200527287817
2024-09-23 19:33:35.618329,38.11,46.262281,0.0007959191899112484,-0.02313149783467906,0.09750050628343246,40.106058693909645,-100.26678939585686,80.21211738781929
2024-09-23 19:33:35.630289,38.11,46.262281,0.0007959191899112484,-0.02313149783467906,0.09764974270391902,40.106058693909645,-100.26678939585686,80.21211738781929
2024-09-23 19:33:35.663181,38.11,46.262281,0.0007959191899112484,-0.02313149783467906,0.09764974270391902,40.106058693909645,-96.25519929585457,80.21211738781929
2024-09-23 19:33:35.674451,38.11,46.262332,0.0012436275969465451,-0.023330473146428877,0.09715228999426605,40.106058693909645,-96.25519929585457,80.21211738781929
2024-09-23 19:33:35.717344,38.11,46.262383,0.0012436275969465451,-0.023330473146428877,0.09715228999426605,44.11764879391193,-96.25519929585457,76.200527287817
2024-09-23 19:33:35.729124,38.11,46.262383,0.001044642601720419,-0.023330473146428877,0.09715228999426605,44.11764879391193,-96.25519929585457,76.200527287817
2024-09-23 19:33:35.762125,38.11,46.262383,0.001044642601720419,-0.02293251340906919,0.09695331012558621,44.11764879391193,-96.25519929585457,76.200527287817
2024-09-23 19:33:35.773826,38.11,46.262433,0.001044642601720419,-0.02293251340906919,0.09695331012558621,48.12595698684454,-92.24360919585227,76.200527287817
2024-09-23 19:33:35.816238,38.11,46.262433,0.00044769805900669,-0.023330473146428877,0.09715228999426605,44.11764879391193,-92.24360919585227,76.200527287817
2024-09-23 19:33:35.827976,38.11,46.262433,0.00044769805900669,-0.023330473146428877,0.09715228999426605,44.11764879391193,-92.24360919585227,84.22370748782159
2024-09-23 19:33:35.860767,38.11,46.262522,0.0009948937421727254,-0.023330473146428877,0.09715228999426605,44.11764879391193,-92.24360919585227,84.22370748782159
2024-09-23 19:33:35.872514,38.11,46.262522,0.0009948937421727254,-0.023479709566915436,0.0970030596496862,48.12595698684454,-92.24360919585227,84.22370748782159
2024-09-23 19:33:35.915705,38.11,46.262574,0.0006964318663124887,-0.02338022115155219,0.09755024973162574,40.106058693909645,-92.24360919585227,84.22370748782159
2024-09-23 19:33:35.957709,38.11,46.262574,0.0006964318663124887,-0.02338022115155219,0.09755024973162574,40.106058693909645,-92.24360919585227,80.21211738781929
2024-09-23 19:33:35.969125,38.11,46.262624,0.0007959191899112484,-0.022982261414192504,0.09680407370509965,40.106058693909645,-92.24360919585227,80.21211738781929
2024-09-23 19:33:36.012297,38.11,46.262675,0.001044642601720419,-0.023330473146428877,0.09680407370509965,40.106058693909645,-100.26678939585686,72.1922225099802
2024-09-23 19:33:36.055562,38.11,46.262675,0.001044642601720419,-0.023330473146428877,0.09779897304849887,40.106058693909645,-100.26678939585686,72.1922225099802
2024-09-23 19:33:36.066837,38.11,46.262726,0.0004974468710863627,-0.023330473146428877,0.09779897304849887,40.106058693909645,-96.25519929585457,76.200527287817
2024-09-23 19:33:36.109153,38.11,46.262726,0.0004974468710863627,-0.023579196463302005,0.09695331012558621,36.09446859390736,-96.25519929585457,80.21211738781929
2024-09-23 19:33:36.121032,38.11,46.262815,0.0004974468710863627,-0.023579196463302005,0.09695331012558621,36.09446859390736,-96.25519929585457,80.21211738781929
2024-09-23 19:33:36.154050,38.11,46.262815,0.0010943914612681128,-0.023181236725942318,0.09725178296655933,36.09446859390736,-96.25519929585457,80.21211738781929
2024-09-23 19:33:36.165806,38.11,46.262815,0.0010943914612681128,-0.023181236725942318,0.09725178296655933,44.11764879391193,-96.25519929585457,76.200527287817
2024-09-23 19:33:36.208166,38.11,46.262866,0.0003979595949556242,-0.023330473146428877,0.09789846602079214,40.106058693909645,-88.23529758782387,76.200527287817
2024-09-23 19:33:36.250402,38.11,46.262917,0.0003979595949556242,-0.023330473146428877,0.09789846602079214,40.106058693909645,-88.23529758782387,72.1922225099802
2024-09-23 19:33:36.262333,38.11,46.262917,0.000845657606494293,-0.023429960042815445,0.09710254654607277,40.106058693909645,-88.23529758782387,72.1922225099802
2024-09-23 19:33:36.449836,38.11,46.262967,0.0009948937421727254,-0.023429960042815445,0.09710254654607277,40.106058693909645,-96.25519929585457,76.200527287817
2024-09-23 19:33:36.462032,38.11,46.262967,0.0009948937421727254,-0.023181236725942318,0.09705279702197278,40.106058693909645,-96.25519929585457,76.200527287817
2024-09-23 19:33:36.494683,38.11,46.262967,0.0009948937421727254,-0.023181236725942318,0.09705279702197278,44.11764879391193,-104.27510100388527,76.200527287817
2024-09-23 19:33:36.506547,38.11,46.263018,0.0005471957306340564,-0.023230986250042305,0.09705279702197278,44.11764879391193,-104.27510100388527,76.200527287817
2024-09-23 19:33:36.549732,38.11,46.263069,0.001044642601720419,-0.023230986250042305,0.0976994861521123,40.106058693909645,-96.25519929585457,76.200527287817
2024-09-23 19:33:36.592306,38.11,46.263069,0.001044642601720419,-0.023280723622328886,0.09685382322919964,36.09446859390736,-96.25519929585457,76.200527287817
2024-09-23 19:33:36.604387,38.11,46.263156,0.001044642601720419,-0.023280723622328886,0.09685382322919964,36.09446859390736,-96.25519929585457,76.200527287817
2024-09-23 19:33:36.646886,38.36,46.263156,0.0007461703303635545,-0.023579196463302005,0.09750050628343246,36.09446859390736,-96.25519929585457,80.21211738781929
2024-09-23 19:33:36.690223,38.36,46.263351,0.000845657606494293,-0.023429960042815445,0.09750050628343246,36.09446859390736,-96.25519929585457,80.21211738781929
2024-09-23 19:33:36.701865,38.36,46.263351,0.000845657606494293,-0.023429960042815445,0.09685382322919964,40.106058693909645,-92.24360919585227,80.21211738781929
2024-09-23 19:33:36.744484,38.36,46.263403,0.0006964318663124887,-0.02338022115155219,0.09710254654607277,44.11764879391193,-92.24360919585227,80.21211738781929
2024-09-23 19:33:36.787954,38.36,46.263453,0.0006964318663124887,-0.02338022115155219,0.09710254654607277,44.11764879391193,-92.24360919585227,80.21211738781929
2024-09-23 19:33:36.799178,38.36,46.263453,0.0004974468710863627,-0.02362894446842532,0.09705279702197278,44.11764879391193,-92.24360919585227,80.21211738781929
2024-09-23 19:33:36.841361,38.36,46.263504,0.0010943914612681128,-0.023230986250042305,0.09705279702197278,44.11764879391193,-100.26678939585686,76.200527287817
2024-09-23 19:33:36.936279,38.36,46.263504,0.0010943914612681128,-0.023230986250042305,0.09755024973162574,48.12595698684454,-96.25519929585457,80.21211738781929
2024-09-23 19:33:36.947811,38.36,46.263555,0.000845657606494293,-0.023230986250042305,0.09755024973162574,48.12595698684454,-96.25519929585457,80.21211738781929
2024-09-23 19:33:37.083095,38.36,46.263555,0.000845657606494293,-0.023579196463302005,0.09685382322919964,44.11764879391193,-92.24360919585227,80.21211738781929
2024-09-23 19:33:37.096534,38.36,46.263644,0.000845657606494293,-0.023579196463302005,0.09685382322919964,44.11764879391193,-92.24360919585227,72.1922225099802
2024-09-23 19:33:37.129904,38.36,46.263644,0.0009948937421727254,-0.023280723622328886,0.09715228999426605,44.11764879391193,-92.24360919585227,72.1922225099802
2024-09-23 19:33:37.142131,38.36,46.263644,0.0009948937421727254,-0.023280723622328886,0.09715228999426605,44.11764879391193,-100.26678939585686,76.200527287817
2024-09-23 19:33:37.225899,38.36,46.263695,0.0009948937421727254,-0.023280723622328886,0.09715228999426605,44.11764879391193,-100.26678939585686,76.200527287817
2024-09-23 19:33:37.281297,38.36,46.263695,0.0008954064660419869,-0.023728432883788564,0.0973512698629459,32.08287849390507,-92.24360919585227,76.200527287817
2024-09-23 19:33:37.293072,38.36,46.263695,0.0008954064660419869,-0.023728432883788564,0.0973512698629459,32.08287849390507,-92.24360919585227,76.200527287817
2024-09-23 19:33:37.378210,38.36,46.263746,0.0007461703303635545,-0.023827930413011865,0.0973015264147526,44.11764879391193,-96.25519929585457,76.200527287817
2024-09-23 19:33:37.421870,38.36,46.263746,0.0007461703303635545,-0.023827930413011865,0.0973015264147526,44.11764879391193,-96.25519929585457,76.200527287817
2024-09-23 19:33:37.475594,38.36,46.26384,0.0005471957306340564,-0.02367869399252531,0.09725178296655933,40.106058693909645,-96.25519929585457,76.200527287817
2024-09-23 19:33:37.487272,38.36,46.26384,0.0005471957306340564,-0.02367869399252531,0.09725178296655933,40.106058693909645,-96.25519929585457,76.200527287817
2024-09-23 19:33:37.520257,38.36,46.263987,0.000845657606494293,-0.02367869399252531,0.09725178296655933,40.106058693909645,-96.25519929585457,80.21211738781929
2024-09-23 19:33:37.572863,38.36,46.264037,0.000845657606494293,-0.02367869399252531,0.0973512698629459,44.11764879391193,-88.23529758782387,80.21211738781929
2024-09-23 19:33:37.615341,38.36,46.264037,0.0005471957306340564,-0.0228827638849692,0.0973512698629459,44.11764879391193,-88.23529758782387,80.21211738781929
2024-09-23 19:33:37.668392,37.3,46.264182,0.0005471957306340564,-0.0228827638849692,0.09725178296655933,36.09446859390736,-96.25519929585457,76.200527287817
2024-09-23 19:33:37.680735,37.3,46.264182,0.0009451553255896806,-0.0228827638849692,0.09725178296655933,36.09446859390736,-96.25519929585457,76.200527287817
2024-09-23 19:33:37.713233,37.3,46.264182,0.0009451553255896806,-0.02313149783467906,0.09695331012558621,36.09446859390736,-96.25519929585457,76.200527287817
2024-09-23 19:33:37.766313,37.3,46.264326,0.0008954064660419869,-0.02313149783467906,0.09695331012558621,36.09446859390736,-96.25519929585457,80.21211738781929
2024-09-23 19:33:37.778452,37.3,46.264326,0.0008954064660419869,-0.023230986250042305,0.09695331012558621,36.09446859390736,-96.25519929585457,80.21211738781929
2024-09-23 19:33:37.810351,37.3,46.264326,0.0008954064660419869,-0.023230986250042305,0.09715228999426605,40.106058693909645,-96.25519929585457,80.21211738781929
2024-09-23 19:33:37.821333,37.3,46.264423,0.0009451553255896806,-0.023230986250042305,0.09715228999426605,40.106058693909645,-96.25519929585457,76.200527287817
2024-09-23 19:33:37.864071,37.3,46.264423,0.0009451553255896806,-0.02308174982955575,0.09740101331113918,40.106058693909645,-96.25519929585457,76.200527287817
2024-09-23 19:33:37.876192,37.3,46.264475,0.0009451553255896806,-0.02308174982955575,0.09740101331113918,40.106058693909645,-96.25519929585457,76.200527287817
2024-09-23 19:33:37.909000,37.3,46.264475,0.0008954064660419869,-0.023230986250042305,0.0973015264147526,40.106058693909645,-96.25519929585457,76.200527287817
2024-09-23 19:33:37.920241,37.3,46.264475,0.0008954064660419869,-0.023230986250042305,0.0973015264147526,40.106058693909645,-96.25519929585457,72.1922225099802
2024-09-23 19:33:37.962386,37.3,46.264571,0.001044642601720419,-0.02313149783467906,0.09829641968224512,40.106058693909645,-100.26678939585686,72.1922225099802
2024-09-23 19:33:38.004581,37.3,46.264571,0.001044642601720419,-0.02313149783467906,0.09829641968224512,40.106058693909645,-100.26678939585686,76.200527287817
2024-09-23 19:33:38.057798,37.3,46.264668,0.0007461703303635545,-0.023230986250042305,0.09745075675933246,44.11764879391193,-100.26678939585686,76.200527287817
2024-09-23 19:33:38.069766,37.3,46.264668,0.0007461703303635545,-0.023230986250042305,0.09745075675933246,44.11764879391193,-92.24360919585227,76.200527287817
2024-09-23 19:33:38.152767,37.3,46.264719,0.0005969341946851222,-0.023230986250042305,0.09745075675933246,44.11764879391193,-92.24360919585227,72.1922225099802
2024-09-23 19:33:38.164797,37.3,46.264719,0.0005969341946851222,-0.02338022115155219,0.09710254654607277,44.11764879391193,-92.24360919585227,72.1922225099802
2024-09-23 19:33:38.249603,37.3,46.264719,0.0005969341946851222,-0.02338022115155219,0.09710254654607277,44.11764879391193,-100.26678939585686,72.1922225099802
2024-09-23 19:33:38.302678,37.3,46.26477,0.0001989745997294981,-0.02308174982955575,0.09710254654607277,44.11764879391193,-100.26678939585686,76.200527287817
2024-09-23 19:33:38.314023,37.3,46.26477,0.0001989745997294981,-0.02308174982955575,0.09745075675933246,36.09446859390736,-100.26678939585686,76.200527287817
2024-09-23 19:33:38.348505,37.3,46.264821,0.0001989745997294981,-0.02308174982955575,0.09745075675933246,36.09446859390736,-96.25519929585457,76.200527287817
2024-09-23 19:33:38.359669,37.3,46.264821,0.0007959191899112484,-0.023230986250042305,0.09725178296655933,36.09446859390736,-96.25519929585457,76.200527287817
2024-09-23 19:33:38.402343,37.3,46.264821,0.0007959191899112484,-0.023230986250042305,0.09725178296655933,48.12595698684454,-92.24360919585227,76.200527287817
2024-09-23 19:33:38.444693,37.3,46.264911,0.0005471957306340564,-0.023230986250042305,0.09725178296655933,48.12595698684454,-92.24360919585227,72.1922225099802
2024-09-23 19:33:38.456407,37.3,46.264911,0.0005471957306340564,-0.023181236725942318,0.09720203344245934,44.11764879391193,-92.24360919585227,72.1922225099802
2024-09-23 19:33:38.499241,37.3,46.265008,0.0005471957306340564,-0.023479709566915436,0.0970030596496862,44.11764879391193,-96.25519929585457,80.21211738781929
2024-09-23 19:33:38.542229,37.3,46.265008,0.0005471957306340564,-0.023479709566915436,0.0970030596496862,32.08287849390507,-96.25519929585457,80.21211738781929
2024-09-23 19:33:38.553336,37.3,46.265156,0.0013431148730772837,-0.02293251340906919,0.0970030596496862,32.08287849390507,-96.25519929585457,76.200527287817
2024-09-23 19:33:38.596758,37.3,46.265253,0.0010943914612681128,-0.02293251340906919,0.09725178296655933,44.11764879391193,-88.23529758782387,84.22370748782159
2024-09-23 19:33:38.639898,37.3,46.265253,0.0010943914612681128,-0.02362894446842532,0.09685382322919964,48.12595698684454,-88.23529758782387,84.22370748782159
2024-09-23 19:33:38.650921,37.3,46.265303,0.0010943914612681128,-0.02362894446842532,0.09685382322919964,48.12595698684454,-88.23529758782387,80.21211738781929
2024-09-23 19:33:38.693334,36.7,46.265303,0.0011441298778511575,-0.023181236725942318,0.09774922960030558,36.09446859390736,-100.26678939585686,84.22370748782159
2024-09-23 19:33:38.736607,36.7,46.265399,0.0006466830067647949,-0.023181236725942318,0.09774922960030558,36.09446859390736,-100.26678939585686,84.22370748782159
2024-09-23 19:33:38.748417,36.7,46.265399,0.0006466830067647949,-0.02313149783467906,0.09695331012558621,44.11764879391193,-92.24360919585227,84.22370748782159
2024-09-23 19:33:38.790595,36.7,46.26545,0.0005471957306340564,-0.023479709566915436,0.09705279702197278,44.11764879391193,-92.24360919585227,76.200527287817
2024-09-23 19:33:38.802377,36.7,46.26545,0.0005471957306340564,-0.023479709566915436,0.09705279702197278,48.12595698684454,-92.24360919585227,76.200527287817
2024-09-23 19:33:38.887012,36.7,46.265501,0.00044769805900669,-0.02303200030545576,0.09705279702197278,48.12595698684454,-96.25519929585457,76.200527287817
2024-09-23 19:33:38.898576,36.7,46.265501,0.00044769805900669,-0.02303200030545576,0.0970030596496862,48.12595698684454,-96.25519929585457,76.200527287817
2024-09-23 19:33:38.930918,36.7,46.265501,0.00044769805900669,-0.02303200030545576,0.0970030596496862,44.11764879391193,-96.25519929585457,76.200527287817
2024-09-23 19:33:38.943158,36.7,46.265552,0.0005471957306340564,-0.023230986250042305,0.0970030596496862,44.11764879391193,-96.25519929585457,72.1922225099802
2024-09-23 19:33:38.986836,36.7,46.265602,0.0006964318663124887,-0.023230986250042305,0.09720203344245934,40.106058693909645,-96.25519929585457,76.200527287817
2024-09-23 19:33:39.080415,36.7,46.265602,0.0006964318663124887,-0.02303200030545576,0.09680407370509965,44.11764879391193,-96.25519929585457,76.200527287817
2024-09-23 19:33:39.092214,36.7,46.265691,0.0006964318663124887,-0.02303200030545576,0.09680407370509965,44.11764879391193,-96.25519929585457,76.200527287817
2024-09-23 19:33:39.124090,36.7,46.265691,0.0006964318663124887,-0.02303200030545576,0.09680407370509965,44.11764879391193,-96.25519929585457,76.200527287817
2024-09-23 19:33:39.135967,36.7,46.265691,0.0006964318663124887,-0.023230986250042305,0.09750050628343246,40.106058693909645,-96.25519929585457,76.200527287817
2024-09-23 19:33:39.178895,36.7,46.265789,0.0004974468710863627,-0.0228827638849692,0.09774922960030558,40.106058693909645,-96.25519929585457,76.200527287817
2024-09-23 19:33:39.190707,36.7,46.265789,0.0004974468710863627,-0.0228827638849692,0.09774922960030558,48.12595698684454,-108.28669110388756,76.200527287817
2024-09-23 19:33:39.224042,36.7,46.265841,0.0004974468710863627,-0.0228827638849692,0.09774922960030558,48.12595698684454,-108.28669110388756,72.1922225099802
2024-09-23 19:33:39.235626,36.7,46.265841,0.0007461703303635545,-0.02303200030545576,0.0973512698629459,44.11764879391193,-108.28669110388756,72.1922225099802
2024-09-23 19:33:39.278384,36.7,46.265891,0.0011938787373988514,-0.02338022115155219,0.09690356060148622,44.11764879391193,-92.24360919585227,84.22370748782159
2024-09-23 19:33:39.320368,36.7,46.265891,0.0011938787373988514,-0.02338022115155219,0.09690356060148622,36.09446859390736,-92.24360919585227,84.22370748782159
2024-09-23 19:33:39.467190,36.7,46.265891,0.0011938787373988514,-0.02338022115155219,0.09690356060148622,36.09446859390736,-92.24360919585227,76.200527287817
2024-09-23 19:33:39.480116,36.7,46.265986,0.0009948937421727254,-0.02338022115155219,0.09690356060148622,36.09446859390736,-92.24360919585227,76.200527287817
2024-09-23 19:33:39.522572,36.7,46.265986,0.0009948937421727254,-0.02293251340906919,0.09759999317981902,40.106058693909645,-92.24360919585227,76.200527287817
2024-09-23 19:33:39.534796,36.7,46.266036,0.0009948937421727254,-0.02293251340906919,0.09759999317981902,40.106058693909645,-92.24360919585227,76.200527287817
2024-09-23 19:33:39.566471,36.7,46.266036,0.0007959191899112484,-0.023330473146428877,0.09725178296655933,40.106058693909645,-92.24360919585227,76.200527287817
2024-09-23 19:33:39.577562,36.7,46.266036,0.0007959191899112484,-0.023330473146428877,0.09725178296655933,44.11764879391193,-96.25519929585457,80.21211738781929
2024-09-23 19:33:39.620990,36.7,46.26613,0.0005969341946851222,-0.02367869399252531,0.09715228999426605,44.11764879391193,-92.24360919585227,80.21211738781929
2024-09-23 19:33:39.662707,36.7,46.266181,0.0005969341946851222,-0.02367869399252531,0.09715228999426605,44.11764879391193,-92.24360919585227,76.200527287817
2024-09-23 19:33:39.674663,36.7,46.266181,0.0008954064660419869,-0.023778180888911878,0.09720203344245934,48.12595698684454,-92.24360919585227,76.200527287817
2024-09-23 19:33:39.718221,36.41,46.266232,0.000845657606494293,-0.02293251340906919,0.09705279702197278,48.12595698684454,-96.25519929585457,72.1922225099802
2024-09-23 19:33:40.008077,36.41,46.266424,0.000845657606494293,-0.02293251340906919,0.09705279702197278,40.106058693909645,-96.25519929585457,80.21211738781929
2024-09-23 19:33:40.020411,36.41,46.266424,0.000845657606494293,-0.023827930413011865,0.09705279702197278,40.106058693909645,-96.25519929585457,80.21211738781929
2024-09-23 19:33:40.157073,36.41,46.266475,0.0007461703303635545,-0.023827930413011865,0.09779897304849887,40.106058693909645,-96.25519929585457,76.200527287817
2024-09-23 19:33:40.200411,36.41,46.266475,0.0007461703303635545,-0.023181236725942318,0.09695331012558621,52.137550501942634,-96.25519929585457,76.200527287817
2024-09-23 19:33:40.211956,36.41,46.266568,0.0007461703303635545,-0.023181236725942318,0.09695331012558621,52.137550501942634,-104.27510100388527,76.200527287817
2024-09-23 19:33:40.254455,36.41,46.266568,0.0006466830067647949,-0.023280723622328886,0.09774922960030558,36.09446859390736,-100.26678939585686,84.22370748782159
2024-09-23 19:33:40.298244,36.41,46.26662,0.0009948937421727254,-0.023181236725942318,0.09774922960030558,36.09446859390736,-100.26678939585686,84.22370748782159
2024-09-23 19:33:40.309643,36.41,46.26662,0.0009948937421727254,-0.023181236725942318,0.09725178296655933,40.106058693909645,-96.25519929585457,84.22370748782159
2024-09-23 19:33:40.352230,36.41,46.266911,0.0006964318663124887,-0.023579196463302005,0.09740101331113918,40.106058693909645,-96.25519929585457,80.21211738781929
2024-09-23 19:33:40.393944,36.41,46.266911,0.0006964318663124887,-0.023579196463302005,0.09740101331113918,40.106058693909645,-96.25519929585457,76.200527287817
2024-09-23 19:33:40.405883,36.41,46.267058,0.0007959191899112484,-0.023280723622328886,0.09750050628343246,40.106058693909645,-96.25519929585457,76.200527287817
2024-09-23 19:33:40.448499,36.41,46.267108,0.000845657606494293,-0.023280723622328886,0.09750050628343246,36.09446859390736,-104.27510100388527,80.21211738781929
2024-09-23 19:33:40.460630,36.41,46.267108,0.000845657606494293,-0.023181236725942318,0.09750050628343246,36.09446859390736,-104.27510100388527,80.21211738781929
2024-09-23 19:33:40.492120,36.41,46.267108,0.000845657606494293,-0.023181236725942318,0.09715228999426605,40.106058693909645,-100.26678939585686,80.21211738781929
2024-09-23 19:33:40.544417,36.41,46.267108,0.000845657606494293,-0.023181236725942318,0.09715228999426605,40.106058693909645,-100.26678939585686,72.1922225099802
2024-09-23 19:33:40.589690,36.41,46.267159,0.000845657606494293,-0.023181236725942318,0.09715228999426605,40.106058693909645,-100.26678939585686,72.1922225099802
2024-09-23 19:33:40.600946,36.41,46.267159,0.000845657606494293,-0.02352945757203875,0.0973512698629459,44.11764879391193,-96.25519929585457,72.1922225099802
2024-09-23 19:33:40.684280,36.41,46.267159,0.000845657606494293,-0.02352945757203875,0.0973512698629459,44.11764879391193,-96.25519929585457,76.200527287817
2024-09-23 19:33:40.696452,36.41,46.267251,0.000845657606494293,-0.023778180888911878,0.0976994861521123,44.11764879391193,-96.25519929585457,76.200527287817
2024-09-23 19:33:40.739930,35.15,46.267302,0.0004974468710863627,-0.023330473146428877,0.0976994861521123,44.11764879391193,-100.26678939585686,80.21211738781929
2024-09-23 19:33:40.752017,35.15,46.267302,0.0004974468710863627,-0.023330473146428877,0.09725178296655933,44.11764879391193,-100.26678939585686,80.21211738781929
2024-09-23 19:33:40.783866,35.15,46.267302,0.0004974468710863627,-0.023330473146428877,0.09725178296655933,44.11764879391193,-100.26678939585686,80.21211738781929
2024-09-23 19:33:40.795779,35.15,46.267353,0.0003979595949556242,-0.02308174982955575,0.09725178296655933,44.11764879391193,-100.26678939585686,72.1922225099802
2024-09-23 19:33:40.880825,35.15,46.267353,0.0003979595949556242,-0.02308174982955575,0.09799795899308542,36.09446859390736,-100.26678939585686,72.1922225099802
2024-09-23 19:33:40.933867,35.15,46.267353,0.0003979595949556242,-0.02308174982955575,0.09799795899308542,36.09446859390736,-96.25519929585457,72.1922225099802
2024-09-23 19:33:40.976829,35.15,46.267353,0.0003979595949556242,-0.02308174982955575,0.09799795899308542,36.09446859390736,-96.25519929585457,76.200527287817
2024-09-23 19:33:40.987943,35.15,46.267404,0.0006466830067647949,-0.023280723622328886,0.09764974270391902,36.09446859390736,-96.25519929585457,76.200527287817
2024-09-23 19:33:41.030687,35.15,46.267592,0.0006466830067647949,-0.023280723622328886,0.09764974270391902,36.09446859390736,-92.24360919585227,76.200527287817
2024-09-23 19:33:41.042076,35.15,46.267592,0.0004974468710863627,-0.02338022115155219,0.09750050628343246,36.09446859390736,-92.24360919585227,76.200527287817
2024-09-23 19:33:41.074373,35.15,46.267592,0.0004974468710863627,-0.02338022115155219,0.09750050628343246,44.11764879391193,-92.24360919585227,76.200527287817
2024-09-23 19:33:41.085609,35.15,46.267644,0.00044769805900669,-0.023230986250042305,0.09750050628343246,44.11764879391193,-96.25519929585457,80.21211738781929
2024-09-23 19:33:41.127594,35.15,46.267644,0.00044769805900669,-0.023230986250042305,0.09685382322919964,44.11764879391193,-96.25519929585457,80.21211738781929
2024-09-23 19:33:41.221679,35.15,46.267644,0.00044769805900669,-0.023230986250042305,0.09685382322919964,40.106058693909645,-96.25519929585457,80.21211738781929
2024-09-23 19:33:41.233568,35.15,46.267694,0.0008954064660419869,-0.023429960042815445,0.09685382322919964,40.106058693909645,-96.25519929585457,72.1922225099802
2024-09-23 19:33:41.277720,35.15,46.267885,0.0008954064660419869,-0.023429960042815445,0.0973015264147526,40.106058693909645,-92.24360919585227,76.200527287817
2024-09-23 19:33:41.290143,35.15,46.267885,0.0009948937421727254,-0.023429960042815445,0.0973015264147526,40.106058693909645,-92.24360919585227,76.200527287817
2024-09-23 19:33:41.322537,35.15,46.267885,0.0009948937421727254,-0.023429960042815445,0.09685382322919964,44.11764879391193,-96.25519929585457,76.200527287817
2024-09-23 19:33:41.334162,35.15,46.267936,0.0009948937421727254,-0.023429960042815445,0.09685382322919964,44.11764879391193,-96.25519929585457,80.21211738781929
2024-09-23 19:33:41.366482,35.15,46.267936,0.00024872343554318134,-0.023429960042815445,0.09685382322919964,44.11764879391193,-96.25519929585457,80.21211738781929
2024-09-23 19:33:41.377617,35.15,46.267936,0.00024872343554318134,-0.02308174982955575,0.09774922960030558,32.08287849390507,-96.25519929585457,72.1922225099802
2024-09-23 19:33:41.419300,35.15,46.267987,0.0010943914612681128,-0.02352945757203875,0.09774922960030558,32.08287849390507,-96.25519929585457,72.1922225099802
2024-09-23 19:33:41.430799,35.15,46.267987,0.0010943914612681128,-0.02352945757203875,0.0973015264147526,44.11764879391193,-92.24360919585227,72.1922225099802
2024-09-23 19:33:41.473630,35.15,46.26813,0.0009948937421727254,-0.02362894446842532,0.0973015264147526,52.137550501942634,-92.24360919585227,72.1922225099802
2024-09-23 19:33:41.515883,35.15,46.268181,0.0009948937421727254,-0.02362894446842532,0.0973015264147526,52.137550501942634,-104.27510100388527,64.16903547978401
2024-09-23 19:33:41.527689,35.15,46.268181,0.0007461703303635545,-0.02362894446842532,0.0973015264147526,52.137550501942634,-104.27510100388527,64.16903547978401
2024-09-23 19:33:41.569782,35.15,46.268231,0.0007461703303635545,-0.023479709566915436,0.0976994861521123,40.106058693909645,-96.25519929585457,68.18063240997792
2024-09-23 19:33:41.612590,35.15,46.268231,0.0009451553255896806,-0.023479709566915436,0.0976994861521123,40.106058693909645,-96.25519929585457,68.18063240997792
2024-09-23 19:33:41.666709,35.15,46.268231,0.0009451553255896806,-0.02303200030545576,0.0970030596496862,36.09446859390736,-92.24360919585227,80.21211738781929
2024-09-23 19:33:41.678421,35.15,46.268282,0.0009451553255896806,-0.02303200030545576,0.0970030596496862,36.09446859390736,-92.24360919585227,80.21211738781929
2024-09-23 19:33:41.711734,35.15,46.268282,0.00044769805900669,-0.023330473146428877,0.0970030596496862,36.09446859390736,-92.24360919585227,80.21211738781929
2024-09-23 19:33:41.723334,35.15,46.268282,0.00044769805900669,-0.023330473146428877,0.0976994861521123,56.14914060194492,-96.25519929585457,72.1922225099802
2024-09-23 19:33:41.766105,35.15,46.268372,0.0006964318663124887,-0.023429960042815445,0.09755024973162574,44.11764879391193,-92.24360919585227,72.1922225099802
2024-09-23 19:33:41.809246,35.15,46.268424,0.0011441298778511575,-0.023429960042815445,0.09755024973162574,44.11764879391193,-92.24360919585227,76.200527287817
2024-09-23 19:33:41.821399,35.15,46.268424,0.0011441298778511575,-0.023429960042815445,0.09715228999426605,40.106058693909645,-92.24360919585227,76.200527287817
2024-09-23 19:33:41.853732,35.15,46.268424,0.0011441298778511575,-0.023429960042815445,0.09715228999426605,40.106058693909645,-100.26678939585686,76.200527287817
2024-09-23 19:33:41.865598,35.15,46.268475,0.0005471957306340564,-0.022833026512682618,0.09764974270391902,40.106058693909645,-100.26678939585686,76.200527287817
2024-09-23 19:33:41.908881,35.15,46.268569,0.0005471957306340564,-0.022833026512682618,0.09764974270391902,36.09446859390736,-100.26678939585686,80.21211738781929
2024-09-23 19:33:41.921358,35.15,46.268569,0.0008954064660419869,-0.024026904205785005,0.09764974270391902,36.09446859390736,-100.26678939585686,80.21211738781929
2024-09-23 19:33:41.954220,35.15,46.268569,0.0008954064660419869,-0.024026904205785005,0.09710254654607277,40.106058693909645,-100.26678939585686,80.21211738781929
2024-09-23 19:33:41.965383,35.15,46.26862,0.00044769805900669,-0.024026904205785005,0.09710254654607277,40.106058693909645,-96.25519929585457,80.21211738781929
2024-09-23 19:33:42.007861,35.15,46.26862,0.00044769805900669,-0.02352945757203875,0.09715228999426605,44.11764879391193,-96.25519929585457,80.21211738781929
2024-09-23 19:33:42.019516,35.15,46.268713,0.00044769805900669,-0.02352945757203875,0.09715228999426605,44.11764879391193,-96.25519929585457,80.21211738781929
2024-09-23 19:33:42.051797,35.15,46.268713,0.0009451553255896806,-0.02352945757203875,0.09715228999426605,44.11764879391193,-96.25519929585457,80.21211738781929
2024-09-23 19:33:42.063832,35.15,46.268713,0.0009451553255896806,-0.02352945757203875,0.0970030596496862,40.106058693909645,-92.24360919585227,84.22370748782159
2024-09-23 19:33:42.106972,35.15,46.268765,0.0009451553255896806,-0.02362894446842532,0.0976994861521123,36.09446859390736,-96.25519929585457,84.22370748782159
2024-09-23 19:33:42.149252,35.15,46.268816,0.0009451553255896806,-0.02362894446842532,0.0976994861521123,36.09446859390736,-96.25519929585457,80.21211738781929
2024-09-23 19:33:42.161032,35.15,46.268816,0.0005471957306340564,-0.02313149783467906,0.09740101331113918,36.09446859390736,-96.25519929585457,80.21211738781929
2024-09-23 19:33:42.204432,35.15,46.268866,0.0006466830067647949,-0.022982261414192504,0.09725178296655933,36.09446859390736,-100.26678939585686,80.21211738781929
2024-09-23 19:33:42.246441,35.15,46.268866,0.0006466830067647949,-0.022982261414192504,0.09725178296655933,36.09446859390736,-96.25519929585457,80.21211738781929
2024-09-23 19:33:42.258352,35.15,46.268917,0.00029846189959424716,-0.02308174982955575,0.09725178296655933,36.09446859390736,-96.25519929585457,76.200527287817
2024-09-23 19:33:42.300662,35.15,46.268968,0.0006964318663124887,-0.02308174982955575,0.0973015264147526,36.09446859390736,-100.26678939585686,80.21211738781929
2024-09-23 19:33:42.345039,35.15,46.268968,0.0006964318663124887,-0.023827930413011865,0.09680407370509965,40.106058693909645,-100.26678939585686,80.21211738781929
2024-09-23 19:33:42.356198,35.15,46.269055,0.0006964318663124887,-0.023827930413011865,0.09680407370509965,40.106058693909645,-100.26678939585686,76.200527287817
2024-09-23 19:33:42.398436,35.15,46.269055,0.001044642601720419,-0.023579196463302005,0.09665483728461309,44.11764879391193,-84.22370748782159,88.23529758782387
2024-09-23 19:33:42.441289,35.15,46.269106,0.0005969341946851222,-0.023579196463302005,0.09665483728461309,44.11764879391193,-84.22370748782159,88.23529758782387
2024-09-23 19:33:42.453608,35.15,46.269106,0.0005969341946851222,-0.02338022115155219,0.09720203344245934,36.09446859390736,-96.25519929585457,88.23529758782387
2024-09-23 19:33:42.496768,35.15,46.269157,0.0007461703303635545,-0.022733528983459317,0.09705279702197278,44.11764879391193,-96.25519929585457,80.21211738781929
2024-09-23 19:33:42.539512,35.15,46.269208,0.0007461703303635545,-0.022733528983459317,0.09705279702197278,44.11764879391193,-92.24360919585227,80.21211738781929
2024-09-23 19:33:42.551193,35.15,46.269208,0.0011441298778511575,-0.022733528983459317,0.09705279702197278,44.11764879391193,-92.24360919585227,80.21211738781929
2024-09-23 19:33:42.594376,35.15,46.269258,0.0011441298778511575,-0.023479709566915436,0.0970030596496862,40.106058693909645,-96.25519929585457,76.200527287817
2024-09-23 19:33:42.636361,35.15,46.269258,9.948729986474904e-05,-0.023181236725942318,0.0970030596496862,40.106058693909645,-96.25519929585457,76.200527287817
2024-09-23 19:33:42.647605,35.15,46.269258,9.948729986474904e-05,-0.023181236725942318,0.09750050628343246,44.11764879391193,-88.23529758782387,76.200527287817
2024-09-23 19:33:42.689473,35.15,46.269309,0.0005969341946851222,-0.02313149783467906,0.09750050628343246,44.11764879391193,-88.23529758782387,76.200527287817
2024-09-23 19:33:42.733786,35.15,46.269309,0.0005969341946851222,-0.02313149783467906,0.0970030596496862,44.11764879391193,-88.23529758782387,76.200527287817
2024-09-23 19:33:42.744879,35.15,46.269396,0.0009948937421727254,-0.02313149783467906,0.0970030596496862,44.11764879391193,-92.24360919585227,80.21211738781929
2024-09-23 19:33:42.787199,35.83,46.269396,0.0009948937421727254,-0.023728432883788564,0.09705279702197278,44.11764879391193,-96.25519929585457,76.200527287817
2024-09-23 19:33:42.799411,35.83,46.269447,0.0009948937421727254,-0.023728432883788564,0.09705279702197278,44.11764879391193,-96.25519929585457,76.200527287817
2024-09-23 19:33:42.831595,35.83,46.269447,0.0004974468710863627,-0.0228827638849692,0.09705279702197278,44.11764879391193,-96.25519929585457,76.200527287817
2024-09-23 19:33:42.843166,35.83,46.269447,0.0004974468710863627,-0.0228827638849692,0.09710254654607277,48.12595698684454,-92.24360919585227,80.21211738781929
2024-09-23 19:33:42.885860,35.83,46.269498,0.001044642601720419,-0.02362894446842532,0.09740101331113918,44.11764879391193,-100.26678939585686,80.21211738781929
2024-09-23 19:33:42.928223,35.83,46.269549,0.001044642601720419,-0.02362894446842532,0.09740101331113918,44.11764879391193,-100.26678939585686,72.1922225099802
2024-09-23 19:33:42.940122,35.83,46.269549,0.0005969341946851222,-0.023330473146428877,0.09740101331113918,40.106058693909645,-100.26678939585686,72.1922225099802
2024-09-23 19:33:42.983463,35.83,46.269641,0.0006466830067647949,-0.023778180888911878,0.09740101331113918,40.106058693909645,-96.25519929585457,76.200527287817
2024-09-23 19:33:42.995183,35.83,46.269641,0.0006466830067647949,-0.023778180888911878,0.09705279702197278,40.106058693909645,-96.25519929585457,76.200527287817
2024-09-23 19:33:43.027990,35.83,46.269641,0.0006466830067647949,-0.023778180888911878,0.09705279702197278,40.106058693909645,-96.25519929585457,76.200527287817
2024-09-23 19:33:43.039509,35.83,46.269692,0.00034821073540793035,-0.022982261414192504,0.09705279702197278,40.106058693909645,-96.25519929585457,76.200527287817
2024-09-23 19:33:43.083003,35.83,46.269743,0.000845657606494293,-0.022982261414192504,0.09740101331113918,36.09446859390736,-92.24360919585227,76.200527287817
2024-09-23 19:33:43.125089,35.83,46.269743,0.000845657606494293,-0.022733528983459317,0.09745075675933246,36.09446859390736,-92.24360919585227,76.200527287817
2024-09-23 19:33:43.136326,35.83,46.269835,0.000845657606494293,-0.022733528983459317,0.09745075675933246,36.09446859390736,-92.24360919585227,80.21211738781929
2024-09-23 19:33:43.179660,35.83,46.269835,0.0006466830067647949,-0.023230986250042305,0.09720203344245934,36.09446859390736,-92.24360919585227,80.21211738781929
2024-09-23 19:33:43.222915,35.83,46.269886,0.000845657606494293,-0.023479709566915436,0.09720203344245934,36.09446859390736,-92.24360919585227,80.21211738781929
2024-09-23 19:33:43.234418,35.83,46.269886,0.000845657606494293,-0.023479709566915436,0.09764974270391902,44.11764879391193,-96.25519929585457,80.21211738781929
2024-09-23 19:33:43.276861,35.83,46.269937,0.0010943914612681128,-0.023877669304275123,0.0976994861521123,40.106058693909645,-96.25519929585457,80.21211738781929
2024-09-23 19:33:43.319260,35.83,46.269937,0.0010943914612681128,-0.023877669304275123,0.0976994861521123,40.106058693909645,-96.25519929585457,76.200527287817
2024-09-23 19:33:43.330768,35.83,46.269988,0.0006964318663124887,-0.023877669304275123,0.0976994861521123,40.106058693909645,-96.25519929585457,76.200527287817
2024-09-23 19:33:43.374045,35.83,46.269988,0.0006964318663124887,-0.0228827638849692,0.09725178296655933,36.09446859390736,-92.24360919585227,76.200527287817
2024-09-23 19:33:43.385971,35.83,46.270038,0.0006964318663124887,-0.0228827638849692,0.09725178296655933,36.09446859390736,-92.24360919585227,76.200527287817
2024-09-23 19:33:43.418149,35.83,46.270038,0.000845657606494293,-0.023181236725942318,0.09685382322919964,36.09446859390736,-92.24360919585227,76.200527287817
2024-09-23 19:33:43.429662,35.83,46.270038,0.000845657606494293,-0.023181236725942318,0.09685382322919964,32.08287849390507,-96.25519929585457,80.21211738781929
2024-09-23 19:33:43.473187,35.83,46.270089,0.0007461703303635545,-0.02352945757203875,0.09705279702197278,32.08287849390507,-100.26678939585686,80.21211738781929
2024-09-23 19:33:43.515027,35.83,46.270176,0.0006466830067647949,-0.02352945757203875,0.09705279702197278,32.08287849390507,-100.26678939585686,76.200527287817
2024-09-23 19:33:43.526063,35.83,46.270176,0.0006466830067647949,-0.02338022115155219,0.098047696365372,44.11764879391193,-100.26678939585686,76.200527287817
2024-09-23 19:33:43.569049,35.83,46.270227,0.001044642601720419,-0.02313149783467906,0.098047696365372,44.11764879391193,-92.24360919585227,72.1922225099802
2024-09-23 19:33:43.611891,35.83,46.270227,0.001044642601720419,-0.02313149783467906,0.09809744588947199,36.09446859390736,-92.24360919585227,72.1922225099802
2024-09-23 19:33:43.623387,35.83,46.270278,0.0009451553255896806,-0.02313149783467906,0.09809744588947199,36.09446859390736,-92.24360919585227,76.200527287817
2024-09-23 19:33:43.666069,35.83,46.270278,0.0009451553255896806,-0.022833026512682618,0.09685382322919964,48.12595698684454,-100.26678939585686,76.200527287817
2024-09-23 19:33:43.677594,35.83,46.270328,0.0009451553255896806,-0.022833026512682618,0.09685382322919964,48.12595698684454,-100.26678939585686,76.200527287817
2024-09-23 19:33:43.710858,35.83,46.270328,0.0012933660135295898,-0.023230986250042305,0.0970030596496862,48.12595698684454,-100.26678939585686,76.200527287817
2024-09-23 19:33:43.722301,35.83,46.270328,0.0012933660135295898,-0.023230986250042305,0.0970030596496862,40.106058693909645,-88.23529758782387,80.21211738781929
2024-09-23 19:33:43.765170,35.83,46.27042,0.000845657606494293,-0.023181236725942318,0.09759999317981902,44.11764879391193,-92.24360919585227,80.21211738781929
2024-09-23 19:33:43.859047,35.95,46.270471,0.0009451553255896806,-0.023181236725942318,0.0976994861521123,44.11764879391193,-92.24360919585227,76.200527287817
2024-09-23 19:33:43.871315,35.95,46.270471,0.0009451553255896806,-0.023181236725942318,0.0976994861521123,48.12595698684454,-92.24360919585227,76.200527287817
2024-09-23 19:33:43.904284,35.95,46.270471,0.0009451553255896806,-0.023181236725942318,0.0976994861521123,48.12595698684454,-88.23529758782387,76.200527287817
2024-09-23 19:33:43.915451,35.95,46.270522,0.0001989745997294981,-0.024026904205785005,0.09725178296655933,48.12595698684454,-88.23529758782387,76.200527287817
2024-09-23 19:33:43.957877,35.95,46.270573,0.0007959191899112484,-0.024026904205785005,0.09725178296655933,36.09446859390736,-84.22370748782159,80.21211738781929
2024-09-23 19:33:43.969569,35.95,46.270573,0.0007959191899112484,-0.023429960042815445,0.09725178296655933,36.09446859390736,-84.22370748782159,80.21211738781929
2024-09-23 19:33:44.002426,35.95,46.270573,0.0007959191899112484,-0.023429960042815445,0.09670458680871308,36.09446859390736,-96.25519929585457,80.21211738781929
2024-09-23 19:33:44.013765,35.95,46.270623,0.000845657606494293,-0.023429960042815445,0.09670458680871308,36.09446859390736,-96.25519929585457,76.200527287817
2024-09-23 19:33:44.056518,35.95,46.270712,0.000845657606494293,-0.023181236725942318,0.09755024973162574,24.06297849342227,-96.25519929585457,76.200527287817
2024-09-23 19:33:44.098253,35.95,46.270712,0.0005471957306340564,-0.022833026512682618,0.09755024973162574,24.06297849342227,-96.25519929585457,76.200527287817
2024-09-23 19:33:44.109916,35.95,46.270712,0.0005471957306340564,-0.022833026512682618,0.09725178296655933,52.137550501942634,-92.24360919585227,80.21211738781929
2024-09-23 19:33:44.153144,35.95,46.27081,0.0007461703303635545,-0.02338022115155219,0.09755024973162574,52.137550501942634,-88.23529758782387,80.21211738781929
2024-09-23 19:33:44.196178,35.95,46.270862,0.0007461703303635545,-0.02338022115155219,0.09755024973162574,52.137550501942634,-88.23529758782387,76.200527287817
2024-09-23 19:33:44.207221,35.95,46.270862,0.0001989745997294981,-0.02293251340906919,0.0973512698629459,36.09446859390736,-88.23529758782387,76.200527287817
2024-09-23 19:33:44.250707,35.95,46.270912,0.0006466830067647949,-0.02303200030545576,0.0973512698629459,36.09446859390736,-96.25519929585457,80.21211738781929
2024-09-23 19:33:44.262367,35.95,46.270912,0.0006466830067647949,-0.02303200030545576,0.09750050628343246,36.09446859390736,-96.25519929585457,80.21211738781929
2024-09-23 19:33:44.295044,35.95,46.270912,0.0006466830067647949,-0.02303200030545576,0.09750050628343246,44.11764879391193,-104.27510100388527,76.200527287817
2024-09-23 19:33:44.306261,35.95,46.270963,0.0005969341946851222,-0.02352945757203875,0.09750050628343246,44.11764879391193,-104.27510100388527,76.200527287817
2024-09-23 19:33:44.348728,35.95,46.270963,0.0005969341946851222,-0.02352945757203875,0.09725178296655933,44.11764879391193,-104.27510100388527,76.200527287817
2024-09-23 19:33:44.391314,35.95,46.270963,0.0005969341946851222,-0.02352945757203875,0.09725178296655933,44.11764879391193,-100.26678939585686,72.1922225099802
