Ayaan's Suite
Timestamp,Sample Rate (Hz),Time,Ax,Ay,Az,Gx,Gy,Gz
2024-09-23 21:43:21.893538,0,54.04873,0.00044769805900669,-0.022584292562972758,0.0973512698629459,44.11764879391193,-92.24360919585227,76.200527287817
2024-09-23 21:43:21.925615,0,54.048781,0.0009451553255896806,-0.022584292562972758,0.0973512698629459,44.11764879391193,-100.26678939585686,72.1922225099802
2024-09-23 21:43:21.937224,0,54.048781,0.0009451553255896806,-0.023330473146428877,0.0973512698629459,44.11764879391193,-100.26678939585686,72.1922225099802
2024-09-23 21:43:21.970152,0,54.048781,0.0009451553255896806,-0.023330473146428877,0.09690356060148622,44.11764879391193,-100.26678939585686,72.1922225099802
2024-09-23 21:43:21.981339,0,54.048831,0.0009451553255896806,-0.023330473146428877,0.09690356060148622,44.11764879391193,-92.24360919585227,76.200527287817
2024-09-23 21:43:22.024450,0,54.048918,0.0009451553255896806,-0.02303200030545576,0.0973512698629459,44.11764879391193,-92.24360919585227,76.200527287817
2024-09-23 21:43:22.119594,0,54.048918,0.0011938787373988514,-0.02313149783467906,0.0973015264147526,40.106058693909645,-92.24360919585227,76.200527287817
2024-09-23 21:43:22.130568,0,54.048918,0.0011938787373988514,-0.02313149783467906,0.0973015264147526,40.106058693909645,-96.25519929585457,76.200527287817
2024-09-23 21:43:22.163774,0,54.048969,0.0011938787373988514,-0.02313149783467906,0.0973015264147526,40.106058693909645,-96.25519929585457,76.200527287817
2024-09-23 21:43:22.174991,0,54.048969,0.00044769805900669,-0.02303200030545576,0.0973512698629459,44.11764879391193,-96.25519929585457,76.200527287817
2024-09-23 21:43:22.218130,0,54.04902,0.0013431148730772837,-0.022584292562972758,0.09745075675933246,44.11764879391193,-96.25519929585457,80.21211738781929
2024-09-23 21:43:22.229680,0,54.04902,0.0013431148730772837,-0.022584292562972758,0.09745075675933246,40.106058693909645,-96.25519929585457,80.21211738781929
2024-09-23 21:43:22.262127,0,54.04902,0.0013431148730772837,-0.022584292562972758,0.09745075675933246,40.106058693909645,-92.24360919585227,76.200527287817
2024-09-23 21:43:22.277845,0,54.049071,0.0012436275969465451,-0.02362894446842532,0.09784872257259886,40.106058693909645,-92.24360919585227,76.200527287817
2024-09-23 21:43:22.309428,0,54.049071,0.0012436275969465451,-0.02362894446842532,0.09784872257259886,44.11764879391193,-92.24360919585227,76.200527287817
2024-09-23 21:43:22.321566,0,54.049121,0.0005969341946851222,-0.022833026512682618,0.09784872257259886,44.11764879391193,-96.25519929585457,80.21211738781929
2024-09-23 21:43:22.364647,0,54.049213,0.0005969341946851222,-0.022833026512682618,0.09779897304849887,44.11764879391193,-88.23529758782387,76.200527287817
2024-09-23 21:43:22.376646,0,54.049213,0.00024872343554318134,-0.022833026512682618,0.09779897304849887,44.11764879391193,-88.23529758782387,76.200527287817
2024-09-23 21:43:22.409131,0,54.049213,0.00024872343554318134,-0.02362894446842532,0.0973512698629459,44.11764879391193,-88.23529758782387,76.200527287817
2024-09-23 21:43:22.420226,0,54.049308,0.00024872343554318134,-0.02362894446842532,0.0973512698629459,48.12595698684454,-92.24360919585227,76.200527287817
2024-09-23 21:43:22.462773,0,54.049308,0.0010943914612681128,-0.0228827638849692,0.0970030596496862,40.106058693909645,-92.24360919585227,76.200527287817
2024-09-23 21:43:22.474657,0,54.049308,0.0010943914612681128,-0.0228827638849692,0.0970030596496862,40.106058693909645,-92.24360919585227,84.22370748782159
2024-09-23 21:43:22.509086,0,54.04936,0.0005471957306340564,-0.023429960042815445,0.0970030596496862,40.106058693909645,-92.24360919585227,84.22370748782159
2024-09-23 21:43:22.521833,0,54.04936,0.0005471957306340564,-0.023429960042815445,0.09774922960030558,48.12595698684454,-96.25519929585457,84.22370748782159
2024-09-23 21:43:22.554731,0,54.049411,0.0005471957306340564,-0.023429960042815445,0.09774922960030558,48.12595698684454,-96.25519929585457,76.200527287817
2024-09-23 21:43:22.565915,0,54.049411,0.0004974468710863627,-0.023230986250042305,0.09740101331113918,44.11764879391193,-96.25519929585457,76.200527287817
2024-09-23 21:43:22.608929,0,54.049461,0.0004974468710863627,-0.02313149783467906,0.09740101331113918,44.11764879391193,-96.25519929585457,76.200527287817
2024-09-23 21:43:22.621243,0,54.049461,0.0004974468710863627,-0.02313149783467906,0.09750050628343246,44.11764879391193,-96.25519929585457,76.200527287817
2024-09-23 21:43:22.654205,0,54.049461,0.0004974468710863627,-0.02313149783467906,0.09750050628343246,44.11764879391193,-96.25519929585457,76.200527287817
2024-09-23 21:43:22.665801,0,54.049512,0.0011938787373988514,-0.02308174982955575,0.09750050628343246,44.11764879391193,-96.25519929585457,76.200527287817
2024-09-23 21:43:22.708686,0,54.049563,0.0008954064660419869,-0.02308174982955575,0.0973015264147526,40.106058693909645,-92.24360919585227,80.21211738781929
2024-09-23 21:43:22.751405,0,54.049563,0.0008954064660419869,-0.02313149783467906,0.09725178296655933,40.106058693909645,-92.24360919585227,80.21211738781929
2024-09-23 21:43:22.763334,0,54.049649,0.0008954064660419869,-0.02313149783467906,0.09725178296655933,40.106058693909645,-92.24360919585227,80.21211738781929
2024-09-23 21:43:22.805868,0,54.049649,0.0007959191899112484,-0.02293251340906919,0.09779897304849887,40.106058693909645,-88.23529758782387,76.200527287817
2024-09-23 21:43:22.848384,0,54.049701,0.00044769805900669,-0.023330473146428877,0.09779897304849887,40.106058693909645,-88.23529758782387,76.200527287817
2024-09-23 21:43:22.859550,0,54.049701,0.00044769805900669,-0.023330473146428877,0.09720203344245934,44.11764879391193,-92.24360919585227,76.200527287817
2024-09-23 21:43:22.902139,45.09,54.049751,0.0007461703303635545,-0.023280723622328886,0.09740101331113918,44.11764879391193,-92.24360919585227,76.200527287817
2024-09-23 21:43:22.944856,45.09,54.049751,0.0007461703303635545,-0.023280723622328886,0.09740101331113918,44.11764879391193,-96.25519929585457,76.200527287817
2024-09-23 21:43:22.956258,45.09,54.049802,0.0004974468710863627,-0.02313149783467906,0.09779897304849887,44.11764879391193,-96.25519929585457,76.200527287817
2024-09-23 21:43:22.998032,45.09,54.049853,0.0005969341946851222,-0.02313149783467906,0.09779897304849887,40.106058693909645,-88.23529758782387,72.1922225099802
2024-09-23 21:43:23.010175,45.09,54.049853,0.0005969341946851222,-0.02293251340906919,0.09779897304849887,40.106058693909645,-88.23529758782387,72.1922225099802
2024-09-23 21:43:23.042851,45.09,54.049853,0.0005969341946851222,-0.02293251340906919,0.0973015264147526,40.106058693909645,-88.23529758782387,72.1922225099802
2024-09-23 21:43:23.054038,45.09,54.049903,0.0007959191899112484,-0.02293251340906919,0.0973015264147526,40.106058693909645,-92.24360919585227,72.1922225099802
2024-09-23 21:43:23.095922,45.09,54.049903,0.0007959191899112484,-0.02308174982955575,0.0973015264147526,40.106058693909645,-92.24360919585227,72.1922225099802
2024-09-23 21:43:23.137953,45.09,54.049903,0.0007959191899112484,-0.02308174982955575,0.09705279702197278,40.106058693909645,-92.24360919585227,72.1922225099802
2024-09-23 21:43:23.149282,45.09,54.04999,0.001044642601720419,-0.02308174982955575,0.09705279702197278,48.12595698684454,-92.24360919585227,76.200527287817
2024-09-23 21:43:23.192064,45.09,54.04999,0.001044642601720419,-0.023230986250042305,0.09809744588947199,40.106058693909645,-96.25519929585457,76.200527287817
2024-09-23 21:43:23.203167,45.09,54.050042,0.001044642601720419,-0.023230986250042305,0.09809744588947199,40.106058693909645,-96.25519929585457,72.1922225099802
2024-09-23 21:43:23.235306,45.09,54.050042,0.000845657606494293,-0.023230986250042305,0.09809744588947199,40.106058693909645,-96.25519929585457,72.1922225099802
2024-09-23 21:43:23.246752,45.09,54.050042,0.000845657606494293,-0.02303200030545576,0.0976994861521123,40.106058693909645,-100.26678939585686,72.1922225099802
2024-09-23 21:43:23.289879,45.09,54.050093,0.00034821073540793035,-0.02293251340906919,0.09725178296655933,40.106058693909645,-100.26678939585686,72.1922225099802
2024-09-23 21:43:23.301568,45.09,54.050093,0.00034821073540793035,-0.02293251340906919,0.09725178296655933,36.09446859390736,-100.26678939585686,72.1922225099802
2024-09-23 21:43:23.334796,45.09,54.050143,0.00034821073540793035,-0.02293251340906919,0.09725178296655933,36.09446859390736,-100.26678939585686,76.200527287817
2024-09-23 21:43:23.346182,45.09,54.050143,0.000845657606494293,-0.023181236725942318,0.09675432418099966,40.106058693909645,-100.26678939585686,76.200527287817
2024-09-23 21:43:23.387934,45.09,54.050236,0.0009451553255896806,-0.02313149783467906,0.09675432418099966,40.106058693909645,-92.24360919585227,76.200527287817
2024-09-23 21:43:23.400019,45.09,54.050236,0.0009451553255896806,-0.02313149783467906,0.0970030596496862,40.106058693909645,-92.24360919585227,76.200527287817
2024-09-23 21:43:23.432275,45.09,54.050236,0.0009451553255896806,-0.02313149783467906,0.0970030596496862,44.11764879391193,-100.26678939585686,76.200527287817
2024-09-23 21:43:23.443633,45.09,54.050287,0.0009451553255896806,-0.02313149783467906,0.0970030596496862,44.11764879391193,-100.26678939585686,72.1922225099802
2024-09-23 21:43:23.486306,45.09,54.050287,0.0012436275969465451,-0.022833026512682618,0.09755024973162574,44.11764879391193,-96.25519929585457,72.1922225099802
2024-09-23 21:43:23.498361,45.09,54.050287,0.0012436275969465451,-0.022833026512682618,0.09755024973162574,44.11764879391193,-96.25519929585457,80.21211738781929
2024-09-23 21:43:23.530940,45.09,54.050337,0.0009451553255896806,-0.022833026512682618,0.09755024973162574,44.11764879391193,-96.25519929585457,80.21211738781929
2024-09-23 21:43:23.542542,45.09,54.050337,0.0009451553255896806,-0.02338022115155219,0.09779897304849887,40.106058693909645,-92.24360919585227,80.21211738781929
2024-09-23 21:43:23.584329,45.09,54.050429,0.0007461703303635545,-0.023280723622328886,0.0976994861521123,40.106058693909645,-92.24360919585227,76.200527287817
2024-09-23 21:43:23.596003,45.09,54.050429,0.0007461703303635545,-0.023280723622328886,0.0976994861521123,40.106058693909645,-92.24360919585227,76.200527287817
2024-09-23 21:43:23.628088,45.09,54.050429,0.0007461703303635545,-0.023280723622328886,0.0976994861521123,40.106058693909645,-92.24360919585227,68.18063240997792
2024-09-23 21:43:23.639575,45.09,54.050481,0.0007461703303635545,-0.023280723622328886,0.09740101331113918,40.106058693909645,-92.24360919585227,68.18063240997792
2024-09-23 21:43:23.682168,45.09,54.050531,0.0013431148730772837,-0.023230986250042305,0.09740101331113918,44.11764879391193,-100.26678939585686,76.200527287817
2024-09-23 21:43:23.725037,45.09,54.050531,0.0013431148730772837,-0.023230986250042305,0.09784872257259886,36.09446859390736,-100.26678939585686,76.200527287817
2024-09-23 21:43:23.736179,45.09,54.050582,0.001044642601720419,-0.023230986250042305,0.09784872257259886,36.09446859390736,-100.26678939585686,76.200527287817
2024-09-23 21:43:23.779390,45.09,54.050582,0.001044642601720419,-0.023181236725942318,0.09715228999426605,44.11764879391193,-92.24360919585227,72.1922225099802
2024-09-23 21:43:23.791024,45.09,54.050673,0.001044642601720419,-0.023181236725942318,0.09715228999426605,44.11764879391193,-92.24360919585227,72.1922225099802
2024-09-23 21:43:23.823467,45.09,54.050673,0.0008954064660419869,-0.02338022115155219,0.0970030596496862,44.11764879391193,-92.24360919585227,72.1922225099802
2024-09-23 21:43:23.834635,45.09,54.050673,0.0008954064660419869,-0.02338022115155219,0.0970030596496862,44.11764879391193,-92.24360919585227,80.21211738781929
2024-09-23 21:43:23.877957,45.09,54.050725,0.0007959191899112484,-0.022733528983459317,0.09755024973162574,32.08287849390507,-100.26678939585686,80.21211738781929
2024-09-23 21:43:23.921619,45.1,54.050775,0.0004974468710863627,-0.022733528983459317,0.09755024973162574,32.08287849390507,-100.26678939585686,68.18063240997792
2024-09-23 21:43:23.933062,45.1,54.050775,0.0004974468710863627,-0.02338022115155219,0.0976994861521123,32.08287849390507,-100.26678939585686,68.18063240997792
2024-09-23 21:43:23.975761,45.1,54.050826,0.0009948937421727254,-0.023280723622328886,0.0973512698629459,32.08287849390507,-96.25519929585457,76.200527287817
2024-09-23 21:43:24.018936,45.1,54.050826,0.0009948937421727254,-0.023280723622328886,0.0973512698629459,40.106058693909645,-96.25519929585457,80.21211738781929
2024-09-23 21:43:24.031051,45.1,54.050877,0.0013431148730772837,-0.022982261414192504,0.0973512698629459,40.106058693909645,-96.25519929585457,80.21211738781929
2024-09-23 21:43:24.073454,45.1,54.050927,0.0009948937421727254,-0.022982261414192504,0.09759999317981902,44.11764879391193,-96.25519929585457,80.21211738781929
2024-09-23 21:43:24.116613,45.1,54.050927,0.0009948937421727254,-0.023181236725942318,0.0973015264147526,48.12595698684454,-96.25519929585457,80.21211738781929
2024-09-23 21:43:24.128217,45.1,54.051014,0.0009948937421727254,-0.023181236725942318,0.0973015264147526,48.12595698684454,-92.24360919585227,76.200527287817
2024-09-23 21:43:24.161365,45.1,54.051014,0.0006466830067647949,-0.023181236725942318,0.0973015264147526,48.12595698684454,-92.24360919585227,76.200527287817
2024-09-23 21:43:24.173316,45.1,54.051014,0.0006466830067647949,-0.02303200030545576,0.0976994861521123,52.137550501942634,-92.24360919585227,76.200527287817
2024-09-23 21:43:24.215053,45.1,54.051066,0.0006466830067647949,-0.0225345536717095,0.09695331012558621,52.137550501942634,-92.24360919585227,76.200527287817
2024-09-23 21:43:24.226614,45.1,54.051066,0.0006466830067647949,-0.0225345536717095,0.09695331012558621,40.106058693909645,-96.25519929585457,76.200527287817
2024-09-23 21:43:24.260533,45.1,54.051066,0.0006466830067647949,-0.0225345536717095,0.09695331012558621,40.106058693909645,-96.25519929585457,76.200527287817
2024-09-23 21:43:24.272488,45.1,54.051117,0.001044642601720419,-0.023330473146428877,0.09705279702197278,52.137550501942634,-96.25519929585457,76.200527287817
2024-09-23 21:43:24.315241,45.1,54.051167,0.00044769805900669,-0.02293251340906919,0.09705279702197278,52.137550501942634,-92.24360919585227,76.200527287817
2024-09-23 21:43:24.327317,45.1,54.051167,0.00044769805900669,-0.02293251340906919,0.09715228999426605,52.137550501942634,-92.24360919585227,76.200527287817
2024-09-23 21:43:24.360223,45.1,54.051167,0.00044769805900669,-0.02293251340906919,0.09715228999426605,48.12595698684454,-92.24360919585227,76.200527287817
2024-09-23 21:43:24.371942,45.1,54.051218,0.0006964318663124887,-0.022982261414192504,0.09715228999426605,48.12595698684454,-92.24360919585227,76.200527287817
2024-09-23 21:43:24.415500,45.1,54.051218,0.0006964318663124887,-0.022982261414192504,0.09774922960030558,44.11764879391193,-96.25519929585457,76.200527287817
2024-09-23 21:43:24.458271,45.1,54.051268,0.0007959191899112484,-0.022982261414192504,0.09774922960030558,44.11764879391193,-96.25519929585457,80.21211738781929
2024-09-23 21:43:24.471537,45.1,54.051268,0.0007959191899112484,-0.022833026512682618,0.09750050628343246,44.11764879391193,-96.25519929585457,80.21211738781929
2024-09-23 21:43:24.504363,45.1,54.051268,0.0007959191899112484,-0.022833026512682618,0.09750050628343246,48.12595698684454,-96.25519929585457,80.21211738781929
2024-09-23 21:43:24.516440,45.1,54.051356,0.0008954064660419869,-0.02308174982955575,0.09750050628343246,48.12595698684454,-88.23529758782387,80.21211738781929
2024-09-23 21:43:24.559889,45.1,54.051407,0.000845657606494293,-0.02308174982955575,0.09824668230995855,32.08287849390507,-92.24360919585227,76.200527287817
2024-09-23 21:43:24.602119,45.1,54.051407,0.000845657606494293,-0.02338022115155219,0.09764974270391902,32.08287849390507,-92.24360919585227,76.200527287817
2024-09-23 21:43:24.613606,45.1,54.051458,0.000845657606494293,-0.02338022115155219,0.09764974270391902,40.106058693909645,-92.24360919585227,76.200527287817
2024-09-23 21:43:24.656054,45.1,54.051458,0.0011441298778511575,-0.023181236725942318,0.09784872257259886,48.12595698684454,-88.23529758782387,76.200527287817
2024-09-23 21:43:24.667683,45.1,54.051458,0.0011441298778511575,-0.023181236725942318,0.09784872257259886,48.12595698684454,-88.23529758782387,72.1922225099802
2024-09-23 21:43:24.699546,45.1,54.051551,0.000845657606494293,-0.023181236725942318,0.09784872257259886,48.12595698684454,-88.23529758782387,72.1922225099802
2024-09-23 21:43:24.710714,45.1,54.051551,0.000845657606494293,-0.02303200030545576,0.09740101331113918,44.11764879391193,-96.25519929585457,72.1922225099802
2024-09-23 21:43:24.753715,45.1,54.051602,0.0007959191899112484,-0.02308174982955575,0.09745075675933246,44.11764879391193,-96.25519929585457,72.1922225099802
2024-09-23 21:43:24.765895,45.1,54.051602,0.0007959191899112484,-0.02308174982955575,0.09745075675933246,44.11764879391193,-96.25519929585457,72.1922225099802
2024-09-23 21:43:24.799364,45.1,54.051653,0.0007959191899112484,-0.02308174982955575,0.09745075675933246,44.11764879391193,-100.26678939585686,72.1922225099802
2024-09-23 21:43:24.810638,45.1,54.051653,0.000845657606494293,-0.0228827638849692,0.0976994861521123,44.11764879391193,-100.26678939585686,72.1922225099802
2024-09-23 21:43:24.852998,45.1,54.051703,0.0004974468710863627,-0.02313149783467906,0.0976994861521123,36.09446859390736,-100.26678939585686,68.18063240997792
2024-09-23 21:43:24.895594,45.1,54.051703,0.0004974468710863627,-0.02313149783467906,0.09745075675933246,44.11764879391193,-100.26678939585686,68.18063240997792
2024-09-23 21:43:24.907622,45.1,54.051754,0.0006964318663124887,-0.02313149783467906,0.09745075675933246,44.11764879391193,-100.26678939585686,72.1922225099802
2024-09-23 21:43:24.950763,44.64,54.051843,0.0006964318663124887,-0.02293251340906919,0.098047696365372,40.106058693909645,-92.24360919585227,84.22370748782159
2024-09-23 21:43:24.993761,44.64,54.051843,0.00024872343554318134,-0.02293251340906919,0.09725178296655933,40.106058693909645,-92.24360919585227,84.22370748782159
2024-09-23 21:43:25.004821,44.64,54.051843,0.00024872343554318134,-0.02293251340906919,0.09725178296655933,40.106058693909645,-92.24360919585227,84.22370748782159
2024-09-23 21:43:25.047606,44.64,54.051895,0.0010943914612681128,-0.022833026512682618,0.09794820946898543,40.106058693909645,-96.25519929585457,84.22370748782159
2024-09-23 21:43:25.090385,44.64,54.051945,0.0010943914612681128,-0.022833026512682618,0.09794820946898543,40.106058693909645,-96.25519929585457,80.21211738781929
2024-09-23 21:43:25.101748,44.64,54.051945,0.0005969341946851222,-0.02313149783467906,0.09774922960030558,44.11764879391193,-96.25519929585457,80.21211738781929
2024-09-23 21:43:25.143730,44.64,54.051996,0.0004974468710863627,-0.023230986250042305,0.09774922960030558,44.11764879391193,-92.24360919585227,76.200527287817
2024-09-23 21:43:25.156135,44.64,54.051996,0.0004974468710863627,-0.023230986250042305,0.09750050628343246,44.11764879391193,-92.24360919585227,76.200527287817
2024-09-23 21:43:25.189738,44.64,54.051996,0.0004974468710863627,-0.023230986250042305,0.09750050628343246,48.12595698684454,-96.25519929585457,80.21211738781929
2024-09-23 21:43:25.201622,44.64,54.052047,0.0007461703303635545,-0.02293251340906919,0.09750050628343246,48.12595698684454,-96.25519929585457,80.21211738781929
2024-09-23 21:43:25.234710,44.64,54.052047,0.0007461703303635545,-0.02293251340906919,0.09750050628343246,48.12595698684454,-96.25519929585457,80.21211738781929
2024-09-23 21:43:25.246446,44.64,54.052097,0.0005471957306340564,-0.02293251340906919,0.09750050628343246,48.12595698684454,-92.24360919585227,72.1922225099802
2024-09-23 21:43:25.289847,44.64,54.052097,0.0005471957306340564,-0.02308174982955575,0.09720203344245934,44.11764879391193,-92.24360919585227,72.1922225099802
2024-09-23 21:43:25.302043,44.64,54.052184,0.0005471957306340564,-0.02308174982955575,0.09720203344245934,44.11764879391193,-92.24360919585227,72.1922225099802
2024-09-23 21:43:25.333911,44.64,54.052184,0.0004974468710863627,-0.02362894446842532,0.09720203344245934,44.11764879391193,-92.24360919585227,72.1922225099802
2024-09-23 21:43:25.345827,44.64,54.052184,0.0004974468710863627,-0.02362894446842532,0.09755024973162574,44.11764879391193,-96.25519929585457,68.18063240997792
2024-09-23 21:43:25.389343,44.64,54.052236,0.0006964318663124887,-0.022833026512682618,0.09764974270391902,44.11764879391193,-96.25519929585457,68.18063240997792
2024-09-23 21:43:25.432778,44.64,54.052287,0.00034821073540793035,-0.022833026512682618,0.09764974270391902,44.11764879391193,-96.25519929585457,76.200527287817
2024-09-23 21:43:25.444229,44.64,54.052287,0.00034821073540793035,-0.022236080830736384,0.09774922960030558,36.09446859390736,-96.25519929585457,76.200527287817
2024-09-23 21:43:25.487119,44.64,54.052337,0.0005471957306340564,-0.02308174982955575,0.09695331012558621,36.09446859390736,-96.25519929585457,76.200527287817
2024-09-23 21:43:25.531209,44.64,54.052337,0.0005471957306340564,-0.02308174982955575,0.09695331012558621,56.14914060194492,-100.26678939585686,68.18063240997792
2024-09-23 21:43:25.542667,44.64,54.052388,0.0010943914612681128,-0.023230986250042305,0.09695331012558621,56.14914060194492,-100.26678939585686,68.18063240997792
2024-09-23 21:43:25.575799,44.64,54.052388,0.0010943914612681128,-0.023230986250042305,0.09784872257259886,56.14914060194492,-100.26678939585686,68.18063240997792
2024-09-23 21:43:25.586775,44.64,54.052439,0.0007461703303635545,-0.023230986250042305,0.09784872257259886,44.11764879391193,-100.26678939585686,76.200527287817
2024-09-23 21:43:25.629100,44.64,54.052439,0.0007461703303635545,-0.02303200030545576,0.09740101331113918,48.12595698684454,-96.25519929585457,76.200527287817
2024-09-23 21:43:25.640767,44.64,54.052526,0.0007461703303635545,-0.02303200030545576,0.09740101331113918,48.12595698684454,-96.25519929585457,76.200527287817
2024-09-23 21:43:25.672629,44.64,54.052526,0.0007461703303635545,-0.02303200030545576,0.09740101331113918,48.12595698684454,-96.25519929585457,76.200527287817
2024-09-23 21:43:25.684647,44.64,54.052526,0.0007461703303635545,-0.022733528983459317,0.09695331012558621,48.12595698684454,-92.24360919585227,72.1922225099802
2024-09-23 21:43:25.728185,44.64,54.052577,0.0005471957306340564,-0.023579196463302005,0.0976994861521123,48.12595698684454,-92.24360919585227,72.1922225099802
2024-09-23 21:43:25.741120,44.64,54.052577,0.0005471957306340564,-0.023579196463302005,0.0976994861521123,40.106058693909645,-92.24360919585227,72.1922225099802
2024-09-23 21:43:25.773108,44.64,54.052628,0.0010943914612681128,-0.023579196463302005,0.0976994861521123,40.106058693909645,-92.24360919585227,76.200527287817
2024-09-23 21:43:25.785385,44.64,54.052628,0.0010943914612681128,-0.02308174982955575,0.09755024973162574,44.11764879391193,-92.24360919585227,76.200527287817
2024-09-23 21:43:25.828259,44.64,54.052678,0.0005471957306340564,-0.02278327698858263,0.0973015264147526,44.11764879391193,-88.23529758782387,76.200527287817
2024-09-23 21:43:25.871532,44.64,54.052678,0.0005471957306340564,-0.02278327698858263,0.0973015264147526,32.08287849390507,-84.22370748782159,84.22370748782159
2024-09-23 21:43:25.883238,44.64,54.052729,0.0008954064660419869,-0.023280723622328886,0.0973015264147526,32.08287849390507,-84.22370748782159,84.22370748782159
2024-09-23 21:43:25.926109,44.64,54.05278,0.0008954064660419869,-0.023280723622328886,0.09705279702197278,44.11764879391193,-88.23529758782387,80.21211738781929
2024-09-23 21:43:25.968887,44.29,54.05278,0.0008954064660419869,-0.02303200030545576,0.09759999317981902,44.11764879391193,-88.23529758782387,80.21211738781929
2024-09-23 21:43:25.980394,44.29,54.052867,0.0008954064660419869,-0.02303200030545576,0.09759999317981902,44.11764879391193,-96.25519929585457,84.22370748782159
2024-09-23 21:43:26.023363,44.29,54.052867,0.0011938787373988514,-0.02352945757203875,0.09680407370509965,40.106058693909645,-96.25519929585457,76.200527287817
2024-09-23 21:43:26.065736,44.29,54.052918,0.0005969341946851222,-0.02338022115155219,0.09680407370509965,40.106058693909645,-96.25519929585457,76.200527287817
2024-09-23 21:43:26.076916,44.29,54.052918,0.0005969341946851222,-0.02338022115155219,0.09774922960030558,48.12595698684454,-96.25519929585457,76.200527287817
2024-09-23 21:43:26.121068,44.29,54.052969,0.0006964318663124887,-0.023181236725942318,0.09759999317981902,44.11764879391193,-96.25519929585457,80.21211738781929
2024-09-23 21:43:26.164772,44.29,54.05302,0.0006964318663124887,-0.023181236725942318,0.09759999317981902,44.11764879391193,-96.25519929585457,80.21211738781929
2024-09-23 21:43:26.176471,44.29,54.05302,0.0014923510087557158,-0.023280723622328886,0.09789846602079214,44.11764879391193,-96.25519929585457,80.21211738781929
2024-09-23 21:43:26.208806,44.29,54.05302,0.0014923510087557158,-0.023280723622328886,0.09789846602079214,48.12595698684454,-96.25519929585457,80.21211738781929
2024-09-23 21:43:26.220215,44.29,54.053071,0.000845657606494293,-0.02338022115155219,0.09789846602079214,48.12595698684454,-92.24360919585227,76.200527287817
2024-09-23 21:43:26.262284,44.29,54.053071,0.000845657606494293,-0.02338022115155219,0.09799795899308542,44.11764879391193,-88.23529758782387,76.200527287817
2024-09-23 21:43:26.274342,44.29,54.053121,0.0005969341946851222,-0.02338022115155219,0.09799795899308542,44.11764879391193,-88.23529758782387,76.200527287817
2024-09-23 21:43:26.306789,44.29,54.053121,0.0005969341946851222,-0.023181236725942318,0.09799795899308542,44.11764879391193,-88.23529758782387,76.200527287817
2024-09-23 21:43:26.318024,44.29,54.053208,0.0005969341946851222,-0.023181236725942318,0.09740101331113918,52.137550501942634,-92.24360919585227,76.200527287817
2024-09-23 21:43:26.359929,44.29,54.053208,0.0007461703303635545,-0.02278327698858263,0.09740101331113918,52.137550501942634,-92.24360919585227,76.200527287817
2024-09-23 21:43:26.371018,44.29,54.053208,0.0007461703303635545,-0.02278327698858263,0.09740101331113918,48.12595698684454,-92.24360919585227,76.200527287817
2024-09-23 21:43:26.414341,44.29,54.05326,0.0006466830067647949,-0.023181236725942318,0.09774922960030558,48.12595698684454,-92.24360919585227,76.200527287817
2024-09-23 21:43:26.457050,44.29,54.05331,0.0006466830067647949,-0.023181236725942318,0.09774922960030558,48.12595698684454,-92.24360919585227,68.18063240997792
2024-09-23 21:43:26.468187,44.29,54.05331,0.0006466830067647949,-0.02293251340906919,0.09764974270391902,44.11764879391193,-92.24360919585227,68.18063240997792
2024-09-23 21:43:26.510813,44.29,54.053361,0.00024872343554318134,-0.023181236725942318,0.09799795899308542,44.11764879391193,-100.26678939585686,68.18063240997792
2024-09-23 21:43:26.553539,44.29,54.053361,0.00024872343554318134,-0.023181236725942318,0.09799795899308542,48.12595698684454,-100.26678939585686,68.18063240997792
2024-09-23 21:43:26.605942,44.29,54.053412,0.0003979595949556242,-0.0228827638849692,0.09799795899308542,48.12595698684454,-96.25519929585457,72.1922225099802
2024-09-23 21:43:26.616935,44.29,54.053412,0.0003979595949556242,-0.0228827638849692,0.0973015264147526,48.12595698684454,-96.25519929585457,72.1922225099802
2024-09-23 21:43:26.650262,44.29,54.053412,0.0003979595949556242,-0.0228827638849692,0.0973015264147526,40.106058693909645,-88.23529758782387,72.1922225099802
2024-09-23 21:43:26.661572,44.29,54.053462,0.0004974468710863627,-0.023330473146428877,0.0973015264147526,40.106058693909645,-88.23529758782387,72.1922225099802
2024-09-23 21:43:26.703537,44.29,54.053549,0.0004974468710863627,-0.023330473146428877,0.09764974270391902,44.11764879391193,-96.25519929585457,76.200527287817
2024-09-23 21:43:26.715415,44.29,54.053549,0.0006964318663124887,-0.023330473146428877,0.09764974270391902,44.11764879391193,-96.25519929585457,76.200527287817
2024-09-23 21:43:26.747301,44.29,54.053549,0.0006964318663124887,-0.02303200030545576,0.09740101331113918,44.11764879391193,-96.25519929585457,76.200527287817
2024-09-23 21:43:26.758502,44.29,54.053601,0.0006964318663124887,-0.02303200030545576,0.09740101331113918,44.11764879391193,-96.25519929585457,76.200527287817
2024-09-23 21:43:26.800513,44.29,54.053601,0.0006466830067647949,-0.022982261414192504,0.0973015264147526,48.12595698684454,-92.24360919585227,76.200527287817
2024-09-23 21:43:26.812162,44.29,54.053601,0.0006466830067647949,-0.022982261414192504,0.0973015264147526,48.12595698684454,-92.24360919585227,76.200527287817
2024-09-23 21:43:26.844303,44.29,54.053696,0.0006466830067647949,-0.022982261414192504,0.0973015264147526,48.12595698684454,-92.24360919585227,76.200527287817
2024-09-23 21:43:26.856187,44.29,54.053696,0.0003979595949556242,-0.022982261414192504,0.09750050628343246,40.106058693909645,-96.25519929585457,76.200527287817
2024-09-23 21:43:26.899514,44.29,54.053747,0.0006964318663124887,-0.023181236725942318,0.09745075675933246,40.106058693909645,-96.25519929585457,80.21211738781929
2024-09-23 21:43:26.942313,44.29,54.053747,0.0006964318663124887,-0.023181236725942318,0.09745075675933246,40.106058693909645,-92.24360919585227,76.200527287817
2024-09-23 21:43:26.954082,44.29,54.053798,0.0010943914612681128,-0.02278327698858263,0.09720203344245934,40.106058693909645,-92.24360919585227,76.200527287817
2024-09-23 21:43:26.997199,43.99,54.053849,0.0008954064660419869,-0.023181236725942318,0.09720203344245934,40.106058693909645,-92.24360919585227,76.200527287817
2024-09-23 21:43:27.040112,43.99,54.053849,0.0008954064660419869,-0.023181236725942318,0.09819693278585856,44.11764879391193,-92.24360919585227,76.200527287817
2024-09-23 21:43:27.051375,43.99,54.053899,0.0009948937421727254,-0.023181236725942318,0.09819693278585856,44.11764879391193,-92.24360919585227,80.21211738781929
2024-09-23 21:43:27.094007,43.99,54.053899,0.0009948937421727254,-0.02268379009219606,0.09794820946898543,44.11764879391193,-92.24360919585227,72.1922225099802
2024-09-23 21:43:27.105819,43.99,54.053988,0.0009948937421727254,-0.02268379009219606,0.09794820946898543,44.11764879391193,-92.24360919585227,72.1922225099802
2024-09-23 21:43:27.139120,43.99,54.053988,0.0006964318663124887,-0.0228827638849692,0.0976994861521123,44.11764879391193,-92.24360919585227,72.1922225099802
2024-09-23 21:43:27.150488,43.99,54.053988,0.0006964318663124887,-0.0228827638849692,0.0976994861521123,44.11764879391193,-96.25519929585457,80.21211738781929
2024-09-23 21:43:27.193359,43.99,54.05404,0.00034821073540793035,-0.02338022115155219,0.09764974270391902,44.11764879391193,-96.25519929585457,80.21211738781929
2024-09-23 21:43:27.235674,43.99,54.05409,0.0011441298778511575,-0.02338022115155219,0.09764974270391902,44.11764879391193,-96.25519929585457,80.21211738781929
2024-09-23 21:43:27.249904,43.99,54.05409,0.0011441298778511575,-0.023579196463302005,0.0973512698629459,40.106058693909645,-96.25519929585457,80.21211738781929
2024-09-23 21:43:27.283184,43.99,54.05409,0.0011441298778511575,-0.023579196463302005,0.0973512698629459,40.106058693909645,-96.25519929585457,76.200527287817
2024-09-23 21:43:27.294550,43.99,54.054141,0.0008954064660419869,-0.023230986250042305,0.09750050628343246,40.106058693909645,-96.25519929585457,76.200527287817
2024-09-23 21:43:27.336963,43.99,54.054192,0.0008954064660419869,-0.023230986250042305,0.09750050628343246,36.09446859390736,-96.25519929585457,72.1922225099802
2024-09-23 21:43:27.349777,43.99,54.054192,0.0006964318663124887,-0.02303200030545576,0.09750050628343246,36.09446859390736,-96.25519929585457,72.1922225099802
2024-09-23 21:43:27.383331,43.99,54.054192,0.0006964318663124887,-0.02303200030545576,0.09764974270391902,48.12595698684454,-92.24360919585227,72.1922225099802
2024-09-23 21:43:27.394448,43.99,54.054242,0.0009451553255896806,-0.02303200030545576,0.09764974270391902,48.12595698684454,-92.24360919585227,76.200527287817
2024-09-23 21:43:27.436910,43.99,54.05433,0.0009451553255896806,-0.023330473146428877,0.0973015264147526,44.11764879391193,-92.24360919585227,84.22370748782159
2024-09-23 21:43:27.480739,43.99,54.05433,0.0007461703303635545,-0.023230986250042305,0.09745075675933246,44.11764879391193,-92.24360919585227,84.22370748782159
2024-09-23 21:43:27.492882,43.99,54.05433,0.0007461703303635545,-0.023230986250042305,0.09745075675933246,40.106058693909645,-92.24360919585227,76.200527287817
2024-09-23 21:43:27.525368,43.99,54.054381,0.0007461703303635545,-0.023230986250042305,0.09745075675933246,40.106058693909645,-92.24360919585227,76.200527287817
2024-09-23 21:43:27.537412,43.99,54.054381,0.000845657606494293,-0.02338022115155219,0.0973512698629459,48.12595698684454,-96.25519929585457,76.200527287817
2024-09-23 21:43:27.580212,43.99,54.054432,0.00044769805900669,-0.023579196463302005,0.0973512698629459,48.12595698684454,-96.25519929585457,72.1922225099802
2024-09-23 21:43:27.591839,43.99,54.054432,0.00044769805900669,-0.023579196463302005,0.09740101331113918,40.106058693909645,-96.25519929585457,72.1922225099802
2024-09-23 21:43:27.624950,43.99,54.054432,0.00044769805900669,-0.023579196463302005,0.09740101331113918,40.106058693909645,-92.24360919585227,72.1922225099802
2024-09-23 21:43:27.636677,43.99,54.054482,0.0005969341946851222,-0.02278327698858263,0.09740101331113918,40.106058693909645,-92.24360919585227,72.1922225099802
2024-09-23 21:43:27.678522,43.99,54.054533,0.00029846189959424716,-0.02278327698858263,0.09740101331113918,48.12595698684454,-84.22370748782159,76.200527287817
2024-09-23 21:43:27.690162,43.99,54.054533,0.00029846189959424716,-0.02303200030545576,0.09740101331113918,48.12595698684454,-84.22370748782159,76.200527287817
2024-09-23 21:43:27.722546,43.99,54.054533,0.00029846189959424716,-0.02303200030545576,0.0973512698629459,48.12595698684454,-84.22370748782159,76.200527287817
2024-09-23 21:43:27.777483,43.99,54.054584,0.0003979595949556242,-0.023280723622328886,0.0973512698629459,48.12595698684454,-96.25519929585457,76.200527287817
2024-09-23 21:43:27.789468,43.99,54.054584,0.0003979595949556242,-0.023280723622328886,0.0973015264147526,48.12595698684454,-96.25519929585457,76.200527287817
2024-09-23 21:43:27.822252,43.99,54.054584,0.0003979595949556242,-0.023280723622328886,0.0973015264147526,36.09446859390736,-96.25519929585457,68.18063240997792
2024-09-23 21:43:27.833658,43.99,54.054671,0.0003979595949556242,-0.02313149783467906,0.0973015264147526,36.09446859390736,-96.25519929585457,68.18063240997792
2024-09-23 21:43:27.866363,43.99,54.054671,0.0003979595949556242,-0.02313149783467906,0.09720203344245934,36.09446859390736,-96.25519929585457,68.18063240997792
2024-09-23 21:43:27.877400,43.99,54.054722,0.0007959191899112484,-0.02313149783467906,0.09720203344245934,36.09446859390736,-96.25519929585457,76.200527287817
2024-09-23 21:43:27.920491,43.99,54.054722,0.0007959191899112484,-0.02303200030545576,0.09755024973162574,36.09446859390736,-92.24360919585227,76.200527287817
2024-09-23 21:43:27.933313,43.99,54.054773,0.0007959191899112484,-0.02303200030545576,0.09755024973162574,36.09446859390736,-92.24360919585227,76.200527287817
2024-09-23 21:43:27.965476,43.99,54.054773,0.0006466830067647949,-0.02303200030545576,0.09755024973162574,36.09446859390736,-92.24360919585227,76.200527287817
2024-09-23 21:43:27.977412,43.99,54.054773,0.0006466830067647949,-0.02303200030545576,0.09685382322919964,36.09446859390736,-88.23529758782387,80.21211738781929
2024-09-23 21:43:28.020067,44.31,54.054866,0.0006964318663124887,-0.022833026512682618,0.09779897304849887,44.11764879391193,-88.23529758782387,80.21211738781929
2024-09-23 21:43:28.032011,44.31,54.054866,0.0006964318663124887,-0.022833026512682618,0.09779897304849887,44.11764879391193,-92.24360919585227,80.21211738781929
2024-09-23 21:43:28.063788,44.31,54.054917,0.0006964318663124887,-0.022833026512682618,0.09779897304849887,44.11764879391193,-92.24360919585227,72.1922225099802
2024-09-23 21:43:28.075605,44.31,54.054917,0.0001989745997294981,-0.02362894446842532,0.09755024973162574,44.11764879391193,-92.24360919585227,72.1922225099802
2024-09-23 21:43:28.118328,44.31,54.054968,0.0008954064660419869,-0.02268379009219606,0.0973512698629459,44.11764879391193,-92.24360919585227,72.1922225099802
2024-09-23 21:43:28.161470,44.31,54.054968,0.0008954064660419869,-0.02268379009219606,0.0973512698629459,36.09446859390736,-104.27510100388527,72.1922225099802
2024-09-23 21:43:28.172988,44.31,54.055019,0.0009948937421727254,-0.02362894446842532,0.0973512698629459,36.09446859390736,-104.27510100388527,72.1922225099802
2024-09-23 21:43:28.218608,44.31,54.055069,0.0009948937421727254,-0.02362894446842532,0.09750050628343246,44.11764879391193,-96.25519929585457,76.200527287817
2024-09-23 21:43:28.230122,44.31,54.055069,0.0009948937421727254,-0.02362894446842532,0.09750050628343246,44.11764879391193,-96.25519929585457,76.200527287817
2024-09-23 21:43:28.262890,44.31,54.055069,0.0009948937421727254,-0.023479709566915436,0.09745075675933246,40.106058693909645,-96.25519929585457,76.200527287817
2024-09-23 21:43:28.274571,44.31,54.055158,0.0009948937421727254,-0.023479709566915436,0.09745075675933246,40.106058693909645,-96.25519929585457,76.200527287817
2024-09-23 21:43:28.306763,44.31,54.055158,0.0010943914612681128,-0.02367869399252531,0.09745075675933246,40.106058693909645,-96.25519929585457,76.200527287817
2024-09-23 21:43:28.318428,44.31,54.055158,0.0010943914612681128,-0.02367869399252531,0.09725178296655933,32.08287849390507,-100.26678939585686,76.200527287817
2024-09-23 21:43:28.360816,44.31,54.05521,0.0006964318663124887,-0.02293251340906919,0.0973015264147526,32.08287849390507,-100.26678939585686,76.200527287817
2024-09-23 21:43:28.372890,44.31,54.05521,0.0006964318663124887,-0.02293251340906919,0.0973015264147526,44.11764879391193,-96.25519929585457,76.200527287817
2024-09-23 21:43:28.405807,44.31,54.05526,0.0006964318663124887,-0.02293251340906919,0.0973015264147526,44.11764879391193,-96.25519929585457,80.21211738781929
2024-09-23 21:43:28.417052,44.31,54.05526,0.000845657606494293,-0.02352945757203875,0.09740101331113918,40.106058693909645,-96.25519929585457,80.21211738781929
2024-09-23 21:43:28.460395,44.31,54.055311,-0.00029846189959424716,-0.023330473146428877,0.09715228999426605,40.106058693909645,-100.26678939585686,80.21211738781929
2024-09-23 21:43:28.502395,44.31,54.055311,-0.00029846189959424716,-0.023330473146428877,0.09715228999426605,40.106058693909645,-96.25519929585457,80.21211738781929
2024-09-23 21:43:28.514631,44.31,54.055362,0.0009451553255896806,-0.023181236725942318,0.09715228999426605,40.106058693909645,-96.25519929585457,80.21211738781929
2024-09-23 21:43:28.558217,44.31,54.055412,0.0012436275969465451,-0.023181236725942318,0.09755024973162574,44.11764879391193,-92.24360919585227,80.21211738781929
2024-09-23 21:43:28.601455,44.31,54.055412,0.0012436275969465451,-0.023728432883788564,0.09750050628343246,44.11764879391193,-92.24360919585227,80.21211738781929
2024-09-23 21:43:28.612937,44.31,54.055499,0.0012436275969465451,-0.023728432883788564,0.09750050628343246,44.11764879391193,-96.25519929585457,76.200527287817
2024-09-23 21:43:28.656414,44.31,54.055499,0.0005969341946851222,-0.023429960042815445,0.0973015264147526,40.106058693909645,-96.25519929585457,80.21211738781929
2024-09-23 21:43:28.698680,44.31,54.055551,0.00034821073540793035,-0.02303200030545576,0.0973015264147526,40.106058693909645,-96.25519929585457,80.21211738781929
2024-09-23 21:43:28.710561,44.31,54.055551,0.00034821073540793035,-0.02303200030545576,0.09755024973162574,32.08287849390507,-100.26678939585686,80.21211738781929
2024-09-23 21:43:28.752391,44.31,54.055602,0.0007959191899112484,-0.023280723622328886,0.09725178296655933,44.11764879391193,-100.26678939585686,76.200527287817
2024-09-23 21:43:28.795557,44.31,54.055602,0.0007959191899112484,-0.023280723622328886,0.09725178296655933,44.11764879391193,-92.24360919585227,80.21211738781929
2024-09-23 21:43:28.807185,44.31,54.055653,0.0006964318663124887,-0.02303200030545576,0.0970030596496862,44.11764879391193,-92.24360919585227,80.21211738781929
2024-09-23 21:43:28.849405,44.31,54.055703,0.0004974468710863627,-0.02303200030545576,0.0970030596496862,48.12595698684454,-96.25519929585457,84.22370748782159
2024-09-23 21:43:28.861105,44.31,54.055703,0.0004974468710863627,-0.022584292562972758,0.0970030596496862,48.12595698684454,-96.25519929585457,84.22370748782159
2024-09-23 21:43:28.893852,44.31,54.055703,0.0004974468710863627,-0.022584292562972758,0.09764974270391902,52.137550501942634,-96.25519929585457,84.22370748782159
2024-09-23 21:43:28.904971,44.31,54.055754,0.0009451553255896806,-0.022584292562972758,0.09764974270391902,52.137550501942634,-96.25519929585457,80.21211738781929
2024-09-23 21:43:28.947059,44.31,54.055841,0.0009451553255896806,-0.02278327698858263,0.09789846602079214,44.11764879391193,-92.24360919585227,76.200527287817
2024-09-23 21:43:28.989910,44.31,54.055841,0.0010943914612681128,-0.022833026512682618,0.09789846602079214,44.11764879391193,-92.24360919585227,76.200527287817
2024-09-23 21:43:29.001855,44.31,54.055841,0.0010943914612681128,-0.022833026512682618,0.09665483728461309,44.11764879391193,-100.26678939585686,76.200527287817
2024-09-23 21:43:29.044344,44.12,54.055892,0.0003979595949556242,-0.02268379009219606,0.09745075675933246,44.11764879391193,-100.26678939585686,76.200527287817
2024-09-23 21:43:29.056220,44.12,54.055892,0.0003979595949556242,-0.02268379009219606,0.09745075675933246,44.11764879391193,-92.24360919585227,76.200527287817
2024-09-23 21:43:29.088574,44.12,54.055943,0.0012933660135295898,-0.02268379009219606,0.09745075675933246,44.11764879391193,-92.24360919585227,76.200527287817
2024-09-23 21:43:29.100398,44.12,54.055943,0.0012933660135295898,-0.02352945757203875,0.09764974270391902,40.106058693909645,-92.24360919585227,76.200527287817
2024-09-23 21:43:29.143413,44.12,54.055993,0.000845657606494293,-0.023181236725942318,0.09784872257259886,40.106058693909645,-96.25519929585457,76.200527287817
2024-09-23 21:43:29.186301,44.12,54.055993,0.000845657606494293,-0.023181236725942318,0.09784872257259886,40.106058693909645,-100.26678939585686,72.1922225099802
2024-09-23 21:43:29.197917,44.12,54.056044,0.0005471957306340564,-0.022733528983459317,0.09784872257259886,40.106058693909645,-100.26678939585686,72.1922225099802
2024-09-23 21:43:29.241977,44.12,54.056095,0.0009451553255896806,-0.022733528983459317,0.09799795899308542,40.106058693909645,-100.26678939585686,72.1922225099802
2024-09-23 21:43:29.285474,44.12,54.056095,0.0009451553255896806,-0.02303200030545576,0.09755024973162574,44.11764879391193,-96.25519929585457,72.1922225099802
2024-09-23 21:43:29.297398,44.12,54.056182,0.0009451553255896806,-0.02303200030545576,0.09755024973162574,44.11764879391193,-96.25519929585457,76.200527287817
2024-09-23 21:43:29.329002,44.12,54.056182,0.0008954064660419869,-0.02303200030545576,0.09755024973162574,44.11764879391193,-96.25519929585457,76.200527287817
2024-09-23 21:43:29.340410,44.12,54.056182,0.0008954064660419869,-0.022982261414192504,0.09740101331113918,36.09446859390736,-96.25519929585457,76.200527287817
2024-09-23 21:43:29.383361,44.12,54.056233,0.0005969341946851222,-0.02313149783467906,0.09745075675933246,36.09446859390736,-96.25519929585457,76.200527287817
2024-09-23 21:43:29.395151,44.12,54.056233,0.0005969341946851222,-0.02313149783467906,0.09745075675933246,48.12595698684454,-96.25519929585457,76.200527287817
2024-09-23 21:43:29.427812,44.12,54.056233,0.0005969341946851222,-0.02313149783467906,0.09745075675933246,48.12595698684454,-96.25519929585457,80.21211738781929
2024-09-23 21:43:29.438986,44.12,54.056284,0.0006964318663124887,-0.022584292562972758,0.09759999317981902,52.137550501942634,-96.25519929585457,80.21211738781929
2024-09-23 21:43:29.481470,44.12,54.056335,0.000845657606494293,-0.023429960042815445,0.09759999317981902,52.137550501942634,-96.25519929585457,72.1922225099802
2024-09-23 21:43:29.493772,44.12,54.056335,0.000845657606494293,-0.023429960042815445,0.09784872257259886,52.137550501942634,-96.25519929585457,72.1922225099802
2024-09-23 21:43:29.526396,44.12,54.056335,0.000845657606494293,-0.023429960042815445,0.09784872257259886,52.137550501942634,-96.25519929585457,72.1922225099802
2024-09-23 21:43:29.537723,44.12,54.056385,0.0011938787373988514,-0.023280723622328886,0.09784872257259886,52.137550501942634,-96.25519929585457,76.200527287817
2024-09-23 21:43:29.580101,44.12,54.056436,0.0011938787373988514,-0.023280723622328886,0.09764974270391902,40.106058693909645,-88.23529758782387,76.200527287817
2024-09-23 21:43:29.592232,44.12,54.056436,0.0009948937421727254,-0.023280723622328886,0.09764974270391902,40.106058693909645,-88.23529758782387,76.200527287817
2024-09-23 21:43:29.624379,44.12,54.056436,0.0009948937421727254,-0.022833026512682618,0.09764974270391902,40.106058693909645,-88.23529758782387,76.200527287817
2024-09-23 21:43:29.677454,44.12,54.056523,0.0009948937421727254,-0.022833026512682618,0.09764974270391902,40.106058693909645,-100.26678939585686,72.1922225099802
2024-09-23 21:43:29.689564,44.12,54.056523,0.0008954064660419869,-0.022833026512682618,0.09764974270391902,40.106058693909645,-100.26678939585686,72.1922225099802
2024-09-23 21:43:29.721118,44.12,54.056523,0.0008954064660419869,-0.023429960042815445,0.0973512698629459,40.106058693909645,-100.26678939585686,72.1922225099802
2024-09-23 21:43:29.733130,44.12,54.056575,0.0008954064660419869,-0.023429960042815445,0.0973512698629459,48.12595698684454,-92.24360919585227,72.1922225099802
2024-09-23 21:43:29.776311,44.12,54.056575,0.0005969341946851222,-0.02313149783467906,0.0976994861521123,36.09446859390736,-92.24360919585227,72.1922225099802
2024-09-23 21:43:29.818202,44.12,54.056625,0.0011938787373988514,-0.02313149783467906,0.0976994861521123,36.09446859390736,-92.24360919585227,72.1922225099802
2024-09-23 21:43:29.829658,44.12,54.056625,0.0011938787373988514,-0.022982261414192504,0.09764974270391902,44.11764879391193,-92.24360919585227,72.1922225099802
2024-09-23 21:43:29.871948,44.12,54.056676,0.0008954064660419869,-0.023230986250042305,0.09715228999426605,44.11764879391193,-92.24360919585227,76.200527287817
2024-09-23 21:43:29.884226,44.12,54.056676,0.0008954064660419869,-0.023230986250042305,0.09715228999426605,48.12595698684454,-92.24360919585227,76.200527287817
2024-09-23 21:43:29.916147,44.12,54.056676,0.0008954064660419869,-0.023230986250042305,0.09715228999426605,48.12595698684454,-96.25519929585457,76.200527287817
2024-09-23 21:43:29.927705,44.12,54.056769,0.000845657606494293,-0.023230986250042305,0.09715228999426605,48.12595698684454,-96.25519929585457,76.200527287817
2024-09-23 21:43:29.970061,44.12,54.056769,0.000845657606494293,-0.02278327698858263,0.09705279702197278,36.09446859390736,-100.26678939585686,72.1922225099802
2024-09-23 21:43:29.982101,44.12,54.056819,0.000845657606494293,-0.02278327698858263,0.09705279702197278,36.09446859390736,-100.26678939585686,72.1922225099802
2024-09-23 21:43:30.015011,44.12,54.056819,0.0006964318663124887,-0.02352945757203875,0.09705279702197278,36.09446859390736,-100.26678939585686,72.1922225099802
2024-09-23 21:43:30.026866,44.12,54.056819,0.0006964318663124887,-0.02352945757203875,0.09705279702197278,44.11764879391193,-92.24360919585227,80.21211738781929
2024-09-23 21:43:30.069650,44.21,54.05687,0.000845657606494293,-0.02313149783467906,0.09755024973162574,40.106058693909645,-92.24360919585227,80.21211738781929
2024-09-23 21:43:30.112301,44.21,54.056962,0.0009948937421727254,-0.02313149783467906,0.09755024973162574,40.106058693909645,-92.24360919585227,80.21211738781929
2024-09-23 21:43:30.123920,44.21,54.056962,0.0009948937421727254,-0.023230986250042305,0.09720203344245934,44.11764879391193,-92.24360919585227,80.21211738781929
2024-09-23 21:43:30.167118,44.21,54.057013,0.0005969341946851222,-0.022982261414192504,0.09774922960030558,44.11764879391193,-84.22370748782159,76.200527287817
2024-09-23 21:43:30.209777,44.21,54.057013,0.0005969341946851222,-0.022982261414192504,0.09774922960030558,40.106058693909645,-88.23529758782387,80.21211738781929
2024-09-23 21:43:30.220814,44.21,54.057064,0.0009948937421727254,-0.023181236725942318,0.09774922960030558,40.106058693909645,-88.23529758782387,80.21211738781929
2024-09-23 21:43:30.263351,44.21,54.057115,0.0010943914612681128,-0.023181236725942318,0.09755024973162574,44.11764879391193,-92.24360919585227,72.1922225099802
2024-09-23 21:43:30.306267,44.21,54.057115,0.0010943914612681128,-0.022733528983459317,0.09784872257259886,44.11764879391193,-92.24360919585227,72.1922225099802
2024-09-23 21:43:30.317345,44.21,54.057206,0.0010943914612681128,-0.022733528983459317,0.09784872257259886,44.11764879391193,-92.24360919585227,76.200527287817
2024-09-23 21:43:30.360090,44.21,54.057206,0.0005969341946851222,-0.02263404056809607,0.09755024973162574,40.106058693909645,-96.25519929585457,76.200527287817
2024-09-23 21:43:30.372386,44.21,54.057206,0.0005969341946851222,-0.02263404056809607,0.09755024973162574,40.106058693909645,-96.25519929585457,72.1922225099802
2024-09-23 21:43:30.405480,44.21,54.057257,0.00044769805900669,-0.0228827638849692,0.09755024973162574,40.106058693909645,-96.25519929585457,72.1922225099802
2024-09-23 21:43:30.416669,44.21,54.057257,0.00044769805900669,-0.0228827638849692,0.09750050628343246,44.11764879391193,-92.24360919585227,72.1922225099802
2024-09-23 21:43:30.459847,44.21,54.057308,0.0006466830067647949,-0.02293251340906919,0.098047696365372,44.11764879391193,-92.24360919585227,80.21211738781929
2024-09-23 21:43:30.471030,44.21,54.057308,0.0006466830067647949,-0.02293251340906919,0.098047696365372,40.106058693909645,-92.24360919585227,80.21211738781929
2024-09-23 21:43:30.503919,44.21,54.057358,0.00034821073540793035,-0.02293251340906919,0.098047696365372,40.106058693909645,-92.24360919585227,80.21211738781929
2024-09-23 21:43:30.556840,44.21,54.057409,0.00034821073540793035,-0.022484804147609512,0.09745075675933246,44.11764879391193,-84.22370748782159,84.22370748782159
2024-09-23 21:43:30.600335,44.21,54.057409,0.0009451553255896806,-0.02352945757203875,0.09705279702197278,44.11764879391193,-84.22370748782159,84.22370748782159
2024-09-23 21:43:30.611871,44.21,54.057409,0.0009451553255896806,-0.02352945757203875,0.09705279702197278,36.09446859390736,-88.23529758782387,76.200527287817
2024-09-23 21:43:30.654517,44.21,54.05746,0.0007959191899112484,-0.02268379009219606,0.09725178296655933,44.11764879391193,-96.25519929585457,76.200527287817
2024-09-23 21:43:30.698284,44.21,54.057547,9.948729986474904e-05,-0.02268379009219606,0.09725178296655933,44.11764879391193,-96.25519929585457,76.200527287817
2024-09-23 21:43:30.710105,44.21,54.057547,9.948729986474904e-05,-0.022982261414192504,0.09779897304849887,52.137550501942634,-96.25519929585457,76.200527287817
2024-09-23 21:43:30.743029,44.21,54.057547,9.948729986474904e-05,-0.022982261414192504,0.09779897304849887,52.137550501942634,-96.25519929585457,76.200527287817
2024-09-23 21:43:30.754529,44.21,54.057598,0.0005471957306340564,-0.023230986250042305,0.09779897304849887,52.137550501942634,-96.25519929585457,76.200527287817
2024-09-23 21:43:30.796985,44.21,54.057598,0.0005471957306340564,-0.023230986250042305,0.0973015264147526,48.12595698684454,-88.23529758782387,72.1922225099802
2024-09-23 21:43:30.808768,44.21,54.057649,0.0007959191899112484,-0.023230986250042305,0.0973015264147526,48.12595698684454,-88.23529758782387,72.1922225099802
2024-09-23 21:43:30.841421,44.21,54.057649,0.0007959191899112484,-0.02303200030545576,0.0973015264147526,48.12595698684454,-88.23529758782387,72.1922225099802
2024-09-23 21:43:30.853180,44.21,54.0577,0.0007959191899112484,-0.02303200030545576,0.09720203344245934,44.11764879391193,-92.24360919585227,76.200527287817
2024-09-23 21:43:30.895813,44.21,54.0577,0.00044769805900669,-0.023479709566915436,0.09794820946898543,36.09446859390736,-96.25519929585457,76.200527287817
2024-09-23 21:43:30.907718,44.21,54.0577,0.00044769805900669,-0.023479709566915436,0.09794820946898543,36.09446859390736,-96.25519929585457,76.200527287817
2024-09-23 21:43:30.941225,44.21,54.057791,0.0009948937421727254,-0.023280723622328886,0.09794820946898543,36.09446859390736,-96.25519929585457,76.200527287817
2024-09-23 21:43:30.953144,44.21,54.057791,0.0009948937421727254,-0.023280723622328886,0.0976994861521123,32.08287849390507,-96.25519929585457,76.200527287817
2024-09-23 21:43:30.996897,44.21,54.057842,0.0004974468710863627,-0.022982261414192504,0.09750050628343246,32.08287849390507,-96.25519929585457,80.21211738781929
2024-09-23 21:43:31.038776,44.21,54.057842,0.0004974468710863627,-0.022982261414192504,0.09750050628343246,32.08287849390507,-100.26678939585686,76.200527287817
2024-09-23 21:43:31.050611,44.21,54.057893,0.0007959191899112484,-0.022982261414192504,0.09720203344245934,32.08287849390507,-100.26678939585686,76.200527287817
2024-09-23 21:43:31.093306,43.97,54.057943,0.0006466830067647949,-0.02293251340906919,0.09720203344245934,44.11764879391193,-96.25519929585457,68.18063240997792
2024-09-23 21:43:31.136435,43.97,54.057943,0.0006466830067647949,-0.02293251340906919,0.0973512698629459,44.11764879391193,-96.25519929585457,68.18063240997792
2024-09-23 21:43:31.147785,43.97,54.057994,0.0008954064660419869,-0.02293251340906919,0.0973512698629459,44.11764879391193,-96.25519929585457,76.200527287817
2024-09-23 21:43:31.190532,43.97,54.058083,0.0008954064660419869,-0.023330473146428877,0.09690356060148622,40.106058693909645,-96.25519929585457,72.1922225099802
2024-09-23 21:43:31.233117,43.97,54.058083,0.0006964318663124887,-0.02313149783467906,0.0973015264147526,40.106058693909645,-96.25519929585457,72.1922225099802
2024-09-23 21:43:31.244426,43.97,54.058083,0.0006964318663124887,-0.02313149783467906,0.0973015264147526,48.12595698684454,-92.24360919585227,72.1922225099802
2024-09-23 21:43:31.287764,43.97,54.058135,0.000845657606494293,-0.02268379009219606,0.09710254654607277,44.11764879391193,-92.24360919585227,72.1922225099802
2024-09-23 21:43:31.329985,43.97,54.058185,0.000845657606494293,-0.02268379009219606,0.09710254654607277,44.11764879391193,-92.24360919585227,68.18063240997792
2024-09-23 21:43:31.341273,43.97,54.058185,0.0008954064660419869,-0.023181236725942318,0.09774922960030558,44.11764879391193,-92.24360919585227,68.18063240997792
2024-09-23 21:43:31.384416,43.97,54.058236,0.00034821073540793035,-0.022982261414192504,0.09745075675933246,44.11764879391193,-92.24360919585227,72.1922225099802
2024-09-23 21:43:31.428206,43.97,54.058236,0.00034821073540793035,-0.022982261414192504,0.09745075675933246,36.09446859390736,-92.24360919585227,72.1922225099802
2024-09-23 21:43:31.439602,43.97,54.058287,0.0010943914612681128,-0.023280723622328886,0.09745075675933246,36.09446859390736,-92.24360919585227,76.200527287817
2024-09-23 21:43:31.481677,43.97,54.058337,0.0010943914612681128,-0.023280723622328886,0.098047696365372,36.09446859390736,-92.24360919585227,72.1922225099802
2024-09-23 21:43:31.493860,43.97,54.058337,0.001442602149208022,-0.023280723622328886,0.098047696365372,36.09446859390736,-92.24360919585227,72.1922225099802
2024-09-23 21:43:31.525812,43.97,54.058337,0.001442602149208022,-0.023181236725942318,0.0970030596496862,40.106058693909645,-92.24360919585227,72.1922225099802
2024-09-23 21:43:31.537021,43.97,54.058424,0.001442602149208022,-0.023181236725942318,0.0970030596496862,40.106058693909645,-92.24360919585227,76.200527287817
2024-09-23 21:43:31.579739,43.97,54.058424,0.000845657606494293,-0.023230986250042305,0.09680407370509965,36.09446859390736,-96.25519929585457,76.200527287817
2024-09-23 21:43:31.622376,43.97,54.058476,0.00029846189959424716,-0.023230986250042305,0.09680407370509965,36.09446859390736,-96.25519929585457,76.200527287817
2024-09-23 21:43:31.634190,43.97,54.058476,0.00029846189959424716,-0.022733528983459317,0.0976994861521123,48.12595698684454,-100.26678939585686,76.200527287817
2024-09-23 21:43:31.719263,43.97,54.058476,0.00029846189959424716,-0.022733528983459317,0.0976994861521123,48.12595698684454,-100.26678939585686,76.200527287817
2024-09-23 21:43:31.731097,43.97,54.058527,0.0009451553255896806,-0.022833026512682618,0.09784872257259886,40.106058693909645,-100.26678939585686,76.200527287817
2024-09-23 21:43:31.774867,43.97,54.058577,0.0007461703303635545,-0.022982261414192504,0.09784872257259886,40.106058693909645,-100.26678939585686,76.200527287817
2024-09-23 21:43:31.817797,43.97,54.058577,0.0007461703303635545,-0.022982261414192504,0.09764974270391902,44.11764879391193,-100.26678939585686,76.200527287817
2024-09-23 21:43:31.829025,43.97,54.058628,0.0007461703303635545,-0.022982261414192504,0.09764974270391902,44.11764879391193,-96.25519929585457,72.1922225099802
2024-09-23 21:43:31.872067,43.97,54.058679,0.0007461703303635545,-0.02263404056809607,0.09784872257259886,40.106058693909645,-92.24360919585227,80.21211738781929
2024-09-23 21:43:31.914702,43.97,54.058679,0.0008954064660419869,-0.023479709566915436,0.09784872257259886,40.106058693909645,-92.24360919585227,80.21211738781929
2024-09-23 21:43:31.926010,43.97,54.058679,0.0008954064660419869,-0.023479709566915436,0.09705279702197278,44.11764879391193,-92.24360919585227,76.200527287817
2024-09-23 21:43:31.967905,43.97,54.058766,0.0007959191899112484,-0.02293251340906919,0.09755024973162574,36.09446859390736,-92.24360919585227,76.200527287817
2024-09-23 21:43:31.979385,43.97,54.058766,0.0007959191899112484,-0.02293251340906919,0.09755024973162574,36.09446859390736,-96.25519929585457,76.200527287817
2024-09-23 21:43:32.011474,43.97,54.058766,0.0007959191899112484,-0.02293251340906919,0.09755024973162574,36.09446859390736,-96.25519929585457,76.200527287817
2024-09-23 21:43:32.022935,43.97,54.058864,0.0005969341946851222,-0.022982261414192504,0.0973512698629459,48.12595698684454,-96.25519929585457,76.200527287817
2024-09-23 21:43:32.064571,43.97,54.058915,0.0006964318663124887,-0.022982261414192504,0.0973512698629459,48.12595698684454,-88.23529758782387,76.200527287817
2024-09-23 21:43:32.077354,43.97,54.058915,0.0006964318663124887,-0.02338022115155219,0.0970030596496862,48.12595698684454,-88.23529758782387,76.200527287817
2024-09-23 21:43:32.109475,43.61,54.058915,0.0006964318663124887,-0.02338022115155219,0.0970030596496862,44.11764879391193,-92.24360919585227,76.200527287817
2024-09-23 21:43:32.121264,43.61,54.058966,0.000845657606494293,-0.02263404056809607,0.0970030596496862,44.11764879391193,-92.24360919585227,80.21211738781929
2024-09-23 21:43:32.163993,43.61,54.059016,0.000845657606494293,-0.02263404056809607,0.0976994861521123,40.106058693909645,-92.24360919585227,80.21211738781929
2024-09-23 21:43:32.176577,43.61,54.059016,0.0007461703303635545,-0.02263404056809607,0.0976994861521123,40.106058693909645,-92.24360919585227,80.21211738781929
2024-09-23 21:43:32.209474,43.61,54.059016,0.0007461703303635545,-0.02233556924609963,0.09720203344245934,48.12595698684454,-92.24360919585227,80.21211738781929
2024-09-23 21:43:32.221540,43.61,54.059107,0.0007461703303635545,-0.02233556924609963,0.09720203344245934,48.12595698684454,-92.24360919585227,76.200527287817
2024-09-23 21:43:32.254724,43.61,54.059107,0.001044642601720419,-0.02233556924609963,0.09720203344245934,48.12595698684454,-92.24360919585227,76.200527287817
2024-09-23 21:43:32.265800,43.61,54.059107,0.001044642601720419,-0.023429960042815445,0.0970030596496862,40.106058693909645,-92.24360919585227,76.200527287817
2024-09-23 21:43:32.307539,43.61,54.059158,0.0004974468710863627,-0.02303200030545576,0.09720203344245934,40.106058693909645,-92.24360919585227,76.200527287817
2024-09-23 21:43:32.319187,43.61,54.059158,0.0004974468710863627,-0.02303200030545576,0.09720203344245934,40.106058693909645,-88.23529758782387,76.200527287817
2024-09-23 21:43:32.351153,43.61,54.059158,0.0004974468710863627,-0.02303200030545576,0.09720203344245934,40.106058693909645,-88.23529758782387,76.200527287817
2024-09-23 21:43:32.365915,43.61,54.059209,0.0006466830067647949,-0.02293251340906919,0.09715228999426605,40.106058693909645,-88.23529758782387,76.200527287817
2024-09-23 21:43:32.408222,43.61,54.05926,0.0007959191899112484,-0.022982261414192504,0.09740101331113918,40.106058693909645,-96.25519929585457,72.1922225099802
2024-09-23 21:43:32.450627,43.61,54.05926,0.0007959191899112484,-0.022982261414192504,0.09740101331113918,40.106058693909645,-88.23529758782387,72.1922225099802
2024-09-23 21:43:32.462344,43.61,54.05931,0.0006466830067647949,-0.02338022115155219,0.09740101331113918,40.106058693909645,-88.23529758782387,72.1922225099802
2024-09-23 21:43:32.505674,43.61,54.059361,0.001044642601720419,-0.02338022115155219,0.09784872257259886,36.09446859390736,-84.22370748782159,76.200527287817
2024-09-23 21:43:32.548522,43.61,54.059361,0.001044642601720419,-0.022982261414192504,0.09715228999426605,36.09446859390736,-84.22370748782159,76.200527287817
2024-09-23 21:43:32.559619,43.61,54.059448,0.001044642601720419,-0.022982261414192504,0.09715228999426605,36.09446859390736,-96.25519929585457,80.21211738781929
2024-09-23 21:43:32.601412,43.61,54.059448,0.0009451553255896806,-0.02313149783467906,0.0976994861521123,44.11764879391193,-96.25519929585457,80.21211738781929
2024-09-23 21:43:32.613388,43.61,54.059448,0.0009451553255896806,-0.02313149783467906,0.0976994861521123,44.11764879391193,-96.25519929585457,76.200527287817
2024-09-23 21:43:32.646469,43.61,54.0595,0.0006466830067647949,-0.02313149783467906,0.0976994861521123,44.11764879391193,-96.25519929585457,76.200527287817
2024-09-23 21:43:32.657564,43.61,54.0595,0.0006466830067647949,-0.02352945757203875,0.09799795899308542,44.11764879391193,-96.25519929585457,76.200527287817
2024-09-23 21:43:32.699524,43.61,54.05955,0.00044769805900669,-0.022833026512682618,0.09799795899308542,44.11764879391193,-96.25519929585457,72.1922225099802
2024-09-23 21:43:32.741705,43.61,54.05955,0.00044769805900669,-0.022833026512682618,0.09784872257259886,44.11764879391193,-96.25519929585457,72.1922225099802
2024-09-23 21:43:32.753124,43.61,54.059601,0.0006466830067647949,-0.022833026512682618,0.09784872257259886,48.12595698684454,-96.25519929585457,76.200527287817
2024-09-23 21:43:32.796024,43.61,54.059601,0.0006466830067647949,-0.02338022115155219,0.09715228999426605,44.11764879391193,-92.24360919585227,76.200527287817
2024-09-23 21:43:32.807547,43.61,54.059652,0.0006466830067647949,-0.02338022115155219,0.09715228999426605,44.11764879391193,-92.24360919585227,76.200527287817
2024-09-23 21:43:32.840651,43.61,54.059652,0.0005471957306340564,-0.02362894446842532,0.09715228999426605,44.11764879391193,-92.24360919585227,76.200527287817
2024-09-23 21:43:32.852215,43.61,54.059652,0.0005471957306340564,-0.02362894446842532,0.09740101331113918,44.11764879391193,-92.24360919585227,76.200527287817
2024-09-23 21:43:32.895396,43.61,54.059702,0.0012436275969465451,-0.022982261414192504,0.09740101331113918,44.11764879391193,-96.25519929585457,80.21211738781929
2024-09-23 21:43:32.907219,43.61,54.059702,0.0012436275969465451,-0.022982261414192504,0.09774922960030558,44.11764879391193,-96.25519929585457,80.21211738781929
2024-09-23 21:43:32.938809,43.61,54.059702,0.0012436275969465451,-0.022982261414192504,0.09774922960030558,52.137550501942634,-88.23529758782387,80.21211738781929
2024-09-23 21:43:32.949999,43.61,54.059789,0.0006466830067647949,-0.02263404056809607,0.09774922960030558,52.137550501942634,-88.23529758782387,76.200527287817
2024-09-23 21:43:32.992782,43.61,54.059841,0.0006466830067647949,-0.02263404056809607,0.09764974270391902,40.106058693909645,-100.26678939585686,76.200527287817
2024-09-23 21:43:33.005021,43.61,54.059841,0.0006964318663124887,-0.02263404056809607,0.09764974270391902,40.106058693909645,-100.26678939585686,76.200527287817
2024-09-23 21:43:33.037358,43.61,54.059841,0.0006964318663124887,-0.023280723622328886,0.09745075675933246,40.106058693909645,-100.26678939585686,76.200527287817
2024-09-23 21:43:33.048456,43.61,54.059892,0.0006964318663124887,-0.023280723622328886,0.09745075675933246,40.106058693909645,-100.26678939585686,68.18063240997792
2024-09-23 21:43:33.091574,43.61,54.059892,0.0008954064660419869,-0.023230986250042305,0.09784872257259886,44.11764879391193,-100.26678939585686,76.200527287817
2024-09-23 21:43:33.133605,43.59,54.059985,0.0006964318663124887,-0.023230986250042305,0.09784872257259886,44.11764879391193,-100.26678939585686,76.200527287817
2024-09-23 21:43:33.145685,43.59,54.059985,0.0006964318663124887,-0.022982261414192504,0.09695331012558621,40.106058693909645,-100.26678939585686,76.200527287817
2024-09-23 21:43:33.189415,43.59,54.060036,0.000845657606494293,-0.023280723622328886,0.09720203344245934,40.106058693909645,-100.26678939585686,76.200527287817
2024-09-23 21:43:33.231800,43.59,54.060036,0.000845657606494293,-0.023280723622328886,0.09720203344245934,40.106058693909645,-92.24360919585227,76.200527287817
2024-09-23 21:43:33.243630,43.59,54.060087,0.001044642601720419,-0.02338022115155219,0.09750050628343246,40.106058693909645,-92.24360919585227,76.200527287817
2024-09-23 21:43:33.286148,43.59,54.060138,0.0006964318663124887,-0.02303200030545576,0.09750050628343246,48.12595698684454,-88.23529758782387,76.200527287817
2024-09-23 21:43:33.328303,43.59,54.060138,0.0006964318663124887,-0.02303200030545576,0.09819693278585856,40.106058693909645,-88.23529758782387,76.200527287817
2024-09-23 21:43:33.339901,43.59,54.060189,0.0009451553255896806,-0.02303200030545576,0.09819693278585856,40.106058693909645,-92.24360919585227,72.1922225099802
2024-09-23 21:43:33.381572,43.59,54.060189,0.0009451553255896806,-0.023330473146428877,0.09759999317981902,44.11764879391193,-92.24360919585227,76.200527287817
2024-09-23 21:43:33.393665,43.59,54.060277,0.0009451553255896806,-0.023330473146428877,0.09759999317981902,44.11764879391193,-92.24360919585227,76.200527287817
2024-09-23 21:43:33.426391,43.59,54.060277,0.0007461703303635545,-0.0225345536717095,0.09759999317981902,44.11764879391193,-92.24360919585227,76.200527287817
2024-09-23 21:43:33.437930,43.59,54.060277,0.0007461703303635545,-0.0225345536717095,0.09690356060148622,44.11764879391193,-92.24360919585227,80.21211738781929
2024-09-23 21:43:33.480771,43.59,54.060328,0.0006466830067647949,-0.023181236725942318,0.09695331012558621,44.11764879391193,-100.26678939585686,80.21211738781929
2024-09-23 21:43:33.523155,43.59,54.060379,0.0006466830067647949,-0.023181236725942318,0.09695331012558621,44.11764879391193,-100.26678939585686,80.21211738781929
2024-09-23 21:43:33.535252,43.59,54.060379,0.0007959191899112484,-0.02313149783467906,0.09725178296655933,40.106058693909645,-100.26678939585686,80.21211738781929
2024-09-23 21:43:33.577778,43.59,54.06043,0.0008954064660419869,-0.02303200030545576,0.09725178296655933,40.106058693909645,-92.24360919585227,76.200527287817
2024-09-23 21:43:33.589780,43.59,54.06043,0.0008954064660419869,-0.02303200030545576,0.09779897304849887,40.106058693909645,-92.24360919585227,76.200527287817
2024-09-23 21:43:33.623130,43.59,54.06043,0.0008954064660419869,-0.02303200030545576,0.09779897304849887,44.11764879391193,-96.25519929585457,80.21211738781929
2024-09-23 21:43:33.634388,43.59,54.06048,0.0012933660135295898,-0.0228827638849692,0.09779897304849887,44.11764879391193,-96.25519929585457,80.21211738781929
2024-09-23 21:43:33.678086,43.59,54.060531,0.0007461703303635545,-0.0228827638849692,0.09715228999426605,40.106058693909645,-96.25519929585457,76.200527287817
2024-09-23 21:43:33.771140,43.59,54.060531,0.0007461703303635545,-0.02362894446842532,0.09720203344245934,40.106058693909645,-92.24360919585227,76.200527287817
2024-09-23 21:43:33.784745,43.59,54.060618,0.0007461703303635545,-0.02362894446842532,0.09720203344245934,40.106058693909645,-92.24360919585227,80.21211738781929
2024-09-23 21:43:33.817893,43.59,54.060618,0.0006466830067647949,-0.023479709566915436,0.09720203344245934,40.106058693909645,-92.24360919585227,80.21211738781929
2024-09-23 21:43:33.829401,43.59,54.060618,0.0006466830067647949,-0.023479709566915436,0.0973512698629459,40.106058693909645,-92.24360919585227,80.21211738781929
2024-09-23 21:43:33.872615,43.59,54.06067,0.0007959191899112484,-0.023280723622328886,0.09705279702197278,40.106058693909645,-96.25519929585457,80.21211738781929
2024-09-23 21:43:33.915356,43.59,54.06072,0.0007959191899112484,-0.023280723622328886,0.09705279702197278,40.106058693909645,-96.25519929585457,76.200527287817
2024-09-23 21:43:33.927199,43.59,54.06072,0.0005471957306340564,-0.0228827638849692,0.09710254654607277,40.106058693909645,-96.25519929585457,76.200527287817
2024-09-23 21:43:33.971152,43.59,54.060771,0.0005471957306340564,-0.0228827638849692,0.09750050628343246,40.106058693909645,-88.23529758782387,76.200527287817
2024-09-23 21:43:34.013445,43.59,54.060771,0.0005471957306340564,-0.0228827638849692,0.09750050628343246,52.137550501942634,-88.23529758782387,76.200527287817
2024-09-23 21:43:34.024771,43.59,54.060864,0.0005969341946851222,-0.02293251340906919,0.09750050628343246,52.137550501942634,-88.23529758782387,76.200527287817
2024-09-23 21:43:34.058756,43.59,54.060864,0.0005969341946851222,-0.02293251340906919,0.09755024973162574,52.137550501942634,-88.23529758782387,76.200527287817
2024-09-23 21:43:34.070577,43.59,54.060915,0.0005471957306340564,-0.02293251340906919,0.09755024973162574,40.106058693909645,-92.24360919585227,76.200527287817
2024-09-23 21:43:34.112704,43.59,54.060915,0.0005471957306340564,-0.023181236725942318,0.09725178296655933,44.11764879391193,-96.25519929585457,76.200527287817
2024-09-23 21:43:34.124026,43.59,54.061008,0.0005471957306340564,-0.023181236725942318,0.09725178296655933,44.11764879391193,-96.25519929585457,76.200527287817
2024-09-23 21:43:34.155746,43.19,54.061008,0.0004974468710863627,-0.023181236725942318,0.09725178296655933,44.11764879391193,-96.25519929585457,76.200527287817
2024-09-23 21:43:34.168703,43.19,54.061008,0.0004974468710863627,-0.02367869399252531,0.0973512698629459,40.106058693909645,-92.24360919585227,76.200527287817
2024-09-23 21:43:34.211347,43.19,54.06106,0.0005471957306340564,-0.023330473146428877,0.09764974270391902,48.12595698684454,-92.24360919585227,76.200527287817
2024-09-23 21:43:34.223148,43.19,54.06106,0.0005471957306340564,-0.023330473146428877,0.09764974270391902,48.12595698684454,-96.25519929585457,76.200527287817
2024-09-23 21:43:34.255381,43.19,54.06111,0.0005471957306340564,-0.023330473146428877,0.09764974270391902,48.12595698684454,-96.25519929585457,76.200527287817
2024-09-23 21:43:34.266672,43.19,54.06111,0.0005471957306340564,-0.02367869399252531,0.09784872257259886,44.11764879391193,-96.25519929585457,76.200527287817
2024-09-23 21:43:34.309796,43.19,54.061161,0.0004974468710863627,-0.022733528983459317,0.09784872257259886,44.11764879391193,-92.24360919585227,76.200527287817
2024-09-23 21:43:34.321418,43.19,54.061161,0.0004974468710863627,-0.022733528983459317,0.0973512698629459,44.11764879391193,-92.24360919585227,76.200527287817
2024-09-23 21:43:34.353801,43.19,54.061161,0.0004974468710863627,-0.022733528983459317,0.0973512698629459,44.11764879391193,-88.23529758782387,72.1922225099802
2024-09-23 21:43:34.365385,43.19,54.061212,0.0011441298778511575,-0.02313149783467906,0.0973512698629459,44.11764879391193,-88.23529758782387,72.1922225099802
2024-09-23 21:43:34.408193,43.19,54.061262,0.0009948937421727254,-0.02313149783467906,0.0976994861521123,44.11764879391193,-92.24360919585227,80.21211738781929
2024-09-23 21:43:34.451123,43.19,54.061262,0.0009948937421727254,-0.02367869399252531,0.09784872257259886,36.09446859390736,-92.24360919585227,80.21211738781929
2024-09-23 21:43:34.462272,43.19,54.061349,0.0009948937421727254,-0.02367869399252531,0.09784872257259886,36.09446859390736,-92.24360919585227,76.200527287817
2024-09-23 21:43:34.505483,43.19,54.061349,0.00024872343554318134,-0.02278327698858263,0.0973015264147526,36.09446859390736,-100.26678939585686,76.200527287817
2024-09-23 21:43:34.547548,43.19,54.061401,0.0004974468710863627,-0.02278327698858263,0.0973015264147526,36.09446859390736,-100.26678939585686,76.200527287817
2024-09-23 21:43:34.559708,43.19,54.061401,0.0004974468710863627,-0.023181236725942318,0.09779897304849887,44.11764879391193,-84.22370748782159,76.200527287817
2024-09-23 21:43:34.601936,43.19,54.061452,0.0006964318663124887,-0.02308174982955575,0.09774922960030558,40.106058693909645,-84.22370748782159,84.22370748782159
2024-09-23 21:43:34.644154,43.19,54.061452,0.0006964318663124887,-0.02308174982955575,0.09774922960030558,40.106058693909645,-92.24360919585227,80.21211738781929
2024-09-23 21:43:34.655901,43.19,54.061502,0.0006964318663124887,-0.02308174982955575,0.09774922960030558,40.106058693909645,-92.24360919585227,80.21211738781929
2024-09-23 21:43:34.698610,43.19,54.061502,0.0011441298778511575,-0.023479709566915436,0.09764974270391902,32.08287849390507,-92.24360919585227,80.21211738781929
2024-09-23 21:43:34.710592,43.19,54.061502,0.0011441298778511575,-0.023479709566915436,0.09764974270391902,32.08287849390507,-92.24360919585227,80.21211738781929
2024-09-23 21:43:34.795270,43.19,54.061553,0.0006466830067647949,-0.02313149783467906,0.0973015264147526,32.08287849390507,-92.24360919585227,80.21211738781929
2024-09-23 21:43:34.810004,43.19,54.061553,0.0006466830067647949,-0.02313149783467906,0.0973015264147526,44.11764879391193,-92.24360919585227,80.21211738781929
2024-09-23 21:43:34.841916,43.19,54.061604,0.0009948937421727254,-0.02313149783467906,0.0973015264147526,44.11764879391193,-92.24360919585227,80.21211738781929
2024-09-23 21:43:34.853351,43.19,54.061604,0.0009948937421727254,-0.02303200030545576,0.09740101331113918,48.12595698684454,-92.24360919585227,80.21211738781929
2024-09-23 21:43:34.895643,43.19,54.061691,0.0007461703303635545,-0.02313149783467906,0.09690356060148622,48.12595698684454,-92.24360919585227,76.200527287817
2024-09-23 21:43:34.939371,43.19,54.061691,0.0007461703303635545,-0.02313149783467906,0.09690356060148622,36.09446859390736,-96.25519929585457,76.200527287817
2024-09-23 21:43:34.950611,43.19,54.061742,0.0009948937421727254,-0.022982261414192504,0.09690356060148622,36.09446859390736,-96.25519929585457,76.200527287817
2024-09-23 21:43:34.993844,43.19,54.061792,0.000845657606494293,-0.022982261414192504,0.09755024973162574,40.106058693909645,-96.25519929585457,72.1922225099802
2024-09-23 21:43:35.036693,43.19,54.061792,0.000845657606494293,-0.02278327698858263,0.09720203344245934,40.106058693909645,-96.25519929585457,72.1922225099802
2024-09-23 21:43:35.049318,43.19,54.061934,0.000845657606494293,-0.02278327698858263,0.09720203344245934,40.106058693909645,-100.26678939585686,72.1922225099802
2024-09-23 21:43:35.082632,43.19,54.061934,0.0007959191899112484,-0.02278327698858263,0.09720203344245934,40.106058693909645,-100.26678939585686,72.1922225099802
2024-09-23 21:43:35.093744,43.19,54.061934,0.0007959191899112484,-0.02278327698858263,0.09745075675933246,36.09446859390736,-96.25519929585457,76.200527287817
2024-09-23 21:43:35.135606,43.19,54.061986,0.0005969341946851222,-0.02303200030545576,0.09794820946898543,36.09446859390736,-96.25519929585457,76.200527287817
2024-09-23 21:43:35.147222,43.19,54.061986,0.0005969341946851222,-0.02303200030545576,0.09794820946898543,40.106058693909645,-100.26678939585686,76.200527287817
2024-09-23 21:43:35.179281,43.11,54.061986,0.0005969341946851222,-0.02303200030545576,0.09794820946898543,40.106058693909645,-100.26678939585686,80.21211738781929
2024-09-23 21:43:35.190424,43.11,54.062037,0.000845657606494293,-0.02293251340906919,0.09764974270391902,40.106058693909645,-100.26678939585686,80.21211738781929
2024-09-23 21:43:35.232630,43.11,54.062087,0.0009948937421727254,-0.02293251340906919,0.09764974270391902,40.106058693909645,-100.26678939585686,80.21211738781929
2024-09-23 21:43:35.244028,43.11,54.062087,0.0009948937421727254,-0.02313149783467906,0.09720203344245934,40.106058693909645,-100.26678939585686,80.21211738781929
2024-09-23 21:43:35.276036,43.11,54.062087,0.0009948937421727254,-0.02313149783467906,0.09720203344245934,40.106058693909645,-100.26678939585686,80.21211738781929
2024-09-23 21:43:35.288001,43.11,54.062138,0.0006466830067647949,-0.023181236725942318,0.09720203344245934,40.106058693909645,-92.24360919585227,68.18063240997792
2024-09-23 21:43:35.330963,43.11,54.062138,0.0006466830067647949,-0.023181236725942318,0.09750050628343246,44.11764879391193,-100.26678939585686,72.1922225099802
2024-09-23 21:43:35.342860,43.11,54.062189,0.0001989745997294981,-0.023181236725942318,0.09750050628343246,44.11764879391193,-100.26678939585686,72.1922225099802
2024-09-23 21:43:35.375159,43.11,54.062189,0.0001989745997294981,-0.02278327698858263,0.09750050628343246,44.11764879391193,-100.26678939585686,72.1922225099802
2024-09-23 21:43:35.386617,43.11,54.062276,0.0001989745997294981,-0.02278327698858263,0.0973015264147526,44.11764879391193,-100.26678939585686,72.1922225099802
2024-09-23 21:43:35.429194,43.11,54.062276,0.000845657606494293,-0.02268379009219606,0.0973512698629459,40.106058693909645,-96.25519929585457,72.1922225099802
2024-09-23 21:43:35.440948,43.11,54.062276,0.000845657606494293,-0.02268379009219606,0.0973512698629459,40.106058693909645,-96.25519929585457,76.200527287817
2024-09-23 21:43:35.473873,43.11,54.062327,0.001044642601720419,-0.02268379009219606,0.0973512698629459,40.106058693909645,-96.25519929585457,76.200527287817
2024-09-23 21:43:35.485169,43.11,54.062327,0.001044642601720419,-0.023330473146428877,0.09720203344245934,40.106058693909645,-100.26678939585686,76.200527287817
2024-09-23 21:43:35.528096,43.11,54.062378,0.000845657606494293,-0.023280723622328886,0.0973015264147526,40.106058693909645,-100.26678939585686,68.18063240997792
2024-09-23 21:43:35.571960,43.11,54.062378,0.000845657606494293,-0.023280723622328886,0.0973015264147526,40.106058693909645,-96.25519929585457,72.1922225099802
2024-09-23 21:43:35.583388,43.11,54.062429,0.0010943914612681128,-0.022982261414192504,0.0970030596496862,40.106058693909645,-96.25519929585457,72.1922225099802
2024-09-23 21:43:35.626444,43.11,54.062479,0.0007959191899112484,-0.022982261414192504,0.0970030596496862,40.106058693909645,-96.25519929585457,72.1922225099802
2024-09-23 21:43:35.637920,43.11,54.062479,0.0007959191899112484,-0.024275627522658133,0.0970030596496862,40.106058693909645,-96.25519929585457,72.1922225099802
2024-09-23 21:43:35.670922,43.11,54.062479,0.0007959191899112484,-0.024275627522658133,0.09710254654607277,40.106058693909645,-100.26678939585686,72.1922225099802
2024-09-23 21:43:35.682908,43.11,54.06253,0.0008954064660419869,-0.024275627522658133,0.09710254654607277,40.106058693909645,-100.26678939585686,72.1922225099802
2024-09-23 21:43:35.714821,43.11,54.06253,0.0008954064660419869,-0.02303200030545576,0.09710254654607277,40.106058693909645,-100.26678939585686,72.1922225099802
2024-09-23 21:43:35.726167,43.11,54.062617,0.0008954064660419869,-0.02303200030545576,0.09745075675933246,44.11764879391193,-96.25519929585457,76.200527287817
2024-09-23 21:43:35.819804,43.11,54.062617,0.0008954064660419869,-0.023230986250042305,0.0976994861521123,40.106058693909645,-100.26678939585686,76.200527287817
2024-09-23 21:43:35.832006,43.11,54.062617,0.0008954064660419869,-0.023230986250042305,0.0976994861521123,40.106058693909645,-100.26678939585686,72.1922225099802
2024-09-23 21:43:35.865418,43.11,54.062668,0.0007959191899112484,-0.0228827638849692,0.0976994861521123,40.106058693909645,-100.26678939585686,72.1922225099802
2024-09-23 21:43:35.876833,43.11,54.062668,0.0007959191899112484,-0.0228827638849692,0.0973512698629459,40.106058693909645,-92.24360919585227,72.1922225099802
2024-09-23 21:43:35.919789,43.11,54.062719,0.0010943914612681128,-0.023280723622328886,0.09705279702197278,40.106058693909645,-92.24360919585227,80.21211738781929
2024-09-23 21:43:35.962609,43.11,54.06277,0.0010943914612681128,-0.023280723622328886,0.09705279702197278,40.106058693909645,-92.24360919585227,80.21211738781929
2024-09-23 21:43:35.974233,43.11,54.06277,0.0011441298778511575,-0.023429960042815445,0.09720203344245934,40.106058693909645,-92.24360919585227,80.21211738781929
2024-09-23 21:43:36.016738,43.11,54.062821,0.0009451553255896806,-0.02313149783467906,0.09720203344245934,44.11764879391193,-88.23529758782387,76.200527287817
2024-09-23 21:43:36.061058,43.11,54.062821,0.0009451553255896806,-0.02313149783467906,0.0973512698629459,44.11764879391193,-88.23529758782387,76.200527287817
2024-09-23 21:43:36.072677,43.11,54.062912,0.0006964318663124887,-0.02313149783467906,0.0973512698629459,44.11764879391193,-88.23529758782387,80.21211738781929
2024-09-23 21:43:36.106194,43.11,54.062912,0.0006964318663124887,-0.023230986250042305,0.0973512698629459,44.11764879391193,-88.23529758782387,80.21211738781929
2024-09-23 21:43:36.117778,43.11,54.063007,0.0006964318663124887,-0.023230986250042305,0.09779897304849887,52.137550501942634,-100.26678939585686,76.200527287817
2024-09-23 21:43:36.160684,43.11,54.063007,0.000845657606494293,-0.02308174982955575,0.09710254654607277,48.12595698684454,-92.24360919585227,76.200527287817
2024-09-23 21:43:36.172373,43.11,54.063007,0.000845657606494293,-0.02308174982955575,0.09710254654607277,48.12595698684454,-92.24360919585227,76.200527287817
2024-09-23 21:43:36.204304,43.08,54.063058,0.000845657606494293,-0.02308174982955575,0.09710254654607277,48.12595698684454,-92.24360919585227,76.200527287817
2024-09-23 21:43:36.215641,43.08,54.063058,0.000845657606494293,-0.02397715620066169,0.0973512698629459,44.11764879391193,-88.23529758782387,76.200527287817
2024-09-23 21:43:36.258379,43.08,54.063109,0.0005969341946851222,-0.02293251340906919,0.09814718933766527,44.11764879391193,-88.23529758782387,76.200527287817
2024-09-23 21:43:36.270337,43.08,54.063109,0.0005969341946851222,-0.02293251340906919,0.09814718933766527,48.12595698684454,-88.23529758782387,76.200527287817
2024-09-23 21:43:36.302269,43.08,54.063109,0.0005969341946851222,-0.02293251340906919,0.09814718933766527,48.12595698684454,-104.27510100388527,76.200527287817
2024-09-23 21:43:36.313328,43.08,54.06316,0.0008954064660419869,-0.023280723622328886,0.09725178296655933,48.12595698684454,-104.27510100388527,76.200527287817
2024-09-23 21:43:36.356886,43.08,54.06321,0.0010943914612681128,-0.022136593934349812,0.09725178296655933,40.106058693909645,-100.26678939585686,80.21211738781929
2024-09-23 21:43:36.401777,43.08,54.06321,0.0010943914612681128,-0.022136593934349812,0.09715228999426605,32.08287849390507,-92.24360919585227,80.21211738781929
2024-09-23 21:43:36.414739,43.08,54.063261,0.0010943914612681128,-0.022136593934349812,0.09715228999426605,32.08287849390507,-92.24360919585227,80.21211738781929
2024-09-23 21:43:36.447487,43.08,54.063261,0.0005471957306340564,-0.022136593934349812,0.09715228999426605,32.08287849390507,-92.24360919585227,80.21211738781929
2024-09-23 21:43:36.459363,43.08,54.063261,0.0005471957306340564,-0.023230986250042305,0.09784872257259886,40.106058693909645,-92.24360919585227,72.1922225099802
2024-09-23 21:43:36.501080,43.08,54.063348,0.0007461703303635545,-0.023181236725942318,0.09740101331113918,40.106058693909645,-92.24360919585227,72.1922225099802
2024-09-23 21:43:36.512219,43.08,54.063348,0.0007461703303635545,-0.023181236725942318,0.09740101331113918,44.11764879391193,-96.25519929585457,72.1922225099802
2024-09-23 21:43:36.544068,43.08,54.063348,0.0007461703303635545,-0.023181236725942318,0.09740101331113918,44.11764879391193,-96.25519929585457,72.1922225099802
2024-09-23 21:43:36.556381,43.08,54.0634,4.973845218406054e-05,-0.023479709566915436,0.09755024973162574,44.11764879391193,-96.25519929585457,72.1922225099802
2024-09-23 21:43:36.598601,43.08,54.0634,4.973845218406054e-05,-0.023479709566915436,0.09755024973162574,44.11764879391193,-96.25519929585457,72.1922225099802
2024-09-23 21:43:36.651600,43.08,54.06345,0.0012436275969465451,-0.023280723622328886,0.09725178296655933,44.11764879391193,-96.25519929585457,72.1922225099802
2024-09-23 21:43:36.663359,43.08,54.06345,0.0012436275969465451,-0.023280723622328886,0.09725178296655933,44.11764879391193,-96.25519929585457,72.1922225099802
2024-09-23 21:43:36.695973,43.08,54.063501,0.0004974468710863627,-0.023280723622328886,0.09725178296655933,44.11764879391193,-100.26678939585686,80.21211738781929
2024-09-23 21:43:36.707164,43.08,54.063501,0.0004974468710863627,-0.023579196463302005,0.09759999317981902,44.11764879391193,-100.26678939585686,80.21211738781929
2024-09-23 21:43:36.739874,43.08,54.063501,0.0004974468710863627,-0.023579196463302005,0.09759999317981902,44.11764879391193,-100.26678939585686,80.21211738781929
2024-09-23 21:43:36.751543,43.08,54.063552,0.0008954064660419869,-0.02293251340906919,0.09759999317981902,44.11764879391193,-92.24360919585227,80.21211738781929
2024-09-23 21:43:36.845371,43.08,54.063641,0.0007461703303635545,-0.02293251340906919,0.09745075675933246,52.137550501942634,-92.24360919585227,80.21211738781929
2024-09-23 21:43:36.889088,43.08,54.063641,0.0007461703303635545,-0.02268379009219606,0.09745075675933246,52.137550501942634,-92.24360919585227,80.21211738781929
2024-09-23 21:43:36.941846,43.08,54.063641,0.0007461703303635545,-0.02268379009219606,0.09750050628343246,52.137550501942634,-92.24360919585227,80.21211738781929
2024-09-23 21:43:36.984838,43.08,54.063641,0.0007461703303635545,-0.02268379009219606,0.09750050628343246,44.11764879391193,-100.26678939585686,80.21211738781929
2024-09-23 21:43:36.996285,43.08,54.063691,0.0004974468710863627,-0.0225345536717095,0.09750050628343246,44.11764879391193,-100.26678939585686,76.200527287817
2024-09-23 21:43:37.038784,43.08,54.063787,0.0004974468710863627,-0.0225345536717095,0.09725178296655933,40.106058693909645,-96.25519929585457,72.1922225099802
2024-09-23 21:43:37.050714,43.08,54.063787,0.0006466830067647949,-0.0225345536717095,0.09725178296655933,40.106058693909645,-96.25519929585457,72.1922225099802
2024-09-23 21:43:37.082101,43.08,54.063787,0.0006466830067647949,-0.02303200030545576,0.09725178296655933,40.106058693909645,-96.25519929585457,72.1922225099802
2024-09-23 21:43:37.093458,43.08,54.063839,0.0006466830067647949,-0.02303200030545576,0.09725178296655933,44.11764879391193,-84.22370748782159,80.21211738781929
2024-09-23 21:43:37.136535,43.08,54.063839,0.001044642601720419,-0.023330473146428877,0.09784872257259886,52.137550501942634,-88.23529758782387,76.200527287817
2024-09-23 21:43:37.178942,43.08,54.063935,0.001044642601720419,-0.023330473146428877,0.09784872257259886,52.137550501942634,-88.23529758782387,76.200527287817
2024-09-23 21:43:37.189818,43.08,54.063935,0.00044769805900669,-0.02278327698858263,0.09715228999426605,44.11764879391193,-96.25519929585457,76.200527287817
2024-09-23 21:43:37.232905,42.89,54.064081,0.0009948937421727254,-0.023330473146428877,0.09755024973162574,44.11764879391193,-96.25519929585457,72.1922225099802
2024-09-23 21:43:37.244994,42.89,54.064081,0.0009948937421727254,-0.023330473146428877,0.09755024973162574,40.106058693909645,-96.25519929585457,72.1922225099802
2024-09-23 21:43:37.277078,42.89,54.064081,0.0009948937421727254,-0.023330473146428877,0.09755024973162574,40.106058693909645,-92.24360919585227,80.21211738781929
2024-09-23 21:43:37.288622,42.89,54.064132,0.0005969341946851222,-0.023280723622328886,0.098047696365372,40.106058693909645,-92.24360919585227,80.21211738781929
2024-09-23 21:43:37.331925,42.89,54.064182,0.0006964318663124887,-0.023280723622328886,0.098047696365372,36.09446859390736,-96.25519929585457,80.21211738781929
2024-09-23 21:43:37.343579,42.89,54.064182,0.0006964318663124887,-0.02313149783467906,0.098047696365372,36.09446859390736,-96.25519929585457,80.21211738781929
2024-09-23 21:43:37.376595,42.89,54.064182,0.0006964318663124887,-0.02313149783467906,0.0973015264147526,44.11764879391193,-96.25519929585457,80.21211738781929
2024-09-23 21:43:37.388363,42.89,54.064233,0.000845657606494293,-0.02313149783467906,0.0973015264147526,44.11764879391193,-96.25519929585457,72.1922225099802
2024-09-23 21:43:37.472027,42.89,54.064233,0.000845657606494293,-0.022584292562972758,0.09745075675933246,44.11764879391193,-96.25519929585457,72.1922225099802
2024-09-23 21:43:37.484261,42.89,54.064323,0.000845657606494293,-0.022584292562972758,0.09745075675933246,44.11764879391193,-92.24360919585227,76.200527287817
2024-09-23 21:43:37.527982,42.89,54.064323,0.0011441298778511575,-0.023181236725942318,0.09745075675933246,40.106058693909645,-96.25519929585457,80.21211738781929
2024-09-23 21:43:37.570865,42.89,54.064375,0.0005969341946851222,-0.02278327698858263,0.09745075675933246,40.106058693909645,-96.25519929585457,80.21211738781929
2024-09-23 21:43:37.582503,42.89,54.064375,0.0005969341946851222,-0.02278327698858263,0.09725178296655933,40.106058693909645,-96.25519929585457,80.21211738781929
2024-09-23 21:43:37.625444,42.89,54.064425,0.0007959191899112484,-0.022982261414192504,0.09725178296655933,44.11764879391193,-92.24360919585227,76.200527287817
2024-09-23 21:43:37.668859,42.89,54.064425,0.0007959191899112484,-0.022982261414192504,0.09759999317981902,44.11764879391193,-96.25519929585457,76.200527287817
2024-09-23 21:43:37.680704,42.89,54.064476,0.0001989745997294981,-0.022982261414192504,0.09759999317981902,44.11764879391193,-96.25519929585457,76.200527287817
2024-09-23 21:43:37.723751,42.89,54.064569,0.0001989745997294981,-0.023330473146428877,0.0973512698629459,48.12595698684454,-92.24360919585227,80.21211738781929
2024-09-23 21:43:37.766574,42.89,54.064569,0.00034821073540793035,-0.023181236725942318,0.09705279702197278,48.12595698684454,-92.24360919585227,80.21211738781929
2024-09-23 21:43:37.778510,42.89,54.064569,0.00034821073540793035,-0.023181236725942318,0.09705279702197278,40.106058693909645,-96.25519929585457,72.1922225099802
2024-09-23 21:43:37.862687,42.89,54.06462,0.0009948937421727254,-0.023181236725942318,0.09705279702197278,40.106058693909645,-96.25519929585457,72.1922225099802
2024-09-23 21:43:37.874882,42.89,54.06462,0.0009948937421727254,-0.023429960042815445,0.09740101331113918,44.11764879391193,-92.24360919585227,72.1922225099802
2024-09-23 21:43:37.959419,42.89,54.06462,0.0009948937421727254,-0.023429960042815445,0.09740101331113918,44.11764879391193,-92.24360919585227,80.21211738781929
2024-09-23 21:43:37.970391,42.89,54.064714,0.000845657606494293,-0.02313149783467906,0.09784872257259886,44.11764879391193,-92.24360919585227,80.21211738781929
2024-09-23 21:43:38.013393,42.89,54.064765,0.0003979595949556242,-0.02313149783467906,0.09784872257259886,44.11764879391193,-100.26678939585686,68.18063240997792
2024-09-23 21:43:38.025817,42.89,54.064765,0.0003979595949556242,-0.02293251340906919,0.09745075675933246,44.11764879391193,-100.26678939585686,68.18063240997792
2024-09-23 21:43:38.057896,42.89,54.064765,0.0003979595949556242,-0.02293251340906919,0.09745075675933246,40.106058693909645,-96.25519929585457,68.18063240997792
2024-09-23 21:43:38.069018,42.89,54.064816,0.0011441298778511575,-0.02308174982955575,0.09745075675933246,40.106058693909645,-96.25519929585457,72.1922225099802
2024-09-23 21:43:38.111957,42.89,54.064867,0.0007959191899112484,-0.02308174982955575,0.09764974270391902,40.106058693909645,-92.24360919585227,80.21211738781929
2024-09-23 21:43:38.206488,42.89,54.064867,0.0007959191899112484,-0.022584292562972758,0.09755024973162574,36.09446859390736,-92.24360919585227,80.21211738781929
2024-09-23 21:43:38.218373,42.89,54.065006,0.0007959191899112484,-0.022584292562972758,0.09755024973162574,36.09446859390736,-92.24360919585227,80.21211738781929
2024-09-23 21:43:38.251465,42.12,54.065006,0.0005969341946851222,-0.022584292562972758,0.09755024973162574,36.09446859390736,-92.24360919585227,80.21211738781929
2024-09-23 21:43:38.262450,42.12,54.065006,0.0005969341946851222,-0.023728432883788564,0.09745075675933246,44.11764879391193,-92.24360919585227,80.21211738781929
2024-09-23 21:43:38.304328,42.12,54.065104,0.000845657606494293,-0.022982261414192504,0.09779897304849887,44.11764879391193,-92.24360919585227,80.21211738781929
2024-09-23 21:43:38.316210,42.12,54.065104,0.000845657606494293,-0.022982261414192504,0.09779897304849887,44.11764879391193,-96.25519929585457,80.21211738781929
2024-09-23 21:43:38.347775,42.12,54.065104,0.000845657606494293,-0.022982261414192504,0.09779897304849887,44.11764879391193,-96.25519929585457,80.21211738781929
2024-09-23 21:43:38.359975,42.12,54.065155,0.0006466830067647949,-0.0228827638849692,0.09710254654607277,40.106058693909645,-96.25519929585457,80.21211738781929
2024-09-23 21:43:38.402700,42.12,54.065206,0.000845657606494293,-0.022982261414192504,0.09710254654607277,40.106058693909645,-88.23529758782387,76.200527287817
2024-09-23 21:43:38.414351,42.12,54.065206,0.000845657606494293,-0.022982261414192504,0.09720203344245934,40.106058693909645,-88.23529758782387,76.200527287817
2024-09-23 21:43:38.446196,42.12,54.065206,0.000845657606494293,-0.022982261414192504,0.09720203344245934,44.11764879391193,-88.23529758782387,76.200527287817
2024-09-23 21:43:38.457757,42.12,54.0653,0.00014922575204880957,-0.0228827638849692,0.09720203344245934,44.11764879391193,-92.24360919585227,80.21211738781929
2024-09-23 21:43:38.500997,42.12,54.065351,0.00014922575204880957,-0.0228827638849692,0.09789846602079214,36.09446859390736,-92.24360919585227,76.200527287817
2024-09-23 21:43:38.513745,42.12,54.065351,0.0004974468710863627,-0.0228827638849692,0.09789846602079214,36.09446859390736,-92.24360919585227,76.200527287817
2024-09-23 21:43:38.546768,42.12,54.065351,0.0004974468710863627,-0.022982261414192504,0.09774922960030558,40.106058693909645,-92.24360919585227,76.200527287817
2024-09-23 21:43:38.558008,42.12,54.065444,0.0004974468710863627,-0.022982261414192504,0.09774922960030558,40.106058693909645,-96.25519929585457,80.21211738781929
2024-09-23 21:43:38.601554,42.12,54.065444,0.0006466830067647949,-0.02313149783467906,0.0976994861521123,44.11764879391193,-92.24360919585227,76.200527287817
2024-09-23 21:43:38.643671,42.12,54.065496,0.0007461703303635545,-0.022982261414192504,0.0976994861521123,44.11764879391193,-92.24360919585227,76.200527287817
2024-09-23 21:43:38.655600,42.12,54.065496,0.0007461703303635545,-0.022982261414192504,0.09740101331113918,52.137550501942634,-92.24360919585227,76.200527287817
2024-09-23 21:43:38.689655,42.12,54.065496,0.0007461703303635545,-0.022982261414192504,0.09740101331113918,52.137550501942634,-92.24360919585227,72.1922225099802
2024-09-23 21:43:38.700793,42.12,54.065547,0.000845657606494293,-0.023280723622328886,0.09755024973162574,48.12595698684454,-92.24360919585227,72.1922225099802
2024-09-23 21:43:38.794350,42.12,54.065597,0.0007959191899112484,-0.02228583035483637,0.09755024973162574,48.12595698684454,-92.24360919585227,80.21211738781929
2024-09-23 21:43:38.806454,42.12,54.065597,0.0007959191899112484,-0.02228583035483637,0.09774922960030558,48.12595698684454,-92.24360919585227,80.21211738781929
2024-09-23 21:43:38.890093,42.12,54.065648,0.0007959191899112484,-0.02228583035483637,0.09774922960030558,36.09446859390736,-88.23529758782387,76.200527287817
2024-09-23 21:43:38.901798,42.12,54.065648,0.0007959191899112484,-0.023429960042815445,0.09774922960030558,36.09446859390736,-88.23529758782387,76.200527287817
2024-09-23 21:43:38.934728,42.12,54.065648,0.0007959191899112484,-0.023429960042815445,0.0973512698629459,36.09446859390736,-88.23529758782387,76.200527287817
2024-09-23 21:43:38.987406,42.12,54.065648,0.0007959191899112484,-0.023429960042815445,0.0973512698629459,44.11764879391193,-88.23529758782387,76.200527287817
2024-09-23 21:43:39.031634,42.12,54.065648,0.0007959191899112484,-0.023429960042815445,0.0973512698629459,44.11764879391193,-92.24360919585227,76.200527287817
2024-09-23 21:43:39.043741,42.12,54.065699,0.0007461703303635545,-0.023181236725942318,0.09764974270391902,44.11764879391193,-92.24360919585227,80.21211738781929
2024-09-23 21:43:39.087191,42.12,54.065786,0.0007461703303635545,-0.023181236725942318,0.09764974270391902,44.11764879391193,-100.26678939585686,76.200527287817
2024-09-23 21:43:39.098352,42.12,54.065786,0.0006964318663124887,-0.022833026512682618,0.09764974270391902,44.11764879391193,-100.26678939585686,76.200527287817
2024-09-23 21:43:39.130097,42.12,54.065786,0.0006964318663124887,-0.022833026512682618,0.09755024973162574,44.11764879391193,-100.26678939585686,76.200527287817
2024-09-23 21:43:39.142039,42.12,54.065884,0.0006466830067647949,-0.022833026512682618,0.09755024973162574,44.11764879391193,-96.25519929585457,72.1922225099802
2024-09-23 21:43:39.185219,42.12,54.065884,0.0006466830067647949,-0.022833026512682618,0.09824668230995855,40.106058693909645,-96.25519929585457,72.1922225099802
2024-09-23 21:43:39.196995,42.12,54.065982,0.0006466830067647949,-0.022833026512682618,0.09824668230995855,40.106058693909645,-96.25519929585457,72.1922225099802
2024-09-23 21:43:39.228848,42.12,54.065982,0.001044642601720419,-0.02367869399252531,0.0976994861521123,40.106058693909645,-96.25519929585457,72.1922225099802
2024-09-23 21:43:39.240826,42.12,54.065982,0.001044642601720419,-0.02367869399252531,0.0976994861521123,40.106058693909645,-96.25519929585457,76.200527287817
2024-09-23 21:43:39.283275,41.99,54.066127,0.0008954064660419869,-0.02362894446842532,0.0973512698629459,44.11764879391193,-100.26678939585686,76.200527287817
2024-09-23 21:43:39.325914,41.99,54.066179,0.0009948937421727254,-0.02362894446842532,0.0973512698629459,44.11764879391193,-100.26678939585686,72.1922225099802
2024-09-23 21:43:39.337675,41.99,54.066179,0.0009948937421727254,-0.023479709566915436,0.09759999317981902,36.09446859390736,-100.26678939585686,72.1922225099802
2024-09-23 21:43:39.380718,41.99,54.06623,0.0007959191899112484,-0.02293251340906919,0.09695331012558621,36.09446859390736,-92.24360919585227,84.22370748782159
2024-09-23 21:43:39.423918,41.99,54.06623,0.0007959191899112484,-0.02293251340906919,0.09695331012558621,40.106058693909645,-92.24360919585227,76.200527287817
2024-09-23 21:43:39.435613,41.99,54.06628,0.00034821073540793035,-0.023230986250042305,0.09695331012558621,40.106058693909645,-92.24360919585227,76.200527287817
2024-09-23 21:43:39.478841,41.99,54.066331,0.0007461703303635545,-0.023230986250042305,0.0973015264147526,40.106058693909645,-96.25519929585457,72.1922225099802
2024-09-23 21:43:39.521235,41.99,54.066331,0.0007461703303635545,-0.02238531725122294,0.09740101331113918,36.09446859390736,-96.25519929585457,72.1922225099802
2024-09-23 21:43:39.532733,41.99,54.066419,0.0007461703303635545,-0.02238531725122294,0.09740101331113918,36.09446859390736,-96.25519929585457,76.200527287817
2024-09-23 21:43:39.575537,41.99,54.066419,0.0001989745997294981,-0.022833026512682618,0.0976994861521123,40.106058693909645,-88.23529758782387,80.21211738781929
2024-09-23 21:43:39.669156,41.99,54.066472,4.973845218406054e-05,-0.023181236725942318,0.09755024973162574,40.106058693909645,-88.23529758782387,80.21211738781929
2024-09-23 21:43:39.681973,41.99,54.066472,4.973845218406054e-05,-0.023181236725942318,0.09755024973162574,44.11764879391193,-92.24360919585227,80.21211738781929
2024-09-23 21:43:39.714843,41.99,54.066472,4.973845218406054e-05,-0.023181236725942318,0.09755024973162574,44.11764879391193,-92.24360919585227,80.21211738781929
2024-09-23 21:43:39.726149,41.99,54.066522,0.0006964318663124887,-0.02313149783467906,0.09720203344245934,36.09446859390736,-92.24360919585227,80.21211738781929
2024-09-23 21:43:39.768194,41.99,54.066573,0.000845657606494293,-0.023280723622328886,0.09720203344245934,36.09446859390736,-92.24360919585227,80.21211738781929
2024-09-23 21:43:39.780344,41.99,54.066573,0.000845657606494293,-0.023280723622328886,0.09720203344245934,36.09446859390736,-92.24360919585227,80.21211738781929
2024-09-23 21:43:39.813900,41.99,54.066573,0.000845657606494293,-0.023280723622328886,0.09720203344245934,44.11764879391193,-92.24360919585227,80.21211738781929
2024-09-23 21:43:39.825775,41.99,54.066624,0.00044769805900669,-0.022584292562972758,0.09720203344245934,44.11764879391193,-92.24360919585227,80.21211738781929
2024-09-23 21:43:39.909948,41.99,54.066624,0.00044769805900669,-0.022584292562972758,0.09720203344245934,48.12595698684454,-92.24360919585227,80.21211738781929
2024-09-23 21:43:39.921763,41.99,54.066674,0.0011938787373988514,-0.022584292562972758,0.09720203344245934,48.12595698684454,-92.24360919585227,72.1922225099802
2024-09-23 21:43:39.964295,41.99,54.066674,0.0011938787373988514,-0.02308174982955575,0.09720203344245934,48.12595698684454,-92.24360919585227,72.1922225099802
2024-09-23 21:43:40.007353,41.99,54.066674,0.0011938787373988514,-0.02308174982955575,0.09779897304849887,40.106058693909645,-92.24360919585227,72.1922225099802
2024-09-23 21:43:40.018414,41.99,54.066809,0.0006466830067647949,-0.02308174982955575,0.09779897304849887,40.106058693909645,-96.25519929585457,80.21211738781929
2024-09-23 21:43:40.061300,41.99,54.066809,0.0006466830067647949,-0.022982261414192504,0.09695331012558621,36.09446859390736,-92.24360919585227,76.200527287817
2024-09-23 21:43:40.073181,41.99,54.066861,0.0006466830067647949,-0.022982261414192504,0.09695331012558621,36.09446859390736,-92.24360919585227,76.200527287817
2024-09-23 21:43:40.105000,41.99,54.066861,9.948729986474904e-05,-0.023827930413011865,0.09695331012558621,36.09446859390736,-92.24360919585227,76.200527287817
2024-09-23 21:43:40.116246,41.99,54.066861,9.948729986474904e-05,-0.023827930413011865,0.09710254654607277,48.12595698684454,-92.24360919585227,76.200527287817
2024-09-23 21:43:40.159120,41.99,54.066912,0.0006964318663124887,-0.02308174982955575,0.09799795899308542,48.12595698684454,-92.24360919585227,76.200527287817
2024-09-23 21:43:40.171122,41.99,54.066912,0.0006964318663124887,-0.02308174982955575,0.09799795899308542,48.12595698684454,-88.23529758782387,76.200527287817
2024-09-23 21:43:40.203455,41.99,54.067006,0.000845657606494293,-0.02308174982955575,0.09799795899308542,48.12595698684454,-88.23529758782387,76.200527287817
2024-09-23 21:43:40.214559,41.99,54.067006,0.000845657606494293,-0.022982261414192504,0.09725178296655933,44.11764879391193,-88.23529758782387,76.200527287817
2024-09-23 21:43:40.257144,41.99,54.067104,0.00034821073540793035,-0.02293251340906919,0.09695331012558621,44.11764879391193,-88.23529758782387,80.21211738781929
2024-09-23 21:43:40.299532,41.44,54.067104,0.00034821073540793035,-0.02293251340906919,0.09695331012558621,40.106058693909645,-88.23529758782387,80.21211738781929
2024-09-23 21:43:40.311093,41.44,54.067154,0.001044642601720419,-0.023181236725942318,0.09695331012558621,40.106058693909645,-88.23529758782387,84.22370748782159
2024-09-23 21:43:40.396875,41.44,54.067154,0.001044642601720419,-0.023181236725942318,0.0973512698629459,40.106058693909645,-88.23529758782387,84.22370748782159
2024-09-23 21:43:40.408436,41.44,54.067205,0.0008954064660419869,-0.023181236725942318,0.0973512698629459,40.106058693909645,-92.24360919585227,84.22370748782159
2024-09-23 21:43:40.451241,41.44,54.067205,0.0008954064660419869,-0.023230986250042305,0.09750050628343246,44.11764879391193,-100.26678939585686,80.21211738781929
2024-09-23 21:43:40.463126,41.44,54.067297,0.0008954064660419869,-0.023230986250042305,0.09750050628343246,44.11764879391193,-100.26678939585686,80.21211738781929
2024-09-23 21:43:40.494973,41.44,54.067297,0.0008954064660419869,-0.023230986250042305,0.09750050628343246,44.11764879391193,-100.26678939585686,80.21211738781929
2024-09-23 21:43:40.506364,41.44,54.067297,0.0008954064660419869,-0.02278327698858263,0.09715228999426605,40.106058693909645,-92.24360919585227,80.21211738781929
2024-09-23 21:43:40.548140,41.44,54.067348,0.0007461703303635545,-0.023728432883788564,0.09740101331113918,44.11764879391193,-92.24360919585227,80.21211738781929
2024-09-23 21:43:40.560193,41.44,54.067348,0.0007461703303635545,-0.023728432883788564,0.09740101331113918,44.11764879391193,-96.25519929585457,80.21211738781929
2024-09-23 21:43:40.591898,41.44,54.067399,0.0007461703303635545,-0.023728432883788564,0.09740101331113918,44.11764879391193,-96.25519929585457,80.21211738781929
2024-09-23 21:43:40.603015,41.44,54.067399,0.0007461703303635545,-0.022733528983459317,0.09725178296655933,44.11764879391193,-96.25519929585457,80.21211738781929
2024-09-23 21:43:40.644887,41.44,54.067494,0.0004974468710863627,-0.022733528983459317,0.09725178296655933,44.11764879391193,-100.26678939585686,76.200527287817
2024-09-23 21:43:40.656748,41.44,54.067494,0.0004974468710863627,-0.02308174982955575,0.09710254654607277,44.11764879391193,-100.26678939585686,76.200527287817
2024-09-23 21:43:40.689959,41.44,54.067494,0.0004974468710863627,-0.02308174982955575,0.09710254654607277,40.106058693909645,-96.25519929585457,76.200527287817
2024-09-23 21:43:40.701119,41.44,54.067544,0.001044642601720419,-0.02308174982955575,0.09710254654607277,40.106058693909645,-96.25519929585457,76.200527287817
2024-09-23 21:43:40.742966,41.44,54.067595,0.001044642601720419,-0.02308174982955575,0.09759999317981902,52.137550501942634,-92.24360919585227,76.200527287817
2024-09-23 21:43:40.755615,41.44,54.067595,0.00014922575204880957,-0.02308174982955575,0.09759999317981902,52.137550501942634,-92.24360919585227,76.200527287817
2024-09-23 21:43:40.788194,41.44,54.067595,0.00014922575204880957,-0.022584292562972758,0.09740101331113918,36.09446859390736,-92.24360919585227,76.200527287817
2024-09-23 21:43:40.800561,41.44,54.067687,0.00014922575204880957,-0.022584292562972758,0.09740101331113918,36.09446859390736,-96.25519929585457,76.200527287817
2024-09-23 21:43:40.843722,41.44,54.067687,0.000845657606494293,-0.022982261414192504,0.09789846602079214,52.137550501942634,-92.24360919585227,80.21211738781929
2024-09-23 21:43:40.886532,41.44,54.067739,0.000845657606494293,-0.022982261414192504,0.09789846602079214,52.137550501942634,-92.24360919585227,80.21211738781929
2024-09-23 21:43:40.938630,41.44,54.067739,0.001044642601720419,-0.023181236725942318,0.0973512698629459,56.14914060194492,-100.26678939585686,80.21211738781929
2024-09-23 21:43:40.950670,41.44,54.067739,0.001044642601720419,-0.023181236725942318,0.0973512698629459,56.14914060194492,-100.26678939585686,76.200527287817
2024-09-23 21:43:41.034397,41.44,54.067789,0.001044642601720419,-0.023230986250042305,0.0973512698629459,56.14914060194492,-100.26678939585686,76.200527287817
2024-09-23 21:43:41.086744,41.44,54.06784,0.001044642601720419,-0.023230986250042305,0.09774922960030558,48.12595698684454,-92.24360919585227,72.1922225099802
2024-09-23 21:43:41.129994,41.44,54.06784,0.001044642601720419,-0.02293251340906919,0.09755024973162574,40.106058693909645,-92.24360919585227,72.1922225099802
2024-09-23 21:43:41.141910,41.44,54.06784,0.001044642601720419,-0.02293251340906919,0.09755024973162574,40.106058693909645,-92.24360919585227,72.1922225099802
2024-09-23 21:43:41.184477,41.44,54.06789,0.0006964318663124887,-0.02303200030545576,0.09740101331113918,32.08287849390507,-92.24360919585227,72.1922225099802
2024-09-23 21:43:41.226272,41.44,54.06789,0.0006964318663124887,-0.02303200030545576,0.09740101331113918,32.08287849390507,-96.25519929585457,76.200527287817
2024-09-23 21:43:41.238429,41.44,54.067941,0.00014922575204880957,-0.023230986250042305,0.0973512698629459,32.08287849390507,-96.25519929585457,76.200527287817
2024-09-23 21:43:41.281973,41.44,54.068031,0.0006466830067647949,-0.0228827638849692,0.0973512698629459,44.11764879391193,-88.23529758782387,72.1922225099802
2024-09-23 21:43:41.325060,41.14,54.068031,0.0006466830067647949,-0.0228827638849692,0.09740101331113918,36.09446859390736,-96.25519929585457,72.1922225099802
2024-09-23 21:43:41.336455,41.14,54.068176,0.0004974468710863627,-0.0228827638849692,0.09740101331113918,36.09446859390736,-96.25519929585457,76.200527287817
2024-09-23 21:43:41.379353,41.14,54.068227,0.0004974468710863627,-0.02352945757203875,0.09720203344245934,44.11764879391193,-92.24360919585227,72.1922225099802
2024-09-23 21:43:41.422300,41.14,54.068227,0.00044769805900669,-0.02338022115155219,0.09750050628343246,44.11764879391193,-92.24360919585227,72.1922225099802
2024-09-23 21:43:41.433894,41.14,54.068227,0.00044769805900669,-0.02338022115155219,0.09750050628343246,44.11764879391193,-84.22370748782159,76.200527287817
2024-09-23 21:43:41.476880,41.14,54.068322,0.0012436275969465451,-0.023230986250042305,0.09745075675933246,44.11764879391193,-96.25519929585457,76.200527287817
2024-09-23 21:43:41.520511,41.14,54.068373,0.0007959191899112484,-0.023230986250042305,0.09745075675933246,44.11764879391193,-96.25519929585457,76.200527287817
2024-09-23 21:43:41.531771,41.14,54.068373,0.0007959191899112484,-0.02278327698858263,0.0973512698629459,32.08287849390507,-96.25519929585457,76.200527287817
2024-09-23 21:43:41.574253,41.14,54.068423,0.0006964318663124887,-0.02313149783467906,0.0973015264147526,32.08287849390507,-92.24360919585227,76.200527287817
2024-09-23 21:43:41.616232,41.14,54.068423,0.0006964318663124887,-0.02313149783467906,0.0973015264147526,32.08287849390507,-92.24360919585227,76.200527287817
2024-09-23 21:43:41.628392,41.14,54.068474,0.0007461703303635545,-0.02308174982955575,0.0973015264147526,32.08287849390507,-92.24360919585227,76.200527287817
2024-09-23 21:43:41.671561,41.14,54.068525,0.0008954064660419869,-0.02308174982955575,0.09705279702197278,36.09446859390736,-88.23529758782387,72.1922225099802
2024-09-23 21:43:41.713666,41.14,54.068525,0.0008954064660419869,-0.02352945757203875,0.0973015264147526,36.09446859390736,-88.23529758782387,72.1922225099802
2024-09-23 21:43:41.724730,41.14,54.068613,0.0008954064660419869,-0.02352945757203875,0.0973015264147526,44.11764879391193,-92.24360919585227,72.1922225099802
2024-09-23 21:43:41.768095,41.14,54.068613,0.0005471957306340564,-0.023579196463302005,0.09779897304849887,44.11764879391193,-92.24360919585227,72.1922225099802
2024-09-23 21:43:41.811289,41.14,54.068665,0.0005471957306340564,-0.023579196463302005,0.09779897304849887,44.11764879391193,-92.24360919585227,72.1922225099802
2024-09-23 21:43:41.822342,41.14,54.068665,0.0005471957306340564,-0.02308174982955575,0.09725178296655933,36.09446859390736,-96.25519929585457,72.1922225099802
2024-09-23 21:43:41.864645,41.14,54.068715,0.00044769805900669,-0.02263404056809607,0.09725178296655933,36.09446859390736,-96.25519929585457,76.200527287817
2024-09-23 21:43:41.877768,41.14,54.068715,0.00044769805900669,-0.02263404056809607,0.09779897304849887,40.106058693909645,-96.25519929585457,76.200527287817
2024-09-23 21:43:41.910347,41.14,54.068715,0.00044769805900669,-0.02263404056809607,0.09779897304849887,40.106058693909645,-100.26678939585686,76.200527287817
2024-09-23 21:43:41.962619,41.14,54.068766,0.0005969341946851222,-0.02278327698858263,0.09759999317981902,40.106058693909645,-100.26678939585686,80.21211738781929
2024-09-23 21:43:41.974617,41.14,54.068766,0.0005969341946851222,-0.02278327698858263,0.09759999317981902,44.11764879391193,-100.26678939585686,80.21211738781929
2024-09-23 21:43:42.007574,41.14,54.068766,0.0005969341946851222,-0.02278327698858263,0.09759999317981902,44.11764879391193,-92.24360919585227,68.18063240997792
2024-09-23 21:43:42.101177,41.14,54.068817,0.0005969341946851222,-0.02278327698858263,0.09759999317981902,44.11764879391193,-92.24360919585227,68.18063240997792
2024-09-23 21:43:42.113341,41.14,54.068817,0.0006964318663124887,-0.02293251340906919,0.09779897304849887,48.12595698684454,-96.25519929585457,68.18063240997792
2024-09-23 21:43:42.155805,41.14,54.068867,0.000845657606494293,-0.022833026512682618,0.09779897304849887,48.12595698684454,-96.25519929585457,72.1922225099802
2024-09-23 21:43:42.167627,41.14,54.068867,0.000845657606494293,-0.022833026512682618,0.09759999317981902,48.12595698684454,-96.25519929585457,72.1922225099802
2024-09-23 21:43:42.200473,41.14,54.068867,0.000845657606494293,-0.022833026512682618,0.09759999317981902,48.12595698684454,-96.25519929585457,80.21211738781929
2024-09-23 21:43:42.211940,41.14,54.068955,0.0009451553255896806,-0.023330473146428877,0.09705279702197278,48.12595698684454,-96.25519929585457,80.21211738781929
2024-09-23 21:43:42.255573,41.14,54.069005,0.0005471957306340564,-0.023429960042815445,0.09705279702197278,48.12595698684454,-96.25519929585457,72.1922225099802
2024-09-23 21:43:42.298898,41.14,54.069005,0.0005471957306340564,-0.023429960042815445,0.09720203344245934,40.106058693909645,-96.25519929585457,72.1922225099802
2024-09-23 21:43:42.310574,41.14,54.069101,0.0009451553255896806,-0.023429960042815445,0.09720203344245934,40.106058693909645,-84.22370748782159,76.200527287817
2024-09-23 21:43:42.353778,41.0,54.069247,0.0009451553255896806,-0.02303200030545576,0.09725178296655933,48.12595698684454,-96.25519929585457,72.1922225099802
2024-09-23 21:43:42.397226,41.0,54.069247,0.001044642601720419,-0.023479709566915436,0.0973512698629459,48.12595698684454,-96.25519929585457,72.1922225099802
2024-09-23 21:43:42.408330,41.0,54.069247,0.001044642601720419,-0.023479709566915436,0.0973512698629459,44.11764879391193,-96.25519929585457,72.1922225099802
2024-09-23 21:43:42.450796,41.0,54.069299,0.0005969341946851222,-0.02293251340906919,0.09715228999426605,40.106058693909645,-96.25519929585457,72.1922225099802
2024-09-23 21:43:42.493965,41.0,54.069349,0.0005969341946851222,-0.02293251340906919,0.09715228999426605,40.106058693909645,-96.25519929585457,72.1922225099802
2024-09-23 21:43:42.505250,41.0,54.069349,0.0009451553255896806,-0.02268379009219606,0.09764974270391902,40.106058693909645,-96.25519929585457,72.1922225099802
2024-09-23 21:43:42.589211,41.0,54.069349,0.0009451553255896806,-0.02268379009219606,0.09764974270391902,40.106058693909645,-92.24360919585227,72.1922225099802
2024-09-23 21:43:42.600418,41.0,54.0694,0.0006466830067647949,-0.023181236725942318,0.09755024973162574,40.106058693909645,-92.24360919585227,72.1922225099802
2024-09-23 21:43:42.644098,41.0,54.069451,0.0006466830067647949,-0.023181236725942318,0.09755024973162574,36.09446859390736,-100.26678939585686,76.200527287817
2024-09-23 21:43:42.656629,41.0,54.069451,0.000845657606494293,-0.023181236725942318,0.09755024973162574,36.09446859390736,-100.26678939585686,76.200527287817
2024-09-23 21:43:42.688358,41.0,54.069451,0.000845657606494293,-0.023181236725942318,0.09784872257259886,40.106058693909645,-100.26678939585686,76.200527287817
2024-09-23 21:43:42.699459,41.0,54.069501,0.0004974468710863627,-0.023181236725942318,0.09784872257259886,40.106058693909645,-88.23529758782387,76.200527287817
2024-09-23 21:43:42.741593,41.0,54.069501,0.0004974468710863627,-0.023181236725942318,0.09755024973162574,44.11764879391193,-96.25519929585457,80.21211738781929
2024-09-23 21:43:42.753648,41.0,54.069588,0.0004974468710863627,-0.023181236725942318,0.09755024973162574,44.11764879391193,-96.25519929585457,80.21211738781929
2024-09-23 21:43:42.785547,41.0,54.069588,0.000845657606494293,-0.023181236725942318,0.09755024973162574,44.11764879391193,-96.25519929585457,80.21211738781929
2024-09-23 21:43:42.890476,41.0,54.069686,0.000845657606494293,-0.022833026512682618,0.09745075675933246,36.09446859390736,-100.26678939585686,72.1922225099802
2024-09-23 21:43:42.933587,41.0,54.069686,0.0008954064660419869,-0.02313149783467906,0.09740101331113918,36.09446859390736,-100.26678939585686,72.1922225099802
2024-09-23 21:43:42.986194,41.0,54.069738,0.0011441298778511575,-0.02313149783467906,0.09740101331113918,40.106058693909645,-96.25519929585457,76.200527287817
2024-09-23 21:43:42.998107,41.0,54.069738,0.0011441298778511575,-0.02308174982955575,0.09740101331113918,40.106058693909645,-96.25519929585457,76.200527287817
2024-09-23 21:43:43.032072,41.0,54.069738,0.0011441298778511575,-0.02308174982955575,0.09759999317981902,48.12595698684454,-92.24360919585227,76.200527287817
2024-09-23 21:43:43.043146,41.0,54.069788,0.0007959191899112484,-0.02308174982955575,0.09759999317981902,48.12595698684454,-92.24360919585227,80.21211738781929
2024-09-23 21:43:43.085364,41.0,54.069839,0.0007959191899112484,-0.02293251340906919,0.09670458680871308,32.08287849390507,-96.25519929585457,76.200527287817
2024-09-23 21:43:43.132434,41.0,54.069839,0.0008954064660419869,-0.02313149783467906,0.0973512698629459,40.106058693909645,-96.25519929585457,76.200527287817
2024-09-23 21:43:43.144415,41.0,54.069839,0.0008954064660419869,-0.02313149783467906,0.0973512698629459,40.106058693909645,-96.25519929585457,76.200527287817
2024-09-23 21:43:43.178133,41.0,54.06998,0.000845657606494293,-0.02293251340906919,0.0973512698629459,40.106058693909645,-96.25519929585457,76.200527287817
2024-09-23 21:43:43.189458,41.0,54.06998,0.000845657606494293,-0.02293251340906919,0.09720203344245934,52.137550501942634,-92.24360919585227,76.200527287817
2024-09-23 21:43:43.234003,41.0,54.070077,0.0009948937421727254,-0.023429960042815445,0.09720203344245934,44.11764879391193,-92.24360919585227,76.200527287817
2024-09-23 21:43:43.277432,41.0,54.070128,0.0005969341946851222,-0.023429960042815445,0.09720203344245934,44.11764879391193,-96.25519929585457,68.18063240997792
2024-09-23 21:43:43.288812,41.0,54.070128,0.0005969341946851222,-0.02293251340906919,0.09750050628343246,44.11764879391193,-96.25519929585457,68.18063240997792
2024-09-23 21:43:43.321241,41.0,54.070128,0.0005969341946851222,-0.02293251340906919,0.09750050628343246,48.12595698684454,-92.24360919585227,68.18063240997792
2024-09-23 21:43:43.333089,41.0,54.070128,0.0005969341946851222,-0.02293251340906919,0.09750050628343246,48.12595698684454,-92.24360919585227,72.1922225099802
2024-09-23 21:43:43.375488,40.32,54.070179,0.0005969341946851222,-0.02308174982955575,0.09750050628343246,40.106058693909645,-92.24360919585227,72.1922225099802
2024-09-23 21:43:43.387466,40.32,54.070179,0.0005969341946851222,-0.02308174982955575,0.09750050628343246,40.106058693909645,-96.25519929585457,72.1922225099802
2024-09-23 21:43:43.420384,40.32,54.070229,0.0005969341946851222,-0.02308174982955575,0.09750050628343246,40.106058693909645,-96.25519929585457,76.200527287817
2024-09-23 21:43:43.432040,40.32,54.070229,0.0005969341946851222,-0.0228827638849692,0.0973512698629459,48.12595698684454,-96.25519929585457,76.200527287817
2024-09-23 21:43:43.475285,40.32,54.07032,0.000845657606494293,-0.023280723622328886,0.09710254654607277,48.12595698684454,-92.24360919585227,76.200527287817
2024-09-23 21:43:43.518456,40.32,54.07032,0.000845657606494293,-0.023280723622328886,0.09710254654607277,48.12595698684454,-92.24360919585227,76.200527287817
2024-09-23 21:43:43.530609,40.32,54.070371,0.0012436275969465451,-0.02352945757203875,0.09710254654607277,48.12595698684454,-92.24360919585227,80.21211738781929
2024-09-23 21:43:43.573824,40.32,54.070422,0.0008954064660419869,-0.02352945757203875,0.09715228999426605,48.12595698684454,-96.25519929585457,72.1922225099802
2024-09-23 21:43:43.616065,40.32,54.070422,0.0008954064660419869,-0.022833026512682618,0.09715228999426605,48.12595698684454,-96.25519929585457,72.1922225099802
2024-09-23 21:43:43.627064,40.32,54.070515,0.0008954064660419869,-0.022833026512682618,0.09715228999426605,40.106058693909645,-100.26678939585686,80.21211738781929
2024-09-23 21:43:43.670515,40.32,54.070515,0.0004974468710863627,-0.02303200030545576,0.09779897304849887,32.08287849390507,-96.25519929585457,72.1922225099802
