Ayaan's Suite
Timestamp,Sample Rate (Hz),Time,Ax,Ay,Az,Gx,Gy,Gz
2024-09-23 15:54:17.628672,0,33.103997,-0.0033329230534799477,-0.02352945757203875,0.09720203344245934,36.09446859390736,-104.27510100388527,76.200527287817
2024-09-23 15:54:17.660919,0,33.103997,-0.0033329230534799477,-0.02352945757203875,0.09720203344245934,40.106058693909645,-104.27510100388527,72.1922225099802
2024-09-23 15:54:17.672301,0,33.104048,-0.0035816467500972456,-0.022833026512682618,0.09720203344245934,40.106058693909645,-104.27510100388527,72.1922225099802
2024-09-23 15:54:17.714475,0,33.104098,-0.003233425524256645,-0.022833026512682618,0.09755024973162574,40.106058693909645,-92.24360919585227,80.21211738781929
2024-09-23 15:54:17.757576,0,33.104098,-0.003233425524256645,-0.02293251340906919,0.09745075675933246,40.106058693909645,-92.24360919585227,80.21211738781929
2024-09-23 15:54:17.773617,0,33.104185,-0.003233425524256645,-0.02293251340906919,0.09745075675933246,40.106058693909645,-96.25519929585457,76.200527287817
2024-09-23 15:54:17.806668,0,33.104185,-0.0028852147413806935,-0.02308174982955575,0.09745075675933246,40.106058693909645,-96.25519929585457,76.200527287817
2024-09-23 15:54:17.817836,0,33.104185,-0.0028852147413806935,-0.02308174982955575,0.0973512698629459,28.07457030097246,-96.25519929585457,84.22370748782159
2024-09-23 15:54:17.859570,0,33.104236,-0.003233425524256645,-0.02303200030545576,0.09675432418099966,28.07457030097246,-96.25519929585457,84.22370748782159
2024-09-23 15:54:17.871499,0,33.104236,-0.003233425524256645,-0.02303200030545576,0.09675432418099966,28.07457030097246,-88.23529758782387,84.22370748782159
2024-09-23 15:54:17.903614,0,33.104287,-0.003233425524256645,-0.02303200030545576,0.09675432418099966,28.07457030097246,-88.23529758782387,80.21211738781929
2024-09-23 15:54:17.915204,0,33.104287,-0.0029847020175114316,-0.023479709566915436,0.09745075675933246,32.08287849390507,-88.23529758782387,80.21211738781929
2024-09-23 15:54:17.956867,0,33.104338,-0.0030841997366068195,-0.02313149783467906,0.09745075675933246,32.08287849390507,-88.23529758782387,76.200527287817
2024-09-23 15:54:17.968556,0,33.104338,-0.0030841997366068195,-0.02313149783467906,0.09670458680871308,32.08287849390507,-88.23529758782387,76.200527287817
2024-09-23 15:54:18.001904,0,33.104338,-0.0030841997366068195,-0.02313149783467906,0.09670458680871308,36.09446859390736,-112.29828120388984,76.200527287817
2024-09-23 15:54:18.012986,0,33.104388,-0.0035816467500972456,-0.023429960042815445,0.09670458680871308,36.09446859390736,-112.29828120388984,72.1922225099802
2024-09-23 15:54:18.055483,0,33.104439,-0.0035816467500972456,-0.023429960042815445,0.09759999317981902,36.09446859390736,-104.27510100388527,80.21211738781929
2024-09-23 15:54:18.067221,0,33.104439,-0.0033329230534799477,-0.023429960042815445,0.09759999317981902,36.09446859390736,-104.27510100388527,80.21211738781929
2024-09-23 15:54:18.099726,0,33.104439,-0.0033329230534799477,-0.023280723622328886,0.0970030596496862,48.12595698684454,-104.27510100388527,80.21211738781929
2024-09-23 15:54:18.111192,0,33.104526,-0.0033329230534799477,-0.023280723622328886,0.0970030596496862,48.12595698684454,-100.26678939585686,76.200527287817
2024-09-23 15:54:18.154061,0,33.104526,-0.0029847020175114316,-0.022733528983459317,0.09715228999426605,40.106058693909645,-104.27510100388527,72.1922225099802
2024-09-23 15:54:18.198226,0,33.104578,-0.0027359787006383035,-0.023230986250042305,0.09715228999426605,40.106058693909645,-104.27510100388527,72.1922225099802
2024-09-23 15:54:18.209478,0,33.104578,-0.0027359787006383035,-0.023230986250042305,0.09685382322919964,36.09446859390736,-96.25519929585457,72.1922225099802
2024-09-23 15:54:18.252109,0,33.104628,-0.0027359787006383035,-0.023230986250042305,0.0973512698629459,24.06297849342227,-96.25519929585457,76.200527287817
2024-09-23 15:54:18.295197,0,33.104679,-0.0027359787006383035,-0.023230986250042305,0.0973512698629459,24.06297849342227,-96.25519929585457,80.21211738781929
2024-09-23 15:54:18.306668,0,33.104679,-0.002785727465249955,-0.02303200030545576,0.09750050628343246,24.06297849342227,-96.25519929585457,80.21211738781929
2024-09-23 15:54:18.350060,0,33.10473,-0.002785727465249955,-0.02303200030545576,0.09750050628343246,36.09446859390736,-92.24360919585227,76.200527287817
2024-09-23 15:54:18.393416,0,33.10473,-0.0030344509719951677,-0.02367869399252531,0.09695331012558621,36.09446859390736,-92.24360919585227,76.200527287817
2024-09-23 15:54:18.405349,0,33.10473,-0.0030344509719951677,-0.02367869399252531,0.09695331012558621,36.09446859390736,-96.25519929585457,76.200527287817
2024-09-23 15:54:18.448194,0,33.10478,-0.003233425524256645,-0.02313149783467906,0.09710254654607277,40.106058693909645,-96.25519929585457,76.200527287817
2024-09-23 15:54:18.490744,0,33.104867,-0.0029847020175114316,-0.02313149783467906,0.09710254654607277,40.106058693909645,-96.25519929585457,84.22370748782159
2024-09-23 15:54:18.502576,0,33.104867,-0.0029847020175114316,-0.023280723622328886,0.09720203344245934,44.11764879391193,-96.25519929585457,84.22370748782159
2024-09-23 15:54:18.536156,0,33.104867,-0.0029847020175114316,-0.023280723622328886,0.09720203344245934,44.11764879391193,-96.25519929585457,84.22370748782159
2024-09-23 15:54:18.547376,0,33.104919,-0.0029349636958644295,-0.023429960042815445,0.09645586349183995,44.11764879391193,-96.25519929585457,80.21211738781929
2024-09-23 15:54:18.589831,0,33.10497,-0.0029349636958644295,-0.023429960042815445,0.09645586349183995,48.12595698684454,-100.26678939585686,80.21211738781929
2024-09-23 15:54:18.601166,0,33.10497,-0.0031339382481259063,-0.023479709566915436,0.09645586349183995,48.12595698684454,-100.26678939585686,80.21211738781929
2024-09-23 15:54:18.633948,45.23,33.10497,-0.0031339382481259063,-0.023479709566915436,0.09710254654607277,48.12595698684454,-100.26678939585686,80.21211738781929
2024-09-23 15:54:18.645461,45.23,33.10502,-0.0028852147413806935,-0.023479709566915436,0.09710254654607277,28.07457030097246,-100.26678939585686,76.200527287817
2024-09-23 15:54:18.688115,45.23,33.10502,-0.0028852147413806935,-0.022833026512682618,0.09755024973162574,4.008308192932605,-104.27510100388527,80.21211738781929
2024-09-23 15:54:18.699850,45.23,33.105111,-0.0028852147413806935,-0.022833026512682618,0.09755024973162574,4.008308192932605,-104.27510100388527,80.21211738781929
2024-09-23 15:54:18.732541,45.23,33.105111,-0.003233425524256645,-0.02313149783467906,0.09755024973162574,4.008308192932605,-104.27510100388527,80.21211738781929
2024-09-23 15:54:18.744411,45.23,33.105111,-0.003233425524256645,-0.02313149783467906,0.09685382322919964,20.05138839341998,-100.26678939585686,84.22370748782159
2024-09-23 15:54:18.787186,45.23,33.105163,-0.002785727465249955,-0.02338022115155219,0.09715228999426605,36.09446859390736,-96.25519929585457,84.22370748782159
2024-09-23 15:54:18.829914,45.23,33.105163,-0.002785727465249955,-0.02338022115155219,0.09715228999426605,36.09446859390736,-96.25519929585457,80.21211738781929
2024-09-23 15:54:18.841687,45.23,33.105213,-0.002288270198666964,-0.02367869399252531,0.09670458680871308,40.106058693909645,-96.25519929585457,80.21211738781929
2024-09-23 15:54:18.885618,45.23,33.105264,-0.0031836870127375577,-0.02367869399252531,0.09745075675933246,40.106058693909645,-92.24360919585227,84.22370748782159
2024-09-23 15:54:18.928066,45.23,33.105264,-0.0031836870127375577,-0.02367869399252531,0.09745075675933246,60.15744537978172,-92.24360919585227,84.22370748782159
2024-09-23 15:54:18.981151,45.23,33.105315,-0.0031339382481259063,-0.023230986250042305,0.09745075675933246,60.15744537978172,-96.25519929585457,88.23529758782387
2024-09-23 15:54:18.993422,45.23,33.105315,-0.0031339382481259063,-0.023230986250042305,0.09675432418099966,60.15744537978172,-96.25519929585457,88.23529758782387
2024-09-23 15:54:19.025997,45.23,33.105315,-0.0031339382481259063,-0.023230986250042305,0.09675432418099966,44.11764879391193,-100.26678939585686,88.23529758782387
2024-09-23 15:54:19.037926,45.23,33.105365,-0.0031339382481259063,-0.023728432883788564,0.09675432418099966,44.11764879391193,-100.26678939585686,80.21211738781929
2024-09-23 15:54:19.080716,45.23,33.105452,-0.0026862297461545674,-0.023728432883788564,0.09695331012558621,32.08287849390507,-96.25519929585457,80.21211738781929
2024-09-23 15:54:19.122762,45.23,33.105452,-0.0026862297461545674,-0.02268379009219606,0.09725178296655933,32.08287849390507,-96.25519929585457,80.21211738781929
2024-09-23 15:54:19.134515,45.23,33.105504,-0.0026862297461545674,-0.02268379009219606,0.09725178296655933,28.07457030097246,-96.25519929585457,80.21211738781929
2024-09-23 15:54:19.177483,45.23,33.105504,-0.003631395514708897,-0.023230986250042305,0.09710254654607277,40.106058693909645,-104.27510100388527,76.200527287817
2024-09-23 15:54:19.220100,45.23,33.105599,-0.002636491424507565,-0.023230986250042305,0.09710254654607277,40.106058693909645,-104.27510100388527,76.200527287817
2024-09-23 15:54:19.231288,45.23,33.105599,-0.002636491424507565,-0.02338022115155219,0.09715228999426605,52.137550501942634,-96.25519929585457,76.200527287817
2024-09-23 15:54:19.274423,45.23,33.105651,-0.0028354659767690416,-0.023579196463302005,0.0973512698629459,52.137550501942634,-96.25519929585457,76.200527287817
2024-09-23 15:54:19.286071,45.23,33.105651,-0.0028354659767690416,-0.023579196463302005,0.0973512698629459,52.137550501942634,-96.25519929585457,76.200527287817
2024-09-23 15:54:19.318521,45.23,33.105701,-0.0028354659767690416,-0.023579196463302005,0.0973512698629459,52.137550501942634,-96.25519929585457,80.21211738781929
2024-09-23 15:54:19.329602,45.23,33.105701,-0.0027359787006383035,-0.02313149783467906,0.0973015264147526,52.137550501942634,-96.25519929585457,80.21211738781929
2024-09-23 15:54:19.371892,45.23,33.105752,-0.003233425524256645,-0.02313149783467906,0.0973015264147526,52.137550501942634,-88.23529758782387,84.22370748782159
2024-09-23 15:54:19.415090,45.23,33.105752,-0.003233425524256645,-0.02313149783467906,0.09680407370509965,20.05138839341998,-88.23529758782387,84.22370748782159
2024-09-23 15:54:19.426423,45.23,33.105802,-0.0024872551938930902,-0.02313149783467906,0.09680407370509965,20.05138839341998,-100.26678939585686,76.200527287817
2024-09-23 15:54:19.468471,45.23,33.105802,-0.0024872551938930902,-0.02352945757203875,0.09715228999426605,28.07457030097246,-100.26678939585686,84.22370748782159
2024-09-23 15:54:19.480564,45.23,33.105891,-0.0024872551938930902,-0.02352945757203875,0.09715228999426605,28.07457030097246,-100.26678939585686,84.22370748782159
2024-09-23 15:54:19.514412,45.23,33.105891,-0.0028852147413806935,-0.02233556924609963,0.09715228999426605,28.07457030097246,-100.26678939585686,84.22370748782159
2024-09-23 15:54:19.526203,45.23,33.105891,-0.0028852147413806935,-0.02233556924609963,0.09715228999426605,32.08287849390507,-92.24360919585227,84.22370748782159
2024-09-23 15:54:19.568626,45.23,33.105943,-0.0031836870127375577,-0.023728432883788564,0.09725178296655933,32.08287849390507,-92.24360919585227,84.22370748782159
2024-09-23 15:54:19.661746,42.07,33.105943,-0.0031836870127375577,-0.023728432883788564,0.09725178296655933,40.106058693909645,-92.24360919585227,80.21211738781929
2024-09-23 15:54:19.673447,42.07,33.105993,-0.003631395514708897,-0.02367869399252531,0.09725178296655933,40.106058693909645,-92.24360919585227,80.21211738781929
2024-09-23 15:54:19.705782,42.07,33.105993,-0.003631395514708897,-0.02367869399252531,0.09759999317981902,40.106058693909645,-92.24360919585227,80.21211738781929
2024-09-23 15:54:19.716823,42.07,33.106044,-0.0029847020175114316,-0.02367869399252531,0.09759999317981902,60.15744537978172,-104.27510100388527,68.18063240997792
2024-09-23 15:54:19.759593,42.07,33.106044,-0.0029847020175114316,-0.023479709566915436,0.09750050628343246,60.15744537978172,-100.26678939585686,68.18063240997792
2024-09-23 15:54:19.771283,42.07,33.106095,-0.0029847020175114316,-0.023479709566915436,0.09750050628343246,60.15744537978172,-100.26678939585686,72.1922225099802
2024-09-23 15:54:19.805037,42.07,33.106095,-0.0029349636958644295,-0.023280723622328886,0.09750050628343246,60.15744537978172,-100.26678939585686,72.1922225099802
2024-09-23 15:54:19.816118,42.07,33.106095,-0.0029349636958644295,-0.023280723622328886,0.09665483728461309,40.106058693909645,-100.26678939585686,80.21211738781929
2024-09-23 15:54:19.858272,42.07,33.106145,-0.0035318979854855937,-0.022584292562972758,0.0973015264147526,32.08287849390507,-100.26678939585686,80.21211738781929
2024-09-23 15:54:19.869853,42.07,33.106145,-0.0035318979854855937,-0.022584292562972758,0.0973015264147526,32.08287849390507,-92.24360919585227,80.21211738781929
2024-09-23 15:54:19.902341,42.07,33.106283,-0.0035318979854855937,-0.022584292562972758,0.0973015264147526,32.08287849390507,-92.24360919585227,80.21211738781929
2024-09-23 15:54:19.913988,42.07,33.106283,-0.0030841997366068195,-0.023181236725942318,0.09710254654607277,36.09446859390736,-92.24360919585227,80.21211738781929
2024-09-23 15:54:19.958112,42.07,33.106333,-0.0033329230534799477,-0.0228827638849692,0.09755024973162574,36.09446859390736,-88.23529758782387,84.22370748782159
2024-09-23 15:54:20.000673,42.07,33.106333,-0.0033329230534799477,-0.0228827638849692,0.09755024973162574,32.08287849390507,-96.25519929585457,84.22370748782159
2024-09-23 15:54:20.012356,42.07,33.106384,-0.003233425524256645,-0.023429960042815445,0.09755024973162574,32.08287849390507,-96.25519929585457,84.22370748782159
2024-09-23 15:54:20.055545,42.07,33.106435,-0.0028852147413806935,-0.023429960042815445,0.0976994861521123,48.12595698684454,-84.22370748782159,84.22370748782159
2024-09-23 15:54:20.097430,42.07,33.106435,-0.0028852147413806935,-0.02352945757203875,0.09695331012558621,48.12595698684454,-84.22370748782159,84.22370748782159
2024-09-23 15:54:20.108448,42.07,33.106525,-0.0028852147413806935,-0.02352945757203875,0.09695331012558621,44.11764879391193,-96.25519929585457,84.22370748782159
2024-09-23 15:54:20.151203,42.07,33.106525,-0.0036811340262279837,-0.02303200030545576,0.09755024973162574,40.106058693909645,-96.25519929585457,84.22370748782159
2024-09-23 15:54:20.163290,42.07,33.106525,-0.0036811340262279837,-0.02303200030545576,0.09755024973162574,40.106058693909645,-96.25519929585457,80.21211738781929
2024-09-23 15:54:20.195124,42.07,33.106576,-0.002785727465249955,-0.02303200030545576,0.09755024973162574,40.106058693909645,-96.25519929585457,80.21211738781929
2024-09-23 15:54:20.206525,42.07,33.106576,-0.002785727465249955,-0.02338022115155219,0.09710254654607277,28.07457030097246,-100.26678939585686,80.21211738781929
2024-09-23 15:54:20.249198,42.07,33.106627,-0.0030344509719951677,-0.023330473146428877,0.09764974270391902,28.07457030097246,-100.26678939585686,76.200527287817
2024-09-23 15:54:20.261402,42.07,33.106627,-0.0030344509719951677,-0.023330473146428877,0.09764974270391902,32.08287849390507,-100.26678939585686,76.200527287817
2024-09-23 15:54:20.294731,42.07,33.106678,-0.0030344509719951677,-0.023330473146428877,0.09764974270391902,32.08287849390507,-96.25519929585457,80.21211738781929
2024-09-23 15:54:20.305791,42.07,33.106678,-0.0035318979854855937,-0.023579196463302005,0.0970030596496862,32.08287849390507,-96.25519929585457,80.21211738781929
2024-09-23 15:54:20.348517,42.07,33.106728,-0.0028852147413806935,-0.023429960042815445,0.0970030596496862,40.106058693909645,-96.25519929585457,76.200527287817
2024-09-23 15:54:20.391395,42.07,33.106728,-0.0028852147413806935,-0.023429960042815445,0.0973015264147526,36.09446859390736,-104.27510100388527,76.200527287817
2024-09-23 15:54:20.403065,42.07,33.106779,-0.0031339382481259063,-0.023429960042815445,0.0973015264147526,36.09446859390736,-104.27510100388527,72.1922225099802
2024-09-23 15:54:20.446455,42.07,33.106866,-0.0031339382481259063,-0.023181236725942318,0.0966050877605131,44.11764879391193,-92.24360919585227,80.21211738781929
2024-09-23 15:54:20.490649,42.07,33.106866,-0.002636491424507565,-0.023479709566915436,0.09675432418099966,44.11764879391193,-92.24360919585227,80.21211738781929
2024-09-23 15:54:20.502134,42.07,33.106866,-0.002636491424507565,-0.023479709566915436,0.09675432418099966,40.106058693909645,-96.25519929585457,84.22370748782159
2024-09-23 15:54:20.535717,42.07,33.106918,-0.002636491424507565,-0.023479709566915436,0.09675432418099966,40.106058693909645,-96.25519929585457,84.22370748782159
2024-09-23 15:54:20.547290,42.07,33.106918,-0.0030841997366068195,-0.02313149783467906,0.09705279702197278,24.06297849342227,-104.27510100388527,84.22370748782159
2024-09-23 15:54:20.589172,42.07,33.106968,-0.0031836870127375577,-0.023479709566915436,0.09725178296655933,24.06297849342227,-104.27510100388527,76.200527287817
2024-09-23 15:54:20.600959,42.07,33.106968,-0.0031836870127375577,-0.023479709566915436,0.09725178296655933,24.06297849342227,-104.27510100388527,76.200527287817
2024-09-23 15:54:20.633797,42.07,33.106968,-0.0031836870127375577,-0.023479709566915436,0.09725178296655933,24.06297849342227,-108.28669110388756,76.200527287817
2024-09-23 15:54:20.645234,42.07,33.107019,-0.0032831742888682963,-0.023429960042815445,0.0973512698629459,24.06297849342227,-108.28669110388756,76.200527287817
2024-09-23 15:54:20.688365,43.31,33.10707,-0.0028852147413806935,-0.0225345536717095,0.0973512698629459,28.07457030097246,-100.26678939585686,80.21211738781929
2024-09-23 15:54:20.731557,43.31,33.10707,-0.0028852147413806935,-0.0225345536717095,0.0973015264147526,40.106058693909645,-100.26678939585686,80.21211738781929
2024-09-23 15:54:20.742919,43.31,33.10712,-0.002785727465249955,-0.0225345536717095,0.0973015264147526,40.106058693909645,-104.27510100388527,72.1922225099802
2024-09-23 15:54:20.786832,43.31,33.107208,-0.002785727465249955,-0.02313149783467906,0.09789846602079214,40.106058693909645,-96.25519929585457,76.200527287817
2024-09-23 15:54:20.829218,43.31,33.107208,-0.003233425524256645,-0.02313149783467906,0.09789846602079214,40.106058693909645,-96.25519929585457,76.200527287817
2024-09-23 15:54:20.882245,43.31,33.107208,-0.003233425524256645,-0.02313149783467906,0.09665483728461309,44.11764879391193,-92.24360919585227,80.21211738781929
2024-09-23 15:54:20.894387,43.31,33.107259,-0.003233425524256645,-0.02313149783467906,0.09665483728461309,44.11764879391193,-92.24360919585227,80.21211738781929
2024-09-23 15:54:20.926960,43.31,33.107259,-0.0029847020175114316,-0.023429960042815445,0.09665483728461309,44.11764879391193,-92.24360919585227,80.21211738781929
2024-09-23 15:54:20.938310,43.31,33.107259,-0.0029847020175114316,-0.023429960042815445,0.09680407370509965,48.12595698684454,-96.25519929585457,80.21211738781929
2024-09-23 15:54:20.980565,43.31,33.10731,-0.002586742470023829,-0.02362894446842532,0.09650560086412653,40.106058693909645,-100.26678939585686,80.21211738781929
2024-09-23 15:54:21.023298,43.31,33.10736,-0.002586742470023829,-0.02362894446842532,0.09650560086412653,40.106058693909645,-100.26678939585686,76.200527287817
2024-09-23 15:54:21.035626,43.31,33.10736,-0.0030344509719951677,-0.023280723622328886,0.09755024973162574,28.07457030097246,-100.26678939585686,76.200527287817
2024-09-23 15:54:21.078616,43.31,33.107411,-0.0034324103296106863,-0.02313149783467906,0.09755024973162574,28.07457030097246,-100.26678939585686,76.200527287817
2024-09-23 15:54:21.090119,43.31,33.107411,-0.0034324103296106863,-0.02313149783467906,0.0970030596496862,28.07457030097246,-100.26678939585686,76.200527287817
2024-09-23 15:54:21.122008,43.31,33.107411,-0.0034324103296106863,-0.02313149783467906,0.0970030596496862,32.08287849390507,-104.27510100388527,76.200527287817
2024-09-23 15:54:21.133629,43.31,33.107502,-0.0026862297461545674,-0.02278327698858263,0.0970030596496862,32.08287849390507,-104.27510100388527,76.200527287817
2024-09-23 15:54:21.176968,43.31,33.107553,-0.0029847020175114316,-0.02278327698858263,0.09759999317981902,36.09446859390736,-96.25519929585457,84.22370748782159
2024-09-23 15:54:21.219149,43.31,33.107553,-0.0029847020175114316,-0.02293251340906919,0.09740101331113918,36.09446859390736,-96.25519929585457,84.22370748782159
2024-09-23 15:54:21.230394,43.31,33.107646,-0.0029847020175114316,-0.02293251340906919,0.09740101331113918,44.11764879391193,-100.26678939585686,80.21211738781929
2024-09-23 15:54:21.272321,43.31,33.107646,-0.0025369937054121774,-0.023877669304275123,0.09710254654607277,44.11764879391193,-112.29828120388984,80.21211738781929
2024-09-23 15:54:21.284529,43.31,33.107646,-0.0025369937054121774,-0.023877669304275123,0.09710254654607277,44.11764879391193,-112.29828120388984,68.18063240997792
2024-09-23 15:54:21.317846,43.31,33.107698,-0.0028852147413806935,-0.023877669304275123,0.09710254654607277,44.11764879391193,-112.29828120388984,68.18063240997792
2024-09-23 15:54:21.329748,43.31,33.107698,-0.0028852147413806935,-0.023877669304275123,0.09645586349183995,48.12595698684454,-100.26678939585686,68.18063240997792
2024-09-23 15:54:21.372315,43.31,33.107748,-0.0030344509719951677,-0.023280723622328886,0.09690356060148622,36.09446859390736,-100.26678939585686,80.21211738781929
2024-09-23 15:54:21.465648,43.31,33.107799,-0.0030841997366068195,-0.023280723622328886,0.09690356060148622,36.09446859390736,-88.23529758782387,76.200527287817
2024-09-23 15:54:21.477181,43.31,33.107799,-0.0030841997366068195,-0.023728432883788564,0.09670458680871308,36.09446859390736,-88.23529758782387,76.200527287817
2024-09-23 15:54:21.510532,43.31,33.107799,-0.0030841997366068195,-0.023728432883788564,0.09670458680871308,36.09446859390736,-88.23529758782387,76.200527287817
2024-09-23 15:54:21.522263,43.31,33.10785,-0.0027359787006383035,-0.023429960042815445,0.09670458680871308,36.09446859390736,-92.24360919585227,80.21211738781929
2024-09-23 15:54:21.564269,43.31,33.10785,-0.0027359787006383035,-0.023429960042815445,0.0973015264147526,36.09446859390736,-92.24360919585227,80.21211738781929
2024-09-23 15:54:21.575668,43.31,33.1079,-0.0033329230534799477,-0.023429960042815445,0.0973015264147526,36.09446859390736,-92.24360919585227,80.21211738781929
2024-09-23 15:54:21.608191,43.31,33.1079,-0.0033329230534799477,-0.023479709566915436,0.09705279702197278,36.09446859390736,-92.24360919585227,80.21211738781929
2024-09-23 15:54:21.619694,43.31,33.107987,-0.0033329230534799477,-0.023479709566915436,0.09705279702197278,44.11764879391193,-92.24360919585227,80.21211738781929
2024-09-23 15:54:21.662201,43.31,33.107987,-0.0023380189632786156,-0.022236080830736384,0.09675432418099966,40.106058693909645,-92.24360919585227,80.21211738781929
2024-09-23 15:54:21.674275,43.31,33.107987,-0.0023380189632786156,-0.022236080830736384,0.09675432418099966,40.106058693909645,-92.24360919585227,84.22370748782159
2024-09-23 15:54:21.706377,42.55,33.108085,-0.0029349636958644295,-0.022236080830736384,0.09675432418099966,40.106058693909645,-92.24360919585227,84.22370748782159
2024-09-23 15:54:21.718498,42.55,33.108085,-0.0029349636958644295,-0.023330473146428877,0.0970030596496862,36.09446859390736,-96.25519929585457,84.22370748782159
2024-09-23 15:54:21.760850,42.55,33.108137,-0.0027359787006383035,-0.02303200030545576,0.09705279702197278,32.08287849390507,-96.25519929585457,76.200527287817
2024-09-23 15:54:21.803589,42.55,33.108137,-0.0027359787006383035,-0.02303200030545576,0.09705279702197278,32.08287849390507,-100.26678939585686,80.21211738781929
2024-09-23 15:54:21.814962,42.55,33.108188,-0.0030841997366068195,-0.022833026512682618,0.09680407370509965,32.08287849390507,-100.26678939585686,80.21211738781929
2024-09-23 15:54:21.858200,42.55,33.108238,-0.0030344509719951677,-0.02338022115155219,0.09680407370509965,32.08287849390507,-108.28669110388756,76.200527287817
2024-09-23 15:54:21.900640,42.55,33.108238,-0.0030344509719951677,-0.02338022115155219,0.09685382322919964,32.08287849390507,-108.28669110388756,76.200527287817
2024-09-23 15:54:21.912212,42.55,33.108289,-0.0026862297461545674,-0.02338022115155219,0.09685382322919964,16.039798293417693,-92.24360919585227,84.22370748782159
2024-09-23 15:54:21.955534,42.55,33.108289,-0.0026862297461545674,-0.023181236725942318,0.09745075675933246,52.137550501942634,-96.25519929585457,80.21211738781929
2024-09-23 15:54:21.967426,42.55,33.108377,-0.0026862297461545674,-0.023181236725942318,0.09745075675933246,52.137550501942634,-96.25519929585457,80.21211738781929
2024-09-23 15:54:22.000200,42.55,33.108377,-0.0028354659767690416,-0.0224350561424862,0.0970030596496862,52.137550501942634,-96.25519929585457,80.21211738781929
2024-09-23 15:54:22.011679,42.55,33.108377,-0.0028354659767690416,-0.0224350561424862,0.0970030596496862,40.106058693909645,-108.28669110388756,76.200527287817
2024-09-23 15:54:22.054208,42.55,33.108429,-0.0035816467500972456,-0.02367869399252531,0.0970030596496862,24.06297849342227,-104.27510100388527,76.200527287817
2024-09-23 15:54:22.097606,42.55,33.10848,-0.0031836870127375577,-0.02367869399252531,0.0970030596496862,24.06297849342227,-104.27510100388527,80.21211738781929
2024-09-23 15:54:22.109957,42.55,33.10848,-0.0031836870127375577,-0.02352945757203875,0.0970030596496862,24.06297849342227,-104.27510100388527,80.21211738781929
2024-09-23 15:54:22.152880,42.55,33.108531,-0.0032831742888682963,-0.02352945757203875,0.09650560086412653,24.06297849342227,-100.26678939585686,88.23529758782387
2024-09-23 15:54:22.195086,42.55,33.108531,-0.0032831742888682963,-0.02338022115155219,0.09670458680871308,24.06297849342227,-100.26678939585686,88.23529758782387
2024-09-23 15:54:22.206653,42.55,33.108581,-0.0032831742888682963,-0.02338022115155219,0.09670458680871308,24.06297849342227,-100.26678939585686,84.22370748782159
2024-09-23 15:54:22.249758,42.55,33.108581,-0.0029847020175114316,-0.022584292562972758,0.09755024973162574,40.106058693909645,-100.26678939585686,76.200527287817
2024-09-23 15:54:22.294193,42.55,33.108632,-0.0027359787006383035,-0.02313149783467906,0.09755024973162574,40.106058693909645,-100.26678939585686,76.200527287817
2024-09-23 15:54:22.305317,42.55,33.108632,-0.0027359787006383035,-0.02313149783467906,0.0973015264147526,48.12595698684454,-100.26678939585686,76.200527287817
2024-09-23 15:54:22.337242,42.55,33.108632,-0.0027359787006383035,-0.02313149783467906,0.0973015264147526,48.12595698684454,-100.26678939585686,80.21211738781929
2024-09-23 15:54:22.348850,42.55,33.108719,-0.0025369937054121774,-0.023579196463302005,0.09690356060148622,44.11764879391193,-100.26678939585686,80.21211738781929
2024-09-23 15:54:22.391509,42.55,33.10877,-0.0028852147413806935,-0.023579196463302005,0.09690356060148622,44.11764879391193,-92.24360919585227,84.22370748782159
2024-09-23 15:54:22.402809,42.55,33.10877,-0.0028852147413806935,-0.023181236725942318,0.0970030596496862,44.11764879391193,-92.24360919585227,84.22370748782159
2024-09-23 15:54:22.434912,42.55,33.10877,-0.0028852147413806935,-0.023181236725942318,0.0970030596496862,16.039798293417693,-92.24360919585227,84.22370748782159
2024-09-23 15:54:22.446685,42.55,33.108821,-0.002586742470023829,-0.023230986250042305,0.0970030596496862,16.039798293417693,-104.27510100388527,76.200527287817
2024-09-23 15:54:22.488879,42.55,33.108821,-0.002586742470023829,-0.023230986250042305,0.09680407370509965,20.05138839341998,-112.29828120388984,76.200527287817
2024-09-23 15:54:22.500097,42.55,33.108872,-0.003382661564999035,-0.023230986250042305,0.09680407370509965,20.05138839341998,-112.29828120388984,76.200527287817
2024-09-23 15:54:22.542539,42.55,33.108962,-0.003382661564999035,-0.02338022115155219,0.09710254654607277,32.08287849390507,-100.26678939585686,76.200527287817
2024-09-23 15:54:22.586123,42.55,33.108962,-0.0028354659767690416,-0.023330473146428877,0.09655535038822652,32.08287849390507,-100.26678939585686,76.200527287817
2024-09-23 15:54:22.599741,42.55,33.108962,-0.0028354659767690416,-0.023330473146428877,0.09655535038822652,44.11764879391193,-92.24360919585227,76.200527287817
2024-09-23 15:54:22.631577,42.55,33.109014,-0.0038801188315820256,-0.023330473146428877,0.09655535038822652,44.11764879391193,-92.24360919585227,76.200527287817
2024-09-23 15:54:22.642500,42.55,33.109014,-0.0038801188315820256,-0.02303200030545576,0.09685382322919964,44.11764879391193,-100.26678939585686,76.200527287817
2024-09-23 15:54:22.685395,42.55,33.109065,-0.002785727465249955,-0.02293251340906919,0.09670458680871308,44.11764879391193,-100.26678939585686,76.200527287817
2024-09-23 15:54:22.697194,42.55,33.109065,-0.002785727465249955,-0.02293251340906919,0.09670458680871308,48.12595698684454,-100.26678939585686,76.200527287817
2024-09-23 15:54:22.730235,42.83,33.109065,-0.002785727465249955,-0.02293251340906919,0.09670458680871308,48.12595698684454,-100.26678939585686,80.21211738781929
2024-09-23 15:54:22.741205,42.83,33.109115,-0.0028354659767690416,-0.023330473146428877,0.09725178296655933,48.12595698684454,-100.26678939585686,80.21211738781929
2024-09-23 15:54:22.783967,42.83,33.109166,-0.0029349636958644295,-0.02308174982955575,0.09725178296655933,40.106058693909645,-92.24360919585227,84.22370748782159
2024-09-23 15:54:22.826578,42.83,33.109166,-0.0029349636958644295,-0.02308174982955575,0.09705279702197278,40.106058693909645,-92.24360919585227,84.22370748782159
2024-09-23 15:54:22.838535,42.83,33.109217,-0.003482159473966507,-0.02308174982955575,0.09705279702197278,40.106058693909645,-88.23529758782387,80.21211738781929
2024-09-23 15:54:22.880977,42.83,33.109217,-0.003482159473966507,-0.022982261414192504,0.09774922960030558,40.106058693909645,-92.24360919585227,80.21211738781929
2024-09-23 15:54:22.892761,42.83,33.109304,-0.003482159473966507,-0.022982261414192504,0.09774922960030558,40.106058693909645,-92.24360919585227,80.21211738781929
2024-09-23 15:54:22.924819,42.83,33.109304,-0.0030344509719951677,-0.023827930413011865,0.09774922960030558,40.106058693909645,-92.24360919585227,80.21211738781929
2024-09-23 15:54:22.935895,42.83,33.109304,-0.0030344509719951677,-0.023827930413011865,0.09745075675933246,32.08287849390507,-96.25519929585457,76.200527287817
2024-09-23 15:54:22.979940,42.83,33.109355,-0.0033329230534799477,-0.02268379009219606,0.0970030596496862,28.07457030097246,-100.26678939585686,76.200527287817
2024-09-23 15:54:23.022575,42.83,33.109406,-0.0033329230534799477,-0.02268379009219606,0.0970030596496862,28.07457030097246,-100.26678939585686,80.21211738781929
2024-09-23 15:54:23.034430,42.83,33.109406,-0.002636491424507565,-0.023429960042815445,0.09759999317981902,36.09446859390736,-100.26678939585686,80.21211738781929
2024-09-23 15:54:23.077158,42.83,33.109457,-0.0027359787006383035,-0.023429960042815445,0.09759999317981902,36.09446859390736,-92.24360919585227,80.21211738781929
2024-09-23 15:54:23.089282,42.83,33.109457,-0.0027359787006383035,-0.023429960042815445,0.09740101331113918,36.09446859390736,-92.24360919585227,80.21211738781929
2024-09-23 15:54:23.121401,42.83,33.109457,-0.0027359787006383035,-0.023429960042815445,0.09740101331113918,36.09446859390736,-104.27510100388527,84.22370748782159
2024-09-23 15:54:23.133089,42.83,33.109507,-0.003233425524256645,-0.02338022115155219,0.09740101331113918,36.09446859390736,-104.27510100388527,84.22370748782159
2024-09-23 15:54:23.175663,42.83,33.109558,-0.0028852147413806935,-0.02338022115155219,0.0973512698629459,52.137550501942634,-96.25519929585457,80.21211738781929
2024-09-23 15:54:23.217322,42.83,33.109558,-0.0028852147413806935,-0.022982261414192504,0.09715228999426605,52.137550501942634,-96.25519929585457,80.21211738781929
2024-09-23 15:54:23.229450,42.83,33.109645,-0.0028852147413806935,-0.022982261414192504,0.09715228999426605,36.09446859390736,-92.24360919585227,80.21211738781929
2024-09-23 15:54:23.273114,42.83,33.109645,-0.0020892956464054874,-0.023827930413011865,0.0976994861521123,36.09446859390736,-96.25519929585457,80.21211738781929
2024-09-23 15:54:23.316958,42.83,33.109696,-0.0028354659767690416,-0.02308174982955575,0.0976994861521123,36.09446859390736,-96.25519929585457,80.21211738781929
2024-09-23 15:54:23.328535,42.83,33.109696,-0.0028354659767690416,-0.02308174982955575,0.09740101331113918,36.09446859390736,-108.28669110388756,80.21211738781929
2024-09-23 15:54:23.371776,42.83,33.109747,-0.0029847020175114316,-0.023479709566915436,0.0973015264147526,40.106058693909645,-108.28669110388756,80.21211738781929
2024-09-23 15:54:23.414294,42.83,33.109798,-0.0029847020175114316,-0.023479709566915436,0.0973015264147526,40.106058693909645,-100.26678939585686,76.200527287817
2024-09-23 15:54:23.425571,42.83,33.109798,-0.003233425524256645,-0.023230986250042305,0.09695331012558621,40.106058693909645,-100.26678939585686,76.200527287817
2024-09-23 15:54:23.467311,42.83,33.109848,-0.0029847020175114316,-0.02313149783467906,0.09695331012558621,44.11764879391193,-92.24360919585227,80.21211738781929
2024-09-23 15:54:23.510829,42.83,33.109848,-0.0029847020175114316,-0.02313149783467906,0.0973015264147526,48.12595698684454,-100.26678939585686,80.21211738781929
2024-09-23 15:54:23.522194,42.83,33.109899,-0.0032831742888682963,-0.02313149783467906,0.0973015264147526,48.12595698684454,-100.26678939585686,80.21211738781929
2024-09-23 15:54:23.565002,42.83,33.109986,-0.0032831742888682963,-0.02278327698858263,0.09670458680871308,44.11764879391193,-96.25519929585457,76.200527287817
2024-09-23 15:54:23.606765,42.83,33.109986,-0.0028354659767690416,-0.02278327698858263,0.09670458680871308,44.11764879391193,-96.25519929585457,76.200527287817
2024-09-23 15:54:23.618177,42.83,33.109986,-0.0028354659767690416,-0.02278327698858263,0.09715228999426605,40.106058693909645,-92.24360919585227,76.200527287817
2024-09-23 15:54:23.661236,42.83,33.110038,-0.0031836870127375577,-0.023230986250042305,0.09695331012558621,28.07457030097246,-92.24360919585227,76.200527287817
2024-09-23 15:54:23.673241,42.83,33.110038,-0.0031836870127375577,-0.023230986250042305,0.09695331012558621,28.07457030097246,-100.26678939585686,76.200527287817
2024-09-23 15:54:23.705049,42.83,33.110088,-0.0031836870127375577,-0.023230986250042305,0.09695331012558621,28.07457030097246,-100.26678939585686,72.1922225099802
2024-09-23 15:54:23.717030,42.83,33.110088,-0.0030841997366068195,-0.0228827638849692,0.0973512698629459,36.09446859390736,-100.26678939585686,72.1922225099802
2024-09-23 15:54:23.759702,42.65,33.110139,-0.002387757474797703,-0.023230986250042305,0.09740101331113918,36.09446859390736,-100.26678939585686,76.200527287817
2024-09-23 15:54:23.802488,42.65,33.110139,-0.002387757474797703,-0.023230986250042305,0.09740101331113918,36.09446859390736,-100.26678939585686,76.200527287817
2024-09-23 15:54:23.814219,42.65,33.11019,-0.0028852147413806935,-0.02293251340906919,0.09740101331113918,36.09446859390736,-100.26678939585686,80.21211738781929
2024-09-23 15:54:23.858360,42.65,33.11024,-0.0028852147413806935,-0.02293251340906919,0.09675432418099966,48.12595698684454,-100.26678939585686,76.200527287817
2024-09-23 15:54:23.870015,42.65,33.11024,-0.0034324103296106863,-0.02293251340906919,0.09675432418099966,48.12595698684454,-100.26678939585686,76.200527287817
2024-09-23 15:54:23.902775,42.65,33.11024,-0.0034324103296106863,-0.023429960042815445,0.09680407370509965,40.106058693909645,-100.26678939585686,76.200527287817
2024-09-23 15:54:23.914655,42.65,33.110327,-0.0034324103296106863,-0.023429960042815445,0.09680407370509965,40.106058693909645,-100.26678939585686,84.22370748782159
2024-09-23 15:54:23.946493,42.65,33.110327,-0.0027359787006383035,-0.023429960042815445,0.09680407370509965,40.106058693909645,-100.26678939585686,84.22370748782159
2024-09-23 15:54:23.957774,42.65,33.110327,-0.0027359787006383035,-0.02338022115155219,0.09720203344245934,32.08287849390507,-104.27510100388527,80.21211738781929
2024-09-23 15:54:24.000426,42.65,33.110379,-0.0035318979854855937,-0.02338022115155219,0.09690356060148622,32.08287849390507,-104.27510100388527,80.21211738781929
2024-09-23 15:54:24.012416,42.65,33.110379,-0.0035318979854855937,-0.02338022115155219,0.09690356060148622,36.09446859390736,-100.26678939585686,80.21211738781929
2024-09-23 15:54:24.044992,42.65,33.110379,-0.0035318979854855937,-0.02338022115155219,0.09690356060148622,36.09446859390736,-100.26678939585686,72.1922225099802
2024-09-23 15:54:24.056233,42.65,33.11043,-0.0030344509719951677,-0.02263404056809607,0.0970030596496862,28.07457030097246,-100.26678939585686,72.1922225099802
2024-09-23 15:54:24.098462,42.65,33.11048,-0.002636491424507565,-0.02263404056809607,0.0970030596496862,28.07457030097246,-100.26678939585686,84.22370748782159
2024-09-23 15:54:24.110817,42.65,33.11048,-0.002636491424507565,-0.02293251340906919,0.09720203344245934,28.07457030097246,-100.26678939585686,84.22370748782159
2024-09-23 15:54:24.144252,42.65,33.11048,-0.002636491424507565,-0.02293251340906919,0.09720203344245934,36.09446859390736,-96.25519929585457,88.23529758782387
2024-09-23 15:54:24.155203,42.65,33.110531,-0.0034324103296106863,-0.023181236725942318,0.09720203344245934,36.09446859390736,-96.25519929585457,88.23529758782387
2024-09-23 15:54:24.198387,42.65,33.110582,-0.002785727465249955,-0.023181236725942318,0.0970030596496862,32.08287849390507,-100.26678939585686,80.21211738781929
2024-09-23 15:54:24.242718,42.65,33.110582,-0.002785727465249955,-0.023280723622328886,0.09745075675933246,32.08287849390507,-100.26678939585686,80.21211738781929
2024-09-23 15:54:24.254006,42.65,33.110669,-0.002785727465249955,-0.023280723622328886,0.09745075675933246,48.12595698684454,-96.25519929585457,80.21211738781929
2024-09-23 15:54:24.296941,42.65,33.110669,-0.0029349636958644295,-0.02362894446842532,0.09685382322919964,44.11764879391193,-92.24360919585227,80.21211738781929
2024-09-23 15:54:24.340425,42.65,33.11072,-0.003233425524256645,-0.023280723622328886,0.09685382322919964,44.11764879391193,-92.24360919585227,80.21211738781929
2024-09-23 15:54:24.351398,42.65,33.11072,-0.003233425524256645,-0.023280723622328886,0.09635636444363997,36.09446859390736,-96.25519929585457,80.21211738781929
2024-09-23 15:54:24.394627,42.65,33.110771,-0.0022385316871478774,-0.023579196463302005,0.09725178296655933,36.09446859390736,-96.25519929585457,80.21211738781929
2024-09-23 15:54:24.437412,42.65,33.110822,-0.0022385316871478774,-0.023579196463302005,0.09725178296655933,36.09446859390736,-100.26678939585686,84.22370748782159
2024-09-23 15:54:24.448938,42.65,33.110822,-0.0030841997366068195,-0.023429960042815445,0.09715228999426605,36.09446859390736,-100.26678939585686,84.22370748782159
2024-09-23 15:54:24.492013,42.65,33.110872,-0.003233425524256645,-0.023479709566915436,0.09715228999426605,24.06297849342227,-108.28669110388756,84.22370748782159
2024-09-23 15:54:24.535044,42.65,33.110872,-0.003233425524256645,-0.023479709566915436,0.09665483728461309,24.06297849342227,-108.28669110388756,84.22370748782159
2024-09-23 15:54:24.546943,42.65,33.110923,-0.003482159473966507,-0.023479709566915436,0.09665483728461309,24.06297849342227,-92.24360919585227,80.21211738781929
2024-09-23 15:54:24.589627,42.65,33.11101,-0.003482159473966507,-0.023230986250042305,0.09695331012558621,40.106058693909645,-96.25519929585457,88.23529758782387
2024-09-23 15:54:24.632012,42.65,33.11101,-0.0029847020175114316,-0.023181236725942318,0.09690356060148622,40.106058693909645,-96.25519929585457,88.23529758782387
2024-09-23 15:54:24.643475,42.65,33.11101,-0.0029847020175114316,-0.023181236725942318,0.09690356060148622,44.11764879391193,-88.23529758782387,84.22370748782159
2024-09-23 15:54:24.686900,42.65,33.111062,-0.0030344509719951677,-0.023778180888911878,0.0966050877605131,48.12595698684454,-88.23529758782387,84.22370748782159
2024-09-23 15:54:24.730193,42.65,33.111113,-0.0024872551938930902,-0.023778180888911878,0.0966050877605131,48.12595698684454,-88.23529758782387,80.21211738781929
2024-09-23 15:54:24.741749,42.65,33.111113,-0.0024872551938930902,-0.023579196463302005,0.09720203344245934,44.11764879391193,-88.23529758782387,80.21211738781929
2024-09-23 15:54:24.785407,42.55,33.111163,-0.0030344509719951677,-0.023280723622328886,0.09695331012558621,44.11764879391193,-92.24360919585227,80.21211738781929
2024-09-23 15:54:24.828068,42.55,33.111163,-0.0030344509719951677,-0.023280723622328886,0.09695331012558621,36.09446859390736,-100.26678939585686,80.21211738781929
2024-09-23 15:54:24.839319,42.55,33.111214,-0.003382661564999035,-0.023230986250042305,0.09695331012558621,36.09446859390736,-100.26678939585686,80.21211738781929
2024-09-23 15:54:24.881644,42.55,33.111265,-0.0031339382481259063,-0.023230986250042305,0.09690356060148622,28.07457030097246,-100.26678939585686,80.21211738781929
2024-09-23 15:54:24.926078,42.55,33.111265,-0.0031339382481259063,-0.023230986250042305,0.09680407370509965,40.106058693909645,-100.26678939585686,80.21211738781929
2024-09-23 15:54:24.937261,42.55,33.111351,-0.0031339382481259063,-0.023230986250042305,0.09680407370509965,40.106058693909645,-96.25519929585457,80.21211738781929
2024-09-23 15:54:24.979497,42.55,33.111351,-0.0031836870127375577,-0.022982261414192504,0.09680407370509965,48.12595698684454,-96.25519929585457,76.200527287817
2024-09-23 15:54:25.022902,42.55,33.111403,-0.0031339382481259063,-0.023927417309398437,0.09680407370509965,48.12595698684454,-96.25519929585457,76.200527287817
2024-09-23 15:54:25.035033,42.55,33.111403,-0.0031339382481259063,-0.023927417309398437,0.0970030596496862,40.106058693909645,-100.26678939585686,76.200527287817
2024-09-23 15:54:25.068813,42.55,33.111403,-0.0031339382481259063,-0.023927417309398437,0.0970030596496862,40.106058693909645,-100.26678939585686,80.21211738781929
2024-09-23 15:54:25.080982,42.55,33.111453,-0.002785727465249955,-0.02362894446842532,0.09715228999426605,36.09446859390736,-100.26678939585686,80.21211738781929
2024-09-23 15:54:25.122931,42.55,33.111504,-0.0031836870127375577,-0.02362894446842532,0.09715228999426605,36.09446859390736,-100.26678939585686,80.21211738781929
2024-09-23 15:54:25.134457,42.55,33.111504,-0.0031836870127375577,-0.023230986250042305,0.0970030596496862,36.09446859390736,-100.26678939585686,80.21211738781929
2024-09-23 15:54:25.218774,42.55,33.111504,-0.0031836870127375577,-0.023230986250042305,0.0970030596496862,44.11764879391193,-92.24360919585227,80.21211738781929
2024-09-23 15:54:25.229847,42.55,33.111555,-0.002288270198666964,-0.023230986250042305,0.0970030596496862,44.11764879391193,-92.24360919585227,80.21211738781929
2024-09-23 15:54:25.271882,42.55,33.111605,-0.002288270198666964,-0.02278327698858263,0.09750050628343246,36.09446859390736,-92.24360919585227,80.21211738781929
2024-09-23 15:54:25.315318,42.55,33.111605,-0.0029349636958644295,-0.02352945757203875,0.09715228999426605,36.09446859390736,-92.24360919585227,80.21211738781929
2024-09-23 15:54:25.327179,42.55,33.111605,-0.0029349636958644295,-0.02352945757203875,0.09715228999426605,36.09446859390736,-96.25519929585457,80.21211738781929
2024-09-23 15:54:25.370354,42.55,33.111692,-0.0030344509719951677,-0.023280723622328886,0.09695331012558621,40.106058693909645,-92.24360919585227,80.21211738781929
2024-09-23 15:54:25.413829,42.55,33.111744,-0.002636491424507565,-0.02303200030545576,0.09695331012558621,40.106058693909645,-92.24360919585227,84.22370748782159
2024-09-23 15:54:25.425281,42.55,33.111744,-0.002636491424507565,-0.02303200030545576,0.09680407370509965,44.11764879391193,-92.24360919585227,84.22370748782159
2024-09-23 15:54:25.457282,42.55,33.111744,-0.002636491424507565,-0.02303200030545576,0.09680407370509965,44.11764879391193,-88.23529758782387,84.22370748782159
2024-09-23 15:54:25.468941,42.55,33.11184,-0.002636491424507565,-0.023280723622328886,0.09710254654607277,44.11764879391193,-88.23529758782387,84.22370748782159
2024-09-23 15:54:25.510779,42.55,33.11184,-0.002636491424507565,-0.023280723622328886,0.09710254654607277,44.11764879391193,-92.24360919585227,76.200527287817
2024-09-23 15:54:25.522610,42.55,33.111891,-0.0030344509719951677,-0.02293251340906919,0.09710254654607277,44.11764879391193,-92.24360919585227,76.200527287817
2024-09-23 15:54:25.555492,42.55,33.111891,-0.0030344509719951677,-0.02293251340906919,0.09695331012558621,44.11764879391193,-92.24360919585227,76.200527287817
2024-09-23 15:54:25.567526,42.55,33.111942,-0.0029847020175114316,-0.02293251340906919,0.09695331012558621,32.08287849390507,-96.25519929585457,76.200527287817
2024-09-23 15:54:25.610560,42.55,33.111942,-0.0029847020175114316,-0.023429960042815445,0.09759999317981902,20.05138839341998,-100.26678939585686,80.21211738781929
2024-09-23 15:54:25.622034,42.55,33.112034,-0.0029847020175114316,-0.023429960042815445,0.09759999317981902,20.05138839341998,-100.26678939585686,80.21211738781929
2024-09-23 15:54:25.653997,42.55,33.112034,-0.003382661564999035,-0.023429960042815445,0.09759999317981902,20.05138839341998,-100.26678939585686,80.21211738781929
2024-09-23 15:54:25.666333,42.55,33.112034,-0.003382661564999035,-0.023181236725942318,0.09705279702197278,28.07457030097246,-100.26678939585686,80.21211738781929
2024-09-23 15:54:25.709301,42.55,33.112085,-0.0029349636958644295,-0.02352945757203875,0.09705279702197278,44.11764879391193,-100.26678939585686,80.21211738781929
2024-09-23 15:54:25.753076,42.55,33.112085,-0.0029349636958644295,-0.02352945757203875,0.09705279702197278,44.11764879391193,-100.26678939585686,80.21211738781929
2024-09-23 15:54:25.764905,42.55,33.112136,-0.0028852147413806935,-0.02228583035483637,0.09755024973162574,44.11764879391193,-100.26678939585686,80.21211738781929
2024-09-23 15:54:25.807650,42.37,33.112187,-0.002387757474797703,-0.0225345536717095,0.09755024973162574,52.137550501942634,-96.25519929585457,80.21211738781929
2024-09-23 15:54:25.851389,42.37,33.112187,-0.002387757474797703,-0.0225345536717095,0.0973015264147526,48.12595698684454,-96.25519929585457,80.21211738781929
2024-09-23 15:54:25.863210,42.37,33.112237,-0.002636491424507565,-0.0225345536717095,0.0973015264147526,48.12595698684454,-96.25519929585457,76.200527287817
2024-09-23 15:54:25.906851,42.37,33.112288,-0.002636491424507565,-0.023280723622328886,0.09670458680871308,36.09446859390736,-100.26678939585686,76.200527287817
2024-09-23 15:54:25.950218,42.37,33.112288,-0.0026862297461545674,-0.023230986250042305,0.09695331012558621,36.09446859390736,-100.26678939585686,76.200527287817
2024-09-23 15:54:25.961241,42.37,33.112288,-0.0026862297461545674,-0.023230986250042305,0.09695331012558621,40.106058693909645,-104.27510100388527,76.200527287817
2024-09-23 15:54:26.003977,42.37,33.112376,-0.0027359787006383035,-0.022733528983459317,0.0973015264147526,36.09446859390736,-92.24360919585227,76.200527287817
2024-09-23 15:54:26.045902,42.37,33.112427,-0.0028354659767690416,-0.022733528983459317,0.0973015264147526,36.09446859390736,-92.24360919585227,80.21211738781929
2024-09-23 15:54:26.058024,42.37,33.112427,-0.0028354659767690416,-0.023429960042815445,0.09670458680871308,28.07457030097246,-92.24360919585227,80.21211738781929
2024-09-23 15:54:26.101642,42.37,33.112478,-0.0029349636958644295,-0.02308174982955575,0.09755024973162574,28.07457030097246,-100.26678939585686,80.21211738781929
2024-09-23 15:54:26.144370,42.37,33.112478,-0.0029349636958644295,-0.02308174982955575,0.09755024973162574,44.11764879391193,-100.26678939585686,80.21211738781929
2024-09-23 15:54:26.155340,42.37,33.112528,-0.0031836870127375577,-0.022833026512682618,0.09755024973162574,44.11764879391193,-100.26678939585686,80.21211738781929
2024-09-23 15:54:26.198475,42.37,33.112579,-0.0026862297461545674,-0.022833026512682618,0.09774922960030558,48.12595698684454,-100.26678939585686,76.200527287817
2024-09-23 15:54:26.240777,42.37,33.112579,-0.0026862297461545674,-0.02278327698858263,0.09720203344245934,40.106058693909645,-100.26678939585686,76.200527287817
2024-09-23 15:54:26.252186,42.37,33.112667,-0.0026862297461545674,-0.02278327698858263,0.09720203344245934,40.106058693909645,-100.26678939585686,80.21211738781929
2024-09-23 15:54:26.294426,42.37,33.112667,-0.003482159473966507,-0.022982261414192504,0.0966050877605131,36.09446859390736,-100.26678939585686,76.200527287817
2024-09-23 15:54:26.337612,42.37,33.11272,-0.0030841997366068195,-0.022982261414192504,0.0966050877605131,36.09446859390736,-100.26678939585686,76.200527287817
2024-09-23 15:54:26.348746,42.37,33.11272,-0.0030841997366068195,-0.02308174982955575,0.09740101331113918,40.106058693909645,-104.27510100388527,76.200527287817
2024-09-23 15:54:26.390598,42.37,33.11277,-0.0028354659767690416,-0.023579196463302005,0.09740101331113918,40.106058693909645,-104.27510100388527,80.21211738781929
2024-09-23 15:54:26.432386,42.37,33.11277,-0.0028354659767690416,-0.023579196463302005,0.09670458680871308,40.106058693909645,-104.27510100388527,80.21211738781929
2024-09-23 15:54:26.485342,42.37,33.11277,-0.0028354659767690416,-0.023579196463302005,0.09670458680871308,40.106058693909645,-100.26678939585686,76.200527287817
2024-09-23 15:54:26.496426,42.37,33.112821,-0.0030344509719951677,-0.02313149783467906,0.09670458680871308,40.106058693909645,-100.26678939585686,76.200527287817
2024-09-23 15:54:26.539135,42.37,33.112872,-0.0028354659767690416,-0.02313149783467906,0.09665483728461309,28.07457030097246,-104.27510100388527,80.21211738781929
2024-09-23 15:54:26.582445,42.37,33.112872,-0.0028354659767690416,-0.023280723622328886,0.09710254654607277,28.07457030097246,-104.27510100388527,80.21211738781929
2024-09-23 15:54:26.594199,42.37,33.112922,-0.0028354659767690416,-0.023280723622328886,0.09710254654607277,28.07457030097246,-104.27510100388527,84.22370748782159
2024-09-23 15:54:26.636975,42.37,33.112922,-0.0030344509719951677,-0.022833026512682618,0.09745075675933246,64.16903547978401,-92.24360919585227,84.22370748782159
2024-09-23 15:54:26.679699,42.37,33.113009,-0.0029349636958644295,-0.023230986250042305,0.09745075675933246,64.16903547978401,-92.24360919585227,84.22370748782159
2024-09-23 15:54:26.691763,42.37,33.113009,-0.0029349636958644295,-0.023230986250042305,0.09675432418099966,28.07457030097246,-104.27510100388527,84.22370748782159
2024-09-23 15:54:26.734399,42.37,33.113107,-0.0031339382481259063,-0.023280723622328886,0.09740101331113918,28.07457030097246,-104.27510100388527,80.21211738781929
2024-09-23 15:54:26.776287,42.37,33.113107,-0.0031339382481259063,-0.023280723622328886,0.09740101331113918,28.07457030097246,-104.27510100388527,80.21211738781929
2024-09-23 15:54:26.787314,42.37,33.113158,-0.003482159473966507,-0.02352945757203875,0.09725178296655933,28.07457030097246,-104.27510100388527,80.21211738781929
2024-09-23 15:54:26.831050,41.89,33.113209,-0.0030841997366068195,-0.02303200030545576,0.09725178296655933,36.09446859390736,-100.26678939585686,80.21211738781929
2024-09-23 15:54:26.873590,41.89,33.113209,-0.0030841997366068195,-0.02303200030545576,0.0970030596496862,40.106058693909645,-100.26678939585686,80.21211738781929
2024-09-23 15:54:26.884893,41.89,33.11326,-0.0028852147413806935,-0.02303200030545576,0.0970030596496862,40.106058693909645,-100.26678939585686,80.21211738781929
2024-09-23 15:54:26.927190,41.89,33.11326,-0.0028852147413806935,-0.02352945757203875,0.09685382322919964,40.106058693909645,-100.26678939585686,80.21211738781929
2024-09-23 15:54:26.939220,41.89,33.11335,-0.0028852147413806935,-0.02352945757203875,0.09685382322919964,40.106058693909645,-100.26678939585686,80.21211738781929
2024-09-23 15:54:26.971302,41.89,33.11335,-0.0031836870127375577,-0.02338022115155219,0.09685382322919964,40.106058693909645,-100.26678939585686,80.21211738781929
2024-09-23 15:54:26.982969,41.89,33.11335,-0.0031836870127375577,-0.02338022115155219,0.09695331012558621,48.12595698684454,-100.26678939585686,72.1922225099802
2024-09-23 15:54:27.025039,41.89,33.113402,-0.0030344509719951677,-0.02308174982955575,0.09715228999426605,44.11764879391193,-100.26678939585686,72.1922225099802
2024-09-23 15:54:27.036770,41.89,33.113402,-0.0030344509719951677,-0.02308174982955575,0.09715228999426605,44.11764879391193,-100.26678939585686,72.1922225099802
2024-09-23 15:54:27.070054,41.89,33.113452,-0.0029349636958644295,-0.02308174982955575,0.09715228999426605,44.11764879391193,-100.26678939585686,72.1922225099802
2024-09-23 15:54:27.081973,41.89,33.113452,-0.0029349636958644295,-0.02352945757203875,0.09705279702197278,36.09446859390736,-100.26678939585686,72.1922225099802
2024-09-23 15:54:27.124442,41.89,33.113503,-0.002636491424507565,-0.023330473146428877,0.09720203344245934,36.09446859390736,-92.24360919585227,80.21211738781929
2024-09-23 15:54:27.166989,41.89,33.113503,-0.002636491424507565,-0.023330473146428877,0.09720203344245934,32.08287849390507,-92.24360919585227,76.200527287817
2024-09-23 15:54:27.179274,41.89,33.113554,-0.0033329230534799477,-0.023330473146428877,0.09720203344245934,32.08287849390507,-92.24360919585227,76.200527287817
2024-09-23 15:54:27.222181,41.89,33.113604,-0.002785727465249955,-0.023330473146428877,0.09725178296655933,32.08287849390507,-96.25519929585457,76.200527287817
2024-09-23 15:54:27.265295,41.89,33.113604,-0.002785727465249955,-0.023230986250042305,0.09710254654607277,32.08287849390507,-96.25519929585457,76.200527287817
2024-09-23 15:54:27.276493,41.89,33.113691,-0.002785727465249955,-0.023230986250042305,0.09710254654607277,40.106058693909645,-96.25519929585457,76.200527287817
2024-09-23 15:54:27.320151,41.89,33.113691,-0.0031836870127375577,-0.023479709566915436,0.09740101331113918,40.106058693909645,-100.26678939585686,72.1922225099802
2024-09-23 15:54:27.362171,41.89,33.113743,-0.003482159473966507,-0.02313149783467906,0.09740101331113918,40.106058693909645,-100.26678939585686,72.1922225099802
2024-09-23 15:54:27.373434,41.89,33.113743,-0.003482159473966507,-0.02313149783467906,0.09680407370509965,48.12595698684454,-88.23529758782387,72.1922225099802
2024-09-23 15:54:27.415674,41.89,33.113793,-0.0033329230534799477,-0.023280723622328886,0.09710254654607277,48.12595698684454,-88.23529758782387,80.21211738781929
2024-09-23 15:54:27.458720,41.89,33.113793,-0.0033329230534799477,-0.023280723622328886,0.09710254654607277,48.12595698684454,-100.26678939585686,76.200527287817
2024-09-23 15:54:27.469809,41.89,33.113844,-0.003233425524256645,-0.023827930413011865,0.09665483728461309,48.12595698684454,-100.26678939585686,76.200527287817
2024-09-23 15:54:27.512431,41.89,33.113895,-0.002785727465249955,-0.023827930413011865,0.09665483728461309,36.09446859390736,-104.27510100388527,72.1922225099802
2024-09-23 15:54:27.524455,41.89,33.113895,-0.002785727465249955,-0.023579196463302005,0.09665483728461309,36.09446859390736,-104.27510100388527,72.1922225099802
2024-09-23 15:54:27.556990,41.89,33.113895,-0.002785727465249955,-0.023579196463302005,0.09725178296655933,32.08287849390507,-104.27510100388527,72.1922225099802
2024-09-23 15:54:27.568620,41.89,33.113945,-0.0029349636958644295,-0.023579196463302005,0.09725178296655933,32.08287849390507,-92.24360919585227,84.22370748782159
2024-09-23 15:54:27.610860,41.89,33.113945,-0.0029349636958644295,-0.023429960042815445,0.09740101331113918,36.09446859390736,-100.26678939585686,80.21211738781929
2024-09-23 15:54:27.622350,41.89,33.114032,-0.0029349636958644295,-0.023429960042815445,0.09740101331113918,36.09446859390736,-100.26678939585686,80.21211738781929
2024-09-23 15:54:27.654454,41.89,33.114032,-0.0028852147413806935,-0.023429960042815445,0.09740101331113918,36.09446859390736,-100.26678939585686,80.21211738781929
2024-09-23 15:54:27.666218,41.89,33.114032,-0.0028852147413806935,-0.023429960042815445,0.0973015264147526,48.12595698684454,-96.25519929585457,72.1922225099802
2024-09-23 15:54:27.709326,41.89,33.114084,-0.003382661564999035,-0.02397715620066169,0.09740101331113918,44.11764879391193,-92.24360919585227,72.1922225099802
2024-09-23 15:54:27.752933,41.89,33.114135,-0.002437506429281439,-0.02397715620066169,0.09740101331113918,44.11764879391193,-92.24360919585227,88.23529758782387
2024-09-23 15:54:27.764680,41.89,33.114135,-0.002437506429281439,-0.022982261414192504,0.09685382322919964,40.106058693909645,-92.24360919585227,88.23529758782387
2024-09-23 15:54:27.797377,41.89,33.114135,-0.002437506429281439,-0.022982261414192504,0.09685382322919964,40.106058693909645,-100.26678939585686,88.23529758782387
2024-09-23 15:54:27.809075,41.89,33.114185,-0.003233425524256645,-0.0228827638849692,0.09755024973162574,40.106058693909645,-100.26678939585686,84.22370748782159
2024-09-23 15:54:27.851834,42.01,33.114236,-0.003233425524256645,-0.0228827638849692,0.09755024973162574,40.106058693909645,-96.25519929585457,80.21211738781929
2024-09-23 15:54:27.863674,42.01,33.114236,-0.0023380189632786156,-0.02352945757203875,0.09755024973162574,40.106058693909645,-96.25519929585457,80.21211738781929
2024-09-23 15:54:27.895111,42.01,33.114236,-0.0023380189632786156,-0.02352945757203875,0.09670458680871308,40.106058693909645,-96.25519929585457,80.21211738781929
2024-09-23 15:54:27.907620,42.01,33.114287,-0.0029847020175114316,-0.02352945757203875,0.09670458680871308,28.07457030097246,-96.25519929585457,84.22370748782159
2024-09-23 15:54:27.950869,42.01,33.114287,-0.0029847020175114316,-0.023579196463302005,0.09640611396773996,24.06297849342227,-96.25519929585457,80.21211738781929
2024-09-23 15:54:27.962515,42.01,33.114374,-0.0029847020175114316,-0.023579196463302005,0.09640611396773996,24.06297849342227,-96.25519929585457,80.21211738781929
2024-09-23 15:54:27.994862,42.01,33.114374,-0.0030841997366068195,-0.02308174982955575,0.09640611396773996,24.06297849342227,-96.25519929585457,80.21211738781929
2024-09-23 15:54:28.005833,42.01,33.114374,-0.0030841997366068195,-0.02308174982955575,0.09695331012558621,32.08287849390507,-100.26678939585686,76.200527287817
2024-09-23 15:54:28.049078,42.01,33.114425,-0.0032831742888682963,-0.02352945757203875,0.09794820946898543,40.106058693909645,-96.25519929585457,76.200527287817
2024-09-23 15:54:28.091982,42.01,33.114476,-0.0032831742888682963,-0.02352945757203875,0.09794820946898543,40.106058693909645,-96.25519929585457,80.21211738781929
2024-09-23 15:54:28.103858,42.01,33.114476,-0.0031339382481259063,-0.02367869399252531,0.09675432418099966,44.11764879391193,-96.25519929585457,80.21211738781929
2024-09-23 15:54:28.197798,42.01,33.114527,-0.0029349636958644295,-0.023330473146428877,0.09655535038822652,44.11764879391193,-100.26678939585686,76.200527287817
2024-09-23 15:54:28.240475,42.01,33.114527,-0.0029349636958644295,-0.023330473146428877,0.09655535038822652,40.106058693909645,-100.26678939585686,80.21211738781929
2024-09-23 15:54:28.251849,42.01,33.114577,-0.0031836870127375577,-0.023230986250042305,0.09655535038822652,40.106058693909645,-100.26678939585686,80.21211738781929
2024-09-23 15:54:28.294375,42.01,33.114628,-0.0027359787006383035,-0.023230986250042305,0.09705279702197278,40.106058693909645,-96.25519929585457,76.200527287817
2024-09-23 15:54:28.338478,42.01,33.114628,-0.0027359787006383035,-0.02308174982955575,0.09685382322919964,32.08287849390507,-96.25519929585457,76.200527287817
2024-09-23 15:54:28.350262,42.01,33.114715,-0.0027359787006383035,-0.02308174982955575,0.09685382322919964,32.08287849390507,-104.27510100388527,80.21211738781929
2024-09-23 15:54:28.382517,42.01,33.114715,-0.0031339382481259063,-0.02308174982955575,0.09685382322919964,32.08287849390507,-104.27510100388527,80.21211738781929
2024-09-23 15:54:28.394253,42.01,33.114715,-0.0031339382481259063,-0.023429960042815445,0.09710254654607277,40.106058693909645,-104.27510100388527,80.21211738781929
2024-09-23 15:54:28.436260,42.01,33.114813,-0.003382661564999035,-0.023280723622328886,0.09680407370509965,40.106058693909645,-104.27510100388527,80.21211738781929
2024-09-23 15:54:28.448013,42.01,33.114813,-0.003382661564999035,-0.023280723622328886,0.09680407370509965,40.106058693909645,-100.26678939585686,80.21211738781929
2024-09-23 15:54:28.480033,42.01,33.114813,-0.003382661564999035,-0.023280723622328886,0.09680407370509965,40.106058693909645,-100.26678939585686,76.200527287817
2024-09-23 15:54:28.492464,42.01,33.114864,-0.003382661564999035,-0.023181236725942318,0.0973015264147526,40.106058693909645,-100.26678939585686,76.200527287817
2024-09-23 15:54:28.534528,42.01,33.114915,-0.0027359787006383035,-0.023181236725942318,0.0973015264147526,40.106058693909645,-100.26678939585686,80.21211738781929
2024-09-23 15:54:28.546435,42.01,33.114915,-0.0027359787006383035,-0.023330473146428877,0.09690356060148622,40.106058693909645,-100.26678939585686,80.21211738781929
2024-09-23 15:54:28.579277,42.01,33.114915,-0.0027359787006383035,-0.023330473146428877,0.09690356060148622,48.12595698684454,-96.25519929585457,80.21211738781929
2024-09-23 15:54:28.590723,42.01,33.114966,-0.0027359787006383035,-0.02263404056809607,0.09690356060148622,48.12595698684454,-96.25519929585457,76.200527287817
2024-09-23 15:54:28.633432,42.01,33.115017,-0.0027359787006383035,-0.02263404056809607,0.09690356060148622,44.11764879391193,-100.26678939585686,84.22370748782159
2024-09-23 15:54:28.644900,42.01,33.115017,-0.0028354659767690416,-0.02263404056809607,0.09690356060148622,44.11764879391193,-100.26678939585686,84.22370748782159
2024-09-23 15:54:28.676522,42.01,33.115017,-0.0028354659767690416,-0.02338022115155219,0.09690356060148622,44.11764879391193,-100.26678939585686,84.22370748782159
2024-09-23 15:54:28.688230,42.01,33.115105,-0.0028354659767690416,-0.02338022115155219,0.09685382322919964,28.07457030097246,-100.26678939585686,80.21211738781929
2024-09-23 15:54:28.731158,42.01,33.115105,-0.0028354659767690416,-0.022833026512682618,0.09690356060148622,40.106058693909645,-92.24360919585227,80.21211738781929
2024-09-23 15:54:28.743155,42.01,33.115105,-0.0028354659767690416,-0.022833026512682618,0.09690356060148622,40.106058693909645,-92.24360919585227,76.200527287817
2024-09-23 15:54:28.775150,42.01,33.115157,-0.0030841997366068195,-0.022833026512682618,0.09690356060148622,40.106058693909645,-92.24360919585227,76.200527287817
2024-09-23 15:54:28.787029,42.01,33.115157,-0.0030841997366068195,-0.02313149783467906,0.09715228999426605,44.11764879391193,-96.25519929585457,76.200527287817
2024-09-23 15:54:28.830126,42.01,33.115207,-0.0028852147413806935,-0.023330473146428877,0.09750050628343246,52.137550501942634,-96.25519929585457,76.200527287817
2024-09-23 15:54:28.874845,41.79,33.115258,-0.0028852147413806935,-0.023330473146428877,0.09750050628343246,52.137550501942634,-96.25519929585457,76.200527287817
2024-09-23 15:54:28.886503,41.79,33.115258,-0.0027359787006383035,-0.02362894446842532,0.09715228999426605,52.137550501942634,-96.25519929585457,76.200527287817
2024-09-23 15:54:28.918569,41.79,33.115258,-0.0027359787006383035,-0.02362894446842532,0.09715228999426605,40.106058693909645,-96.25519929585457,76.200527287817
2024-09-23 15:54:28.930191,41.79,33.115308,-0.0028354659767690416,-0.023181236725942318,0.09715228999426605,40.106058693909645,-96.25519929585457,72.1922225099802
2024-09-23 15:54:28.973244,41.79,33.115308,-0.0028354659767690416,-0.023181236725942318,0.09710254654607277,40.106058693909645,-96.25519929585457,80.21211738781929
2024-09-23 15:54:28.985026,41.79,33.115359,-0.003382661564999035,-0.023181236725942318,0.09710254654607277,40.106058693909645,-96.25519929585457,80.21211738781929
2024-09-23 15:54:29.016804,41.79,33.115359,-0.003382661564999035,-0.023429960042815445,0.09710254654607277,40.106058693909645,-96.25519929585457,80.21211738781929
2024-09-23 15:54:29.027964,41.79,33.115446,-0.003382661564999035,-0.023429960042815445,0.09685382322919964,28.07457030097246,-96.25519929585457,80.21211738781929
2024-09-23 15:54:29.070927,41.79,33.115446,-0.0029349636958644295,-0.023280723622328886,0.09685382322919964,24.06297849342227,-96.25519929585457,80.21211738781929
2024-09-23 15:54:29.082330,41.79,33.115446,-0.0029349636958644295,-0.023280723622328886,0.09685382322919964,24.06297849342227,-96.25519929585457,80.21211738781929
2024-09-23 15:54:29.114423,41.79,33.115498,-0.0029349636958644295,-0.023280723622328886,0.09685382322919964,24.06297849342227,-96.25519929585457,80.21211738781929
2024-09-23 15:54:29.125734,41.79,33.115498,-0.003233425524256645,-0.02218633282561307,0.09764974270391902,24.06297849342227,-100.26678939585686,80.21211738781929
2024-09-23 15:54:29.167671,41.79,33.115548,-0.0030841997366068195,-0.022833026512682618,0.09764974270391902,24.06297849342227,-100.26678939585686,84.22370748782159
2024-09-23 15:54:29.178977,41.79,33.115548,-0.0030841997366068195,-0.022833026512682618,0.09745075675933246,32.08287849390507,-100.26678939585686,84.22370748782159
2024-09-23 15:54:29.221169,41.79,33.115599,-0.0031339382481259063,-0.02338022115155219,0.09690356060148622,32.08287849390507,-96.25519929585457,84.22370748782159
2024-09-23 15:54:29.267027,41.79,33.11565,-0.0028852147413806935,-0.02338022115155219,0.09690356060148622,44.11764879391193,-100.26678939585686,88.23529758782387
2024-09-23 15:54:29.279159,41.79,33.11565,-0.0028852147413806935,-0.023330473146428877,0.09690356060148622,44.11764879391193,-100.26678939585686,88.23529758782387
2024-09-23 15:54:29.310746,41.79,33.11565,-0.0028852147413806935,-0.023330473146428877,0.0973015264147526,52.137550501942634,-100.26678939585686,88.23529758782387
2024-09-23 15:54:29.321780,41.79,33.1157,-0.0029847020175114316,-0.023330473146428877,0.0973015264147526,52.137550501942634,-100.26678939585686,80.21211738781929
2024-09-23 15:54:29.364190,41.79,33.1157,-0.0029847020175114316,-0.02367869399252531,0.09635636444363997,32.08287849390507,-96.25519929585457,80.21211738781929
2024-09-23 15:54:29.375705,41.79,33.115787,-0.0029847020175114316,-0.02367869399252531,0.09635636444363997,32.08287849390507,-96.25519929585457,76.200527287817
2024-09-23 15:54:29.407765,41.79,33.115787,-0.002785727465249955,-0.02367869399252531,0.09635636444363997,32.08287849390507,-96.25519929585457,76.200527287817
2024-09-23 15:54:29.418825,41.79,33.115787,-0.002785727465249955,-0.022982261414192504,0.09720203344245934,40.106058693909645,-92.24360919585227,80.21211738781929
2024-09-23 15:54:29.461366,41.79,33.115839,-0.0030344509719951677,-0.023429960042815445,0.09710254654607277,40.106058693909645,-92.24360919585227,80.21211738781929
2024-09-23 15:54:29.474165,41.79,33.115839,-0.0030344509719951677,-0.023429960042815445,0.09710254654607277,24.06297849342227,-104.27510100388527,80.21211738781929
2024-09-23 15:54:29.506376,41.79,33.11589,-0.0030344509719951677,-0.023429960042815445,0.09710254654607277,24.06297849342227,-104.27510100388527,80.21211738781929
2024-09-23 15:54:29.517380,41.79,33.11589,-0.0030841997366068195,-0.023429960042815445,0.09710254654607277,32.08287849390507,-104.27510100388527,80.21211738781929
2024-09-23 15:54:29.559068,41.79,33.11594,-0.0029847020175114316,-0.023330473146428877,0.09710254654607277,32.08287849390507,-104.27510100388527,76.200527287817
2024-09-23 15:54:29.570690,41.79,33.11594,-0.0029847020175114316,-0.023330473146428877,0.09774922960030558,32.08287849390507,-104.27510100388527,76.200527287817
2024-09-23 15:54:29.604008,41.79,33.11594,-0.0029847020175114316,-0.023330473146428877,0.09774922960030558,40.106058693909645,-96.25519929585457,76.200527287817
2024-09-23 15:54:29.615401,41.79,33.115991,-0.0029847020175114316,-0.02308174982955575,0.09774922960030558,40.106058693909645,-96.25519929585457,76.200527287817
2024-09-23 15:54:29.657371,41.79,33.116042,-0.0029847020175114316,-0.02308174982955575,0.09740101331113918,52.137550501942634,-96.25519929585457,80.21211738781929
2024-09-23 15:54:29.669574,41.79,33.116042,-0.002785727465249955,-0.02308174982955575,0.09740101331113918,52.137550501942634,-96.25519929585457,80.21211738781929
2024-09-23 15:54:29.701124,41.79,33.116042,-0.002785727465249955,-0.023181236725942318,0.09670458680871308,52.137550501942634,-96.25519929585457,80.21211738781929
2024-09-23 15:54:29.713366,41.79,33.116129,-0.002785727465249955,-0.023181236725942318,0.09670458680871308,44.11764879391193,-100.26678939585686,80.21211738781929
2024-09-23 15:54:29.757806,41.79,33.116129,-0.0034324103296106863,-0.022584292562972758,0.09675432418099966,36.09446859390736,-96.25519929585457,80.21211738781929
2024-09-23 15:54:29.800313,41.79,33.11618,-0.0034324103296106863,-0.023429960042815445,0.09675432418099966,36.09446859390736,-96.25519929585457,80.21211738781929
2024-09-23 15:54:29.811831,41.79,33.11618,-0.0034324103296106863,-0.023429960042815445,0.09740101331113918,36.09446859390736,-104.27510100388527,80.21211738781929
2024-09-23 15:54:29.855145,41.79,33.116231,-0.003382661564999035,-0.02278327698858263,0.09725178296655933,36.09446859390736,-104.27510100388527,76.200527287817
2024-09-23 15:54:29.898160,42.49,33.116282,-0.003382661564999035,-0.02278327698858263,0.09725178296655933,36.09446859390736,-104.27510100388527,76.200527287817
2024-09-23 15:54:29.909896,42.49,33.116282,-0.002636491424507565,-0.02352945757203875,0.09740101331113918,36.09446859390736,-104.27510100388527,76.200527287817
2024-09-23 15:54:29.952369,42.49,33.116332,-0.0030841997366068195,-0.023479709566915436,0.09740101331113918,40.106058693909645,-96.25519929585457,80.21211738781929
2024-09-23 15:54:29.994757,42.49,33.116332,-0.0030841997366068195,-0.023479709566915436,0.09630662707135339,48.12595698684454,-96.25519929585457,80.21211738781929
2024-09-23 15:54:30.005868,42.49,33.116383,-0.003233425524256645,-0.023479709566915436,0.09630662707135339,48.12595698684454,-96.25519929585457,84.22370748782159
2024-09-23 15:54:30.048192,42.49,33.11647,-0.003233425524256645,-0.023429960042815445,0.09635636444363997,36.09446859390736,-96.25519929585457,80.21211738781929
2024-09-23 15:54:30.091162,42.49,33.11647,-0.0030344509719951677,-0.023330473146428877,0.09635636444363997,36.09446859390736,-96.25519929585457,80.21211738781929
2024-09-23 15:54:30.103126,42.49,33.11647,-0.0030344509719951677,-0.023330473146428877,0.09720203344245934,36.09446859390736,-92.24360919585227,76.200527287817
2024-09-23 15:54:30.146594,42.49,33.116522,-0.0028852147413806935,-0.023429960042815445,0.09635636444363997,36.09446859390736,-108.28669110388756,76.200527287817
2024-09-23 15:54:30.188720,42.49,33.116572,-0.0028852147413806935,-0.023429960042815445,0.09635636444363997,36.09446859390736,-108.28669110388756,76.200527287817
2024-09-23 15:54:30.199833,42.49,33.116572,-0.0029349636958644295,-0.02268379009219606,0.09725178296655933,40.106058693909645,-108.28669110388756,76.200527287817
2024-09-23 15:54:30.242616,42.49,33.116623,-0.0029349636958644295,-0.02268379009219606,0.09725178296655933,40.106058693909645,-104.27510100388527,76.200527287817
2024-09-23 15:54:30.285671,42.49,33.116623,-0.0031339382481259063,-0.02268379009219606,0.09725178296655933,40.106058693909645,-104.27510100388527,76.200527287817
2024-09-23 15:54:30.297147,42.49,33.116623,-0.0031339382481259063,-0.023181236725942318,0.09690356060148622,32.08287849390507,-96.25519929585457,72.1922225099802
2024-09-23 15:54:30.340050,42.49,33.116674,-0.0030841997366068195,-0.022982261414192504,0.09740101331113918,36.09446859390736,-96.25519929585457,72.1922225099802
2024-09-23 15:54:30.352486,42.49,33.116674,-0.0030841997366068195,-0.022982261414192504,0.09740101331113918,36.09446859390736,-84.22370748782159,72.1922225099802
2024-09-23 15:54:30.385135,42.49,33.116724,-0.0023380189632786156,-0.022982261414192504,0.09740101331113918,36.09446859390736,-84.22370748782159,88.23529758782387
2024-09-23 15:54:30.396695,42.49,33.116724,-0.0023380189632786156,-0.02293251340906919,0.0973015264147526,40.106058693909645,-84.22370748782159,88.23529758782387
2024-09-23 15:54:30.439426,42.49,33.116811,-0.0031339382481259063,-0.0228827638849692,0.0970030596496862,40.106058693909645,-100.26678939585686,84.22370748782159
2024-09-23 15:54:30.482162,42.49,33.116811,-0.0031339382481259063,-0.0228827638849692,0.0970030596496862,48.12595698684454,-88.23529758782387,80.21211738781929
2024-09-23 15:54:30.494323,42.49,33.116862,-0.0031836870127375577,-0.023479709566915436,0.0970030596496862,48.12595698684454,-88.23529758782387,80.21211738781929
2024-09-23 15:54:30.536672,42.49,33.116913,-0.0027359787006383035,-0.023479709566915436,0.09705279702197278,40.106058693909645,-100.26678939585686,80.21211738781929
2024-09-23 15:54:30.580068,42.49,33.116913,-0.0027359787006383035,-0.02313149783467906,0.09670458680871308,32.08287849390507,-100.26678939585686,80.21211738781929
2024-09-23 15:54:30.591668,42.49,33.117006,-0.0027359787006383035,-0.02313149783467906,0.09670458680871308,32.08287849390507,-100.26678939585686,72.1922225099802
2024-09-23 15:54:30.635389,42.49,33.117006,-0.0026862297461545674,-0.023479709566915436,0.09725178296655933,32.08287849390507,-100.26678939585686,72.1922225099802
2024-09-23 15:54:30.677728,42.49,33.117058,-0.0030841997366068195,-0.02293251340906919,0.09725178296655933,32.08287849390507,-100.26678939585686,72.1922225099802
2024-09-23 15:54:30.689118,42.49,33.117058,-0.0030841997366068195,-0.02293251340906919,0.09705279702197278,40.106058693909645,-92.24360919585227,72.1922225099802
2024-09-23 15:54:30.731850,42.49,33.117108,-0.0026862297461545674,-0.022982261414192504,0.09750050628343246,48.12595698684454,-92.24360919585227,80.21211738781929
2024-09-23 15:54:30.775093,42.49,33.117108,-0.0026862297461545674,-0.022982261414192504,0.09750050628343246,48.12595698684454,-96.25519929585457,80.21211738781929
2024-09-23 15:54:30.827641,42.49,33.117159,-0.0031836870127375577,-0.023579196463302005,0.09784872257259886,48.12595698684454,-96.25519929585457,80.21211738781929
2024-09-23 15:54:30.839296,42.49,33.117159,-0.0031836870127375577,-0.023579196463302005,0.09784872257259886,48.12595698684454,-96.25519929585457,80.21211738781929
2024-09-23 15:54:30.872113,42.49,33.117159,-0.0031836870127375577,-0.023579196463302005,0.09784872257259886,48.12595698684454,-92.24360919585227,76.200527287817
2024-09-23 15:54:30.883344,42.49,33.11721,-0.0030344509719951677,-0.02367869399252531,0.0973015264147526,48.12595698684454,-92.24360919585227,76.200527287817
2024-09-23 15:54:30.926993,41.9,33.11726,-0.003382661564999035,-0.02308174982955575,0.0973015264147526,44.11764879391193,-92.24360919585227,84.22370748782159
2024-09-23 15:54:30.969201,41.9,33.11726,-0.003382661564999035,-0.02308174982955575,0.09715228999426605,28.07457030097246,-92.24360919585227,84.22370748782159
2024-09-23 15:54:30.981239,41.9,33.117348,-0.0029349636958644295,-0.02308174982955575,0.09715228999426605,28.07457030097246,-104.27510100388527,80.21211738781929
2024-09-23 15:54:31.023955,41.9,33.117445,-0.0029349636958644295,-0.023181236725942318,0.09750050628343246,28.07457030097246,-96.25519929585457,80.21211738781929
2024-09-23 15:54:31.067590,41.9,33.117445,-0.0031836870127375577,-0.022982261414192504,0.09764974270391902,28.07457030097246,-96.25519929585457,80.21211738781929
2024-09-23 15:54:31.079269,41.9,33.117445,-0.0031836870127375577,-0.022982261414192504,0.09764974270391902,40.106058693909645,-104.27510100388527,72.1922225099802
2024-09-23 15:54:31.122210,41.9,33.117497,-0.0029847020175114316,-0.023330473146428877,0.09774922960030558,40.106058693909645,-92.24360919585227,72.1922225099802
2024-09-23 15:54:31.164631,41.9,33.117547,-0.0029847020175114316,-0.023330473146428877,0.09774922960030558,40.106058693909645,-92.24360919585227,80.21211738781929
2024-09-23 15:54:31.175726,41.9,33.117547,-0.0029847020175114316,-0.022833026512682618,0.09705279702197278,44.11764879391193,-92.24360919585227,80.21211738781929
2024-09-23 15:54:31.218255,41.9,33.117598,-0.003233425524256645,-0.023579196463302005,0.0970030596496862,44.11764879391193,-104.27510100388527,76.200527287817
2024-09-23 15:54:31.261606,41.9,33.117598,-0.003233425524256645,-0.023579196463302005,0.0970030596496862,44.11764879391193,-104.27510100388527,76.200527287817
2024-09-23 15:54:31.273006,41.9,33.117649,-0.0033329230534799477,-0.023479709566915436,0.0970030596496862,44.11764879391193,-104.27510100388527,80.21211738781929
2024-09-23 15:54:31.315738,41.9,33.117699,-0.0033329230534799477,-0.023479709566915436,0.0973512698629459,44.11764879391193,-100.26678939585686,80.21211738781929
2024-09-23 15:54:31.328507,41.9,33.117699,-0.0029349636958644295,-0.023479709566915436,0.0973512698629459,44.11764879391193,-100.26678939585686,80.21211738781929
2024-09-23 15:54:31.361306,41.9,33.117699,-0.0029349636958644295,-0.023230986250042305,0.09655535038822652,32.08287849390507,-96.25519929585457,80.21211738781929
2024-09-23 15:54:31.372814,41.9,33.117786,-0.0029349636958644295,-0.023230986250042305,0.09655535038822652,32.08287849390507,-96.25519929585457,80.21211738781929
2024-09-23 15:54:31.404801,41.9,33.117786,-0.002387757474797703,-0.023230986250042305,0.09655535038822652,32.08287849390507,-96.25519929585457,80.21211738781929
2024-09-23 15:54:31.415982,41.9,33.117786,-0.002387757474797703,-0.02278327698858263,0.09695331012558621,28.07457030097246,-96.25519929585457,80.21211738781929
2024-09-23 15:54:31.457825,41.9,33.117838,-0.002785727465249955,-0.02268379009219606,0.09695331012558621,28.07457030097246,-96.25519929585457,80.21211738781929
2024-09-23 15:54:31.469632,41.9,33.117838,-0.002785727465249955,-0.02268379009219606,0.0973512698629459,28.07457030097246,-100.26678939585686,80.21211738781929
2024-09-23 15:54:31.513107,41.9,33.117889,-0.0027359787006383035,-0.022833026512682618,0.09695331012558621,40.106058693909645,-100.26678939585686,80.21211738781929
2024-09-23 15:54:31.555836,41.9,33.117939,-0.0027359787006383035,-0.022833026512682618,0.09695331012558621,40.106058693909645,-100.26678939585686,80.21211738781929
2024-09-23 15:54:31.566832,41.9,33.117939,-0.0028852147413806935,-0.02303200030545576,0.09695331012558621,40.106058693909645,-100.26678939585686,80.21211738781929
2024-09-23 15:54:31.600344,41.9,33.117939,-0.0028852147413806935,-0.02303200030545576,0.09695331012558621,44.11764879391193,-100.26678939585686,80.21211738781929
2024-09-23 15:54:31.611632,41.9,33.11799,-0.0031339382481259063,-0.02303200030545576,0.09695331012558621,44.11764879391193,-100.26678939585686,80.21211738781929
2024-09-23 15:54:31.653778,41.9,33.11799,-0.0031339382481259063,-0.02303200030545576,0.09745075675933246,48.12595698684454,-92.24360919585227,80.21211738781929
2024-09-23 15:54:31.665225,41.9,33.11804,-0.0027359787006383035,-0.02303200030545576,0.09745075675933246,48.12595698684454,-92.24360919585227,80.21211738781929
2024-09-23 15:54:31.697287,41.9,33.11804,-0.0027359787006383035,-0.02367869399252531,0.09745075675933246,48.12595698684454,-92.24360919585227,80.21211738781929
2024-09-23 15:54:31.708742,41.9,33.118128,-0.0027359787006383035,-0.02367869399252531,0.09695331012558621,36.09446859390736,-96.25519929585457,84.22370748782159
2024-09-23 15:54:31.751458,41.9,33.118128,-0.0029847020175114316,-0.023230986250042305,0.09725178296655933,24.06297849342227,-96.25519929585457,84.22370748782159
2024-09-23 15:54:31.762891,41.9,33.118128,-0.0029847020175114316,-0.023230986250042305,0.09725178296655933,24.06297849342227,-96.25519929585457,80.21211738781929
2024-09-23 15:54:31.794839,41.9,33.118179,-0.0029847020175114316,-0.023230986250042305,0.09725178296655933,24.06297849342227,-96.25519929585457,80.21211738781929
2024-09-23 15:54:31.806222,41.9,33.118179,-0.0030344509719951677,-0.0224350561424862,0.09705279702197278,36.09446859390736,-96.25519929585457,80.21211738781929
2024-09-23 15:54:31.849001,41.9,33.11823,-0.0033329230534799477,-0.023230986250042305,0.09705279702197278,36.09446859390736,-96.25519929585457,76.200527287817
2024-09-23 15:54:31.860522,41.9,33.11823,-0.0033329230534799477,-0.023230986250042305,0.0973512698629459,48.12595698684454,-96.25519929585457,76.200527287817
2024-09-23 15:54:31.892449,41.9,33.11823,-0.0033329230534799477,-0.023230986250042305,0.0973512698629459,48.12595698684454,-100.26678939585686,76.200527287817
2024-09-23 15:54:31.903993,41.9,33.118281,-0.0030344509719951677,-0.023330473146428877,0.09750050628343246,48.12595698684454,-100.26678939585686,76.200527287817
2024-09-23 15:54:31.946264,42.29,33.118281,-0.0030344509719951677,-0.023330473146428877,0.09750050628343246,48.12595698684454,-100.26678939585686,76.200527287817
2024-09-23 15:54:32.000449,42.29,33.118332,-0.0029847020175114316,-0.02338022115155219,0.09710254654607277,48.12595698684454,-100.26678939585686,80.21211738781929
2024-09-23 15:54:32.042759,42.29,33.118382,-0.0029847020175114316,-0.02338022115155219,0.09710254654607277,48.12595698684454,-104.27510100388527,68.18063240997792
2024-09-23 15:54:32.054002,42.29,33.118382,-0.0029349636958644295,-0.022733528983459317,0.0973015264147526,48.12595698684454,-104.27510100388527,68.18063240997792
2024-09-23 15:54:32.097187,42.29,33.118469,-0.0031836870127375577,-0.023479709566915436,0.0973015264147526,40.106058693909645,-100.26678939585686,80.21211738781929
2024-09-23 15:54:32.140592,42.29,33.118469,-0.0031836870127375577,-0.023479709566915436,0.09710254654607277,32.08287849390507,-96.25519929585457,80.21211738781929
2024-09-23 15:54:32.152323,42.29,33.11852,-0.0029349636958644295,-0.023479709566915436,0.09710254654607277,32.08287849390507,-96.25519929585457,84.22370748782159
2024-09-23 15:54:32.194474,42.29,33.118571,-0.0029349636958644295,-0.023230986250042305,0.0973512698629459,36.09446859390736,-108.28669110388756,76.200527287817
2024-09-23 15:54:32.237134,42.29,33.118571,-0.0031339382481259063,-0.023330473146428877,0.09720203344245934,36.09446859390736,-108.28669110388756,76.200527287817
2024-09-23 15:54:32.248324,42.29,33.118571,-0.0031339382481259063,-0.023330473146428877,0.09720203344245934,32.08287849390507,-100.26678939585686,76.200527287817
2024-09-23 15:54:32.290675,42.29,33.118664,-0.0023380189632786156,-0.02352945757203875,0.09715228999426605,32.08287849390507,-104.27510100388527,76.200527287817
2024-09-23 15:54:32.333554,42.29,33.118716,-0.0023380189632786156,-0.02352945757203875,0.09715228999426605,32.08287849390507,-104.27510100388527,84.22370748782159
2024-09-23 15:54:32.344778,42.29,33.118716,-0.0028852147413806935,-0.02308174982955575,0.09720203344245934,52.137550501942634,-104.27510100388527,84.22370748782159
2024-09-23 15:54:32.387821,42.29,33.118766,-0.003631395514708897,-0.02268379009219606,0.09720203344245934,52.137550501942634,-96.25519929585457,80.21211738781929
2024-09-23 15:54:32.399547,42.29,33.118766,-0.003631395514708897,-0.02268379009219606,0.0973512698629459,52.137550501942634,-96.25519929585457,80.21211738781929
2024-09-23 15:54:32.431708,42.29,33.118766,-0.003631395514708897,-0.02268379009219606,0.0973512698629459,48.12595698684454,-104.27510100388527,80.21211738781929
2024-09-23 15:54:32.443522,42.29,33.118817,-0.0028852147413806935,-0.023280723622328886,0.0973512698629459,48.12595698684454,-104.27510100388527,80.21211738781929
2024-09-23 15:54:32.486339,42.29,33.118868,-0.0030841997366068195,-0.023280723622328886,0.09695331012558621,44.11764879391193,-96.25519929585457,80.21211738781929
2024-09-23 15:54:32.580341,42.29,33.118868,-0.0030841997366068195,-0.02303200030545576,0.09710254654607277,32.08287849390507,-96.25519929585457,80.21211738781929
2024-09-23 15:54:32.592366,42.29,33.118956,-0.0030841997366068195,-0.02303200030545576,0.09710254654607277,32.08287849390507,-96.25519929585457,80.21211738781929
2024-09-23 15:54:32.625415,42.29,33.118956,-0.0029349636958644295,-0.02303200030545576,0.09710254654607277,32.08287849390507,-96.25519929585457,80.21211738781929
2024-09-23 15:54:32.637192,42.29,33.118956,-0.0029349636958644295,-0.023280723622328886,0.09675432418099966,36.09446859390736,-100.26678939585686,72.1922225099802
2024-09-23 15:54:32.679925,42.29,33.119008,-0.0033329230534799477,-0.02303200030545576,0.0973015264147526,36.09446859390736,-100.26678939585686,72.1922225099802
2024-09-23 15:54:32.691990,42.29,33.119008,-0.0033329230534799477,-0.02303200030545576,0.0973015264147526,36.09446859390736,-96.25519929585457,72.1922225099802
2024-09-23 15:54:32.724108,42.29,33.119059,-0.0033329230534799477,-0.02303200030545576,0.0973015264147526,36.09446859390736,-96.25519929585457,80.21211738781929
2024-09-23 15:54:32.735854,42.29,33.119059,-0.0028852147413806935,-0.02367869399252531,0.09715228999426605,36.09446859390736,-96.25519929585457,80.21211738781929
2024-09-23 15:54:32.779308,42.29,33.119109,-0.0031836870127375577,-0.022833026512682618,0.09680407370509965,36.09446859390736,-104.27510100388527,80.21211738781929
2024-09-23 15:54:32.821297,42.29,33.119109,-0.0031836870127375577,-0.022833026512682618,0.09680407370509965,36.09446859390736,-96.25519929585457,80.21211738781929
2024-09-23 15:54:32.833224,42.29,33.119202,-0.0032831742888682963,-0.02278327698858263,0.09680407370509965,36.09446859390736,-96.25519929585457,80.21211738781929
2024-09-23 15:54:32.876619,42.29,33.119253,-0.003482159473966507,-0.02278327698858263,0.09680407370509965,32.08287849390507,-96.25519929585457,80.21211738781929
2024-09-23 15:54:32.918752,42.29,33.119253,-0.003482159473966507,-0.02313149783467906,0.09720203344245934,32.08287849390507,-96.25519929585457,80.21211738781929
2024-09-23 15:54:32.929868,42.29,33.119346,-0.003482159473966507,-0.02313149783467906,0.09720203344245934,32.08287849390507,-96.25519929585457,76.200527287817
2024-09-23 15:54:32.972777,41.89,33.119346,-0.0029349636958644295,-0.023579196463302005,0.09685382322919964,44.11764879391193,-100.26678939585686,76.200527287817
2024-09-23 15:54:32.984583,41.89,33.119346,-0.0029349636958644295,-0.023579196463302005,0.09685382322919964,44.11764879391193,-100.26678939585686,88.23529758782387
2024-09-23 15:54:33.016730,41.89,33.119398,-0.0031339382481259063,-0.023579196463302005,0.09685382322919964,44.11764879391193,-100.26678939585686,88.23529758782387
2024-09-23 15:54:33.028765,41.89,33.119398,-0.0031339382481259063,-0.023280723622328886,0.09685382322919964,40.106058693909645,-96.25519929585457,88.23529758782387
2024-09-23 15:54:33.072064,41.89,33.119449,-0.0033329230534799477,-0.023181236725942318,0.09720203344245934,44.11764879391193,-96.25519929585457,76.200527287817
2024-09-23 15:54:33.114604,41.89,33.119499,-0.0033329230534799477,-0.023181236725942318,0.09720203344245934,44.11764879391193,-100.26678939585686,80.21211738781929
2024-09-23 15:54:33.125789,41.89,33.119499,-0.003482159473966507,-0.02293251340906919,0.09690356060148622,44.11764879391193,-100.26678939585686,80.21211738781929
2024-09-23 15:54:33.168557,41.89,33.11955,-0.0035318979854855937,-0.023728432883788564,0.09690356060148622,48.12595698684454,-96.25519929585457,80.21211738781929
2024-09-23 15:54:33.211307,41.89,33.11955,-0.0035318979854855937,-0.023728432883788564,0.09690356060148622,40.106058693909645,-96.25519929585457,80.21211738781929
2024-09-23 15:54:33.223490,41.89,33.119601,-0.0025369937054121774,-0.023728432883788564,0.09690356060148622,40.106058693909645,-100.26678939585686,80.21211738781929
2024-09-23 15:54:33.266386,41.89,33.119688,-0.0025369937054121774,-0.023429960042815445,0.09750050628343246,36.09446859390736,-96.25519929585457,80.21211738781929
2024-09-23 15:54:33.308718,41.89,33.119688,-0.003233425524256645,-0.02362894446842532,0.09750050628343246,36.09446859390736,-96.25519929585457,80.21211738781929
2024-09-23 15:54:33.319689,41.89,33.119688,-0.003233425524256645,-0.02362894446842532,0.09720203344245934,36.09446859390736,-96.25519929585457,84.22370748782159
2024-09-23 15:54:33.363075,41.89,33.119739,-0.002586742470023829,-0.023579196463302005,0.09740101331113918,40.106058693909645,-100.26678939585686,84.22370748782159
2024-09-23 15:54:33.406236,41.89,33.11979,-0.002586742470023829,-0.023579196463302005,0.09740101331113918,40.106058693909645,-100.26678939585686,76.200527287817
2024-09-23 15:54:33.417696,41.89,33.11979,-0.0027359787006383035,-0.02313149783467906,0.09745075675933246,44.11764879391193,-100.26678939585686,76.200527287817
2024-09-23 15:54:33.459298,41.89,33.11984,-0.0028852147413806935,-0.0228827638849692,0.09745075675933246,44.11764879391193,-104.27510100388527,68.18063240997792
2024-09-23 15:54:33.471266,41.89,33.11984,-0.0028852147413806935,-0.0228827638849692,0.09725178296655933,44.11764879391193,-104.27510100388527,68.18063240997792
2024-09-23 15:54:33.503487,41.89,33.11984,-0.0028852147413806935,-0.0228827638849692,0.09725178296655933,44.11764879391193,-92.24360919585227,68.18063240997792
2024-09-23 15:54:33.514970,41.89,33.119891,-0.0031339382481259063,-0.023230986250042305,0.09725178296655933,44.11764879391193,-92.24360919585227,72.1922225099802
2024-09-23 15:54:33.556598,41.89,33.119942,-0.0031339382481259063,-0.023230986250042305,0.09710254654607277,44.11764879391193,-96.25519929585457,80.21211738781929
2024-09-23 15:54:33.568538,41.89,33.119942,-0.0025369937054121774,-0.023230986250042305,0.09710254654607277,44.11764879391193,-96.25519929585457,80.21211738781929
2024-09-23 15:54:33.602049,41.89,33.119942,-0.0025369937054121774,-0.023280723622328886,0.09705279702197278,44.11764879391193,-96.25519929585457,80.21211738781929
2024-09-23 15:54:33.614053,41.89,33.120029,-0.0025369937054121774,-0.023280723622328886,0.09705279702197278,32.08287849390507,-96.25519929585457,80.21211738781929
2024-09-23 15:54:33.656944,41.89,33.120029,-0.0026862297461545674,-0.023429960042815445,0.0973512698629459,24.06297849342227,-96.25519929585457,84.22370748782159
2024-09-23 15:54:33.700034,41.89,33.120081,-0.0031836870127375577,-0.02308174982955575,0.0973512698629459,24.06297849342227,-96.25519929585457,84.22370748782159
2024-09-23 15:54:33.712819,41.89,33.120081,-0.0031836870127375577,-0.02308174982955575,0.09720203344245934,28.07457030097246,-96.25519929585457,84.22370748782159
2024-09-23 15:54:33.744706,41.89,33.120081,-0.0031836870127375577,-0.02308174982955575,0.09720203344245934,28.07457030097246,-96.25519929585457,76.200527287817
2024-09-23 15:54:33.756192,41.89,33.120132,-0.002785727465249955,-0.02338022115155219,0.0973512698629459,36.09446859390736,-96.25519929585457,76.200527287817
2024-09-23 15:54:33.799377,41.89,33.120182,-0.002636491424507565,-0.02338022115155219,0.0973512698629459,36.09446859390736,-96.25519929585457,72.1922225099802
2024-09-23 15:54:33.811392,41.89,33.120182,-0.002636491424507565,-0.023330473146428877,0.0973512698629459,36.09446859390736,-96.25519929585457,72.1922225099802
2024-09-23 15:54:33.844114,41.89,33.120182,-0.002636491424507565,-0.023330473146428877,0.09690356060148622,36.09446859390736,-96.25519929585457,72.1922225099802
2024-09-23 15:54:33.855455,41.89,33.120233,-0.0030344509719951677,-0.023330473146428877,0.09690356060148622,48.12595698684454,-100.26678939585686,84.22370748782159
2024-09-23 15:54:33.898512,41.89,33.120233,-0.0030344509719951677,-0.022982261414192504,0.09685382322919964,52.137550501942634,-104.27510100388527,80.21211738781929
2024-09-23 15:54:33.910583,41.89,33.120284,-0.0030344509719951677,-0.022982261414192504,0.09685382322919964,52.137550501942634,-104.27510100388527,80.21211738781929
2024-09-23 15:54:33.942561,41.89,33.120284,-0.0031836870127375577,-0.023479709566915436,0.09685382322919964,52.137550501942634,-104.27510100388527,80.21211738781929
2024-09-23 15:54:33.954576,41.89,33.120284,-0.0031836870127375577,-0.023479709566915436,0.09715228999426605,36.09446859390736,-100.26678939585686,80.21211738781929
2024-09-23 15:54:33.998222,42.1,33.12037,-0.0031339382481259063,-0.02338022115155219,0.09715228999426605,36.09446859390736,-96.25519929585457,80.21211738781929
2024-09-23 15:54:34.040202,42.1,33.120422,-0.0031339382481259063,-0.02338022115155219,0.09715228999426605,36.09446859390736,-96.25519929585457,76.200527287817
2024-09-23 15:54:34.051168,42.1,33.120422,-0.002785727465249955,-0.023827930413011865,0.09750050628343246,32.08287849390507,-96.25519929585457,76.200527287817
2024-09-23 15:54:34.094733,42.1,33.120472,-0.002785727465249955,-0.02308174982955575,0.09695331012558621,32.08287849390507,-96.25519929585457,80.21211738781929
2024-09-23 15:54:34.137353,42.1,33.120472,-0.002785727465249955,-0.02308174982955575,0.09695331012558621,28.07457030097246,-96.25519929585457,80.21211738781929
2024-09-23 15:54:34.149226,42.1,33.120523,-0.0029847020175114316,-0.023280723622328886,0.09695331012558621,28.07457030097246,-96.25519929585457,80.21211738781929
2024-09-23 15:54:34.192197,42.1,33.120574,-0.0030344509719951677,-0.023280723622328886,0.09665483728461309,40.106058693909645,-96.25519929585457,88.23529758782387
2024-09-23 15:54:34.234595,42.1,33.120574,-0.0030344509719951677,-0.02268379009219606,0.09705279702197278,40.106058693909645,-96.25519929585457,88.23529758782387
2024-09-23 15:54:34.245837,42.1,33.120663,-0.0030344509719951677,-0.02268379009219606,0.09705279702197278,52.137550501942634,-100.26678939585686,76.200527287817
2024-09-23 15:54:34.288137,42.1,33.120663,-0.0031339382481259063,-0.023330473146428877,0.09710254654607277,52.137550501942634,-96.25519929585457,76.200527287817
2024-09-23 15:54:34.299773,42.1,33.120663,-0.0031339382481259063,-0.023330473146428877,0.09710254654607277,52.137550501942634,-96.25519929585457,80.21211738781929
2024-09-23 15:54:34.332236,42.1,33.120714,-0.0028354659767690416,-0.023330473146428877,0.09710254654607277,52.137550501942634,-96.25519929585457,80.21211738781929
2024-09-23 15:54:34.343564,42.1,33.120714,-0.0028354659767690416,-0.02308174982955575,0.09725178296655933,36.09446859390736,-88.23529758782387,80.21211738781929
2024-09-23 15:54:34.386144,42.1,33.120765,-0.0030344509719951677,-0.02338022115155219,0.09715228999426605,36.09446859390736,-88.23529758782387,88.23529758782387
2024-09-23 15:54:34.397944,42.1,33.120765,-0.0030344509719951677,-0.02338022115155219,0.09715228999426605,36.09446859390736,-88.23529758782387,88.23529758782387
2024-09-23 15:54:34.481846,42.1,33.120815,-0.0038303700669703737,-0.02338022115155219,0.09715228999426605,36.09446859390736,-96.25519929585457,76.200527287817
2024-09-23 15:54:34.494350,42.1,33.120815,-0.0038303700669703737,-0.02352945757203875,0.09750050628343246,36.09446859390736,-96.25519929585457,76.200527287817
2024-09-23 15:54:34.526727,42.1,33.120815,-0.0038303700669703737,-0.02352945757203875,0.09750050628343246,40.106058693909645,-96.25519929585457,76.200527287817
2024-09-23 15:54:34.538415,42.1,33.120866,-0.0031339382481259063,-0.023330473146428877,0.09750050628343246,40.106058693909645,-104.27510100388527,76.200527287817
2024-09-23 15:54:34.581303,42.1,33.120917,-0.0031339382481259063,-0.023330473146428877,0.0973512698629459,24.06297849342227,-92.24360919585227,84.22370748782159
2024-09-23 15:54:34.593845,42.1,33.120917,-0.003482159473966507,-0.023330473146428877,0.0973512698629459,24.06297849342227,-92.24360919585227,84.22370748782159
2024-09-23 15:54:34.626635,42.1,33.120917,-0.003482159473966507,-0.02338022115155219,0.09750050628343246,44.11764879391193,-92.24360919585227,84.22370748782159
2024-09-23 15:54:34.638009,42.1,33.121004,-0.003482159473966507,-0.02338022115155219,0.09750050628343246,44.11764879391193,-96.25519929585457,72.1922225099802
2024-09-23 15:54:34.680502,42.1,33.121004,-0.0028354659767690416,-0.02338022115155219,0.09725178296655933,52.137550501942634,-100.26678939585686,80.21211738781929
2024-09-23 15:54:34.722899,42.1,33.121102,-0.0031836870127375577,-0.02338022115155219,0.09725178296655933,52.137550501942634,-100.26678939585686,80.21211738781929
2024-09-23 15:54:34.734004,42.1,33.121102,-0.0031836870127375577,-0.02293251340906919,0.09720203344245934,32.08287849390507,-92.24360919585227,80.21211738781929
2024-09-23 15:54:34.776263,42.1,33.121153,-0.002785727465249955,-0.023429960042815445,0.09745075675933246,32.08287849390507,-92.24360919585227,80.21211738781929
2024-09-23 15:54:34.788306,42.1,33.121153,-0.002785727465249955,-0.023429960042815445,0.09745075675933246,32.08287849390507,-92.24360919585227,80.21211738781929
2024-09-23 15:54:34.821326,42.1,33.121204,-0.002785727465249955,-0.023429960042815445,0.09745075675933246,32.08287849390507,-96.25519929585457,72.1922225099802
2024-09-23 15:54:34.833044,42.1,33.121204,-0.003482159473966507,-0.0228827638849692,0.09740101331113918,32.08287849390507,-96.25519929585457,72.1922225099802
2024-09-23 15:54:34.876596,42.1,33.121255,-0.0027359787006383035,-0.023230986250042305,0.09740101331113918,28.07457030097246,-92.24360919585227,80.21211738781929
2024-09-23 15:54:34.919561,42.1,33.121255,-0.0027359787006383035,-0.023230986250042305,0.0973512698629459,40.106058693909645,-96.25519929585457,80.21211738781929
2024-09-23 15:54:34.930678,42.1,33.121305,-0.0028354659767690416,-0.023230986250042305,0.0973512698629459,40.106058693909645,-96.25519929585457,80.21211738781929
2024-09-23 15:54:34.974250,42.1,33.121394,-0.0028354659767690416,-0.023280723622328886,0.09720203344245934,52.137550501942634,-100.26678939585686,80.21211738781929
2024-09-23 15:54:35.016660,42.03,33.121394,-0.0028852147413806935,-0.02313149783467906,0.0973015264147526,52.137550501942634,-100.26678939585686,80.21211738781929
2024-09-23 15:54:35.027776,42.03,33.121394,-0.0028852147413806935,-0.02313149783467906,0.0973015264147526,32.08287849390507,-96.25519929585457,80.21211738781929
2024-09-23 15:54:35.070227,42.03,33.121445,-0.0030344509719951677,-0.02313149783467906,0.0973015264147526,32.08287849390507,-96.25519929585457,80.21211738781929
2024-09-23 15:54:35.111825,42.03,33.121445,-0.0030344509719951677,-0.023429960042815445,0.09740101331113918,32.08287849390507,-96.25519929585457,80.21211738781929
2024-09-23 15:54:35.124027,42.03,33.121496,-0.0030344509719951677,-0.023429960042815445,0.09740101331113918,48.12595698684454,-100.26678939585686,76.200527287817
2024-09-23 15:54:35.166854,42.03,33.121496,-0.002785727465249955,-0.023429960042815445,0.09645586349183995,28.07457030097246,-100.26678939585686,76.200527287817
2024-09-23 15:54:35.179179,42.03,33.121496,-0.002785727465249955,-0.023429960042815445,0.09645586349183995,28.07457030097246,-100.26678939585686,76.200527287817
2024-09-23 15:54:35.211262,42.03,33.121547,-0.003382661564999035,-0.023429960042815445,0.09645586349183995,28.07457030097246,-100.26678939585686,76.200527287817
2024-09-23 15:54:35.222638,42.03,33.121547,-0.003382661564999035,-0.023280723622328886,0.09675432418099966,16.039798293417693,-96.25519929585457,76.200527287817
2024-09-23 15:54:35.265624,42.03,33.121597,-0.003482159473966507,-0.023181236725942318,0.09665483728461309,32.08287849390507,-96.25519929585457,76.200527287817
2024-09-23 15:54:35.308351,42.03,33.121648,-0.003482159473966507,-0.023181236725942318,0.09665483728461309,32.08287849390507,-96.25519929585457,80.21211738781929
2024-09-23 15:54:35.319305,42.03,33.121648,-0.0031836870127375577,-0.023579196463302005,0.09665483728461309,32.08287849390507,-96.25519929585457,80.21211738781929
2024-09-23 15:54:35.361615,42.03,33.121738,-0.003233425524256645,-0.023479709566915436,0.09665483728461309,44.11764879391193,-88.23529758782387,80.21211738781929
2024-09-23 15:54:35.404407,42.03,33.121738,-0.003233425524256645,-0.023479709566915436,0.09764974270391902,40.106058693909645,-88.23529758782387,80.21211738781929
2024-09-23 15:54:35.415903,42.03,33.121788,-0.0031339382481259063,-0.023479709566915436,0.09764974270391902,40.106058693909645,-96.25519929585457,84.22370748782159
2024-09-23 15:54:35.458676,42.03,33.121788,-0.0031339382481259063,-0.02338022115155219,0.09655535038822652,40.106058693909645,-92.24360919585227,80.21211738781929
2024-09-23 15:54:35.470766,42.03,33.121881,-0.0031339382481259063,-0.02338022115155219,0.09655535038822652,40.106058693909645,-92.24360919585227,80.21211738781929
2024-09-23 15:54:35.503839,42.03,33.121881,-0.002586742470023829,-0.02308174982955575,0.09655535038822652,40.106058693909645,-92.24360919585227,80.21211738781929
2024-09-23 15:54:35.515028,42.03,33.121881,-0.002586742470023829,-0.02308174982955575,0.09670458680871308,28.07457030097246,-100.26678939585686,84.22370748782159
2024-09-23 15:54:35.557284,42.03,33.121933,-0.0025369937054121774,-0.02308174982955575,0.09695331012558621,16.039798293417693,-100.26678939585686,84.22370748782159
2024-09-23 15:54:35.568987,42.03,33.121933,-0.0025369937054121774,-0.02308174982955575,0.09695331012558621,16.039798293417693,-100.26678939585686,84.22370748782159
2024-09-23 15:54:35.600884,42.03,33.121984,-0.0026862297461545674,-0.02308174982955575,0.09695331012558621,16.039798293417693,-100.26678939585686,76.200527287817
2024-09-23 15:54:35.612325,42.03,33.121984,-0.0026862297461545674,-0.0228827638849692,0.09755024973162574,28.07457030097246,-100.26678939585686,76.200527287817
2024-09-23 15:54:35.655323,42.03,33.122034,-0.0030344509719951677,-0.023479709566915436,0.09740101331113918,28.07457030097246,-100.26678939585686,80.21211738781929
2024-09-23 15:54:35.698093,42.03,33.122034,-0.0030344509719951677,-0.023479709566915436,0.09740101331113918,32.08287849390507,-96.25519929585457,84.22370748782159
2024-09-23 15:54:35.709793,42.03,33.122085,-0.0030344509719951677,-0.023479709566915436,0.09740101331113918,32.08287849390507,-96.25519929585457,84.22370748782159
2024-09-23 15:54:35.753653,42.03,33.122085,-0.002636491424507565,-0.023778180888911878,0.09755024973162574,44.11764879391193,-104.27510100388527,80.21211738781929
2024-09-23 15:54:35.796329,42.03,33.122136,-0.0028852147413806935,-0.023429960042815445,0.09755024973162574,44.11764879391193,-104.27510100388527,80.21211738781929
2024-09-23 15:54:35.808021,42.03,33.122136,-0.0028852147413806935,-0.023429960042815445,0.09670458680871308,48.12595698684454,-96.25519929585457,80.21211738781929
2024-09-23 15:54:35.850451,42.03,33.122223,-0.0028852147413806935,-0.023778180888911878,0.09720203344245934,36.09446859390736,-96.25519929585457,80.21211738781929
2024-09-23 15:54:35.894066,42.03,33.122274,-0.0028852147413806935,-0.023778180888911878,0.09720203344245934,36.09446859390736,-100.26678939585686,76.200527287817
2024-09-23 15:54:35.905441,42.03,33.122274,-0.0031339382481259063,-0.023330473146428877,0.09670458680871308,36.09446859390736,-100.26678939585686,76.200527287817
2024-09-23 15:54:35.947878,42.03,33.122325,-0.003233425524256645,-0.0228827638849692,0.09670458680871308,28.07457030097246,-104.27510100388527,80.21211738781929
2024-09-23 15:54:35.989674,42.03,33.122325,-0.003233425524256645,-0.0228827638849692,0.09710254654607277,28.07457030097246,-104.27510100388527,80.21211738781929
2024-09-23 15:54:36.001285,42.03,33.122375,-0.0029847020175114316,-0.0228827638849692,0.09710254654607277,28.07457030097246,-104.27510100388527,76.200527287817
2024-09-23 15:54:36.043604,42.11,33.122375,-0.0029847020175114316,-0.023579196463302005,0.09710254654607277,48.12595698684454,-92.24360919585227,84.22370748782159
2024-09-23 15:54:36.055480,42.11,33.122466,-0.0029847020175114316,-0.023579196463302005,0.09710254654607277,48.12595698684454,-92.24360919585227,84.22370748782159
2024-09-23 15:54:36.087597,42.11,33.122466,-0.0028852147413806935,-0.02313149783467906,0.09710254654607277,48.12595698684454,-92.24360919585227,84.22370748782159
2024-09-23 15:54:36.098864,42.11,33.122466,-0.0028852147413806935,-0.02313149783467906,0.09725178296655933,52.137550501942634,-96.25519929585457,80.21211738781929
2024-09-23 15:54:36.142817,42.11,33.122518,-0.0028852147413806935,-0.022982261414192504,0.09630662707135339,48.12595698684454,-92.24360919585227,80.21211738781929
2024-09-23 15:54:36.184676,42.11,33.122569,-0.0028852147413806935,-0.022982261414192504,0.09630662707135339,48.12595698684454,-92.24360919585227,80.21211738781929
2024-09-23 15:54:36.196134,42.11,33.122569,-0.003482159473966507,-0.022982261414192504,0.09750050628343246,40.106058693909645,-92.24360919585227,80.21211738781929
2024-09-23 15:54:36.238424,42.11,33.122619,-0.0030344509719951677,-0.023280723622328886,0.09750050628343246,40.106058693909645,-104.27510100388527,80.21211738781929
2024-09-23 15:54:36.250581,42.11,33.122619,-0.0030344509719951677,-0.023280723622328886,0.09715228999426605,40.106058693909645,-104.27510100388527,80.21211738781929
2024-09-23 15:54:36.334476,42.11,33.12267,-0.0030344509719951677,-0.023280723622328886,0.09715228999426605,40.106058693909645,-104.27510100388527,76.200527287817
2024-09-23 15:54:36.345467,42.11,33.12267,-0.003482159473966507,-0.023181236725942318,0.09715228999426605,40.106058693909645,-104.27510100388527,76.200527287817
2024-09-23 15:54:36.377726,42.11,33.12267,-0.003482159473966507,-0.023181236725942318,0.09720203344245934,40.106058693909645,-104.27510100388527,76.200527287817
2024-09-23 15:54:36.389641,42.11,33.122721,-0.002785727465249955,-0.023181236725942318,0.09720203344245934,32.08287849390507,-96.25519929585457,80.21211738781929
2024-09-23 15:54:36.433363,42.11,33.122721,-0.002785727465249955,-0.023778180888911878,0.09725178296655933,36.09446859390736,-96.25519929585457,80.21211738781929
2024-09-23 15:54:36.446282,42.11,33.122808,-0.002785727465249955,-0.023778180888911878,0.09725178296655933,36.09446859390736,-96.25519929585457,84.22370748782159
2024-09-23 15:54:36.478671,42.11,33.122808,-0.002636491424507565,-0.022584292562972758,0.09720203344245934,36.09446859390736,-96.25519929585457,84.22370748782159
2024-09-23 15:54:36.489816,42.11,33.122808,-0.002636491424507565,-0.022584292562972758,0.09720203344245934,36.09446859390736,-104.27510100388527,76.200527287817
2024-09-23 15:54:36.532744,42.11,33.122859,-0.0029349636958644295,-0.02352945757203875,0.09740101331113918,48.12595698684454,-100.26678939585686,76.200527287817
2024-09-23 15:54:36.574416,42.11,33.122955,-0.0029349636958644295,-0.02352945757203875,0.09740101331113918,48.12595698684454,-100.26678939585686,80.21211738781929
2024-09-23 15:54:36.585923,42.11,33.122955,-0.0030841997366068195,-0.02308174982955575,0.0970030596496862,40.106058693909645,-100.26678939585686,80.21211738781929
2024-09-23 15:54:36.629188,42.11,33.123006,-0.0031339382481259063,-0.023479709566915436,0.09620712802315341,40.106058693909645,-100.26678939585686,80.21211738781929
2024-09-23 15:54:36.672441,42.11,33.123006,-0.0031339382481259063,-0.023479709566915436,0.09620712802315341,32.08287849390507,-100.26678939585686,80.21211738781929
2024-09-23 15:54:36.684409,42.11,33.123057,-0.0028852147413806935,-0.022982261414192504,0.09620712802315341,32.08287849390507,-100.26678939585686,76.200527287817
2024-09-23 15:54:36.727790,42.11,33.123107,-0.0030344509719951677,-0.022982261414192504,0.09745075675933246,32.08287849390507,-100.26678939585686,76.200527287817
2024-09-23 15:54:36.770524,42.11,33.123107,-0.0030344509719951677,-0.0228827638849692,0.0973512698629459,32.08287849390507,-100.26678939585686,76.200527287817
2024-09-23 15:54:36.781587,42.11,33.123198,-0.0030344509719951677,-0.0228827638849692,0.0973512698629459,32.08287849390507,-100.26678939585686,80.21211738781929
2024-09-23 15:54:36.825333,42.11,33.123198,-0.0031339382481259063,-0.02303200030545576,0.09745075675933246,36.09446859390736,-100.26678939585686,76.200527287817
2024-09-23 15:54:36.868919,42.11,33.123249,-0.0030841997366068195,-0.02303200030545576,0.09745075675933246,36.09446859390736,-100.26678939585686,76.200527287817
2024-09-23 15:54:36.880076,42.11,33.123249,-0.0030841997366068195,-0.02278327698858263,0.09740101331113918,44.11764879391193,-100.26678939585686,76.200527287817
2024-09-23 15:54:36.922570,42.11,33.1233,-0.0029847020175114316,-0.023230986250042305,0.09705279702197278,44.11764879391193,-100.26678939585686,76.200527287817
2024-09-23 15:54:36.934377,42.11,33.1233,-0.0029847020175114316,-0.023230986250042305,0.09705279702197278,36.09446859390736,-100.26678939585686,76.200527287817
2024-09-23 15:54:36.966443,42.11,33.1233,-0.0029847020175114316,-0.023230986250042305,0.09705279702197278,36.09446859390736,-92.24360919585227,76.200527287817
2024-09-23 15:54:37.019582,42.11,33.12335,-0.0031836870127375577,-0.02308174982955575,0.09740101331113918,36.09446859390736,-92.24360919585227,80.21211738781929
2024-09-23 15:54:37.062121,42.32,33.12335,-0.0031836870127375577,-0.02308174982955575,0.09740101331113918,36.09446859390736,-100.26678939585686,84.22370748782159
2024-09-23 15:54:37.073312,42.32,33.123401,-0.0029847020175114316,-0.02308174982955575,0.0973512698629459,36.09446859390736,-100.26678939585686,84.22370748782159
2024-09-23 15:54:37.115953,42.32,33.123452,-0.0029847020175114316,-0.02308174982955575,0.0973512698629459,32.08287849390507,-104.27510100388527,80.21211738781929
2024-09-23 15:54:37.127772,42.32,33.123452,-0.0031339382481259063,-0.02303200030545576,0.0973512698629459,32.08287849390507,-104.27510100388527,80.21211738781929
2024-09-23 15:54:37.159796,42.32,33.123452,-0.0031339382481259063,-0.02303200030545576,0.0973512698629459,40.106058693909645,-104.27510100388527,80.21211738781929
2024-09-23 15:54:37.171562,42.32,33.123539,-0.0031836870127375577,-0.02303200030545576,0.0973512698629459,40.106058693909645,-100.26678939585686,80.21211738781929
2024-09-23 15:54:37.214665,42.32,33.12359,-0.0031836870127375577,-0.022982261414192504,0.09680407370509965,32.08287849390507,-96.25519929585457,80.21211738781929
2024-09-23 15:54:37.257614,42.32,33.12359,-0.0031836870127375577,-0.023778180888911878,0.09680407370509965,32.08287849390507,-96.25519929585457,80.21211738781929
2024-09-23 15:54:37.269406,42.32,33.12359,-0.0031836870127375577,-0.023778180888911878,0.09705279702197278,36.09446859390736,-96.25519929585457,84.22370748782159
2024-09-23 15:54:37.311751,42.32,33.123686,-0.0028852147413806935,-0.02338022115155219,0.0970030596496862,40.106058693909645,-100.26678939585686,84.22370748782159
2024-09-23 15:54:37.354863,42.32,33.123737,-0.0028852147413806935,-0.02338022115155219,0.0970030596496862,40.106058693909645,-100.26678939585686,80.21211738781929
2024-09-23 15:54:37.365908,42.32,33.123737,-0.003233425524256645,-0.023330473146428877,0.09690356060148622,40.106058693909645,-100.26678939585686,80.21211738781929
2024-09-23 15:54:37.407820,42.32,33.123788,-0.0024872551938930902,-0.023280723622328886,0.09690356060148622,40.106058693909645,-96.25519929585457,76.200527287817
2024-09-23 15:54:37.419493,42.32,33.123788,-0.0024872551938930902,-0.023280723622328886,0.09675432418099966,40.106058693909645,-96.25519929585457,76.200527287817
2024-09-23 15:54:37.451917,42.32,33.123788,-0.0024872551938930902,-0.023280723622328886,0.09675432418099966,32.08287849390507,-104.27510100388527,76.200527287817
2024-09-23 15:54:37.463610,42.32,33.123838,-0.0033329230534799477,-0.02278327698858263,0.09675432418099966,32.08287849390507,-104.27510100388527,84.22370748782159
2024-09-23 15:54:37.505282,42.32,33.123889,-0.0033329230534799477,-0.02278327698858263,0.09690356060148622,20.05138839341998,-108.28669110388756,72.1922225099802
2024-09-23 15:54:37.517071,42.32,33.123889,-0.0025369937054121774,-0.02278327698858263,0.09690356060148622,20.05138839341998,-108.28669110388756,72.1922225099802
2024-09-23 15:54:37.549904,42.32,33.123889,-0.0025369937054121774,-0.023181236725942318,0.09759999317981902,20.05138839341998,-108.28669110388756,72.1922225099802
2024-09-23 15:54:37.561236,42.32,33.123978,-0.0025369937054121774,-0.023181236725942318,0.09759999317981902,36.09446859390736,-104.27510100388527,76.200527287817
2024-09-23 15:54:37.603922,42.32,33.123978,-0.0030841997366068195,-0.02278327698858263,0.0970030596496862,36.09446859390736,-96.25519929585457,76.200527287817
2024-09-23 15:54:37.615734,42.32,33.123978,-0.0030841997366068195,-0.02278327698858263,0.0970030596496862,36.09446859390736,-96.25519929585457,80.21211738781929
2024-09-23 15:54:37.648527,42.32,33.124029,-0.0030344509719951677,-0.02308174982955575,0.0970030596496862,36.09446859390736,-96.25519929585457,80.21211738781929
2024-09-23 15:54:37.660164,42.32,33.124029,-0.0030344509719951677,-0.02308174982955575,0.09725178296655933,36.09446859390736,-88.23529758782387,80.21211738781929
2024-09-23 15:54:37.703165,42.32,33.12408,-0.002785727465249955,-0.022982261414192504,0.09715228999426605,36.09446859390736,-88.23529758782387,80.21211738781929
2024-09-23 15:54:37.746713,42.32,33.124131,-0.002785727465249955,-0.022982261414192504,0.09715228999426605,36.09446859390736,-92.24360919585227,76.200527287817
2024-09-23 15:54:37.758053,42.32,33.124131,-0.0030344509719951677,-0.023429960042815445,0.09740101331113918,36.09446859390736,-92.24360919585227,76.200527287817
2024-09-23 15:54:37.800591,42.32,33.124181,-0.0030841997366068195,-0.023181236725942318,0.09740101331113918,44.11764879391193,-100.26678939585686,80.21211738781929
2024-09-23 15:54:37.844018,42.32,33.124181,-0.0030841997366068195,-0.023181236725942318,0.09745075675933246,32.08287849390507,-100.26678939585686,80.21211738781929
2024-09-23 15:54:37.855357,42.32,33.124232,-0.003382661564999035,-0.023181236725942318,0.09745075675933246,32.08287849390507,-100.26678939585686,84.22370748782159
2024-09-23 15:54:37.898268,42.32,33.124319,-0.003382661564999035,-0.023230986250042305,0.09665483728461309,32.08287849390507,-100.26678939585686,80.21211738781929
2024-09-23 15:54:37.941265,42.32,33.124319,-0.0029847020175114316,-0.02313149783467906,0.09750050628343246,32.08287849390507,-100.26678939585686,80.21211738781929
2024-09-23 15:54:37.953754,42.32,33.124319,-0.0029847020175114316,-0.02313149783467906,0.09750050628343246,36.09446859390736,-100.26678939585686,80.21211738781929
2024-09-23 15:54:37.986133,42.32,33.124371,-0.0029847020175114316,-0.02313149783467906,0.09750050628343246,36.09446859390736,-100.26678939585686,80.21211738781929
2024-09-23 15:54:37.997929,42.32,33.124371,-0.0030344509719951677,-0.02303200030545576,0.098047696365372,40.106058693909645,-96.25519929585457,80.21211738781929
2024-09-23 15:54:38.039919,42.32,33.124421,-0.002636491424507565,-0.02293251340906919,0.098047696365372,40.106058693909645,-96.25519929585457,80.21211738781929
2024-09-23 15:54:38.051515,42.32,33.124421,-0.002636491424507565,-0.02293251340906919,0.0973512698629459,52.137550501942634,-96.25519929585457,80.21211738781929
2024-09-23 15:54:38.083855,42.52,33.124421,-0.002636491424507565,-0.02293251340906919,0.0973512698629459,52.137550501942634,-92.24360919585227,80.21211738781929
2024-09-23 15:54:38.095037,42.52,33.124472,-0.0024872551938930902,-0.023429960042815445,0.09740101331113918,52.137550501942634,-92.24360919585227,84.22370748782159
2024-09-23 15:54:38.137258,42.52,33.124522,-0.0024872551938930902,-0.023429960042815445,0.09740101331113918,44.11764879391193,-100.26678939585686,88.23529758782387
2024-09-23 15:54:38.148575,42.52,33.124522,-0.0029847020175114316,-0.022982261414192504,0.09740101331113918,44.11764879391193,-100.26678939585686,88.23529758782387
2024-09-23 15:54:38.191591,42.52,33.124573,-0.0028852147413806935,-0.022982261414192504,0.09725178296655933,40.106058693909645,-96.25519929585457,80.21211738781929
2024-09-23 15:54:38.235007,42.52,33.124573,-0.0028852147413806935,-0.022833026512682618,0.09685382322919964,24.06297849342227,-96.25519929585457,80.21211738781929
2024-09-23 15:54:38.288242,42.52,33.12466,-0.0031836870127375577,-0.02352945757203875,0.09695331012558621,28.07457030097246,-96.25519929585457,80.21211738781929
2024-09-23 15:54:38.332043,42.52,33.124712,-0.0031836870127375577,-0.02352945757203875,0.09695331012558621,28.07457030097246,-100.26678939585686,80.21211738781929
2024-09-23 15:54:38.344205,42.52,33.124712,-0.0027359787006383035,-0.0228827638849692,0.0973015264147526,28.07457030097246,-100.26678939585686,80.21211738781929
2024-09-23 15:54:38.376482,42.52,33.124712,-0.0027359787006383035,-0.0228827638849692,0.0973015264147526,40.106058693909645,-100.26678939585686,80.21211738781929
2024-09-23 15:54:38.388376,42.52,33.124762,-0.0028852147413806935,-0.023778180888911878,0.0973015264147526,40.106058693909645,-104.27510100388527,80.21211738781929
2024-09-23 15:54:38.431411,42.52,33.124813,-0.0028852147413806935,-0.023778180888911878,0.0973015264147526,52.137550501942634,-108.28669110388756,68.18063240997792
2024-09-23 15:54:38.443051,42.52,33.124813,-0.0028354659767690416,-0.023778180888911878,0.0973015264147526,52.137550501942634,-108.28669110388756,68.18063240997792
2024-09-23 15:54:38.476284,42.52,33.124813,-0.0028354659767690416,-0.023479709566915436,0.09715228999426605,52.137550501942634,-108.28669110388756,68.18063240997792
2024-09-23 15:54:38.487817,42.52,33.124864,-0.0028354659767690416,-0.023479709566915436,0.09715228999426605,44.11764879391193,-100.26678939585686,76.200527287817
2024-09-23 15:54:38.529823,42.52,33.124864,-0.0036811340262279837,-0.022982261414192504,0.09670458680871308,20.05138839341998,-104.27510100388527,76.200527287817
2024-09-23 15:54:38.541646,42.52,33.124864,-0.0036811340262279837,-0.022982261414192504,0.09670458680871308,20.05138839341998,-104.27510100388527,76.200527287817
2024-09-23 15:54:38.573638,42.52,33.124953,-0.002586742470023829,-0.022982261414192504,0.09670458680871308,20.05138839341998,-104.27510100388527,76.200527287817
2024-09-23 15:54:38.585467,42.52,33.124953,-0.002586742470023829,-0.02313149783467906,0.09764974270391902,52.137550501942634,-100.26678939585686,76.200527287817
2024-09-23 15:54:38.629249,42.52,33.125005,-0.0033329230534799477,-0.02303200030545576,0.09759999317981902,52.137550501942634,-100.26678939585686,72.1922225099802
2024-09-23 15:54:38.671504,42.52,33.125005,-0.0033329230534799477,-0.02303200030545576,0.09759999317981902,52.137550501942634,-104.27510100388527,76.200527287817
2024-09-23 15:54:38.683300,42.52,33.125055,-0.0034324103296106863,-0.023827930413011865,0.0973015264147526,52.137550501942634,-104.27510100388527,76.200527287817
2024-09-23 15:54:38.726950,42.52,33.125106,-0.0027359787006383035,-0.02338022115155219,0.0973015264147526,44.11764879391193,-96.25519929585457,88.23529758782387
2024-09-23 15:54:38.770585,42.52,33.125106,-0.0027359787006383035,-0.02338022115155219,0.09715228999426605,36.09446859390736,-100.26678939585686,88.23529758782387
2024-09-23 15:54:38.781839,42.52,33.125157,-0.0031339382481259063,-0.02338022115155219,0.09715228999426605,36.09446859390736,-100.26678939585686,76.200527287817
2024-09-23 15:54:38.824505,42.52,33.125245,-0.0031339382481259063,-0.02278327698858263,0.0970030596496862,44.11764879391193,-100.26678939585686,76.200527287817
2024-09-23 15:54:38.867143,42.52,33.125245,-0.0028354659767690416,-0.023330473146428877,0.09710254654607277,44.11764879391193,-100.26678939585686,76.200527287817
2024-09-23 15:54:38.878451,42.52,33.125245,-0.0028354659767690416,-0.023330473146428877,0.09710254654607277,52.137550501942634,-104.27510100388527,76.200527287817
2024-09-23 15:54:38.920987,42.52,33.125297,-0.0029349636958644295,-0.0228827638849692,0.0970030596496862,44.11764879391193,-104.27510100388527,76.200527287817
2024-09-23 15:54:38.963571,42.52,33.125297,-0.0029349636958644295,-0.0228827638849692,0.0970030596496862,44.11764879391193,-92.24360919585227,76.200527287817
2024-09-23 15:54:38.975798,42.52,33.125347,-0.0029349636958644295,-0.023230986250042305,0.09690356060148622,44.11764879391193,-92.24360919585227,76.200527287817
2024-09-23 15:54:39.019005,42.52,33.125398,-0.0028852147413806935,-0.023429960042815445,0.09690356060148622,36.09446859390736,-92.24360919585227,80.21211738781929
2024-09-23 15:54:39.062357,42.52,33.125398,-0.0028852147413806935,-0.023429960042815445,0.09670458680871308,32.08287849390507,-100.26678939585686,80.21211738781929
2024-09-23 15:54:39.074185,42.52,33.125449,-0.0035816467500972456,-0.023429960042815445,0.09670458680871308,32.08287849390507,-100.26678939585686,84.22370748782159
2024-09-23 15:54:39.117790,42.28,33.1255,-0.0035816467500972456,-0.023230986250042305,0.09650560086412653,28.07457030097246,-100.26678939585686,84.22370748782159
