Ayaan's Suite
Timestamp,Sample Rate (Hz),Time,Ax,Ay,Az,Gx,Gy,Gz
2024-09-23 09:45:12.815574,0,10.958598,-0.0032831742888682963,-0.023330473146428877,0.09745075675933246,36.09446859390736,-108.28669110388756,84.22370748782159
2024-09-23 09:45:12.848772,0,10.958686,-0.0032831742888682963,-0.023330473146428877,0.09745075675933246,36.09446859390736,-100.26678939585686,76.200527287817
2024-09-23 09:45:12.859922,0,10.958686,-0.0029349636958644295,-0.02303200030545576,0.0966050877605131,36.09446859390736,-100.26678939585686,76.200527287817
2024-09-23 09:45:12.902276,0,10.958737,-0.0029349636958644295,-0.02303200030545576,0.0966050877605131,40.106058693909645,-88.23529758782387,80.21211738781929
2024-09-23 09:45:12.944884,0,10.958737,-0.0030344509719951677,-0.02303200030545576,0.0966050877605131,40.106058693909645,-88.23529758782387,80.21211738781929
2024-09-23 09:45:12.956534,0,10.958737,-0.0030344509719951677,-0.02412639262114825,0.09710254654607277,36.09446859390736,-92.24360919585227,80.21211738781929
2024-09-23 09:45:12.999700,0,10.958833,-0.003780631555451287,-0.02352945757203875,0.09675432418099966,40.106058693909645,-92.24360919585227,80.21211738781929
2024-09-23 09:45:13.011379,0,10.958833,-0.003780631555451287,-0.02352945757203875,0.09675432418099966,40.106058693909645,-96.25519929585457,80.21211738781929
2024-09-23 09:45:13.043234,0,10.958884,-0.003780631555451287,-0.02352945757203875,0.09675432418099966,40.106058693909645,-96.25519929585457,76.200527287817
2024-09-23 09:45:13.054735,0,10.958884,-0.0029847020175114316,-0.02397715620066169,0.09725178296655933,36.09446859390736,-96.25519929585457,76.200527287817
2024-09-23 09:45:13.097265,0,10.958979,-0.003482159473966507,-0.023429960042815445,0.09605789160266685,36.09446859390736,-100.26678939585686,80.21211738781929
2024-09-23 09:45:13.139668,0,10.958979,-0.003482159473966507,-0.023429960042815445,0.09605789160266685,32.08287849390507,-92.24360919585227,80.21211738781929
2024-09-23 09:45:13.151411,0,10.95903,-0.0035816467500972456,-0.02367869399252531,0.09605789160266685,32.08287849390507,-92.24360919585227,80.21211738781929
2024-09-23 09:45:13.192941,0,10.95903,-0.0035816467500972456,-0.02367869399252531,0.09720203344245934,36.09446859390736,-100.26678939585686,76.200527287817
2024-09-23 09:45:13.204911,0,10.95908,-0.0035318979854855937,-0.02367869399252531,0.09720203344245934,36.09446859390736,-100.26678939585686,76.200527287817
2024-09-23 09:45:13.238936,0,10.95908,-0.0035318979854855937,-0.024026904205785005,0.0973512698629459,36.09446859390736,-100.26678939585686,76.200527287817
2024-09-23 09:45:13.249855,0,10.959173,-0.0035318979854855937,-0.024026904205785005,0.0973512698629459,32.08287849390507,-100.26678939585686,76.200527287817
2024-09-23 09:45:13.292681,0,10.959173,-0.003482159473966507,-0.023330473146428877,0.09690356060148622,44.11764879391193,-96.25519929585457,76.200527287817
2024-09-23 09:45:13.334829,0,10.959225,-0.0028852147413806935,-0.023330473146428877,0.09690356060148622,44.11764879391193,-96.25519929585457,76.200527287817
2024-09-23 09:45:13.347237,0,10.959225,-0.0028852147413806935,-0.023778180888911878,0.09705279702197278,40.106058693909645,-100.26678939585686,76.200527287817
2024-09-23 09:45:13.390000,0,10.959275,-0.003382661564999035,-0.023479709566915436,0.09745075675933246,40.106058693909645,-100.26678939585686,76.200527287817
2024-09-23 09:45:13.401927,0,10.959275,-0.003382661564999035,-0.023479709566915436,0.09745075675933246,32.08287849390507,-100.26678939585686,76.200527287817
2024-09-23 09:45:13.434381,0,10.959326,-0.003382661564999035,-0.023479709566915436,0.09745075675933246,32.08287849390507,-96.25519929585457,80.21211738781929
2024-09-23 09:45:13.446154,0,10.959326,-0.0035816467500972456,-0.023181236725942318,0.09750050628343246,32.08287849390507,-96.25519929585457,80.21211738781929
2024-09-23 09:45:13.488835,0,10.959377,-0.0033329230534799477,-0.023230986250042305,0.09750050628343246,32.08287849390507,-108.28669110388756,72.1922225099802
2024-09-23 09:45:13.531310,0,10.959377,-0.0033329230534799477,-0.023230986250042305,0.0966050877605131,44.11764879391193,-96.25519929585457,72.1922225099802
2024-09-23 09:45:13.542508,0,10.959427,-0.0033329230534799477,-0.023230986250042305,0.0966050877605131,44.11764879391193,-96.25519929585457,76.200527287817
2024-09-23 09:45:13.585199,0,10.959514,-0.0033329230534799477,-0.023579196463302005,0.0973015264147526,40.106058693909645,-104.27510100388527,80.21211738781929
2024-09-23 09:45:13.629420,0,10.959514,-0.003382661564999035,-0.023579196463302005,0.09725178296655933,40.106058693909645,-104.27510100388527,80.21211738781929
2024-09-23 09:45:13.641164,0,10.959514,-0.003382661564999035,-0.023579196463302005,0.09725178296655933,40.106058693909645,-104.27510100388527,76.200527287817
2024-09-23 09:45:13.724690,0,10.959566,-0.0031339382481259063,-0.023579196463302005,0.09725178296655933,40.106058693909645,-104.27510100388527,76.200527287817
2024-09-23 09:45:13.736691,0,10.959566,-0.0031339382481259063,-0.023877669304275123,0.09725178296655933,40.106058693909645,-104.27510100388527,76.200527287817
2024-09-23 09:45:13.779420,0,10.959617,-0.0031339382481259063,-0.023877669304275123,0.09665483728461309,32.08287849390507,-104.27510100388527,80.21211738781929
2024-09-23 09:45:13.791033,0,10.959617,-0.0032831742888682963,-0.023877669304275123,0.09665483728461309,32.08287849390507,-104.27510100388527,80.21211738781929
2024-09-23 09:45:13.823031,42.21,10.959617,-0.0032831742888682963,-0.023728432883788564,0.09715228999426605,32.08287849390507,-104.27510100388527,80.21211738781929
2024-09-23 09:45:13.834399,42.21,10.959667,-0.0032831742888682963,-0.023728432883788564,0.09715228999426605,28.07457030097246,-96.25519929585457,76.200527287817
2024-09-23 09:45:13.877332,42.21,10.959667,-0.0032831742888682963,-0.023280723622328886,0.09705279702197278,36.09446859390736,-96.25519929585457,76.200527287817
2024-09-23 09:45:13.920009,42.21,10.959718,-0.0033329230534799477,-0.023280723622328886,0.09705279702197278,36.09446859390736,-96.25519929585457,76.200527287817
2024-09-23 09:45:13.931558,42.21,10.959718,-0.0033329230534799477,-0.023579196463302005,0.09715228999426605,40.106058693909645,-100.26678939585686,76.200527287817
2024-09-23 09:45:13.974027,42.21,10.959769,-0.0030841997366068195,-0.023728432883788564,0.0966050877605131,40.106058693909645,-100.26678939585686,80.21211738781929
2024-09-23 09:45:13.986167,42.21,10.959769,-0.0030841997366068195,-0.023728432883788564,0.0966050877605131,28.07457030097246,-100.26678939585686,80.21211738781929
2024-09-23 09:45:14.017986,42.21,10.959769,-0.0030841997366068195,-0.023728432883788564,0.0966050877605131,28.07457030097246,-96.25519929585457,84.22370748782159
2024-09-23 09:45:14.029045,42.21,10.959906,-0.0032831742888682963,-0.023280723622328886,0.09705279702197278,28.07457030097246,-96.25519929585457,84.22370748782159
2024-09-23 09:45:14.072487,42.21,10.959957,-0.0032831742888682963,-0.023877669304275123,0.09705279702197278,36.09446859390736,-92.24360919585227,80.21211738781929
2024-09-23 09:45:14.114910,42.21,10.959957,-0.0032831742888682963,-0.023877669304275123,0.09720203344245934,36.09446859390736,-92.24360919585227,80.21211738781929
2024-09-23 09:45:14.126556,42.21,10.960007,-0.003631395514708897,-0.023877669304275123,0.09720203344245934,36.09446859390736,-96.25519929585457,80.21211738781929
2024-09-23 09:45:14.169643,42.21,10.960007,-0.003631395514708897,-0.023778180888911878,0.09675432418099966,40.106058693909645,-96.25519929585457,80.21211738781929
2024-09-23 09:45:14.181438,42.21,10.960099,-0.003631395514708897,-0.023778180888911878,0.09675432418099966,40.106058693909645,-96.25519929585457,80.21211738781929
2024-09-23 09:45:14.213313,42.21,10.960099,-0.0034324103296106863,-0.023429960042815445,0.09675432418099966,40.106058693909645,-96.25519929585457,80.21211738781929
2024-09-23 09:45:14.224879,42.21,10.960099,-0.0034324103296106863,-0.023429960042815445,0.09705279702197278,44.11764879391193,-104.27510100388527,84.22370748782159
2024-09-23 09:45:14.268301,42.21,10.960151,-0.003382661564999035,-0.02352945757203875,0.09710254654607277,36.09446859390736,-88.23529758782387,84.22370748782159
2024-09-23 09:45:14.311531,42.21,10.960201,-0.003233425524256645,-0.02352945757203875,0.09710254654607277,36.09446859390736,-88.23529758782387,80.21211738781929
2024-09-23 09:45:14.322600,42.21,10.960201,-0.003233425524256645,-0.024424863943144692,0.09750050628343246,32.08287849390507,-88.23529758782387,80.21211738781929
2024-09-23 09:45:14.366193,42.21,10.960252,-0.0028852147413806935,-0.023579196463302005,0.09695331012558621,32.08287849390507,-96.25519929585457,80.21211738781929
2024-09-23 09:45:14.408889,42.21,10.960252,-0.0028852147413806935,-0.023579196463302005,0.09695331012558621,36.09446859390736,-88.23529758782387,80.21211738781929
2024-09-23 09:45:14.419852,42.21,10.960303,-0.0034324103296106863,-0.023230986250042305,0.09695331012558621,36.09446859390736,-88.23529758782387,80.21211738781929
2024-09-23 09:45:14.462610,42.21,10.960353,-0.0030841997366068195,-0.023230986250042305,0.09680407370509965,40.106058693909645,-92.24360919585227,84.22370748782159
2024-09-23 09:45:14.504902,42.21,10.960353,-0.0030841997366068195,-0.023429960042815445,0.09715228999426605,40.106058693909645,-92.24360919585227,84.22370748782159
2024-09-23 09:45:14.517951,42.21,10.960441,-0.0030841997366068195,-0.023429960042815445,0.09715228999426605,36.09446859390736,-96.25519929585457,80.21211738781929
2024-09-23 09:45:14.560046,42.21,10.960441,-0.0035318979854855937,-0.02367869399252531,0.09690356060148622,40.106058693909645,-100.26678939585686,80.21211738781929
2024-09-23 09:45:14.602853,42.21,10.960492,-0.0035318979854855937,-0.02367869399252531,0.09690356060148622,40.106058693909645,-100.26678939585686,80.21211738781929
2024-09-23 09:45:14.614448,42.21,10.960492,-0.0035318979854855937,-0.023579196463302005,0.09725178296655933,40.106058693909645,-96.25519929585457,80.21211738781929
2024-09-23 09:45:14.658051,42.21,10.960543,-0.003929857343101113,-0.023827930413011865,0.09720203344245934,40.106058693909645,-96.25519929585457,84.22370748782159
2024-09-23 09:45:14.700592,42.21,10.960543,-0.003929857343101113,-0.023827930413011865,0.09720203344245934,40.106058693909645,-108.28669110388756,84.22370748782159
2024-09-23 09:45:14.752816,42.21,10.960593,-0.0027359787006383035,-0.023827930413011865,0.09720203344245934,40.106058693909645,-108.28669110388756,80.21211738781929
2024-09-23 09:45:14.795748,42.21,10.960593,-0.0027359787006383035,-0.022833026512682618,0.09720203344245934,40.106058693909645,-108.28669110388756,80.21211738781929
2024-09-23 09:45:14.807665,42.21,10.960644,-0.0027359787006383035,-0.022833026512682618,0.09745075675933246,32.08287849390507,-104.27510100388527,72.1922225099802
2024-09-23 09:45:14.850315,41.06,10.960644,-0.0032831742888682963,-0.022833026512682618,0.09745075675933246,32.08287849390507,-104.27510100388527,72.1922225099802
2024-09-23 09:45:14.893649,41.06,10.960644,-0.0032831742888682963,-0.023877669304275123,0.09745075675933246,32.08287849390507,-104.27510100388527,72.1922225099802
2024-09-23 09:45:14.905826,41.06,10.960695,-0.0032831742888682963,-0.023877669304275123,0.09710254654607277,28.07457030097246,-100.26678939585686,76.200527287817
2024-09-23 09:45:14.949699,41.06,10.960695,-0.003233425524256645,-0.023827930413011865,0.09635636444363997,36.09446859390736,-96.25519929585457,76.200527287817
2024-09-23 09:45:14.961838,41.06,10.960695,-0.003233425524256645,-0.023827930413011865,0.09635636444363997,36.09446859390736,-96.25519929585457,80.21211738781929
2024-09-23 09:45:14.994536,41.06,10.960782,-0.0037308827908396356,-0.023479709566915436,0.09635636444363997,36.09446859390736,-96.25519929585457,80.21211738781929
2024-09-23 09:45:15.006223,41.06,10.960782,-0.0037308827908396356,-0.023479709566915436,0.0973015264147526,36.09446859390736,-96.25519929585457,80.21211738781929
2024-09-23 09:45:15.049579,41.06,10.960879,-0.0030344509719951677,-0.023728432883788564,0.09705279702197278,32.08287849390507,-96.25519929585457,80.21211738781929
2024-09-23 09:45:15.142825,41.06,10.960931,-0.0032831742888682963,-0.023728432883788564,0.09705279702197278,32.08287849390507,-92.24360919585227,76.200527287817
2024-09-23 09:45:15.154517,41.06,10.960931,-0.0032831742888682963,-0.023330473146428877,0.0970030596496862,32.08287849390507,-92.24360919585227,76.200527287817
2024-09-23 09:45:15.186932,41.06,10.960931,-0.0032831742888682963,-0.023330473146428877,0.0970030596496862,40.106058693909645,-92.24360919585227,76.200527287817
2024-09-23 09:45:15.198088,41.06,10.961028,-0.0029847020175114316,-0.02338022115155219,0.0970030596496862,40.106058693909645,-92.24360919585227,92.24360919585227
2024-09-23 09:45:15.240441,41.06,10.961028,-0.0029847020175114316,-0.02338022115155219,0.09670458680871308,36.09446859390736,-96.25519929585457,84.22370748782159
2024-09-23 09:45:15.252014,41.06,10.961079,-0.0031339382481259063,-0.02338022115155219,0.09670458680871308,36.09446859390736,-96.25519929585457,84.22370748782159
2024-09-23 09:45:15.284327,41.06,10.961079,-0.0031339382481259063,-0.023330473146428877,0.09670458680871308,36.09446859390736,-96.25519929585457,84.22370748782159
2024-09-23 09:45:15.295956,41.06,10.961172,-0.0031339382481259063,-0.023330473146428877,0.09670458680871308,32.08287849390507,-100.26678939585686,80.21211738781929
2024-09-23 09:45:15.338292,41.06,10.961172,-0.0031339382481259063,-0.023827930413011865,0.09705279702197278,40.106058693909645,-92.24360919585227,80.21211738781929
2024-09-23 09:45:15.349955,41.06,10.961172,-0.0031339382481259063,-0.023827930413011865,0.09705279702197278,40.106058693909645,-92.24360919585227,84.22370748782159
2024-09-23 09:45:15.382222,41.06,10.96127,-0.0034324103296106863,-0.023827930413011865,0.09705279702197278,40.106058693909645,-92.24360919585227,84.22370748782159
2024-09-23 09:45:15.393839,41.06,10.96127,-0.0034324103296106863,-0.023827930413011865,0.09725178296655933,36.09446859390736,-104.27510100388527,84.22370748782159
2024-09-23 09:45:15.436221,41.06,10.961321,-0.003382661564999035,-0.023181236725942318,0.09725178296655933,36.09446859390736,-104.27510100388527,80.21211738781929
2024-09-23 09:45:15.448192,41.06,10.961321,-0.003382661564999035,-0.023181236725942318,0.09695331012558621,32.08287849390507,-104.27510100388527,80.21211738781929
2024-09-23 09:45:15.480208,41.06,10.961321,-0.003382661564999035,-0.023181236725942318,0.09695331012558621,32.08287849390507,-92.24360919585227,76.200527287817
2024-09-23 09:45:15.491588,41.06,10.961372,-0.0031339382481259063,-0.023728432883788564,0.09710254654607277,32.08287849390507,-92.24360919585227,76.200527287817
2024-09-23 09:45:15.534480,41.06,10.961423,-0.0031339382481259063,-0.023728432883788564,0.09710254654607277,32.08287849390507,-100.26678939585686,84.22370748782159
2024-09-23 09:45:15.545642,41.06,10.961423,-0.003631395514708897,-0.02397715620066169,0.09710254654607277,32.08287849390507,-100.26678939585686,84.22370748782159
2024-09-23 09:45:15.578189,41.06,10.961423,-0.003631395514708897,-0.02397715620066169,0.09675432418099966,40.106058693909645,-100.26678939585686,84.22370748782159
2024-09-23 09:45:15.589683,41.06,10.961473,-0.0030841997366068195,-0.02397715620066169,0.09675432418099966,40.106058693909645,-100.26678939585686,80.21211738781929
2024-09-23 09:45:15.632950,41.06,10.961473,-0.0030841997366068195,-0.02352945757203875,0.09685382322919964,40.106058693909645,-104.27510100388527,84.22370748782159
2024-09-23 09:45:15.644775,41.06,10.961562,-0.0030841997366068195,-0.02352945757203875,0.09685382322919964,40.106058693909645,-104.27510100388527,84.22370748782159
2024-09-23 09:45:15.676797,41.06,10.961562,-0.0035816467500972456,-0.022833026512682618,0.09695331012558621,40.106058693909645,-104.27510100388527,84.22370748782159
2024-09-23 09:45:15.688471,41.06,10.961562,-0.0035816467500972456,-0.022833026512682618,0.09695331012558621,36.09446859390736,-92.24360919585227,76.200527287817
2024-09-23 09:45:15.772131,41.06,10.961613,-0.003979606107712764,-0.022833026512682618,0.09695331012558621,36.09446859390736,-92.24360919585227,76.200527287817
2024-09-23 09:45:15.784129,41.06,10.961613,-0.003979606107712764,-0.02308174982955575,0.09755024973162574,36.09446859390736,-92.24360919585227,76.200527287817
2024-09-23 09:45:15.827754,41.06,10.961664,-0.0029847020175114316,-0.02352945757203875,0.09710254654607277,36.09446859390736,-92.24360919585227,76.200527287817
2024-09-23 09:45:15.839183,41.06,10.961664,-0.0029847020175114316,-0.02352945757203875,0.09710254654607277,32.08287849390507,-92.24360919585227,76.200527287817
2024-09-23 09:45:15.870643,41.75,10.961664,-0.0029847020175114316,-0.02352945757203875,0.09710254654607277,32.08287849390507,-96.25519929585457,80.21211738781929
2024-09-23 09:45:15.881784,41.75,10.961715,-0.0035816467500972456,-0.023778180888911878,0.09690356060148622,32.08287849390507,-96.25519929585457,80.21211738781929
2024-09-23 09:45:15.925150,41.75,10.961765,-0.0032831742888682963,-0.02367869399252531,0.09690356060148622,44.11764879391193,-108.28669110388756,84.22370748782159
2024-09-23 09:45:15.967429,41.75,10.961765,-0.0032831742888682963,-0.02367869399252531,0.0970030596496862,28.07457030097246,-108.28669110388756,84.22370748782159
2024-09-23 09:45:15.978807,41.75,10.961816,-0.0033329230534799477,-0.02367869399252531,0.0970030596496862,28.07457030097246,-96.25519929585457,80.21211738781929
2024-09-23 09:45:16.021221,41.75,10.961816,-0.0033329230534799477,-0.02303200030545576,0.09670458680871308,24.06297849342227,-100.26678939585686,68.18063240997792
2024-09-23 09:45:16.033546,41.75,10.961952,-0.0033329230534799477,-0.02303200030545576,0.09670458680871308,24.06297849342227,-100.26678939585686,68.18063240997792
2024-09-23 09:45:16.066182,41.75,10.961952,-0.0028852147413806935,-0.023728432883788564,0.09670458680871308,24.06297849342227,-100.26678939585686,68.18063240997792
2024-09-23 09:45:16.077347,41.75,10.961952,-0.0028852147413806935,-0.023728432883788564,0.09705279702197278,36.09446859390736,-108.28669110388756,76.200527287817
2024-09-23 09:45:16.119959,41.75,10.962004,-0.0031836870127375577,-0.02352945757203875,0.09665483728461309,36.09446859390736,-108.28669110388756,76.200527287817
2024-09-23 09:45:16.131414,41.75,10.962004,-0.0031836870127375577,-0.02352945757203875,0.09665483728461309,36.09446859390736,-96.25519929585457,76.200527287817
2024-09-23 09:45:16.163922,41.75,10.962055,-0.003482159473966507,-0.02352945757203875,0.09665483728461309,36.09446859390736,-96.25519929585457,80.21211738781929
2024-09-23 09:45:16.174976,41.75,10.962055,-0.003482159473966507,-0.023827930413011865,0.09725178296655933,36.09446859390736,-96.25519929585457,80.21211738781929
2024-09-23 09:45:16.217586,41.75,10.962105,-0.003482159473966507,-0.023877669304275123,0.09720203344245934,36.09446859390736,-92.24360919585227,80.21211738781929
2024-09-23 09:45:16.260599,41.75,10.962105,-0.003482159473966507,-0.023877669304275123,0.09720203344245934,36.09446859390736,-96.25519929585457,80.21211738781929
2024-09-23 09:45:16.272642,41.75,10.962156,-0.0031836870127375577,-0.023181236725942318,0.09720203344245934,36.09446859390736,-96.25519929585457,76.200527287817
2024-09-23 09:45:16.314985,41.75,10.962207,-0.0034324103296106863,-0.023181236725942318,0.09645586349183995,32.08287849390507,-96.25519929585457,80.21211738781929
2024-09-23 09:45:16.358063,41.75,10.962207,-0.0034324103296106863,-0.02338022115155219,0.0970030596496862,32.08287849390507,-96.25519929585457,80.21211738781929
2024-09-23 09:45:16.370007,41.75,10.962293,-0.0034324103296106863,-0.02338022115155219,0.0970030596496862,32.08287849390507,-96.25519929585457,80.21211738781929
2024-09-23 09:45:16.412970,41.75,10.962293,-0.0034324103296106863,-0.023728432883788564,0.09685382322919964,44.11764879391193,-100.26678939585686,80.21211738781929
2024-09-23 09:45:16.424435,41.75,10.962293,-0.0034324103296106863,-0.023728432883788564,0.09685382322919964,44.11764879391193,-100.26678939585686,76.200527287817
2024-09-23 09:45:16.456904,41.75,10.962345,-0.0035318979854855937,-0.023479709566915436,0.09685382322919964,44.11764879391193,-100.26678939585686,76.200527287817
2024-09-23 09:45:16.468628,41.75,10.962345,-0.0035318979854855937,-0.023479709566915436,0.09710254654607277,44.11764879391193,-96.25519929585457,76.200527287817
2024-09-23 09:45:16.511396,41.75,10.962395,-0.0031836870127375577,-0.02338022115155219,0.09670458680871308,32.08287849390507,-96.25519929585457,80.21211738781929
2024-09-23 09:45:16.554399,41.75,10.962395,-0.0031836870127375577,-0.02338022115155219,0.09670458680871308,32.08287849390507,-96.25519929585457,80.21211738781929
2024-09-23 09:45:16.607529,41.75,10.962446,-0.003382661564999035,-0.023728432883788564,0.09695331012558621,24.06297849342227,-96.25519929585457,80.21211738781929
2024-09-23 09:45:16.650830,41.75,10.962446,-0.003382661564999035,-0.023728432883788564,0.09695331012558621,24.06297849342227,-100.26678939585686,80.21211738781929
2024-09-23 09:45:16.663125,41.75,10.962497,-0.0033329230534799477,-0.023778180888911878,0.09740101331113918,24.06297849342227,-100.26678939585686,80.21211738781929
2024-09-23 09:45:16.706137,41.75,10.962547,-0.0025369937054121774,-0.023330473146428877,0.09740101331113918,32.08287849390507,-96.25519929585457,80.21211738781929
2024-09-23 09:45:16.749079,41.75,10.962547,-0.0025369937054121774,-0.023330473146428877,0.09725178296655933,36.09446859390736,-104.27510100388527,80.21211738781929
2024-09-23 09:45:16.760430,41.75,10.962634,-0.0033329230534799477,-0.023330473146428877,0.09725178296655933,36.09446859390736,-104.27510100388527,76.200527287817
2024-09-23 09:45:16.804050,41.75,10.962634,-0.0033329230534799477,-0.023778180888911878,0.09725178296655933,36.09446859390736,-104.27510100388527,76.200527287817
2024-09-23 09:45:16.847117,41.75,10.962634,-0.0033329230534799477,-0.023778180888911878,0.09705279702197278,36.09446859390736,-104.27510100388527,76.200527287817
2024-09-23 09:45:16.858733,41.75,10.962685,-0.0035318979854855937,-0.023778180888911878,0.09705279702197278,36.09446859390736,-104.27510100388527,76.200527287817
2024-09-23 09:45:16.901249,41.5,10.962781,-0.0035318979854855937,-0.02308174982955575,0.0973015264147526,40.106058693909645,-96.25519929585457,76.200527287817
2024-09-23 09:45:16.944364,41.5,10.962781,-0.003233425524256645,-0.023230986250042305,0.09705279702197278,40.106058693909645,-96.25519929585457,76.200527287817
2024-09-23 09:45:16.955945,41.5,10.962781,-0.003233425524256645,-0.023230986250042305,0.09705279702197278,44.11764879391193,-96.25519929585457,80.21211738781929
2024-09-23 09:45:17.039370,41.5,10.962833,-0.003233425524256645,-0.023230986250042305,0.09705279702197278,44.11764879391193,-96.25519929585457,80.21211738781929
2024-09-23 09:45:17.051469,41.5,10.962833,-0.003233425524256645,-0.023330473146428877,0.09675432418099966,32.08287849390507,-100.26678939585686,80.21211738781929
2024-09-23 09:45:17.094118,41.5,10.962883,-0.0030841997366068195,-0.023827930413011865,0.09745075675933246,32.08287849390507,-100.26678939585686,76.200527287817
2024-09-23 09:45:17.136827,41.5,10.962883,-0.0030841997366068195,-0.023827930413011865,0.09745075675933246,32.08287849390507,-100.26678939585686,76.200527287817
2024-09-23 09:45:17.148509,41.5,10.962977,-0.0035318979854855937,-0.023927417309398437,0.09745075675933246,32.08287849390507,-108.28669110388756,80.21211738781929
2024-09-23 09:45:17.191661,41.5,10.963028,-0.0035318979854855937,-0.023927417309398437,0.09705279702197278,40.106058693909645,-96.25519929585457,76.200527287817
2024-09-23 09:45:17.203615,41.5,10.963028,-0.003631395514708897,-0.023927417309398437,0.09705279702197278,40.106058693909645,-96.25519929585457,76.200527287817
2024-09-23 09:45:17.235433,41.5,10.963028,-0.003631395514708897,-0.02397715620066169,0.09715228999426605,40.106058693909645,-96.25519929585457,76.200527287817
2024-09-23 09:45:17.247997,41.5,10.963079,-0.003631395514708897,-0.02397715620066169,0.09715228999426605,32.08287849390507,-100.26678939585686,84.22370748782159
2024-09-23 09:45:17.290228,41.5,10.963079,-0.0036811340262279837,-0.023579196463302005,0.0973015264147526,28.07457030097246,-96.25519929585457,84.22370748782159
2024-09-23 09:45:17.334150,41.5,10.963219,-0.0031836870127375577,-0.02367869399252531,0.0973015264147526,28.07457030097246,-96.25519929585457,84.22370748782159
2024-09-23 09:45:17.346220,41.5,10.963219,-0.0031836870127375577,-0.02367869399252531,0.09690356060148622,36.09446859390736,-100.26678939585686,84.22370748782159
2024-09-23 09:45:17.388538,41.5,10.963271,-0.0036811340262279837,-0.02367869399252531,0.09690356060148622,36.09446859390736,-100.26678939585686,80.21211738781929
2024-09-23 09:45:17.431355,41.5,10.963271,-0.0036811340262279837,-0.0228827638849692,0.0970030596496862,44.11764879391193,-100.26678939585686,80.21211738781929
2024-09-23 09:45:17.442606,41.5,10.963322,-0.0036811340262279837,-0.0228827638849692,0.0970030596496862,44.11764879391193,-96.25519929585457,80.21211738781929
2024-09-23 09:45:17.485956,41.5,10.963322,-0.0031339382481259063,-0.023728432883788564,0.09670458680871308,32.08287849390507,-92.24360919585227,84.22370748782159
2024-09-23 09:45:17.529484,41.5,10.963372,-0.003233425524256645,-0.02362894446842532,0.09670458680871308,32.08287849390507,-92.24360919585227,84.22370748782159
2024-09-23 09:45:17.541133,41.5,10.963372,-0.003233425524256645,-0.02362894446842532,0.09710254654607277,32.08287849390507,-92.24360919585227,84.22370748782159
2024-09-23 09:45:17.584735,41.5,10.963423,-0.0037308827908396356,-0.02352945757203875,0.09740101331113918,44.11764879391193,-92.24360919585227,88.23529758782387
2024-09-23 09:45:17.626376,41.5,10.963512,-0.0037308827908396356,-0.02352945757203875,0.09740101331113918,44.11764879391193,-100.26678939585686,72.1922225099802
2024-09-23 09:45:17.637819,41.5,10.963512,-0.0035318979854855937,-0.02362894446842532,0.09655535038822652,44.11764879391193,-100.26678939585686,72.1922225099802
2024-09-23 09:45:17.679928,41.5,10.963563,-0.003382661564999035,-0.023877669304275123,0.09655535038822652,36.09446859390736,-92.24360919585227,76.200527287817
2024-09-23 09:45:17.722382,41.5,10.963563,-0.003382661564999035,-0.023877669304275123,0.09720203344245934,40.106058693909645,-92.24360919585227,76.200527287817
2024-09-23 09:45:17.734084,41.5,10.963614,-0.002785727465249955,-0.023877669304275123,0.09720203344245934,40.106058693909645,-96.25519929585457,76.200527287817
2024-09-23 09:45:17.776919,41.5,10.963614,-0.002785727465249955,-0.023429960042815445,0.09695331012558621,40.106058693909645,-96.25519929585457,80.21211738781929
2024-09-23 09:45:17.789025,41.5,10.963707,-0.002785727465249955,-0.023429960042815445,0.09695331012558621,40.106058693909645,-96.25519929585457,80.21211738781929
2024-09-23 09:45:17.821184,41.5,10.963707,-0.0035318979854855937,-0.023429960042815445,0.09695331012558621,40.106058693909645,-96.25519929585457,80.21211738781929
2024-09-23 09:45:17.874264,41.5,10.963707,-0.0035318979854855937,-0.023877669304275123,0.09764974270391902,44.11764879391193,-100.26678939585686,80.21211738781929
2024-09-23 09:45:17.886371,41.5,10.963758,-0.0035318979854855937,-0.023877669304275123,0.09764974270391902,44.11764879391193,-100.26678939585686,80.21211738781929
2024-09-23 09:45:17.919413,41.06,10.963758,-0.0032831742888682963,-0.023728432883788564,0.09685382322919964,44.11764879391193,-100.26678939585686,80.21211738781929
2024-09-23 09:45:17.930943,41.06,10.963758,-0.0032831742888682963,-0.023728432883788564,0.09685382322919964,40.106058693909645,-88.23529758782387,76.200527287817
2024-09-23 09:45:17.973945,41.06,10.963809,-0.002785727465249955,-0.023827930413011865,0.09670458680871308,40.106058693909645,-96.25519929585457,76.200527287817
2024-09-23 09:45:18.017354,41.06,10.96386,-0.0029349636958644295,-0.023827930413011865,0.09670458680871308,40.106058693909645,-96.25519929585457,80.21211738781929
2024-09-23 09:45:18.028781,41.06,10.96386,-0.0029349636958644295,-0.02362894446842532,0.0973015264147526,44.11764879391193,-96.25519929585457,80.21211738781929
2024-09-23 09:45:18.072059,41.06,10.96391,-0.0031339382481259063,-0.02338022115155219,0.09705279702197278,44.11764879391193,-104.27510100388527,76.200527287817
2024-09-23 09:45:18.114612,41.06,10.96391,-0.0031339382481259063,-0.02338022115155219,0.09705279702197278,36.09446859390736,-96.25519929585457,80.21211738781929
2024-09-23 09:45:18.125777,41.06,10.964002,-0.002785727465249955,-0.024076653729884996,0.09705279702197278,36.09446859390736,-96.25519929585457,80.21211738781929
2024-09-23 09:45:18.168400,41.06,10.964052,-0.003482159473966507,-0.024076653729884996,0.0973015264147526,32.08287849390507,-100.26678939585686,80.21211738781929
2024-09-23 09:45:18.212404,41.06,10.964052,-0.003482159473966507,-0.02338022115155219,0.0966050877605131,40.106058693909645,-100.26678939585686,80.21211738781929
2024-09-23 09:45:18.224189,41.06,10.964146,-0.003482159473966507,-0.02338022115155219,0.0966050877605131,40.106058693909645,-96.25519929585457,76.200527287817
2024-09-23 09:45:18.267236,41.06,10.964146,-0.0032831742888682963,-0.02352945757203875,0.0976994861521123,36.09446859390736,-96.25519929585457,84.22370748782159
2024-09-23 09:45:18.309419,41.06,10.964197,-0.0030344509719951677,-0.023230986250042305,0.0976994861521123,36.09446859390736,-96.25519929585457,84.22370748782159
2024-09-23 09:45:18.321591,41.06,10.964197,-0.0030344509719951677,-0.023230986250042305,0.0970030596496862,32.08287849390507,-100.26678939585686,84.22370748782159
2024-09-23 09:45:18.355092,41.06,10.964197,-0.0030344509719951677,-0.023230986250042305,0.0970030596496862,32.08287849390507,-100.26678939585686,84.22370748782159
2024-09-23 09:45:18.366566,41.06,10.964248,-0.0030841997366068195,-0.023429960042815445,0.09710254654607277,36.09446859390736,-100.26678939585686,84.22370748782159
2024-09-23 09:45:18.408739,41.06,10.964299,-0.0032831742888682963,-0.023429960042815445,0.09710254654607277,36.09446859390736,-100.26678939585686,76.200527287817
2024-09-23 09:45:18.420368,41.06,10.964299,-0.0032831742888682963,-0.023778180888911878,0.0973512698629459,36.09446859390736,-100.26678939585686,76.200527287817
2024-09-23 09:45:18.453578,41.06,10.964299,-0.0032831742888682963,-0.023778180888911878,0.0973512698629459,44.11764879391193,-100.26678939585686,76.200527287817
2024-09-23 09:45:18.464764,41.06,10.964349,-0.0032831742888682963,-0.02412639262114825,0.0973512698629459,44.11764879391193,-108.28669110388756,68.18063240997792
2024-09-23 09:45:18.507978,41.06,10.9644,-0.0032831742888682963,-0.02412639262114825,0.09710254654607277,32.08287849390507,-100.26678939585686,76.200527287817
2024-09-23 09:45:18.520098,41.06,10.9644,-0.003482159473966507,-0.02412639262114825,0.09710254654607277,32.08287849390507,-100.26678939585686,76.200527287817
2024-09-23 09:45:18.551679,41.06,10.9644,-0.003482159473966507,-0.023230986250042305,0.09745075675933246,32.08287849390507,-100.26678939585686,76.200527287817
2024-09-23 09:45:18.563924,41.06,10.964487,-0.003482159473966507,-0.023230986250042305,0.09745075675933246,28.07457030097246,-108.28669110388756,72.1922225099802
2024-09-23 09:45:18.607408,41.06,10.964487,-0.0027359787006383035,-0.02313149783467906,0.09695331012558621,32.08287849390507,-100.26678939585686,76.200527287817
2024-09-23 09:45:18.650386,41.06,10.964538,-0.0028852147413806935,-0.02397715620066169,0.09695331012558621,32.08287849390507,-100.26678939585686,76.200527287817
2024-09-23 09:45:18.662149,41.06,10.964538,-0.0028852147413806935,-0.02397715620066169,0.09740101331113918,28.07457030097246,-92.24360919585227,76.200527287817
2024-09-23 09:45:18.705958,41.06,10.964589,-0.003482159473966507,-0.023579196463302005,0.09725178296655933,32.08287849390507,-92.24360919585227,76.200527287817
2024-09-23 09:45:18.748504,41.06,10.964589,-0.003482159473966507,-0.023579196463302005,0.09725178296655933,32.08287849390507,-96.25519929585457,76.200527287817
2024-09-23 09:45:18.895148,41.06,10.96464,-0.003482159473966507,-0.023579196463302005,0.09725178296655933,32.08287849390507,-96.25519929585457,80.21211738781929
2024-09-23 09:45:18.906544,41.06,10.96464,-0.003233425524256645,-0.023778180888911878,0.0973512698629459,36.09446859390736,-96.25519929585457,80.21211738781929
2024-09-23 09:45:18.950511,40.52,10.96469,-0.003929857343101113,-0.023728432883788564,0.09695331012558621,36.09446859390736,-96.25519929585457,80.21211738781929
2024-09-23 09:45:18.992997,40.52,10.964741,-0.003929857343101113,-0.023728432883788564,0.09695331012558621,44.11764879391193,-96.25519929585457,84.22370748782159
2024-09-23 09:45:19.004644,40.52,10.964741,-0.0036811340262279837,-0.023827930413011865,0.09695331012558621,44.11764879391193,-96.25519929585457,84.22370748782159
2024-09-23 09:45:19.037298,40.52,10.964741,-0.0036811340262279837,-0.023827930413011865,0.09685382322919964,44.11764879391193,-96.25519929585457,84.22370748782159
2024-09-23 09:45:19.048555,40.52,10.964828,-0.0034324103296106863,-0.023827930413011865,0.09685382322919964,32.08287849390507,-100.26678939585686,84.22370748782159
2024-09-23 09:45:19.090945,40.52,10.964828,-0.0034324103296106863,-0.023230986250042305,0.09710254654607277,36.09446859390736,-96.25519929585457,84.22370748782159
2024-09-23 09:45:19.143689,40.52,10.964879,-0.0036811340262279837,-0.023330473146428877,0.09710254654607277,44.11764879391193,-96.25519929585457,84.22370748782159
2024-09-23 09:45:19.186828,40.52,10.965072,-0.0036811340262279837,-0.023330473146428877,0.09710254654607277,44.11764879391193,-100.26678939585686,80.21211738781929
2024-09-23 09:45:19.198570,40.52,10.965072,-0.0032831742888682963,-0.023728432883788564,0.09750050628343246,44.11764879391193,-100.26678939585686,80.21211738781929
2024-09-23 09:45:19.241056,40.52,10.965124,-0.0034324103296106863,-0.02352945757203875,0.09750050628343246,36.09446859390736,-92.24360919585227,80.21211738781929
2024-09-23 09:45:19.284722,40.52,10.965124,-0.0034324103296106863,-0.02352945757203875,0.09710254654607277,32.08287849390507,-88.23529758782387,80.21211738781929
2024-09-23 09:45:19.296733,40.52,10.965175,-0.003233425524256645,-0.02352945757203875,0.09710254654607277,32.08287849390507,-88.23529758782387,84.22370748782159
2024-09-23 09:45:19.329043,40.52,10.965175,-0.003233425524256645,-0.023330473146428877,0.09710254654607277,32.08287849390507,-88.23529758782387,84.22370748782159
2024-09-23 09:45:19.340609,40.52,10.965225,-0.003233425524256645,-0.023330473146428877,0.09690356060148622,32.08287849390507,-96.25519929585457,76.200527287817
2024-09-23 09:45:19.382860,40.52,10.965225,-0.0034324103296106863,-0.023778180888911878,0.0970030596496862,28.07457030097246,-96.25519929585457,76.200527287817
2024-09-23 09:45:19.394455,40.52,10.965225,-0.0034324103296106863,-0.023778180888911878,0.0970030596496862,28.07457030097246,-100.26678939585686,80.21211738781929
2024-09-23 09:45:19.426887,40.52,10.965316,-0.0034324103296106863,-0.023778180888911878,0.0970030596496862,28.07457030097246,-100.26678939585686,80.21211738781929
2024-09-23 09:45:19.438109,40.52,10.965316,-0.0029847020175114316,-0.023330473146428877,0.09710254654607277,40.106058693909645,-104.27510100388527,80.21211738781929
2024-09-23 09:45:19.479952,40.52,10.965368,-0.003631395514708897,-0.023330473146428877,0.09710254654607277,40.106058693909645,-104.27510100388527,76.200527287817
2024-09-23 09:45:19.491811,40.52,10.965368,-0.003631395514708897,-0.023579196463302005,0.0973015264147526,44.11764879391193,-104.27510100388527,76.200527287817
2024-09-23 09:45:19.534962,40.52,10.965418,-0.0038801188315820256,-0.02397715620066169,0.09685382322919964,44.11764879391193,-100.26678939585686,80.21211738781929
2024-09-23 09:45:19.578641,40.52,10.965469,-0.0038801188315820256,-0.02397715620066169,0.09685382322919964,40.106058693909645,-100.26678939585686,84.22370748782159
2024-09-23 09:45:19.590547,40.52,10.965469,-0.0029349636958644295,-0.023330473146428877,0.09685382322919964,40.106058693909645,-100.26678939585686,84.22370748782159
2024-09-23 09:45:19.622087,40.52,10.965469,-0.0029349636958644295,-0.023330473146428877,0.09665483728461309,40.106058693909645,-100.26678939585686,84.22370748782159
2024-09-23 09:45:19.633920,40.52,10.96552,-0.003482159473966507,-0.023330473146428877,0.09665483728461309,36.09446859390736,-100.26678939585686,80.21211738781929
2024-09-23 09:45:19.676246,40.52,10.96552,-0.003482159473966507,-0.024176140626271565,0.09725178296655933,40.106058693909645,-92.24360919585227,80.21211738781929
2024-09-23 09:45:19.688340,40.52,10.965608,-0.003482159473966507,-0.024176140626271565,0.09725178296655933,40.106058693909645,-92.24360919585227,72.1922225099802
2024-09-23 09:45:19.721994,40.52,10.965608,-0.003233425524256645,-0.023479709566915436,0.09725178296655933,40.106058693909645,-92.24360919585227,72.1922225099802
2024-09-23 09:45:19.733057,40.52,10.965608,-0.003233425524256645,-0.023479709566915436,0.09759999317981902,32.08287849390507,-96.25519929585457,80.21211738781929
2024-09-23 09:45:19.775910,40.52,10.96566,-0.0033329230534799477,-0.024076653729884996,0.09690356060148622,40.106058693909645,-100.26678939585686,80.21211738781929
2024-09-23 09:45:19.869362,40.52,10.96571,-0.0033329230534799477,-0.024076653729884996,0.09690356060148622,40.106058693909645,-100.26678939585686,84.22370748782159
2024-09-23 09:45:19.881010,40.52,10.96571,-0.0033329230534799477,-0.02352945757203875,0.09670458680871308,36.09446859390736,-100.26678939585686,84.22370748782159
2024-09-23 09:45:19.924229,40.52,10.965761,-0.0033329230534799477,-0.02352945757203875,0.09670458680871308,36.09446859390736,-96.25519929585457,76.200527287817
2024-09-23 09:45:19.967466,40.35,10.965761,-0.0034324103296106863,-0.02362894446842532,0.09685382322919964,36.09446859390736,-96.25519929585457,76.200527287817
2024-09-23 09:45:19.978844,40.35,10.965761,-0.0034324103296106863,-0.02362894446842532,0.09685382322919964,36.09446859390736,-96.25519929585457,84.22370748782159
2024-09-23 09:45:20.022609,40.35,10.965812,-0.0030841997366068195,-0.023429960042815445,0.09705279702197278,36.09446859390736,-108.28669110388756,84.22370748782159
2024-09-23 09:45:20.064364,40.35,10.965862,-0.0036811340262279837,-0.023429960042815445,0.09705279702197278,36.09446859390736,-108.28669110388756,80.21211738781929
2024-09-23 09:45:20.076042,40.35,10.965862,-0.0036811340262279837,-0.02397715620066169,0.09685382322919964,40.106058693909645,-108.28669110388756,80.21211738781929
2024-09-23 09:45:20.118794,40.35,10.965998,-0.0029847020175114316,-0.02352945757203875,0.0973512698629459,40.106058693909645,-92.24360919585227,80.21211738781929
2024-09-23 09:45:20.162100,40.35,10.965998,-0.0029847020175114316,-0.02352945757203875,0.0973512698629459,40.106058693909645,-92.24360919585227,80.21211738781929
2024-09-23 09:45:20.173659,40.35,10.96605,-0.0030344509719951677,-0.02338022115155219,0.0973512698629459,40.106058693909645,-92.24360919585227,80.21211738781929
2024-09-23 09:45:20.215927,40.35,10.9661,-0.0035816467500972456,-0.02338022115155219,0.09705279702197278,40.106058693909645,-100.26678939585686,80.21211738781929
2024-09-23 09:45:20.258662,40.35,10.9661,-0.0035816467500972456,-0.023479709566915436,0.09705279702197278,36.09446859390736,-100.26678939585686,80.21211738781929
2024-09-23 09:45:20.269879,40.35,10.966194,-0.0035816467500972456,-0.023479709566915436,0.09705279702197278,36.09446859390736,-96.25519929585457,80.21211738781929
2024-09-23 09:45:20.312468,40.35,10.966194,-0.0028852147413806935,-0.024026904205785005,0.0973512698629459,32.08287849390507,-96.25519929585457,80.21211738781929
2024-09-23 09:45:20.324340,40.35,10.966194,-0.0028852147413806935,-0.024026904205785005,0.0973512698629459,32.08287849390507,-96.25519929585457,84.22370748782159
2024-09-23 09:45:20.355844,40.35,10.966245,-0.0029349636958644295,-0.024026904205785005,0.0973512698629459,32.08287849390507,-96.25519929585457,84.22370748782159
2024-09-23 09:45:20.367249,40.35,10.966245,-0.0029349636958644295,-0.02338022115155219,0.09705279702197278,32.08287849390507,-100.26678939585686,84.22370748782159
2024-09-23 09:45:20.411442,40.35,10.966295,-0.0029847020175114316,-0.023827930413011865,0.09685382322919964,36.09446859390736,-100.26678939585686,84.22370748782159
2024-09-23 09:45:20.453968,40.35,10.966346,-0.0029847020175114316,-0.023827930413011865,0.09685382322919964,36.09446859390736,-100.26678939585686,80.21211738781929
2024-09-23 09:45:20.465069,40.35,10.966346,-0.0031339382481259063,-0.023479709566915436,0.09725178296655933,36.09446859390736,-100.26678939585686,80.21211738781929
2024-09-23 09:45:20.508397,40.35,10.966397,-0.0028354659767690416,-0.023579196463302005,0.09725178296655933,36.09446859390736,-96.25519929585457,84.22370748782159
2024-09-23 09:45:20.551076,40.35,10.966397,-0.0028354659767690416,-0.023579196463302005,0.09720203344245934,48.12595698684454,-92.24360919585227,84.22370748782159
2024-09-23 09:45:20.562678,40.35,10.966448,-0.0028354659767690416,-0.023579196463302005,0.09720203344245934,48.12595698684454,-92.24360919585227,84.22370748782159
2024-09-23 09:45:20.605262,40.35,10.966448,-0.003233425524256645,-0.023181236725942318,0.09720203344245934,44.11764879391193,-96.25519929585457,84.22370748782159
2024-09-23 09:45:20.647708,40.35,10.966534,-0.0038801188315820256,-0.023181236725942318,0.09720203344245934,44.11764879391193,-96.25519929585457,84.22370748782159
2024-09-23 09:45:20.659166,40.35,10.966534,-0.0038801188315820256,-0.023479709566915436,0.09755024973162574,40.106058693909645,-100.26678939585686,84.22370748782159
2024-09-23 09:45:20.701876,40.35,10.966586,-0.0035318979854855937,-0.02367869399252531,0.0973015264147526,40.106058693909645,-100.26678939585686,76.200527287817
2024-09-23 09:45:20.713806,40.35,10.966586,-0.0035318979854855937,-0.02367869399252531,0.0973015264147526,40.106058693909645,-100.26678939585686,76.200527287817
2024-09-23 09:45:20.745364,40.35,10.966586,-0.0035318979854855937,-0.02367869399252531,0.0973015264147526,40.106058693909645,-96.25519929585457,80.21211738781929
2024-09-23 09:45:20.757339,40.35,10.966637,-0.0029847020175114316,-0.02313149783467906,0.09725178296655933,40.106058693909645,-96.25519929585457,80.21211738781929
2024-09-23 09:45:20.800060,40.35,10.966687,-0.0030841997366068195,-0.023778180888911878,0.09725178296655933,36.09446859390736,-96.25519929585457,80.21211738781929
2024-09-23 09:45:20.842552,40.35,10.966687,-0.0030841997366068195,-0.023778180888911878,0.09665483728461309,48.12595698684454,-96.25519929585457,80.21211738781929
2024-09-23 09:45:20.854090,40.35,10.966738,-0.0028354659767690416,-0.023778180888911878,0.09665483728461309,48.12595698684454,-112.29828120388984,64.16903547978401
2024-09-23 09:45:20.896143,40.35,10.966738,-0.0028354659767690416,-0.024176140626271565,0.09695331012558621,40.106058693909645,-100.26678939585686,80.21211738781929
2024-09-23 09:45:20.907994,40.35,10.966827,-0.0028354659767690416,-0.024176140626271565,0.09695331012558621,40.106058693909645,-100.26678939585686,80.21211738781929
2024-09-23 09:45:20.940261,40.35,10.966827,-0.0031836870127375577,-0.023429960042815445,0.09695331012558621,40.106058693909645,-100.26678939585686,80.21211738781929
2024-09-23 09:45:20.951532,40.35,10.966827,-0.0031836870127375577,-0.023429960042815445,0.09685382322919964,36.09446859390736,-96.25519929585457,76.200527287817
2024-09-23 09:45:20.993771,40.54,10.966879,-0.0033329230534799477,-0.023230986250042305,0.0970030596496862,40.106058693909645,-96.25519929585457,76.200527287817
2024-09-23 09:45:21.005640,40.54,10.966879,-0.0033329230534799477,-0.023230986250042305,0.0970030596496862,40.106058693909645,-96.25519929585457,76.200527287817
2024-09-23 09:45:21.038721,40.54,10.966929,-0.0033329230534799477,-0.023230986250042305,0.0970030596496862,40.106058693909645,-96.25519929585457,76.200527287817
2024-09-23 09:45:21.050404,40.54,10.966929,-0.0029847020175114316,-0.02362894446842532,0.09710254654607277,32.08287849390507,-96.25519929585457,76.200527287817
2024-09-23 09:45:21.093780,40.54,10.96698,-0.0032831742888682963,-0.023429960042815445,0.0973015264147526,32.08287849390507,-96.25519929585457,76.200527287817
2024-09-23 09:45:21.135791,40.54,10.96698,-0.0032831742888682963,-0.023429960042815445,0.0973015264147526,28.07457030097246,-92.24360919585227,76.200527287817
2024-09-23 09:45:21.147112,40.54,10.967031,-0.0032831742888682963,-0.02313149783467906,0.0973015264147526,28.07457030097246,-92.24360919585227,76.200527287817
2024-09-23 09:45:21.190153,40.54,10.967081,-0.003233425524256645,-0.02313149783467906,0.09720203344245934,36.09446859390736,-104.27510100388527,80.21211738781929
2024-09-23 09:45:21.232200,40.54,10.967081,-0.003233425524256645,-0.02362894446842532,0.0970030596496862,36.09446859390736,-104.27510100388527,80.21211738781929
2024-09-23 09:45:21.243449,40.54,10.967168,-0.003233425524256645,-0.02362894446842532,0.0970030596496862,32.08287849390507,-100.26678939585686,80.21211738781929
2024-09-23 09:45:21.286089,40.54,10.967168,-0.002636491424507565,-0.02362894446842532,0.09675432418099966,36.09446859390736,-104.27510100388527,80.21211738781929
2024-09-23 09:45:21.297788,40.54,10.967168,-0.002636491424507565,-0.02362894446842532,0.09675432418099966,36.09446859390736,-104.27510100388527,76.200527287817
2024-09-23 09:45:21.330534,40.54,10.96722,-0.0031339382481259063,-0.02362894446842532,0.09675432418099966,36.09446859390736,-104.27510100388527,76.200527287817
2024-09-23 09:45:21.341704,40.54,10.96722,-0.0031339382481259063,-0.023181236725942318,0.09759999317981902,32.08287849390507,-96.25519929585457,76.200527287817
2024-09-23 09:45:21.384509,40.54,10.96727,-0.003482159473966507,-0.023330473146428877,0.09665483728461309,32.08287849390507,-96.25519929585457,76.200527287817
2024-09-23 09:45:21.396666,40.54,10.96727,-0.003482159473966507,-0.023330473146428877,0.09665483728461309,40.106058693909645,-96.25519929585457,76.200527287817
2024-09-23 09:45:21.428471,40.54,10.96727,-0.003482159473966507,-0.023330473146428877,0.09665483728461309,40.106058693909645,-92.24360919585227,80.21211738781929
2024-09-23 09:45:21.440016,40.54,10.967321,-0.0028852147413806935,-0.023927417309398437,0.09720203344245934,40.106058693909645,-92.24360919585227,80.21211738781929
2024-09-23 09:45:21.483030,40.54,10.967372,-0.0038303700669703737,-0.023927417309398437,0.09720203344245934,40.106058693909645,-92.24360919585227,84.22370748782159
2024-09-23 09:45:21.494510,40.54,10.967372,-0.0038303700669703737,-0.023728432883788564,0.09720203344245934,40.106058693909645,-92.24360919585227,84.22370748782159
2024-09-23 09:45:21.527056,40.54,10.967372,-0.0038303700669703737,-0.023728432883788564,0.09725178296655933,28.07457030097246,-92.24360919585227,84.22370748782159
2024-09-23 09:45:21.538558,40.54,10.967423,-0.0029349636958644295,-0.023728432883788564,0.09725178296655933,28.07457030097246,-92.24360919585227,84.22370748782159
2024-09-23 09:45:21.581152,40.54,10.967509,-0.0029349636958644295,-0.02362894446842532,0.09705279702197278,36.09446859390736,-100.26678939585686,84.22370748782159
2024-09-23 09:45:21.623590,40.54,10.967509,-0.003631395514708897,-0.02352945757203875,0.09705279702197278,36.09446859390736,-100.26678939585686,84.22370748782159
2024-09-23 09:45:21.635613,40.54,10.967509,-0.003631395514708897,-0.02352945757203875,0.0976994861521123,32.08287849390507,-96.25519929585457,76.200527287817
2024-09-23 09:45:21.679017,40.54,10.967561,-0.003482159473966507,-0.023330473146428877,0.09715228999426605,36.09446859390736,-96.25519929585457,76.200527287817
2024-09-23 09:45:21.722602,40.54,10.967612,-0.0034324103296106863,-0.023330473146428877,0.09715228999426605,36.09446859390736,-96.25519929585457,72.1922225099802
2024-09-23 09:45:21.733899,40.54,10.967612,-0.0034324103296106863,-0.023778180888911878,0.09720203344245934,36.09446859390736,-96.25519929585457,72.1922225099802
2024-09-23 09:45:21.777452,40.54,10.967662,-0.0035816467500972456,-0.02397715620066169,0.09695331012558621,36.09446859390736,-112.29828120388984,68.18063240997792
2024-09-23 09:45:21.819487,40.54,10.967662,-0.0035816467500972456,-0.02397715620066169,0.09695331012558621,40.106058693909645,-96.25519929585457,72.1922225099802
2024-09-23 09:45:21.830655,40.54,10.967713,-0.0037308827908396356,-0.02352945757203875,0.09695331012558621,40.106058693909645,-96.25519929585457,72.1922225099802
2024-09-23 09:45:21.872361,40.54,10.967764,-0.0037308827908396356,-0.02352945757203875,0.09725178296655933,48.12595698684454,-100.26678939585686,76.200527287817
2024-09-23 09:45:21.884637,40.54,10.967764,-0.0028852147413806935,-0.02352945757203875,0.09725178296655933,48.12595698684454,-100.26678939585686,76.200527287817
2024-09-23 09:45:21.919054,40.54,10.967764,-0.0028852147413806935,-0.023579196463302005,0.09690356060148622,32.08287849390507,-100.26678939585686,76.200527287817
2024-09-23 09:45:21.930182,40.54,10.967851,-0.0028852147413806935,-0.023579196463302005,0.09690356060148622,32.08287849390507,-100.26678939585686,76.200527287817
2024-09-23 09:45:21.962387,40.54,10.967851,-0.0028852147413806935,-0.023579196463302005,0.09690356060148622,32.08287849390507,-100.26678939585686,76.200527287817
2024-09-23 09:45:21.973692,40.54,10.967851,-0.0028852147413806935,-0.023778180888911878,0.09720203344245934,36.09446859390736,-96.25519929585457,80.21211738781929
2024-09-23 09:45:22.017649,41.03,10.967902,-0.0031836870127375577,-0.023827930413011865,0.09725178296655933,36.09446859390736,-96.25519929585457,80.21211738781929
2024-09-23 09:45:22.029833,41.03,10.967902,-0.0031836870127375577,-0.023827930413011865,0.09725178296655933,36.09446859390736,-96.25519929585457,80.21211738781929
2024-09-23 09:45:22.061479,41.03,10.967953,-0.0031836870127375577,-0.023827930413011865,0.09725178296655933,36.09446859390736,-96.25519929585457,84.22370748782159
2024-09-23 09:45:22.073998,41.03,10.967953,-0.0035318979854855937,-0.023927417309398437,0.09725178296655933,36.09446859390736,-96.25519929585457,84.22370748782159
2024-09-23 09:45:22.116605,41.03,10.968004,-0.003929857343101113,-0.02362894446842532,0.0970030596496862,36.09446859390736,-92.24360919585227,80.21211738781929
2024-09-23 09:45:22.160262,41.03,10.968004,-0.003929857343101113,-0.02362894446842532,0.0970030596496862,36.09446859390736,-100.26678939585686,76.200527287817
2024-09-23 09:45:22.171232,41.03,10.968055,-0.0028852147413806935,-0.02352945757203875,0.0970030596496862,36.09446859390736,-100.26678939585686,76.200527287817
2024-09-23 09:45:22.213735,41.03,10.968105,-0.0036811340262279837,-0.02352945757203875,0.09685382322919964,32.08287849390507,-96.25519929585457,80.21211738781929
2024-09-23 09:45:22.256249,41.03,10.968105,-0.0036811340262279837,-0.023429960042815445,0.09680407370509965,32.08287849390507,-96.25519929585457,80.21211738781929
2024-09-23 09:45:22.267597,41.03,10.968192,-0.0036811340262279837,-0.023429960042815445,0.09680407370509965,44.11764879391193,-100.26678939585686,76.200527287817
2024-09-23 09:45:22.310738,41.03,10.968192,-0.0035318979854855937,-0.023280723622328886,0.09710254654607277,40.106058693909645,-104.27510100388527,76.200527287817
2024-09-23 09:45:22.322772,41.03,10.968192,-0.0035318979854855937,-0.023280723622328886,0.09710254654607277,40.106058693909645,-104.27510100388527,76.200527287817
2024-09-23 09:45:22.356102,41.03,10.968244,-0.003382661564999035,-0.023927417309398437,0.09710254654607277,40.106058693909645,-104.27510100388527,76.200527287817
2024-09-23 09:45:22.367239,41.03,10.968244,-0.003382661564999035,-0.023927417309398437,0.09680407370509965,40.106058693909645,-100.26678939585686,76.200527287817
2024-09-23 09:45:22.410556,41.03,10.968294,-0.0034324103296106863,-0.023579196463302005,0.09750050628343246,40.106058693909645,-100.26678939585686,76.200527287817
2024-09-23 09:45:22.452562,41.03,10.968345,-0.0034324103296106863,-0.023579196463302005,0.09750050628343246,40.106058693909645,-100.26678939585686,76.200527287817
2024-09-23 09:45:22.463629,41.03,10.968345,-0.003382661564999035,-0.023877669304275123,0.09685382322919964,40.106058693909645,-100.26678939585686,76.200527287817
2024-09-23 09:45:22.506335,41.03,10.968396,-0.0038801188315820256,-0.023778180888911878,0.09685382322919964,40.106058693909645,-96.25519929585457,80.21211738781929
2024-09-23 09:45:22.548995,41.03,10.968396,-0.0038801188315820256,-0.023778180888911878,0.09695331012558621,36.09446859390736,-96.25519929585457,80.21211738781929
2024-09-23 09:45:22.560159,41.03,10.968446,-0.0036811340262279837,-0.023778180888911878,0.09695331012558621,36.09446859390736,-100.26678939585686,80.21211738781929
2024-09-23 09:45:22.602956,41.03,10.968446,-0.0036811340262279837,-0.023280723622328886,0.09685382322919964,36.09446859390736,-100.26678939585686,80.21211738781929
2024-09-23 09:45:22.615555,41.03,10.968533,-0.0036811340262279837,-0.023280723622328886,0.09685382322919964,36.09446859390736,-100.26678939585686,80.21211738781929
2024-09-23 09:45:22.648763,41.03,10.968533,-0.0030344509719951677,-0.023181236725942318,0.0970030596496862,36.09446859390736,-100.26678939585686,80.21211738781929
2024-09-23 09:45:22.660341,41.03,10.968533,-0.0030344509719951677,-0.023181236725942318,0.0970030596496862,36.09446859390736,-96.25519929585457,88.23529758782387
2024-09-23 09:45:22.702453,41.03,10.968585,-0.0034324103296106863,-0.023877669304275123,0.09755024973162574,36.09446859390736,-96.25519929585457,88.23529758782387
2024-09-23 09:45:22.744004,41.03,10.968635,-0.0034324103296106863,-0.023877669304275123,0.09755024973162574,36.09446859390736,-96.25519929585457,76.200527287817
2024-09-23 09:45:22.755330,41.03,10.968635,-0.0035318979854855937,-0.02362894446842532,0.09695331012558621,36.09446859390736,-96.25519929585457,76.200527287817
2024-09-23 09:45:22.797789,41.03,10.968686,-0.0035318979854855937,-0.02308174982955575,0.09695331012558621,36.09446859390736,-96.25519929585457,76.200527287817
2024-09-23 09:45:22.809872,41.03,10.968686,-0.0035318979854855937,-0.02308174982955575,0.09720203344245934,36.09446859390736,-96.25519929585457,76.200527287817
2024-09-23 09:45:22.841815,41.03,10.968686,-0.0035318979854855937,-0.02308174982955575,0.09720203344245934,36.09446859390736,-96.25519929585457,76.200527287817
2024-09-23 09:45:22.852911,41.03,10.968737,-0.0028354659767690416,-0.023330473146428877,0.09720203344245934,36.09446859390736,-96.25519929585457,80.21211738781929
2024-09-23 09:45:22.897357,41.03,10.968787,-0.003631395514708897,-0.023330473146428877,0.09745075675933246,44.11764879391193,-96.25519929585457,80.21211738781929
2024-09-23 09:45:22.940810,41.03,10.968787,-0.003631395514708897,-0.023579196463302005,0.0970030596496862,40.106058693909645,-96.25519929585457,80.21211738781929
2024-09-23 09:45:22.952408,41.03,10.968875,-0.003631395514708897,-0.023579196463302005,0.0970030596496862,40.106058693909645,-104.27510100388527,80.21211738781929
2024-09-23 09:45:22.995045,41.03,10.968875,-0.0031836870127375577,-0.023927417309398437,0.09725178296655933,48.12595698684454,-92.24360919585227,88.23529758782387
2024-09-23 09:45:23.038449,41.14,10.968926,-0.003631395514708897,-0.023728432883788564,0.09725178296655933,48.12595698684454,-92.24360919585227,88.23529758782387
2024-09-23 09:45:23.050097,41.14,10.968926,-0.003631395514708897,-0.023728432883788564,0.09705279702197278,48.12595698684454,-96.25519929585457,88.23529758782387
2024-09-23 09:45:23.092358,41.14,10.968977,-0.003382661564999035,-0.02367869399252531,0.0973015264147526,44.11764879391193,-96.25519929585457,72.1922225099802
2024-09-23 09:45:23.136958,41.14,10.969027,-0.003382661564999035,-0.02367869399252531,0.0973015264147526,44.11764879391193,-96.25519929585457,76.200527287817
2024-09-23 09:45:23.148427,41.14,10.969027,-0.003233425524256645,-0.023728432883788564,0.0966050877605131,44.11764879391193,-96.25519929585457,76.200527287817
2024-09-23 09:45:23.181994,41.14,10.969027,-0.003233425524256645,-0.023728432883788564,0.0966050877605131,40.106058693909645,-96.25519929585457,76.200527287817
2024-09-23 09:45:23.193349,41.14,10.969078,-0.003233425524256645,-0.023728432883788564,0.0966050877605131,40.106058693909645,-96.25519929585457,80.21211738781929
2024-09-23 09:45:23.235980,41.14,10.969129,-0.003233425524256645,-0.023728432883788564,0.09720203344245934,32.08287849390507,-108.28669110388756,64.16903547978401
2024-09-23 09:45:23.247650,41.14,10.969129,-0.0026862297461545674,-0.023728432883788564,0.09720203344245934,32.08287849390507,-108.28669110388756,64.16903547978401
2024-09-23 09:45:23.280511,41.14,10.969129,-0.0026862297461545674,-0.023479709566915436,0.09715228999426605,32.08287849390507,-108.28669110388756,64.16903547978401
2024-09-23 09:45:23.292123,41.14,10.969216,-0.0026862297461545674,-0.023479709566915436,0.09715228999426605,32.08287849390507,-104.27510100388527,80.21211738781929
2024-09-23 09:45:23.334921,41.14,10.969216,-0.0030841997366068195,-0.023827930413011865,0.0970030596496862,32.08287849390507,-104.27510100388527,80.21211738781929
2024-09-23 09:45:23.377454,41.14,10.969267,-0.0032831742888682963,-0.023827930413011865,0.0970030596496862,32.08287849390507,-104.27510100388527,80.21211738781929
2024-09-23 09:45:23.389065,41.14,10.969267,-0.0032831742888682963,-0.02397715620066169,0.09665483728461309,36.09446859390736,-112.29828120388984,80.21211738781929
2024-09-23 09:45:23.432071,41.14,10.969318,-0.003482159473966507,-0.023778180888911878,0.09764974270391902,36.09446859390736,-112.29828120388984,72.1922225099802
2024-09-23 09:45:23.443883,41.14,10.969318,-0.003482159473966507,-0.023778180888911878,0.09764974270391902,44.11764879391193,-112.29828120388984,72.1922225099802
2024-09-23 09:45:23.476153,41.14,10.969318,-0.003482159473966507,-0.023778180888911878,0.09764974270391902,44.11764879391193,-104.27510100388527,76.200527287817
2024-09-23 09:45:23.487503,41.14,10.969369,-0.003233425524256645,-0.02338022115155219,0.09685382322919964,44.11764879391193,-104.27510100388527,76.200527287817
2024-09-23 09:45:23.530581,41.14,10.969419,-0.0030344509719951677,-0.02367869399252531,0.09685382322919964,40.106058693909645,-100.26678939585686,80.21211738781929
2024-09-23 09:45:23.572577,41.14,10.969419,-0.0030344509719951677,-0.02367869399252531,0.0976994861521123,36.09446859390736,-100.26678939585686,80.21211738781929
2024-09-23 09:45:23.584059,41.14,10.96947,-0.003482159473966507,-0.02367869399252531,0.0976994861521123,36.09446859390736,-96.25519929585457,80.21211738781929
2024-09-23 09:45:23.626162,41.14,10.96947,-0.003482159473966507,-0.023778180888911878,0.09650560086412653,44.11764879391193,-96.25519929585457,80.21211738781929
2024-09-23 09:45:23.638064,41.14,10.969557,-0.003482159473966507,-0.023778180888911878,0.09650560086412653,44.11764879391193,-96.25519929585457,80.21211738781929
2024-09-23 09:45:23.669805,41.14,10.969557,-0.0033329230534799477,-0.023280723622328886,0.09650560086412653,44.11764879391193,-96.25519929585457,80.21211738781929
2024-09-23 09:45:23.681441,41.14,10.969557,-0.0033329230534799477,-0.023280723622328886,0.09655535038822652,40.106058693909645,-96.25519929585457,84.22370748782159
2024-09-23 09:45:23.724065,41.14,10.969609,-0.003929857343101113,-0.02397715620066169,0.09640611396773996,40.106058693909645,-96.25519929585457,84.22370748782159
2024-09-23 09:45:23.736251,41.14,10.969609,-0.003929857343101113,-0.02397715620066169,0.09640611396773996,40.106058693909645,-100.26678939585686,84.22370748782159
2024-09-23 09:45:23.769574,41.14,10.969659,-0.0031836870127375577,-0.02397715620066169,0.09640611396773996,40.106058693909645,-100.26678939585686,80.21211738781929
2024-09-23 09:45:23.781170,41.14,10.969659,-0.0031836870127375577,-0.02362894446842532,0.09710254654607277,36.09446859390736,-100.26678939585686,80.21211738781929
2024-09-23 09:45:23.823497,41.14,10.96971,-0.0029847020175114316,-0.023280723622328886,0.09655535038822652,36.09446859390736,-92.24360919585227,76.200527287817
2024-09-23 09:45:23.866100,41.14,10.96971,-0.0029847020175114316,-0.023280723622328886,0.09655535038822652,44.11764879391193,-92.24360919585227,80.21211738781929
2024-09-23 09:45:23.877399,41.14,10.969761,-0.003233425524256645,-0.023280723622328886,0.09655535038822652,44.11764879391193,-92.24360919585227,80.21211738781929
2024-09-23 09:45:23.921143,41.14,10.969811,-0.0037308827908396356,-0.023280723622328886,0.09715228999426605,36.09446859390736,-96.25519929585457,80.21211738781929
2024-09-23 09:45:23.964447,41.14,10.969811,-0.0037308827908396356,-0.023280723622328886,0.09690356060148622,40.106058693909645,-96.25519929585457,80.21211738781929
2024-09-23 09:45:23.976001,41.14,10.969898,-0.0037308827908396356,-0.023280723622328886,0.09690356060148622,40.106058693909645,-92.24360919585227,80.21211738781929
2024-09-23 09:45:24.009991,41.14,10.969898,-0.0033329230534799477,-0.023280723622328886,0.09690356060148622,40.106058693909645,-92.24360919585227,80.21211738781929
2024-09-23 09:45:24.021671,41.14,10.969898,-0.0033329230534799477,-0.02352945757203875,0.09655535038822652,36.09446859390736,-100.26678939585686,88.23529758782387
2024-09-23 09:45:24.063189,41.31,10.96995,-0.003233425524256645,-0.02352945757203875,0.09720203344245934,36.09446859390736,-100.26678939585686,88.23529758782387
2024-09-23 09:45:24.074131,41.31,10.96995,-0.003233425524256645,-0.02352945757203875,0.09720203344245934,32.08287849390507,-104.27510100388527,88.23529758782387
2024-09-23 09:45:24.118129,41.31,10.97,-0.003979606107712764,-0.023479709566915436,0.0973015264147526,40.106058693909645,-104.27510100388527,84.22370748782159
2024-09-23 09:45:24.161190,41.31,10.970051,-0.0031339382481259063,-0.023479709566915436,0.0973015264147526,40.106058693909645,-92.24360919585227,92.24360919585227
2024-09-23 09:45:24.173218,41.31,10.970051,-0.0031339382481259063,-0.023778180888911878,0.09685382322919964,40.106058693909645,-92.24360919585227,92.24360919585227
2024-09-23 09:45:24.205840,41.31,10.970051,-0.0031339382481259063,-0.023778180888911878,0.09685382322919964,40.106058693909645,-92.24360919585227,92.24360919585227
2024-09-23 09:45:24.217673,41.31,10.970102,-0.0032831742888682963,-0.02338022115155219,0.09685382322919964,40.106058693909645,-100.26678939585686,84.22370748782159
2024-09-23 09:45:24.260295,41.31,10.970152,-0.0032831742888682963,-0.02338022115155219,0.09705279702197278,36.09446859390736,-100.26678939585686,80.21211738781929
2024-09-23 09:45:24.272610,41.31,10.970152,-0.0032831742888682963,-0.02338022115155219,0.09705279702197278,36.09446859390736,-100.26678939585686,80.21211738781929
2024-09-23 09:45:24.304424,41.31,10.970152,-0.0032831742888682963,-0.02352945757203875,0.09764974270391902,36.09446859390736,-100.26678939585686,80.21211738781929
2024-09-23 09:45:24.316219,41.31,10.970239,-0.0032831742888682963,-0.02352945757203875,0.09764974270391902,36.09446859390736,-96.25519929585457,76.200527287817
2024-09-23 09:45:24.358992,41.31,10.970239,-0.0031339382481259063,-0.02308174982955575,0.09740101331113918,32.08287849390507,-100.26678939585686,80.21211738781929
2024-09-23 09:45:24.401193,41.31,10.970291,-0.0031836870127375577,-0.02308174982955575,0.09740101331113918,32.08287849390507,-100.26678939585686,80.21211738781929
2024-09-23 09:45:24.413090,41.31,10.970291,-0.0031836870127375577,-0.02313149783467906,0.0970030596496862,36.09446859390736,-100.26678939585686,80.21211738781929
2024-09-23 09:45:24.456117,41.31,10.970342,-0.0031836870127375577,-0.023479709566915436,0.09680407370509965,36.09446859390736,-100.26678939585686,80.21211738781929
2024-09-23 09:45:24.468263,41.31,10.970342,-0.0031836870127375577,-0.023479709566915436,0.09680407370509965,36.09446859390736,-100.26678939585686,80.21211738781929
2024-09-23 09:45:24.500569,41.31,10.970393,-0.0031836870127375577,-0.023479709566915436,0.09680407370509965,36.09446859390736,-92.24360919585227,80.21211738781929
2024-09-23 09:45:24.512354,41.31,10.970393,-0.0031836870127375577,-0.023330473146428877,0.09675432418099966,36.09446859390736,-92.24360919585227,80.21211738781929
2024-09-23 09:45:24.555017,41.31,10.970444,-0.003233425524256645,-0.02338022115155219,0.09675432418099966,36.09446859390736,-96.25519929585457,80.21211738781929
2024-09-23 09:45:24.597838,41.31,10.970444,-0.003233425524256645,-0.02338022115155219,0.09710254654607277,32.08287849390507,-96.25519929585457,80.21211738781929
2024-09-23 09:45:24.609748,41.31,10.970495,-0.0029349636958644295,-0.02338022115155219,0.09710254654607277,32.08287849390507,-96.25519929585457,76.200527287817
2024-09-23 09:45:24.652739,41.31,10.970581,-0.0029349636958644295,-0.023280723622328886,0.09690356060148622,40.106058693909645,-100.26678939585686,84.22370748782159
2024-09-23 09:45:24.695747,41.31,10.970581,-0.0028852147413806935,-0.023927417309398437,0.09720203344245934,40.106058693909645,-100.26678939585686,84.22370748782159
2024-09-23 09:45:24.707314,41.31,10.970581,-0.0028852147413806935,-0.023927417309398437,0.09720203344245934,44.11764879391193,-104.27510100388527,76.200527287817
2024-09-23 09:45:24.750227,41.31,10.970632,-0.003233425524256645,-0.023479709566915436,0.09715228999426605,44.11764879391193,-104.27510100388527,76.200527287817
2024-09-23 09:45:24.793827,41.31,10.970683,-0.003233425524256645,-0.023479709566915436,0.09715228999426605,44.11764879391193,-100.26678939585686,80.21211738781929
2024-09-23 09:45:24.805176,41.31,10.970683,-0.0033329230534799477,-0.024026904205785005,0.09705279702197278,44.11764879391193,-100.26678939585686,80.21211738781929
2024-09-23 09:45:24.848444,41.31,10.970734,-0.0030344509719951677,-0.023579196463302005,0.09705279702197278,44.11764879391193,-100.26678939585686,84.22370748782159
2024-09-23 09:45:24.890607,41.31,10.970734,-0.0030344509719951677,-0.023579196463302005,0.09690356060148622,36.09446859390736,-92.24360919585227,84.22370748782159
2024-09-23 09:45:24.902261,41.31,10.970784,-0.003382661564999035,-0.023579196463302005,0.09690356060148622,36.09446859390736,-92.24360919585227,84.22370748782159
2024-09-23 09:45:24.945879,41.31,10.970835,-0.003382661564999035,-0.023877669304275123,0.09685382322919964,32.08287849390507,-96.25519929585457,80.21211738781929
2024-09-23 09:45:24.989063,41.31,10.970835,-0.0031339382481259063,-0.02352945757203875,0.0970030596496862,32.08287849390507,-96.25519929585457,80.21211738781929
2024-09-23 09:45:25.001837,41.31,10.970835,-0.0031339382481259063,-0.02352945757203875,0.0970030596496862,44.11764879391193,-96.25519929585457,76.200527287817
2024-09-23 09:45:25.085560,41.23,10.970923,-0.0028852147413806935,-0.023479709566915436,0.0970030596496862,44.11764879391193,-96.25519929585457,76.200527287817
2024-09-23 09:45:25.097460,41.23,10.970923,-0.0028852147413806935,-0.023479709566915436,0.09690356060148622,40.106058693909645,-100.26678939585686,76.200527287817
2024-09-23 09:45:25.139886,41.23,10.970974,-0.0033329230534799477,-0.023479709566915436,0.0973512698629459,36.09446859390736,-100.26678939585686,92.24360919585227
2024-09-23 09:45:25.183214,41.23,10.971025,-0.0033329230534799477,-0.023479709566915436,0.0973512698629459,36.09446859390736,-104.27510100388527,80.21211738781929
2024-09-23 09:45:25.194762,41.23,10.971025,-0.003929857343101113,-0.023330473146428877,0.0966050877605131,36.09446859390736,-104.27510100388527,80.21211738781929
2024-09-23 09:45:25.237906,41.23,10.971075,-0.003482159473966507,-0.02352945757203875,0.0966050877605131,36.09446859390736,-96.25519929585457,76.200527287817
2024-09-23 09:45:25.280435,41.23,10.971075,-0.003482159473966507,-0.02352945757203875,0.09745075675933246,32.08287849390507,-96.25519929585457,76.200527287817
2024-09-23 09:45:25.291963,41.23,10.971126,-0.0037308827908396356,-0.02352945757203875,0.09745075675933246,32.08287849390507,-96.25519929585457,84.22370748782159
2024-09-23 09:45:25.334128,41.23,10.971263,-0.0037308827908396356,-0.02303200030545576,0.09715228999426605,32.08287849390507,-104.27510100388527,80.21211738781929
2024-09-23 09:45:25.378599,41.23,10.971263,-0.0030344509719951677,-0.024026904205785005,0.09745075675933246,32.08287849390507,-104.27510100388527,80.21211738781929
2024-09-23 09:45:25.389903,41.23,10.971263,-0.0030344509719951677,-0.024026904205785005,0.09745075675933246,32.08287849390507,-96.25519929585457,80.21211738781929
2024-09-23 09:45:25.432586,41.23,10.971315,-0.0038801188315820256,-0.023877669304275123,0.0970030596496862,44.11764879391193,-100.26678939585686,80.21211738781929
2024-09-23 09:45:25.475012,41.23,10.971365,-0.0030841997366068195,-0.023877669304275123,0.0970030596496862,44.11764879391193,-100.26678939585686,84.22370748782159
2024-09-23 09:45:25.486478,41.23,10.971365,-0.0030841997366068195,-0.023479709566915436,0.09710254654607277,36.09446859390736,-100.26678939585686,84.22370748782159
2024-09-23 09:45:25.528537,41.23,10.971416,-0.0037308827908396356,-0.02367869399252531,0.0973512698629459,36.09446859390736,-96.25519929585457,80.21211738781929
2024-09-23 09:45:25.570930,41.23,10.971416,-0.0037308827908396356,-0.02367869399252531,0.0973512698629459,36.09446859390736,-100.26678939585686,80.21211738781929
2024-09-23 09:45:25.582622,41.23,10.971467,-0.0037308827908396356,-0.023479709566915436,0.0973512698629459,36.09446859390736,-100.26678939585686,76.200527287817
2024-09-23 09:45:25.626240,41.23,10.971517,-0.0026862297461545674,-0.023479709566915436,0.09720203344245934,36.09446859390736,-88.23529758782387,88.23529758782387
2024-09-23 09:45:25.668270,41.23,10.971517,-0.0026862297461545674,-0.02338022115155219,0.09675432418099966,36.09446859390736,-88.23529758782387,88.23529758782387
2024-09-23 09:45:25.679411,41.23,10.971605,-0.0026862297461545674,-0.02338022115155219,0.09675432418099966,40.106058693909645,-96.25519929585457,80.21211738781929
2024-09-23 09:45:25.721896,41.23,10.971605,-0.003233425524256645,-0.023230986250042305,0.09645586349183995,40.106058693909645,-96.25519929585457,80.21211738781929
2024-09-23 09:45:25.735263,41.23,10.971605,-0.003233425524256645,-0.023230986250042305,0.09645586349183995,40.106058693909645,-96.25519929585457,72.1922225099802
2024-09-23 09:45:25.768760,41.23,10.971656,-0.0029847020175114316,-0.02352945757203875,0.09645586349183995,40.106058693909645,-96.25519929585457,72.1922225099802
2024-09-23 09:45:25.780515,41.23,10.971656,-0.0029847020175114316,-0.02352945757203875,0.09695331012558621,36.09446859390736,-88.23529758782387,72.1922225099802
2024-09-23 09:45:25.823665,41.23,10.971707,-0.002586742470023829,-0.02352945757203875,0.09695331012558621,36.09446859390736,-88.23529758782387,96.25519929585457
2024-09-23 09:45:25.867193,41.23,10.971707,-0.002586742470023829,-0.02362894446842532,0.09745075675933246,40.106058693909645,-100.26678939585686,96.25519929585457
2024-09-23 09:45:25.878445,41.23,10.971757,-0.002586742470023829,-0.02362894446842532,0.09745075675933246,40.106058693909645,-100.26678939585686,80.21211738781929
2024-09-23 09:45:25.912002,41.23,10.971757,-0.0031836870127375577,-0.02362894446842532,0.09745075675933246,40.106058693909645,-100.26678939585686,80.21211738781929
2024-09-23 09:45:25.922919,41.23,10.971757,-0.0031836870127375577,-0.02293251340906919,0.09745075675933246,32.08287849390507,-96.25519929585457,80.21211738781929
2024-09-23 09:45:25.964981,41.23,10.971808,-0.0035318979854855937,-0.023330473146428877,0.09715228999426605,32.08287849390507,-96.25519929585457,80.21211738781929
2024-09-23 09:45:25.977273,41.23,10.971808,-0.0035318979854855937,-0.023330473146428877,0.09715228999426605,40.106058693909645,-96.25519929585457,80.21211738781929
2024-09-23 09:45:26.009723,41.23,10.971808,-0.0035318979854855937,-0.023330473146428877,0.09715228999426605,40.106058693909645,-96.25519929585457,76.200527287817
2024-09-23 09:45:26.021413,41.23,10.971859,-0.0037308827908396356,-0.024026904205785005,0.09695331012558621,32.08287849390507,-96.25519929585457,76.200527287817
2024-09-23 09:45:26.115710,40.9,10.971946,-0.0035318979854855937,-0.024026904205785005,0.09695331012558621,32.08287849390507,-104.27510100388527,80.21211738781929
2024-09-23 09:45:26.159614,40.9,10.971946,-0.0035318979854855937,-0.02308174982955575,0.09750050628343246,44.11764879391193,-104.27510100388527,80.21211738781929
2024-09-23 09:45:26.170693,40.9,10.971997,-0.0035318979854855937,-0.02308174982955575,0.09750050628343246,44.11764879391193,-100.26678939585686,80.21211738781929
2024-09-23 09:45:26.204125,40.9,10.971997,-0.003233425524256645,-0.02308174982955575,0.09750050628343246,44.11764879391193,-100.26678939585686,80.21211738781929
2024-09-23 09:45:26.216049,40.9,10.971997,-0.003233425524256645,-0.02362894446842532,0.09720203344245934,40.106058693909645,-100.26678939585686,80.21211738781929
2024-09-23 09:45:26.259002,40.9,10.972048,-0.004079093383843503,-0.023230986250042305,0.09745075675933246,36.09446859390736,-100.26678939585686,80.21211738781929
2024-09-23 09:45:26.271147,40.9,10.972048,-0.004079093383843503,-0.023230986250042305,0.09745075675933246,36.09446859390736,-100.26678939585686,80.21211738781929
2024-09-23 09:45:26.304641,40.9,10.972141,-0.0031836870127375577,-0.023230986250042305,0.09745075675933246,36.09446859390736,-100.26678939585686,80.21211738781929
2024-09-23 09:45:26.316063,40.9,10.972141,-0.0031836870127375577,-0.02338022115155219,0.09705279702197278,28.07457030097246,-100.26678939585686,80.21211738781929
2024-09-23 09:45:26.359582,40.9,10.972239,-0.003382661564999035,-0.02367869399252531,0.09680407370509965,28.07457030097246,-96.25519929585457,76.200527287817
2024-09-23 09:45:26.402563,40.9,10.97229,-0.003382661564999035,-0.02367869399252531,0.09680407370509965,40.106058693909645,-88.23529758782387,76.200527287817
2024-09-23 09:45:26.414294,40.9,10.97229,-0.0036811340262279837,-0.02397715620066169,0.09680407370509965,40.106058693909645,-88.23529758782387,76.200527287817
2024-09-23 09:45:26.456829,40.9,10.972341,-0.0033329230534799477,-0.02397715620066169,0.09695331012558621,36.09446859390736,-88.23529758782387,80.21211738781929
2024-09-23 09:45:26.499357,40.9,10.972341,-0.0033329230534799477,-0.023280723622328886,0.09695331012558621,36.09446859390736,-88.23529758782387,80.21211738781929
2024-09-23 09:45:26.552398,40.9,10.972433,-0.0029847020175114316,-0.023280723622328886,0.09725178296655933,44.11764879391193,-100.26678939585686,80.21211738781929
2024-09-23 09:45:26.595426,40.9,10.972433,-0.0029847020175114316,-0.023778180888911878,0.09725178296655933,44.11764879391193,-100.26678939585686,80.21211738781929
2024-09-23 09:45:26.606567,40.9,10.972485,-0.0029847020175114316,-0.023778180888911878,0.09725178296655933,40.106058693909645,-100.26678939585686,72.1922225099802
2024-09-23 09:45:26.649321,40.9,10.972485,-0.0031339382481259063,-0.02352945757203875,0.09750050628343246,40.106058693909645,-104.27510100388527,72.1922225099802
2024-09-23 09:45:26.661232,40.9,10.972485,-0.0031339382481259063,-0.02352945757203875,0.09750050628343246,40.106058693909645,-104.27510100388527,76.200527287817
2024-09-23 09:45:26.692719,40.9,10.972535,-0.0036811340262279837,-0.02352945757203875,0.09750050628343246,40.106058693909645,-104.27510100388527,76.200527287817
2024-09-23 09:45:26.703836,40.9,10.972535,-0.0036811340262279837,-0.0228827638849692,0.0973015264147526,40.106058693909645,-96.25519929585457,76.200527287817
2024-09-23 09:45:26.746188,40.9,10.972586,-0.0029847020175114316,-0.024325377046758124,0.09690356060148622,40.106058693909645,-96.25519929585457,84.22370748782159
2024-09-23 09:45:26.757995,40.9,10.972586,-0.0029847020175114316,-0.024325377046758124,0.09690356060148622,36.09446859390736,-96.25519929585457,84.22370748782159
2024-09-23 09:45:26.790458,40.9,10.972586,-0.0029847020175114316,-0.024325377046758124,0.09690356060148622,36.09446859390736,-100.26678939585686,76.200527287817
2024-09-23 09:45:26.801541,40.9,10.972679,-0.0036811340262279837,-0.02308174982955575,0.09774922960030558,36.09446859390736,-100.26678939585686,76.200527287817
2024-09-23 09:45:26.843669,40.9,10.97273,-0.0036811340262279837,-0.02308174982955575,0.09774922960030558,32.08287849390507,-96.25519929585457,80.21211738781929
2024-09-23 09:45:26.856095,40.9,10.97273,-0.002785727465249955,-0.023579196463302005,0.09774922960030558,32.08287849390507,-96.25519929585457,80.21211738781929
2024-09-23 09:45:26.888458,40.9,10.97273,-0.002785727465249955,-0.023579196463302005,0.09759999317981902,40.106058693909645,-96.25519929585457,80.21211738781929
2024-09-23 09:45:26.899861,40.9,10.97278,-0.0030841997366068195,-0.023579196463302005,0.09759999317981902,40.106058693909645,-104.27510100388527,80.21211738781929
2024-09-23 09:45:26.943641,40.9,10.972872,-0.0030841997366068195,-0.023728432883788564,0.09690356060148622,32.08287849390507,-100.26678939585686,76.200527287817
2024-09-23 09:45:26.988713,40.9,10.972872,-0.003631395514708897,-0.023778180888911878,0.09670458680871308,32.08287849390507,-100.26678939585686,76.200527287817
2024-09-23 09:45:27.002407,40.9,10.972872,-0.003631395514708897,-0.023778180888911878,0.09670458680871308,36.09446859390736,-96.25519929585457,80.21211738781929
2024-09-23 09:45:27.034389,40.9,10.972924,-0.0035816467500972456,-0.023778180888911878,0.09670458680871308,36.09446859390736,-96.25519929585457,80.21211738781929
2024-09-23 09:45:27.046291,40.9,10.972924,-0.0035816467500972456,-0.024026904205785005,0.09680407370509965,32.08287849390507,-100.26678939585686,80.21211738781929
2024-09-23 09:45:27.088504,40.9,10.972974,-0.003233425524256645,-0.023479709566915436,0.09799795899308542,32.08287849390507,-100.26678939585686,80.21211738781929
2024-09-23 09:45:27.100350,40.9,10.972974,-0.003233425524256645,-0.023479709566915436,0.09799795899308542,40.106058693909645,-100.26678939585686,80.21211738781929
2024-09-23 09:45:27.133020,41.25,10.973025,-0.003233425524256645,-0.023479709566915436,0.09799795899308542,40.106058693909645,-104.27510100388527,76.200527287817
2024-09-23 09:45:27.185331,41.25,10.973025,-0.0030344509719951677,-0.024026904205785005,0.0970030596496862,36.09446859390736,-100.26678939585686,76.200527287817
2024-09-23 09:45:27.197565,41.25,10.973025,-0.0030344509719951677,-0.024026904205785005,0.0970030596496862,36.09446859390736,-100.26678939585686,80.21211738781929
2024-09-23 09:45:27.229106,41.25,10.973076,-0.0030344509719951677,-0.024026904205785005,0.0970030596496862,36.09446859390736,-100.26678939585686,80.21211738781929
2024-09-23 09:45:27.241372,41.25,10.973076,-0.0030344509719951677,-0.023330473146428877,0.09705279702197278,44.11764879391193,-96.25519929585457,80.21211738781929
2024-09-23 09:45:27.284287,41.25,10.973126,-0.003482159473966507,-0.023927417309398437,0.09670458680871308,40.106058693909645,-96.25519929585457,80.21211738781929
2024-09-23 09:45:27.326168,41.25,10.973126,-0.003482159473966507,-0.023927417309398437,0.09670458680871308,40.106058693909645,-108.28669110388756,76.200527287817
2024-09-23 09:45:27.337923,41.25,10.973213,-0.003482159473966507,-0.02352945757203875,0.09670458680871308,40.106058693909645,-108.28669110388756,76.200527287817
2024-09-23 09:45:27.380815,41.25,10.973264,-0.003482159473966507,-0.02352945757203875,0.09695331012558621,36.09446859390736,-104.27510100388527,76.200527287817
2024-09-23 09:45:27.392698,41.25,10.973264,-0.002636491424507565,-0.02352945757203875,0.09695331012558621,36.09446859390736,-104.27510100388527,76.200527287817
2024-09-23 09:45:27.426335,41.25,10.973264,-0.002636491424507565,-0.023330473146428877,0.0973015264147526,36.09446859390736,-104.27510100388527,76.200527287817
2024-09-23 09:45:27.438259,41.25,10.973315,-0.002636491424507565,-0.023330473146428877,0.0973015264147526,36.09446859390736,-96.25519929585457,80.21211738781929
2024-09-23 09:45:27.470818,41.25,10.973315,-0.0034324103296106863,-0.023330473146428877,0.0973015264147526,36.09446859390736,-96.25519929585457,80.21211738781929
2024-09-23 09:45:27.524685,41.25,10.973315,-0.0034324103296106863,-0.023429960042815445,0.09710254654607277,44.11764879391193,-96.25519929585457,80.21211738781929
2024-09-23 09:45:27.536035,41.25,10.973408,-0.0034324103296106863,-0.023429960042815445,0.09710254654607277,44.11764879391193,-100.26678939585686,80.21211738781929
2024-09-23 09:45:27.568702,41.25,10.973408,-0.003631395514708897,-0.023429960042815445,0.09710254654607277,44.11764879391193,-100.26678939585686,80.21211738781929
2024-09-23 09:45:27.580850,41.25,10.973408,-0.003631395514708897,-0.02367869399252531,0.09720203344245934,40.106058693909645,-92.24360919585227,72.1922225099802
2024-09-23 09:45:27.623342,41.25,10.97346,-0.0031339382481259063,-0.023479709566915436,0.09675432418099966,48.12595698684454,-92.24360919585227,72.1922225099802
2024-09-23 09:45:27.634963,41.25,10.97346,-0.0031339382481259063,-0.023479709566915436,0.09675432418099966,48.12595698684454,-96.25519929585457,72.1922225099802
2024-09-23 09:45:27.667770,41.25,10.973511,-0.0031339382481259063,-0.023479709566915436,0.09675432418099966,48.12595698684454,-96.25519929585457,76.200527287817
2024-09-23 09:45:27.678949,41.25,10.973511,-0.0031339382481259063,-0.023280723622328886,0.09690356060148622,36.09446859390736,-96.25519929585457,76.200527287817
2024-09-23 09:45:27.721675,41.25,10.973561,-0.003780631555451287,-0.02362894446842532,0.09690356060148622,36.09446859390736,-104.27510100388527,80.21211738781929
2024-09-23 09:45:27.733855,41.25,10.973561,-0.003780631555451287,-0.02362894446842532,0.09645586349183995,36.09446859390736,-104.27510100388527,80.21211738781929
2024-09-23 09:45:27.766868,41.25,10.973561,-0.003780631555451287,-0.02362894446842532,0.09645586349183995,40.106058693909645,-100.26678939585686,76.200527287817
2024-09-23 09:45:27.778392,41.25,10.973654,-0.0031339382481259063,-0.02352945757203875,0.09645586349183995,40.106058693909645,-100.26678939585686,76.200527287817
2024-09-23 09:45:27.820790,41.25,10.973705,-0.0029847020175114316,-0.02352945757203875,0.09715228999426605,36.09446859390736,-104.27510100388527,80.21211738781929
2024-09-23 09:45:27.863590,41.25,10.973705,-0.0029847020175114316,-0.02362894446842532,0.09745075675933246,44.11764879391193,-104.27510100388527,80.21211738781929
2024-09-23 09:45:27.874800,41.25,10.973798,-0.0029847020175114316,-0.02362894446842532,0.09745075675933246,44.11764879391193,-96.25519929585457,80.21211738781929
2024-09-23 09:45:27.917917,41.25,10.973798,-0.002785727465249955,-0.023230986250042305,0.09675432418099966,44.11764879391193,-100.26678939585686,80.21211738781929
2024-09-23 09:45:27.929365,41.25,10.973798,-0.002785727465249955,-0.023230986250042305,0.09675432418099966,44.11764879391193,-100.26678939585686,76.200527287817
2024-09-23 09:45:27.961950,41.25,10.97385,-0.0029847020175114316,-0.023827930413011865,0.09675432418099966,44.11764879391193,-100.26678939585686,76.200527287817
2024-09-23 09:45:27.973574,41.25,10.97385,-0.0029847020175114316,-0.023827930413011865,0.09680407370509965,36.09446859390736,-96.25519929585457,76.200527287817
2024-09-23 09:45:28.016137,41.25,10.973901,-0.0035816467500972456,-0.02313149783467906,0.09705279702197278,32.08287849390507,-96.25519929585457,80.21211738781929
2024-09-23 09:45:28.060080,41.25,10.973951,-0.0035816467500972456,-0.02313149783467906,0.09705279702197278,32.08287849390507,-96.25519929585457,80.21211738781929
2024-09-23 09:45:28.072240,41.25,10.973951,-0.0035816467500972456,-0.023778180888911878,0.09745075675933246,32.08287849390507,-96.25519929585457,80.21211738781929
2024-09-23 09:45:28.104770,41.25,10.973951,-0.0035816467500972456,-0.023778180888911878,0.09745075675933246,32.08287849390507,-96.25519929585457,80.21211738781929
2024-09-23 09:45:28.117134,41.25,10.974002,-0.0029349636958644295,-0.023479709566915436,0.09745075675933246,32.08287849390507,-96.25519929585457,80.21211738781929
2024-09-23 09:45:28.159132,41.7,10.974002,-0.0029349636958644295,-0.023479709566915436,0.09740101331113918,44.11764879391193,-92.24360919585227,84.22370748782159
2024-09-23 09:45:28.171971,41.7,10.974053,-0.0032831742888682963,-0.023479709566915436,0.09740101331113918,44.11764879391193,-92.24360919585227,84.22370748782159
2024-09-23 09:45:28.204555,41.7,10.974053,-0.0032831742888682963,-0.023927417309398437,0.09720203344245934,44.11764879391193,-92.24360919585227,84.22370748782159
2024-09-23 09:45:28.215586,41.7,10.97414,-0.0032831742888682963,-0.023927417309398437,0.09720203344245934,44.11764879391193,-100.26678939585686,80.21211738781929
2024-09-23 09:45:28.257430,41.7,10.97414,-0.0038801188315820256,-0.023778180888911878,0.0970030596496862,40.106058693909645,-100.26678939585686,80.21211738781929
2024-09-23 09:45:28.269202,41.7,10.97414,-0.0038801188315820256,-0.023778180888911878,0.0970030596496862,40.106058693909645,-100.26678939585686,80.21211738781929
2024-09-23 09:45:28.302862,41.7,10.974191,-0.0031339382481259063,-0.02338022115155219,0.0970030596496862,40.106058693909645,-100.26678939585686,80.21211738781929
2024-09-23 09:45:28.314877,41.7,10.974191,-0.0031339382481259063,-0.02338022115155219,0.09690356060148622,36.09446859390736,-100.26678939585686,80.21211738781929
2024-09-23 09:45:28.357707,41.7,10.974242,-0.0029349636958644295,-0.02338022115155219,0.09779897304849887,40.106058693909645,-100.26678939585686,80.21211738781929
2024-09-23 09:45:28.400664,41.7,10.974293,-0.0029349636958644295,-0.02338022115155219,0.09779897304849887,40.106058693909645,-96.25519929585457,80.21211738781929
2024-09-23 09:45:28.412519,41.7,10.974293,-0.0037308827908396356,-0.023280723622328886,0.0966050877605131,40.106058693909645,-96.25519929585457,80.21211738781929
2024-09-23 09:45:28.455355,41.7,10.974343,-0.0028354659767690416,-0.02397715620066169,0.0966050877605131,44.11764879391193,-104.27510100388527,80.21211738781929
2024-09-23 09:45:28.497583,41.7,10.974343,-0.0028354659767690416,-0.02397715620066169,0.09750050628343246,40.106058693909645,-100.26678939585686,80.21211738781929
2024-09-23 09:45:28.509087,41.7,10.974394,-0.0033329230534799477,-0.02397715620066169,0.09750050628343246,40.106058693909645,-100.26678939585686,76.200527287817
2024-09-23 09:45:28.551677,41.7,10.974394,-0.0033329230534799477,-0.02338022115155219,0.0973015264147526,32.08287849390507,-96.25519929585457,76.200527287817
2024-09-23 09:45:28.563421,41.7,10.974481,-0.0033329230534799477,-0.02338022115155219,0.0973015264147526,32.08287849390507,-96.25519929585457,76.200527287817
2024-09-23 09:45:28.595957,41.7,10.974481,-0.0030841997366068195,-0.02367869399252531,0.09690356060148622,32.08287849390507,-96.25519929585457,76.200527287817
2024-09-23 09:45:28.607076,41.7,10.974481,-0.0030841997366068195,-0.02367869399252531,0.09690356060148622,40.106058693909645,-100.26678939585686,76.200527287817
2024-09-23 09:45:28.650255,41.7,10.974532,-0.0035816467500972456,-0.023827930413011865,0.09740101331113918,36.09446859390736,-104.27510100388527,76.200527287817
2024-09-23 09:45:28.692427,41.7,10.974583,-0.0035816467500972456,-0.023827930413011865,0.09740101331113918,36.09446859390736,-104.27510100388527,80.21211738781929
2024-09-23 09:45:28.704198,41.7,10.974583,-0.0034324103296106863,-0.02362894446842532,0.0973512698629459,40.106058693909645,-104.27510100388527,80.21211738781929
2024-09-23 09:45:28.747351,41.7,10.974634,-0.0035318979854855937,-0.023877669304275123,0.09685382322919964,40.106058693909645,-92.24360919585227,84.22370748782159
2024-09-23 09:45:28.789098,41.7,10.974634,-0.0035318979854855937,-0.023877669304275123,0.09685382322919964,40.106058693909645,-96.25519929585457,84.22370748782159
2024-09-23 09:45:28.800616,41.7,10.974684,-0.0028354659767690416,-0.023479709566915436,0.09685382322919964,40.106058693909645,-96.25519929585457,80.21211738781929
2024-09-23 09:45:28.844371,41.7,10.974735,-0.0028354659767690416,-0.023479709566915436,0.09705279702197278,48.12595698684454,-100.26678939585686,76.200527287817
2024-09-23 09:45:28.856105,41.7,10.974735,-0.0033329230534799477,-0.023479709566915436,0.09705279702197278,48.12595698684454,-100.26678939585686,76.200527287817
2024-09-23 09:45:28.888786,41.7,10.974735,-0.0033329230534799477,-0.02352945757203875,0.09705279702197278,32.08287849390507,-100.26678939585686,76.200527287817
2024-09-23 09:45:28.900510,41.7,10.974822,-0.0033329230534799477,-0.02352945757203875,0.09705279702197278,32.08287849390507,-104.27510100388527,76.200527287817
2024-09-23 09:45:28.943245,41.7,10.974822,-0.0033329230534799477,-0.02352945757203875,0.09705279702197278,32.08287849390507,-104.27510100388527,76.200527287817
2024-09-23 09:45:28.985846,41.7,10.974822,-0.0033329230534799477,-0.023280723622328886,0.09705279702197278,32.08287849390507,-104.27510100388527,76.200527287817
2024-09-23 09:45:29.038013,41.7,10.974874,-0.0033329230534799477,-0.023280723622328886,0.0973015264147526,36.09446859390736,-100.26678939585686,80.21211738781929
2024-09-23 09:45:29.050716,41.7,10.974874,-0.0031836870127375577,-0.023280723622328886,0.0973015264147526,36.09446859390736,-100.26678939585686,80.21211738781929
2024-09-23 09:45:29.083380,41.7,10.974874,-0.0031836870127375577,-0.02362894446842532,0.09665483728461309,40.106058693909645,-100.26678939585686,80.21211738781929
2024-09-23 09:45:29.094872,41.7,10.974924,-0.0031836870127375577,-0.02362894446842532,0.09665483728461309,40.106058693909645,-104.27510100388527,72.1922225099802
2024-09-23 09:45:29.137408,41.7,10.974924,-0.0033329230534799477,-0.023280723622328886,0.09705279702197278,44.11764879391193,-96.25519929585457,72.1922225099802
2024-09-23 09:45:29.179919,42.13,10.974975,-0.0029847020175114316,-0.023280723622328886,0.09705279702197278,44.11764879391193,-96.25519929585457,72.1922225099802
2024-09-23 09:45:29.233359,42.13,10.974975,-0.0029847020175114316,-0.024424863943144692,0.09710254654607277,32.08287849390507,-96.25519929585457,72.1922225099802
2024-09-23 09:45:29.276027,42.13,10.974975,-0.0029847020175114316,-0.024424863943144692,0.09710254654607277,32.08287849390507,-100.26678939585686,72.1922225099802
2024-09-23 09:45:29.287882,42.13,10.975026,-0.003482159473966507,-0.023479709566915436,0.09720203344245934,32.08287849390507,-100.26678939585686,80.21211738781929
2024-09-23 09:45:29.330438,42.13,10.975165,-0.0031339382481259063,-0.023479709566915436,0.09720203344245934,36.09446859390736,-100.26678939585686,84.22370748782159
2024-09-23 09:45:29.342200,42.13,10.975165,-0.0031339382481259063,-0.023728432883788564,0.09720203344245934,36.09446859390736,-100.26678939585686,84.22370748782159
2024-09-23 09:45:29.373894,42.13,10.975165,-0.0031339382481259063,-0.023728432883788564,0.09690356060148622,36.09446859390736,-100.26678939585686,84.22370748782159
2024-09-23 09:45:29.385330,42.13,10.975216,-0.0028354659767690416,-0.023728432883788564,0.09690356060148622,36.09446859390736,-96.25519929585457,80.21211738781929
2024-09-23 09:45:29.427503,42.13,10.975216,-0.0028354659767690416,-0.023877669304275123,0.0966050877605131,36.09446859390736,-100.26678939585686,80.21211738781929
2024-09-23 09:45:29.439714,42.13,10.975266,-0.0028354659767690416,-0.023877669304275123,0.0966050877605131,36.09446859390736,-100.26678939585686,80.21211738781929
2024-09-23 09:45:29.471810,42.13,10.975266,-0.0033329230534799477,-0.02352945757203875,0.0966050877605131,36.09446859390736,-100.26678939585686,80.21211738781929
2024-09-23 09:45:29.483095,42.13,10.975266,-0.0033329230534799477,-0.02352945757203875,0.09690356060148622,40.106058693909645,-100.26678939585686,76.200527287817
2024-09-23 09:45:29.525715,42.13,10.975408,-0.0032831742888682963,-0.022982261414192504,0.09720203344245934,32.08287849390507,-100.26678939585686,76.200527287817
2024-09-23 09:45:29.537935,42.13,10.975408,-0.0032831742888682963,-0.022982261414192504,0.09720203344245934,32.08287849390507,-100.26678939585686,76.200527287817
2024-09-23 09:45:29.570932,42.13,10.975459,-0.0036811340262279837,-0.022982261414192504,0.09720203344245934,32.08287849390507,-100.26678939585686,84.22370748782159
2024-09-23 09:45:29.582481,42.13,10.975459,-0.0036811340262279837,-0.02352945757203875,0.09705279702197278,40.106058693909645,-100.26678939585686,84.22370748782159
2024-09-23 09:45:29.624706,42.13,10.97551,-0.0027359787006383035,-0.02412639262114825,0.09695331012558621,40.106058693909645,-100.26678939585686,76.200527287817
2024-09-23 09:45:29.667400,42.13,10.97551,-0.0027359787006383035,-0.02412639262114825,0.09695331012558621,36.09446859390736,-100.26678939585686,84.22370748782159
2024-09-23 09:45:29.678795,42.13,10.97556,-0.0030841997366068195,-0.02367869399252531,0.09695331012558621,36.09446859390736,-100.26678939585686,84.22370748782159
2024-09-23 09:45:29.720951,42.13,10.975611,-0.0029349636958644295,-0.02367869399252531,0.09690356060148622,40.106058693909645,-104.27510100388527,80.21211738781929
2024-09-23 09:45:29.764131,42.13,10.975611,-0.0029349636958644295,-0.023579196463302005,0.09715228999426605,40.106058693909645,-104.27510100388527,80.21211738781929
2024-09-23 09:45:29.775627,42.13,10.9757,-0.0029349636958644295,-0.023579196463302005,0.09715228999426605,44.11764879391193,-96.25519929585457,80.21211738781929
2024-09-23 09:45:29.819054,42.13,10.9757,-0.0036811340262279837,-0.023778180888911878,0.09705279702197278,40.106058693909645,-92.24360919585227,80.21211738781929
2024-09-23 09:45:29.830503,42.13,10.9757,-0.0036811340262279837,-0.023778180888911878,0.09705279702197278,40.106058693909645,-92.24360919585227,76.200527287817
2024-09-23 09:45:29.862482,42.13,10.975751,-0.003482159473966507,-0.023280723622328886,0.09705279702197278,40.106058693909645,-92.24360919585227,76.200527287817
2024-09-23 09:45:29.873589,42.13,10.975751,-0.003482159473966507,-0.023280723622328886,0.09710254654607277,40.106058693909645,-100.26678939585686,76.200527287817
2024-09-23 09:45:29.916140,42.13,10.975802,-0.0032831742888682963,-0.023927417309398437,0.09705279702197278,44.11764879391193,-100.26678939585686,80.21211738781929
2024-09-23 09:45:29.959357,42.13,10.975802,-0.0032831742888682963,-0.023927417309398437,0.09705279702197278,44.11764879391193,-100.26678939585686,80.21211738781929
2024-09-23 09:45:29.971279,42.13,10.975853,-0.003482159473966507,-0.023877669304275123,0.09685382322919964,44.11764879391193,-100.26678939585686,80.21211738781929
2024-09-23 09:45:30.014867,42.13,10.975903,-0.0030841997366068195,-0.023877669304275123,0.09685382322919964,32.08287849390507,-104.27510100388527,80.21211738781929
2024-09-23 09:45:30.026609,42.13,10.975903,-0.0030841997366068195,-0.02367869399252531,0.09685382322919964,32.08287849390507,-104.27510100388527,80.21211738781929
2024-09-23 09:45:30.059239,42.13,10.975903,-0.0030841997366068195,-0.02367869399252531,0.09720203344245934,36.09446859390736,-100.26678939585686,80.21211738781929
2024-09-23 09:45:30.070963,42.13,10.975954,-0.0035816467500972456,-0.02367869399252531,0.09720203344245934,36.09446859390736,-100.26678939585686,80.21211738781929
2024-09-23 09:45:30.102955,42.13,10.975954,-0.0035816467500972456,-0.023330473146428877,0.09720203344245934,36.09446859390736,-100.26678939585686,80.21211738781929
2024-09-23 09:45:30.113915,42.13,10.976041,-0.0035816467500972456,-0.023330473146428877,0.0973015264147526,36.09446859390736,-96.25519929585457,76.200527287817
2024-09-23 09:45:30.155906,42.13,10.976041,-0.0028852147413806935,-0.023280723622328886,0.09675432418099966,36.09446859390736,-96.25519929585457,76.200527287817
2024-09-23 09:45:30.167469,42.13,10.976041,-0.0028852147413806935,-0.023280723622328886,0.09675432418099966,40.106058693909645,-96.25519929585457,72.1922225099802
2024-09-23 09:45:30.210829,42.66,10.976092,-0.0032831742888682963,-0.02367869399252531,0.09710254654607277,40.106058693909645,-92.24360919585227,72.1922225099802
2024-09-23 09:45:30.253129,42.66,10.976143,-0.0034324103296106863,-0.02367869399252531,0.09710254654607277,40.106058693909645,-92.24360919585227,76.200527287817
2024-09-23 09:45:30.264684,42.66,10.976143,-0.0034324103296106863,-0.02338022115155219,0.09685382322919964,40.106058693909645,-92.24360919585227,76.200527287817
2024-09-23 09:45:30.308093,42.66,10.976194,-0.0031836870127375577,-0.023728432883788564,0.09685382322919964,48.12595698684454,-100.26678939585686,76.200527287817
2024-09-23 09:45:30.349945,42.66,10.976194,-0.0031836870127375577,-0.023728432883788564,0.0970030596496862,36.09446859390736,-92.24360919585227,76.200527287817
2024-09-23 09:45:30.361202,42.66,10.976244,-0.0031836870127375577,-0.023728432883788564,0.0970030596496862,36.09446859390736,-92.24360919585227,76.200527287817
2024-09-23 09:45:30.403715,42.66,10.976295,-0.0031836870127375577,-0.023579196463302005,0.09715228999426605,36.09446859390736,-96.25519929585457,80.21211738781929
2024-09-23 09:45:30.447690,42.66,10.976295,-0.0029349636958644295,-0.023429960042815445,0.09715228999426605,36.09446859390736,-96.25519929585457,80.21211738781929
2024-09-23 09:45:30.459079,42.66,10.976295,-0.0029349636958644295,-0.023429960042815445,0.09685382322919964,32.08287849390507,-100.26678939585686,80.21211738781929
2024-09-23 09:45:30.502212,42.66,10.976382,-0.003631395514708897,-0.023579196463302005,0.0970030596496862,32.08287849390507,-96.25519929585457,80.21211738781929
2024-09-23 09:45:30.545482,42.66,10.976434,-0.003482159473966507,-0.023579196463302005,0.0970030596496862,32.08287849390507,-96.25519929585457,84.22370748782159
2024-09-23 09:45:30.557136,42.66,10.976434,-0.003482159473966507,-0.02412639262114825,0.09670458680871308,36.09446859390736,-96.25519929585457,84.22370748782159
2024-09-23 09:45:30.640791,42.66,10.976434,-0.003482159473966507,-0.02412639262114825,0.09670458680871308,36.09446859390736,-104.27510100388527,84.22370748782159
2024-09-23 09:45:30.652247,42.66,10.976484,-0.003482159473966507,-0.02303200030545576,0.09705279702197278,36.09446859390736,-104.27510100388527,72.1922225099802
2024-09-23 09:45:30.695205,42.66,10.976535,-0.003482159473966507,-0.02303200030545576,0.09705279702197278,36.09446859390736,-92.24360919585227,76.200527287817
2024-09-23 09:45:30.707235,42.66,10.976535,-0.003482159473966507,-0.023877669304275123,0.09705279702197278,36.09446859390736,-92.24360919585227,76.200527287817
2024-09-23 09:45:30.739201,42.66,10.976535,-0.003482159473966507,-0.023877669304275123,0.0970030596496862,36.09446859390736,-92.24360919585227,76.200527287817
2024-09-23 09:45:30.751011,42.66,10.976586,-0.003233425524256645,-0.023877669304275123,0.0970030596496862,40.106058693909645,-96.25519929585457,84.22370748782159
2024-09-23 09:45:30.792903,42.66,10.976586,-0.003233425524256645,-0.023778180888911878,0.09745075675933246,36.09446859390736,-100.26678939585686,80.21211738781929
2024-09-23 09:45:30.805180,42.66,10.976675,-0.003233425524256645,-0.023778180888911878,0.09745075675933246,36.09446859390736,-100.26678939585686,80.21211738781929
2024-09-23 09:45:30.838321,42.66,10.976675,-0.0031339382481259063,-0.023280723622328886,0.09670458680871308,36.09446859390736,-100.26678939585686,80.21211738781929
2024-09-23 09:45:30.850231,42.66,10.976675,-0.0031339382481259063,-0.023280723622328886,0.09670458680871308,36.09446859390736,-96.25519929585457,80.21211738781929
2024-09-23 09:45:30.893438,42.66,10.976773,-0.0030841997366068195,-0.023778180888911878,0.09685382322919964,32.08287849390507,-100.26678939585686,80.21211738781929
2024-09-23 09:45:30.937091,42.66,10.976824,-0.0030344509719951677,-0.024325377046758124,0.09685382322919964,32.08287849390507,-100.26678939585686,80.21211738781929
2024-09-23 09:45:30.948310,42.66,10.976824,-0.0030344509719951677,-0.024325377046758124,0.09715228999426605,44.11764879391193,-100.26678939585686,80.21211738781929
2024-09-23 09:45:30.981142,42.66,10.976824,-0.0030344509719951677,-0.024325377046758124,0.09715228999426605,44.11764879391193,-100.26678939585686,80.21211738781929
2024-09-23 09:45:30.992998,42.66,10.976875,-0.003233425524256645,-0.023429960042815445,0.09665483728461309,44.11764879391193,-100.26678939585686,76.200527287817
2024-09-23 09:45:31.035937,42.66,10.976925,-0.003482159473966507,-0.023429960042815445,0.09665483728461309,40.106058693909645,-100.26678939585686,80.21211738781929
2024-09-23 09:45:31.048132,42.66,10.976925,-0.003482159473966507,-0.023181236725942318,0.09665483728461309,40.106058693909645,-100.26678939585686,80.21211738781929
2024-09-23 09:45:31.080621,42.66,10.976925,-0.003482159473966507,-0.023181236725942318,0.09725178296655933,32.08287849390507,-100.26678939585686,80.21211738781929
2024-09-23 09:45:31.092237,42.66,10.976976,-0.003382661564999035,-0.023181236725942318,0.09725178296655933,32.08287849390507,-100.26678939585686,80.21211738781929
2024-09-23 09:45:31.135159,42.66,10.976976,-0.003382661564999035,-0.02362894446842532,0.09695331012558621,28.07457030097246,-92.24360919585227,80.21211738781929
2024-09-23 09:45:31.146814,42.66,10.977065,-0.003382661564999035,-0.02362894446842532,0.09695331012558621,28.07457030097246,-92.24360919585227,80.21211738781929
2024-09-23 09:45:31.179577,42.66,10.977065,-0.003631395514708897,-0.023579196463302005,0.09695331012558621,28.07457030097246,-92.24360919585227,80.21211738781929
2024-09-23 09:45:31.190496,42.66,10.977065,-0.003631395514708897,-0.023579196463302005,0.09695331012558621,32.08287849390507,-96.25519929585457,80.21211738781929
2024-09-23 09:45:31.233681,42.68,10.977116,-0.0030344509719951677,-0.02362894446842532,0.09715228999426605,32.08287849390507,-92.24360919585227,80.21211738781929
2024-09-23 09:45:31.276336,42.68,10.977167,-0.0030344509719951677,-0.02362894446842532,0.09715228999426605,32.08287849390507,-92.24360919585227,84.22370748782159
2024-09-23 09:45:31.288539,42.68,10.977167,-0.0030344509719951677,-0.024225890150371555,0.09680407370509965,32.08287849390507,-92.24360919585227,84.22370748782159
2024-09-23 09:45:31.331492,42.68,10.977217,-0.0032831742888682963,-0.02397715620066169,0.09720203344245934,32.08287849390507,-92.24360919585227,84.22370748782159
2024-09-23 09:45:31.373847,42.68,10.977217,-0.0032831742888682963,-0.02397715620066169,0.09720203344245934,32.08287849390507,-96.25519929585457,84.22370748782159
2024-09-23 09:45:31.385097,42.68,10.977268,-0.0031339382481259063,-0.023280723622328886,0.09720203344245934,32.08287849390507,-96.25519929585457,84.22370748782159
2024-09-23 09:45:31.428565,42.68,10.977319,-0.0032831742888682963,-0.023280723622328886,0.09710254654607277,32.08287849390507,-96.25519929585457,80.21211738781929
2024-09-23 09:45:31.470264,42.68,10.977319,-0.0032831742888682963,-0.024076653729884996,0.0973512698629459,32.08287849390507,-96.25519929585457,80.21211738781929
2024-09-23 09:45:31.481463,42.68,10.977319,-0.0032831742888682963,-0.024076653729884996,0.0973512698629459,36.09446859390736,-96.25519929585457,88.23529758782387
2024-09-23 09:45:31.524037,42.68,10.977406,-0.0030841997366068195,-0.023579196463302005,0.0973512698629459,40.106058693909645,-96.25519929585457,88.23529758782387
2024-09-23 09:45:31.536724,42.68,10.977406,-0.0030841997366068195,-0.023579196463302005,0.0973512698629459,40.106058693909645,-96.25519929585457,88.23529758782387
2024-09-23 09:45:31.568808,42.68,10.977458,-0.0028852147413806935,-0.023579196463302005,0.0973512698629459,40.106058693909645,-96.25519929585457,84.22370748782159
2024-09-23 09:45:31.579914,42.68,10.977458,-0.0028852147413806935,-0.023827930413011865,0.09675432418099966,40.106058693909645,-96.25519929585457,84.22370748782159
2024-09-23 09:45:31.622441,42.68,10.977509,-0.0033329230534799477,-0.023429960042815445,0.09725178296655933,40.106058693909645,-96.25519929585457,80.21211738781929
2024-09-23 09:45:31.664774,42.68,10.977509,-0.0033329230534799477,-0.023429960042815445,0.09725178296655933,40.106058693909645,-88.23529758782387,80.21211738781929
2024-09-23 09:45:31.676561,42.68,10.977559,-0.0032831742888682963,-0.02303200030545576,0.09725178296655933,40.106058693909645,-88.23529758782387,80.21211738781929
2024-09-23 09:45:31.718915,42.68,10.977559,-0.0032831742888682963,-0.02303200030545576,0.09685382322919964,36.09446859390736,-92.24360919585227,80.21211738781929
2024-09-23 09:45:31.730628,42.68,10.97761,-0.0029349636958644295,-0.02303200030545576,0.09685382322919964,36.09446859390736,-92.24360919585227,80.21211738781929
2024-09-23 09:45:31.762966,42.68,10.97761,-0.0029349636958644295,-0.02362894446842532,0.09725178296655933,36.09446859390736,-92.24360919585227,80.21211738781929
2024-09-23 09:45:31.774875,42.68,10.977698,-0.0029349636958644295,-0.02362894446842532,0.09725178296655933,32.08287849390507,-100.26678939585686,80.21211738781929
2024-09-23 09:45:31.818535,42.68,10.977698,-0.003382661564999035,-0.023479709566915436,0.09705279702197278,36.09446859390736,-96.25519929585457,80.21211738781929
2024-09-23 09:45:31.862007,42.68,10.97775,-0.0038303700669703737,-0.023877669304275123,0.09705279702197278,36.09446859390736,-96.25519929585457,80.21211738781929
2024-09-23 09:45:31.873738,42.68,10.97775,-0.0038303700669703737,-0.023877669304275123,0.0973512698629459,36.09446859390736,-92.24360919585227,80.21211738781929
2024-09-23 09:45:31.916181,42.68,10.977801,-0.0031836870127375577,-0.02352945757203875,0.09705279702197278,36.09446859390736,-92.24360919585227,76.200527287817
2024-09-23 09:45:31.960039,42.68,10.977851,-0.0031836870127375577,-0.02352945757203875,0.09705279702197278,36.09446859390736,-92.24360919585227,84.22370748782159
2024-09-23 09:45:31.971411,42.68,10.977851,-0.0034324103296106863,-0.023280723622328886,0.0970030596496862,36.09446859390736,-92.24360919585227,84.22370748782159
2024-09-23 09:45:32.014070,42.68,10.977902,-0.003631395514708897,-0.02362894446842532,0.0970030596496862,40.106058693909645,-100.26678939585686,80.21211738781929
2024-09-23 09:45:32.056129,42.68,10.977902,-0.003631395514708897,-0.02362894446842532,0.09720203344245934,36.09446859390736,-96.25519929585457,80.21211738781929
2024-09-23 09:45:32.068535,42.68,10.977953,-0.0030344509719951677,-0.02362894446842532,0.09720203344245934,36.09446859390736,-96.25519929585457,80.21211738781929
2024-09-23 09:45:32.112437,42.68,10.97804,-0.0030344509719951677,-0.023579196463302005,0.0970030596496862,32.08287849390507,-100.26678939585686,80.21211738781929
2024-09-23 09:45:32.154561,42.68,10.97804,-0.0027359787006383035,-0.02397715620066169,0.09690356060148622,32.08287849390507,-100.26678939585686,80.21211738781929
2024-09-23 09:45:32.166173,42.68,10.97804,-0.0027359787006383035,-0.02397715620066169,0.09690356060148622,32.08287849390507,-96.25519929585457,80.21211738781929
2024-09-23 09:45:32.210241,42.68,10.978091,-0.0030841997366068195,-0.02362894446842532,0.09695331012558621,44.11764879391193,-108.28669110388756,80.21211738781929
2024-09-23 09:45:32.252986,42.21,10.978142,-0.003482159473966507,-0.023728432883788564,0.09695331012558621,44.11764879391193,-108.28669110388756,76.200527287817
2024-09-23 09:45:32.264558,42.21,10.978142,-0.003482159473966507,-0.023728432883788564,0.09759999317981902,40.106058693909645,-108.28669110388756,76.200527287817
2024-09-23 09:45:32.296524,42.21,10.978142,-0.003482159473966507,-0.023728432883788564,0.09759999317981902,40.106058693909645,-104.27510100388527,76.200527287817
2024-09-23 09:45:32.308625,42.21,10.978192,-0.0030841997366068195,-0.023429960042815445,0.09680407370509965,40.106058693909645,-104.27510100388527,76.200527287817
2024-09-23 09:45:32.351338,42.21,10.978243,-0.0030841997366068195,-0.023429960042815445,0.09680407370509965,36.09446859390736,-96.25519929585457,80.21211738781929
2024-09-23 09:45:32.362355,42.21,10.978243,-0.0035318979854855937,-0.024225890150371555,0.09680407370509965,36.09446859390736,-96.25519929585457,80.21211738781929
2024-09-23 09:45:32.394494,42.21,10.978243,-0.0035318979854855937,-0.024225890150371555,0.09725178296655933,36.09446859390736,-96.25519929585457,80.21211738781929
2024-09-23 09:45:32.405895,42.21,10.978294,-0.003482159473966507,-0.024225890150371555,0.09725178296655933,40.106058693909645,-100.26678939585686,80.21211738781929
2024-09-23 09:45:32.449590,42.21,10.978294,-0.003482159473966507,-0.023479709566915436,0.09740101331113918,36.09446859390736,-96.25519929585457,76.200527287817
2024-09-23 09:45:32.461318,42.21,10.978381,-0.003482159473966507,-0.023479709566915436,0.09740101331113918,36.09446859390736,-96.25519929585457,76.200527287817
2024-09-23 09:45:32.494342,42.21,10.978381,-0.0033329230534799477,-0.02367869399252531,0.09740101331113918,36.09446859390736,-96.25519929585457,76.200527287817
2024-09-23 09:45:32.505688,42.21,10.978381,-0.0033329230534799477,-0.02367869399252531,0.09690356060148622,44.11764879391193,-88.23529758782387,80.21211738781929
2024-09-23 09:45:32.547345,42.21,10.978432,-0.0037308827908396356,-0.0228827638849692,0.09720203344245934,44.11764879391193,-88.23529758782387,80.21211738781929
2024-09-23 09:45:32.590419,42.21,10.978432,-0.0037308827908396356,-0.0228827638849692,0.09720203344245934,36.09446859390736,-88.23529758782387,80.21211738781929
2024-09-23 09:45:32.601618,42.21,10.978483,-0.002785727465249955,-0.023728432883788564,0.09720203344245934,36.09446859390736,-96.25519929585457,76.200527287817
2024-09-23 09:45:32.643749,42.21,10.978483,-0.002785727465249955,-0.023728432883788564,0.09675432418099966,40.106058693909645,-100.26678939585686,80.21211738781929
2024-09-23 09:45:32.655481,42.21,10.978534,-0.002785727465249955,-0.023728432883788564,0.09675432418099966,40.106058693909645,-100.26678939585686,80.21211738781929
2024-09-23 09:45:32.690256,42.21,10.978534,-0.002785727465249955,-0.022982261414192504,0.09675432418099966,40.106058693909645,-100.26678939585686,80.21211738781929
2024-09-23 09:45:32.701340,42.21,10.978534,-0.002785727465249955,-0.022982261414192504,0.09710254654607277,36.09446859390736,-104.27510100388527,76.200527287817
2024-09-23 09:45:32.743544,42.21,10.978584,-0.0032831742888682963,-0.02308174982955575,0.09755024973162574,36.09446859390736,-104.27510100388527,76.200527287817
2024-09-23 09:45:32.755198,42.21,10.978584,-0.0032831742888682963,-0.02308174982955575,0.09755024973162574,36.09446859390736,-104.27510100388527,76.200527287817
2024-09-23 09:45:32.787234,42.21,10.978635,-0.0032831742888682963,-0.02308174982955575,0.09755024973162574,36.09446859390736,-104.27510100388527,84.22370748782159
2024-09-23 09:45:32.798761,42.21,10.978635,-0.0028354659767690416,-0.023579196463302005,0.09680407370509965,44.11764879391193,-104.27510100388527,84.22370748782159
2024-09-23 09:45:32.842339,42.21,10.978723,-0.0037308827908396356,-0.02397715620066169,0.09740101331113918,44.11764879391193,-100.26678939585686,76.200527287817
2024-09-23 09:45:32.883974,42.21,10.978723,-0.0037308827908396356,-0.02397715620066169,0.09740101331113918,40.106058693909645,-100.26678939585686,76.200527287817
2024-09-23 09:45:32.895512,42.21,10.978774,-0.002586742470023829,-0.023827930413011865,0.09740101331113918,40.106058693909645,-100.26678939585686,76.200527287817
2024-09-23 09:45:32.939628,42.21,10.978825,-0.0026862297461545674,-0.023827930413011865,0.0973015264147526,32.08287849390507,-100.26678939585686,80.21211738781929
2024-09-23 09:45:32.981792,42.21,10.978825,-0.0026862297461545674,-0.02352945757203875,0.09750050628343246,32.08287849390507,-100.26678939585686,80.21211738781929
2024-09-23 09:45:32.993576,42.21,10.978917,-0.0026862297461545674,-0.02352945757203875,0.09750050628343246,36.09446859390736,-92.24360919585227,80.21211738781929
2024-09-23 09:45:33.036060,42.21,10.978917,-0.0028852147413806935,-0.023579196463302005,0.09764974270391902,36.09446859390736,-96.25519929585457,76.200527287817
2024-09-23 09:45:33.080382,42.21,10.978969,-0.003979606107712764,-0.023429960042815445,0.09764974270391902,36.09446859390736,-96.25519929585457,76.200527287817
2024-09-23 09:45:33.091949,42.21,10.978969,-0.003979606107712764,-0.023429960042815445,0.09720203344245934,44.11764879391193,-96.25519929585457,76.200527287817
2024-09-23 09:45:33.134162,42.21,10.979019,-0.0030841997366068195,-0.023230986250042305,0.09680407370509965,40.106058693909645,-96.25519929585457,76.200527287817
2024-09-23 09:45:33.177483,42.21,10.97907,-0.0030841997366068195,-0.023230986250042305,0.09680407370509965,40.106058693909645,-100.26678939585686,84.22370748782159
2024-09-23 09:45:33.189719,42.21,10.97907,-0.0033329230534799477,-0.023429960042815445,0.0970030596496862,40.106058693909645,-100.26678939585686,84.22370748782159
2024-09-23 09:45:33.232807,42.21,10.979121,-0.003482159473966507,-0.023579196463302005,0.0970030596496862,36.09446859390736,-96.25519929585457,80.21211738781929
2024-09-23 09:45:33.275363,42.3,10.979121,-0.003482159473966507,-0.023579196463302005,0.09710254654607277,36.09446859390736,-96.25519929585457,80.21211738781929
2024-09-23 09:45:33.286485,42.3,10.979171,-0.004079093383843503,-0.023579196463302005,0.09710254654607277,36.09446859390736,-100.26678939585686,76.200527287817
2024-09-23 09:45:33.329785,42.3,10.979259,-0.004079093383843503,-0.023877669304275123,0.09755024973162574,40.106058693909645,-96.25519929585457,80.21211738781929
2024-09-23 09:45:33.373209,42.3,10.979259,-0.0034324103296106863,-0.024176140626271565,0.09680407370509965,40.106058693909645,-96.25519929585457,80.21211738781929
2024-09-23 09:45:33.384290,42.3,10.979259,-0.0034324103296106863,-0.024176140626271565,0.09680407370509965,40.106058693909645,-88.23529758782387,72.1922225099802
2024-09-23 09:45:33.426296,42.3,10.97931,-0.0036811340262279837,-0.023429960042815445,0.09690356060148622,40.106058693909645,-88.23529758782387,72.1922225099802
2024-09-23 09:45:33.438487,42.3,10.97931,-0.0036811340262279837,-0.023429960042815445,0.09690356060148622,40.106058693909645,-96.25519929585457,72.1922225099802
2024-09-23 09:45:33.471038,42.3,10.979361,-0.003382661564999035,-0.023429960042815445,0.09690356060148622,40.106058693909645,-96.25519929585457,72.1922225099802
2024-09-23 09:45:33.482155,42.3,10.979361,-0.003382661564999035,-0.02397715620066169,0.09665483728461309,36.09446859390736,-96.25519929585457,72.1922225099802
2024-09-23 09:45:33.524797,42.3,10.979411,-0.003382661564999035,-0.023827930413011865,0.09640611396773996,36.09446859390736,-92.24360919585227,84.22370748782159
2024-09-23 09:45:33.567450,42.3,10.979411,-0.003382661564999035,-0.023827930413011865,0.09640611396773996,32.08287849390507,-100.26678939585686,80.21211738781929
2024-09-23 09:45:33.578702,42.3,10.979462,-0.0031339382481259063,-0.02352945757203875,0.09640611396773996,32.08287849390507,-100.26678939585686,80.21211738781929
2024-09-23 09:45:33.622405,42.3,10.979513,-0.0030841997366068195,-0.02352945757203875,0.09630662707135339,28.07457030097246,-96.25519929585457,80.21211738781929
2024-09-23 09:45:33.665450,42.3,10.979513,-0.0030841997366068195,-0.023579196463302005,0.09725178296655933,36.09446859390736,-96.25519929585457,80.21211738781929
2024-09-23 09:45:33.677402,42.3,10.9796,-0.0030841997366068195,-0.023579196463302005,0.09725178296655933,36.09446859390736,-100.26678939585686,84.22370748782159
2024-09-23 09:45:33.710771,42.3,10.9796,-0.003233425524256645,-0.023579196463302005,0.09725178296655933,36.09446859390736,-100.26678939585686,84.22370748782159
2024-09-23 09:45:33.722573,42.3,10.9796,-0.003233425524256645,-0.023330473146428877,0.09640611396773996,40.106058693909645,-100.26678939585686,80.21211738781929
2024-09-23 09:45:33.765256,42.3,10.979651,-0.003780631555451287,-0.02362894446842532,0.09680407370509965,40.106058693909645,-100.26678939585686,80.21211738781929
2024-09-23 09:45:33.777417,42.3,10.979651,-0.003780631555451287,-0.02362894446842532,0.09680407370509965,40.106058693909645,-96.25519929585457,80.21211738781929
2024-09-23 09:45:33.809281,42.3,10.979651,-0.003780631555451287,-0.02362894446842532,0.09680407370509965,40.106058693909645,-96.25519929585457,84.22370748782159
2024-09-23 09:45:33.821643,42.3,10.979702,-0.003382661564999035,-0.023330473146428877,0.09725178296655933,32.08287849390507,-96.25519929585457,84.22370748782159
2024-09-23 09:45:33.864324,42.3,10.979753,-0.0030841997366068195,-0.023728432883788564,0.09725178296655933,32.08287849390507,-96.25519929585457,84.22370748782159
2024-09-23 09:45:33.876382,42.3,10.979753,-0.0030841997366068195,-0.023728432883788564,0.09695331012558621,32.08287849390507,-96.25519929585457,84.22370748782159
2024-09-23 09:45:33.908569,42.3,10.979753,-0.0030841997366068195,-0.023728432883788564,0.09695331012558621,32.08287849390507,-100.26678939585686,84.22370748782159
2024-09-23 09:45:33.920397,42.3,10.979803,-0.0030841997366068195,-0.024076653729884996,0.09695331012558621,32.08287849390507,-100.26678939585686,76.200527287817
2024-09-23 09:45:33.964094,42.3,10.979854,-0.0035816467500972456,-0.024076653729884996,0.0966050877605131,28.07457030097246,-92.24360919585227,80.21211738781929
2024-09-23 09:45:34.006451,42.3,10.979854,-0.0035816467500972456,-0.023579196463302005,0.09720203344245934,40.106058693909645,-92.24360919585227,80.21211738781929
2024-09-23 09:45:34.017589,42.3,10.979941,-0.0035816467500972456,-0.023579196463302005,0.09720203344245934,40.106058693909645,-100.26678939585686,76.200527287817
2024-09-23 09:45:34.060871,42.3,10.979941,-0.003382661564999035,-0.023778180888911878,0.09725178296655933,36.09446859390736,-100.26678939585686,80.21211738781929
2024-09-23 09:45:34.156604,42.3,10.979993,-0.0034324103296106863,-0.023827930413011865,0.09705279702197278,36.09446859390736,-100.26678939585686,80.21211738781929
2024-09-23 09:45:34.169252,42.3,10.979993,-0.0034324103296106863,-0.023827930413011865,0.09705279702197278,36.09446859390736,-100.26678939585686,80.21211738781929
2024-09-23 09:45:34.202294,42.3,10.980043,-0.0035318979854855937,-0.023827930413011865,0.09705279702197278,36.09446859390736,-100.26678939585686,80.21211738781929
2024-09-23 09:45:34.214028,42.3,10.980043,-0.0035318979854855937,-0.024076653729884996,0.09655535038822652,48.12595698684454,-100.26678939585686,80.21211738781929
2024-09-23 09:45:34.248154,42.3,10.980043,-0.0035318979854855937,-0.024076653729884996,0.09655535038822652,48.12595698684454,-100.26678939585686,80.21211738781929
2024-09-23 09:45:34.259750,42.3,10.980094,-0.0033329230534799477,-0.023330473146428877,0.09710254654607277,48.12595698684454,-100.26678939585686,80.21211738781929
2024-09-23 09:45:34.301991,42.09,10.980144,-0.003780631555451287,-0.023330473146428877,0.09710254654607277,40.106058693909645,-96.25519929585457,80.21211738781929
2024-09-23 09:45:34.313894,42.09,10.980144,-0.003780631555451287,-0.02278327698858263,0.09710254654607277,40.106058693909645,-96.25519929585457,80.21211738781929
2024-09-23 09:45:34.346599,42.09,10.980144,-0.003780631555451287,-0.02278327698858263,0.09665483728461309,32.08287849390507,-96.25519929585457,80.21211738781929
2024-09-23 09:45:34.358303,42.09,10.980195,-0.0032831742888682963,-0.02278327698858263,0.09665483728461309,32.08287849390507,-96.25519929585457,84.22370748782159
2024-09-23 09:45:34.400788,42.09,10.980195,-0.0032831742888682963,-0.023728432883788564,0.09710254654607277,36.09446859390736,-100.26678939585686,80.21211738781929
2024-09-23 09:45:34.412607,42.09,10.980331,-0.0032831742888682963,-0.023728432883788564,0.09710254654607277,36.09446859390736,-100.26678939585686,80.21211738781929
2024-09-23 09:45:34.446069,42.09,10.980331,-0.0031836870127375577,-0.023728432883788564,0.0973512698629459,36.09446859390736,-100.26678939585686,80.21211738781929
2024-09-23 09:45:34.457296,42.09,10.980331,-0.0031836870127375577,-0.023728432883788564,0.0973512698629459,36.09446859390736,-104.27510100388527,80.21211738781929
2024-09-23 09:45:34.499873,42.09,10.980383,-0.003233425524256645,-0.023230986250042305,0.09720203344245934,32.08287849390507,-104.27510100388527,80.21211738781929
