Ayaan's Suite
Timestamp,Sample Rate (Hz),Time,Ax,Ay,Az,Gx,Gy,Gz
2024-09-23 05:21:55.275816,0,20.738593,-0.011586034850850625,0.020062078880364497,1.0146933350480416,0.2537058132497594,-1.1768557818945498,-1.3999655917346479
2024-09-23 05:21:55.308983,0,20.738644,-0.014634963569291141,0.020062078880364497,1.0146933350480416,0.2537058132497594,-1.1549687530383468,-1.3693696416858583
2024-09-23 05:21:55.320617,0,20.738644,-0.014634963569291141,0.019330377182586234,1.01542506864433,0.2537058132497594,-1.1549687530383468,-1.3693696416858583
2024-09-23 05:21:55.352301,0,20.738644,-0.014634963569291141,0.019330377182586234,1.01542506864433,0.24935132597303017,-1.1549687530383468,-1.3693696416858583
2024-09-23 05:21:55.364122,0,20.738694,-0.015061773230662524,0.020549948366167105,1.01542506864433,0.24935132597303017,-1.0674780539117754,-1.461214801408723
2024-09-23 05:21:55.457417,0,20.738745,-0.015061773230662524,0.020549948366167105,1.015486022140394,0.41121195281948897,-1.0499454856518655,-1.3693696416858583
2024-09-23 05:21:55.469743,0,20.738745,-0.01256167205101853,0.020549948366167105,1.015486022140394,0.41121195281948897,-1.0499454856518655,-1.3693696416858583
2024-09-23 05:21:55.502000,0,20.738745,-0.01256167205101853,0.019025483627202678,1.010668654446694,0.41121195281948897,-1.0499454856518655,-1.3693696416858583
2024-09-23 05:21:55.513980,0,20.738834,-0.01256167205101853,0.019025483627202678,1.010668654446694,0.38061600277069957,-1.1987427040290088,-1.4306188513599336
2024-09-23 05:21:55.557073,0,20.738834,-0.01365932788809991,0.022989092252305523,1.0093881449568163,0.29747979092085736,-1.1111946953259408,-1.3999655917346479
2024-09-23 05:21:55.601862,0,20.738885,-0.015549642716465131,0.01926931735815501,1.0093881449568163,0.29747979092085736,-1.1111946953259408,-1.3999655917346479
2024-09-23 05:21:55.613632,0,20.738885,-0.015549642716465131,0.01926931735815501,1.0134127283436565,0.3018342781975865,-1.0937195433642715,-1.3999655917346479
2024-09-23 05:21:55.646312,0,20.738885,-0.015549642716465131,0.01926931735815501,1.0134127283436565,0.3018342781975865,-1.0937195433642715,-1.3999655917346479
2024-09-23 05:21:55.657425,0,20.738936,-0.014208053655459124,0.017805912443621806,1.0109736163560281,0.3149550229238346,-1.0937195433642715,-1.3999655917346479
2024-09-23 05:21:55.699744,0,20.739031,-0.014208053655459124,0.017805912443621806,1.0109736163560281,0.3149550229238346,-1.1156065722204744,-1.4655692620050162
2024-09-23 05:21:55.743767,0,20.739031,-0.014756881194255646,0.017805912443621806,1.0109736163560281,0.3149550229238346,-1.1156065722204744,-1.4655692620050162
2024-09-23 05:21:55.755512,0,20.739031,-0.014756881194255646,0.020366972435748053,1.0182911467479274,0.3324875378228724,-0.993108152872324,-1.4655692620050162
2024-09-23 05:21:55.798346,0,20.739081,-0.013232416455291218,0.02012303845233509,1.0135956860463553,0.3324875378228724,-0.993108152872324,-1.3956111311383546
2024-09-23 05:21:55.811008,0,20.739081,-0.013232416455291218,0.02012303845233509,1.0135956860463553,0.2843590461946093,-0.993108152872324,-1.3956111311383546
2024-09-23 05:21:55.844730,0,20.739132,-0.015305708733052167,0.02012303845233509,1.0135956860463553,0.2843590461946093,-1.1506142924420535,-1.4218526205908506
2024-09-23 05:21:55.857006,0,20.739132,-0.015305708733052167,0.019574312684975875,1.0114614387535539,0.2843590461946093,-1.1506142924420535,-1.4218526205908506
2024-09-23 05:21:55.888886,0,20.739132,-0.015305708733052167,0.019574312684975875,1.0114614387535539,0.37184974532118065,-1.1506142924420535,-1.4218526205908506
2024-09-23 05:21:55.900276,0,20.739224,-0.01445198763887209,0.018171764051999276,1.0114614387535539,0.37184974532118065,-1.0368247942864894,-1.4524485706396402
2024-09-23 05:21:55.942472,0,20.739224,-0.01445198763887209,0.018171764051999276,1.0143274196426437,0.3237212803733535,-1.0674780539117754,-1.434973311956227
2024-09-23 05:21:55.953971,0,20.739275,-0.0173180429578192,0.018171764051999276,1.0143274196426437,0.3237212803733535,-1.0674780539117754,-1.434973311956227
2024-09-23 05:21:55.986995,0,20.739275,-0.0173180429578192,0.02018409827676631,1.0143274196426437,0.3237212803733535,-1.0674780539117754,-1.434973311956227
2024-09-23 05:21:55.998011,0,20.73937,-0.0173180429578192,0.02018409827676631,1.0157908868352208,0.2668265312955715,-1.1812102424908428,-1.3255955839734523
2024-09-23 05:21:56.040237,0,20.73937,-0.013110498830326714,0.017196025080394063,1.0129859566567019,0.37620423259790986,-1.1812102424908428,-1.3255955839734523
2024-09-23 05:21:56.051684,0,20.73937,-0.013110498830326714,0.017196025080394063,1.0129859566567019,0.37620423259790986,-1.1680894444037229,-1.2905878637518733
2024-09-23 05:21:56.083518,0,20.739422,-0.013110498830326714,0.017196025080394063,1.0129859566567019,0.37620423259790986,-1.1680894444037229,-1.2905878637518733
2024-09-23 05:21:56.095247,0,20.739422,-0.011403058160943235,0.017805912443621806,1.012742045457939,0.38061600277069957,-1.0762442846808582,-1.2905878637518733
2024-09-23 05:21:56.137328,0,20.739473,-0.014269113479890346,0.017805912443621806,1.012742045457939,0.38061600277069957,-1.0762442846808582,-1.3430708426568656
2024-09-23 05:21:56.149332,0,20.739473,-0.014269113479890346,0.017805912443621806,1.014205512650516,0.2843590461946093,-1.0762442846808582,-1.3430708426568656
2024-09-23 05:21:56.181395,0,20.739473,-0.014269113479890346,0.017805912443621806,1.014205512650516,0.2843590461946093,-1.1637349838074296,-1.3430708426568656
2024-09-23 05:21:56.192505,0,20.739523,-0.013293374508285133,0.01975718684395762,1.0151202039495033,0.2843590461946093,-1.1637349838074296,-1.3124748926080763
2024-09-23 05:21:56.235484,0,20.739523,-0.013293374508285133,0.01975718684395762,1.0151202039495033,0.3018342781975865,-1.1637349838074296,-1.3124748926080763
2024-09-23 05:21:56.288958,43.93,20.739523,-0.013293374508285133,0.01975718684395762,1.0151202039495033,0.3018342781975865,-1.0587118231426924,-1.3124748926080763
2024-09-23 05:21:56.331742,43.93,20.739574,-0.01445198763887209,0.01975718684395762,1.0151202039495033,0.3018342781975865,-1.0587118231426924,-1.4174980532728136
2024-09-23 05:21:56.343120,43.93,20.739574,-0.01445198763887209,0.019330377182586234,1.0163397599433175,0.28871353347133843,-1.0587118231426924,-1.4174980532728136
2024-09-23 05:21:56.386000,43.93,20.739625,-0.015000815177668611,0.02012303845233509,1.0159129882563631,0.28871353347133843,-1.0762442846808582,-1.3562488435987383
2024-09-23 05:21:56.479465,43.93,20.739712,-0.015000815177668611,0.02012303845233509,1.0159129882563631,0.3849704900474288,-1.1418479549512268,-1.469981032177806
2024-09-23 05:21:56.523058,43.93,20.739712,-0.013232416455291218,0.02012303845233509,1.0159129882563631,0.3849704900474288,-1.1418479549512268,-1.469981032177806
2024-09-23 05:21:56.534593,43.93,20.739712,-0.013232416455291218,0.02152558556633501,1.0113394345469187,0.2843590461946093,-1.0105833048339934,-1.4087318225037306
2024-09-23 05:21:56.577072,43.93,20.739763,-0.012622630104012445,0.02122069352992813,1.0125589905407328,0.2843590461946093,-1.0105833048339934,-1.4087318225037306
2024-09-23 05:21:56.588207,43.93,20.739763,-0.012622630104012445,0.02122069352992813,1.0125589905407328,0.3018342781975865,-1.1637349838074296,-1.4087318225037306
2024-09-23 05:21:56.621256,43.93,20.739763,-0.012622630104012445,0.02122069352992813,1.0125589905407328,0.3018342781975865,-1.1637349838074296,-1.3868447936475277
2024-09-23 05:21:56.632730,43.93,20.739907,-0.013903160100075569,0.02152558556633501,1.0148762927507406,0.28871353347133843,-1.1637349838074296,-1.3868447936475277
2024-09-23 05:21:56.675657,43.93,20.739958,-0.013903160100075569,0.020001120827370582,1.0148762927507406,0.28871353347133843,-1.1462025222692638,-1.2731127117902041
2024-09-23 05:21:56.687332,43.93,20.739958,-0.013903160100075569,0.020001120827370582,1.0114003880429827,0.28871353347133843,-1.1462025222692638,-1.2731127117902041
2024-09-23 05:21:56.719119,43.93,20.739958,-0.013903160100075569,0.020001120827370582,1.0114003880429827,0.3849704900474288,-1.1855647030871361,-1.2731127117902041
2024-09-23 05:21:56.772016,43.93,20.740054,-0.014756881194255646,0.019818144896951533,1.0114003880429827,0.3849704900474288,-1.1855647030871361,-1.4524485706396402
2024-09-23 05:21:56.783842,43.93,20.740054,-0.014756881194255646,0.019818144896951533,1.0132908213515286,0.3674952580444515,-1.1855647030871361,-1.4524485706396402
2024-09-23 05:21:56.816535,43.93,20.740054,-0.014756881194255646,0.019818144896951533,1.0132908213515286,0.3674952580444515,-1.1462025222692638,-1.4524485706396402
2024-09-23 05:21:56.827684,43.93,20.740105,-0.014695923141261731,0.02207441310513153,1.0121322188537785,0.3674952580444515,-1.1462025222692638,-1.461214801408723
2024-09-23 05:21:56.871514,43.93,20.740199,-0.016891131525010507,0.02207441310513153,1.0121322188537785,0.29306802074806765,-1.1418479549512268,-1.3430708426568656
2024-09-23 05:21:56.883178,43.93,20.740199,-0.016891131525010507,0.01975718684395762,1.0121322188537785,0.29306802074806765,-1.1418479549512268,-1.3430708426568656
2024-09-23 05:21:56.967224,43.93,20.740199,-0.016891131525010507,0.01975718684395762,1.0185960114427541,0.3280757409696467,-1.1855647030871361,-1.3693696416858583
2024-09-23 05:21:56.979298,43.93,20.74025,-0.013293374508285133,0.01975718684395762,1.0185960114427541,0.3280757409696467,-1.1855647030871361,-1.3693696416858583
2024-09-23 05:21:57.013686,43.93,20.74025,-0.013293374508285133,0.020001120827370582,1.0108517093639005,0.3280757409696467,-1.1855647030871361,-1.3693696416858583
2024-09-23 05:21:57.025625,43.93,20.740345,-0.013293374508285133,0.020001120827370582,1.0108517093639005,0.3849704900474288,-1.216217962712422,-1.4306188513599336
2024-09-23 05:21:57.068618,43.93,20.740345,-0.009817635368984895,0.02176952106872465,1.0125589905407328,0.3674952580444515,-1.1374934943549335,-1.4787472629468887
2024-09-23 05:21:57.111055,43.93,20.740397,-0.015549642716465131,0.018781549643789714,1.0125589905407328,0.3674952580444515,-1.1374934943549335,-1.4787472629468887
2024-09-23 05:21:57.122335,43.93,20.740397,-0.015549642716465131,0.018781549643789714,1.0144494238492787,0.3543172304221429,-1.1374934943549335,-1.4787472629468887
2024-09-23 05:21:57.206511,43.93,20.740397,-0.015549642716465131,0.018781549643789714,1.0144494238492787,0.3543172304221429,-1.1287272635858505,-1.4787472629468887
2024-09-23 05:21:57.217936,43.93,20.740447,-0.013720285941093825,0.019879204721382753,1.0132298678554648,0.3543172304221429,-1.1287272635858505,-1.3518370734259486
2024-09-23 05:21:57.261252,43.93,20.740542,-0.013720285941093825,0.019879204721382753,1.0132298678554648,0.35872900059493257,-1.0674780539117754,-1.4174980532728136
2024-09-23 05:21:57.273845,43.93,20.740542,-0.016342405757651293,0.020610907938137694,1.0132298678554648,0.35872900059493257,-1.0674780539117754,-1.4174980532728136
2024-09-23 05:21:57.306171,41.13,20.740542,-0.016342405757651293,0.020610907938137694,1.0143883731387076,0.3280757409696467,-1.0674780539117754,-1.4174980532728136
2024-09-23 05:21:57.318082,41.13,20.740593,-0.01182986782231462,0.020610907938137694,1.0143883731387076,0.3280757409696467,-1.0674780539117754,-1.4437395427253097
2024-09-23 05:21:57.361560,41.13,20.740643,-0.01182986782231462,0.017744852619190586,1.0103637897518674,0.41121195281948897,-1.0937195433642715,-1.4568603408124299
2024-09-23 05:21:57.404243,41.13,20.740643,-0.010549337066763158,0.01713506550842347,1.0145103773453428,0.41121195281948897,-1.0937195433642715,-1.4568603408124299
2024-09-23 05:21:57.415538,41.13,20.740643,-0.010549337066763158,0.01713506550842347,1.0145103773453428,0.27994727602181957,-1.1855647030871361,-1.3430708426568656
2024-09-23 05:21:57.499086,41.13,20.740784,-0.010549337066763158,0.01713506550842347,1.0145103773453428,0.27994727602181957,-1.1855647030871361,-1.3430708426568656
2024-09-23 05:21:57.510376,41.13,20.740784,-0.013903160100075569,0.020793883868556746,1.01737645544894,0.29306802074806765,-1.15932321363464,-1.3430708426568656
2024-09-23 05:21:57.553550,41.13,20.740836,-0.015122834574070423,0.020793883868556746,1.01737645544894,0.29306802074806765,-1.15932321363464,-1.3824903330512346
2024-09-23 05:21:57.595940,41.13,20.740836,-0.015122834574070423,0.01939133523558015,1.01737645544894,0.29306802074806765,-1.15932321363464,-1.3824903330512346
2024-09-23 05:21:57.607697,41.13,20.740887,-0.015122834574070423,0.01939133523558015,1.0151202039495033,0.27123832814879717,-1.0980740039605648,-1.3299501512914895
2024-09-23 05:21:57.651626,41.13,20.740887,-0.012744546969488612,0.018171764051999276,1.0134127283436565,0.27123832814879717,-1.1680894444037229,-1.3299501512914895
2024-09-23 05:21:57.663344,41.13,20.740887,-0.012744546969488612,0.018171764051999276,1.0134127283436565,0.27123832814879717,-1.1680894444037229,-1.3649578715130686
2024-09-23 05:21:57.695587,41.13,20.740937,-0.012744546969488612,0.018171764051999276,1.0134127283436565,0.27123832814879717,-1.1680894444037229,-1.3649578715130686
2024-09-23 05:21:57.748260,41.13,20.740937,-0.016525279916633037,0.018171764051999276,1.0134127283436565,0.27123832814879717,-1.1680894444037229,-1.3649578715130686
2024-09-23 05:21:57.793230,41.13,20.740937,-0.016525279916633037,0.020610907938137694,1.0121931723498423,0.27123832814879717,-1.1680894444037229,-1.3649578715130686
2024-09-23 05:21:57.804898,41.13,20.740988,-0.016525279916633037,0.020610907938137694,1.0121931723498423,0.3193667930966243,-1.2336931146740913,-1.4306188513599336
2024-09-23 05:21:57.848462,41.13,20.740988,-0.013232416455291218,0.020366972435748053,1.0146933350480416,0.27123832814879717,-1.1987427040290088,-1.448094003321603
2024-09-23 05:21:57.891440,41.13,20.741125,-0.012317737308117227,0.01914740125216718,1.0146933350480416,0.27123832814879717,-1.1987427040290088,-1.448094003321603
2024-09-23 05:21:57.902360,41.13,20.741125,-0.012317737308117227,0.01914740125216718,1.0095710054450078,0.3324875378228724,-1.1943309338562191,-1.448094003321603
2024-09-23 05:21:57.945163,41.13,20.741177,-0.017013149402435646,0.018842507696783625,1.0147542885441054,0.3630834878716618,-1.1943309338562191,-1.5136977803137153
2024-09-23 05:21:58.039538,41.13,20.741227,-0.014574005516297226,0.018842507696783625,1.0147542885441054,0.3630834878716618,-1.15932321363464,-1.3737241022821516
2024-09-23 05:21:58.051682,41.13,20.741227,-0.014574005516297226,0.01926931735815501,1.0101198785531047,0.3630834878716618,-1.15932321363464,-1.3737241022821516
2024-09-23 05:21:58.084820,41.13,20.741227,-0.014574005516297226,0.01926931735815501,1.0101198785531047,0.3237212803733535,-1.0937195433642715,-1.3737241022821516
2024-09-23 05:21:58.096004,41.13,20.741371,-0.015183792627064338,0.018781549643789714,1.0101198785531047,0.3237212803733535,-1.0937195433642715,-1.3911993609655648
2024-09-23 05:21:58.139897,41.13,20.741422,-0.015183792627064338,0.018781549643789714,1.0103028362558035,0.3237212803733535,-1.0762442846808582,-1.3780785628784449
2024-09-23 05:21:58.152142,41.13,20.741422,-0.012134760618209839,0.018781549643789714,1.0103028362558035,0.3237212803733535,-1.0762442846808582,-1.3780785628784449
2024-09-23 05:21:58.184626,41.13,20.741422,-0.012134760618209839,0.01939133523558015,1.0176202694331955,0.3018342781975865,-1.0762442846808582,-1.3780785628784449
2024-09-23 05:21:58.196030,41.13,20.741515,-0.012134760618209839,0.01939133523558015,1.0176202694331955,0.3018342781975865,-1.0849533125951887,-1.3999655917346479
2024-09-23 05:21:58.238256,41.13,20.741515,-0.015610600769459046,0.021708563015730736,1.0113394345469187,0.2843590461946093,-1.1899764732599258,-1.3474826128296553
2024-09-23 05:21:58.281095,41.13,20.741613,-0.014147094083488534,0.02274515826889256,1.0113394345469187,0.2843590461946093,-1.1899764732599258,-1.3474826128296553
2024-09-23 05:21:58.292592,41.13,20.741613,-0.014147094083488534,0.02274515826889256,1.0139006479556893,0.2843590461946093,-1.203097164625302,-1.3474826128296553
2024-09-23 05:21:58.335763,40.05,20.741665,-0.011098165365048018,0.01798878660260355,1.01231507934197,0.3149550229238346,-1.203097164625302,-1.474335492774099
2024-09-23 05:21:58.379439,40.05,20.741715,-0.011098165365048018,0.01798878660260355,1.01231507934197,0.3149550229238346,-1.1637349838074296,-1.3868447936475277
2024-09-23 05:21:58.390861,40.05,20.741715,-0.013720285941093825,0.019879204721382753,1.0123761300525411,0.3149550229238346,-1.1637349838074296,-1.3868447936475277
2024-09-23 05:21:58.423736,40.05,20.741715,-0.013720285941093825,0.019879204721382753,1.0123761300525411,0.3062460483703762,-1.1637349838074296,-1.3868447936475277
2024-09-23 05:21:58.435393,40.05,20.741715,-0.013720285941093825,0.019879204721382753,1.0123761300525411,0.3062460483703762,-1.1724439050000162,-1.3868447936475277
2024-09-23 05:21:58.478108,40.05,20.741766,-0.01378124399408774,0.022989092252305523,1.0123761300525411,0.3062460483703762,-1.1724439050000162,-1.404320052330941
2024-09-23 05:21:58.489690,40.05,20.741766,-0.01378124399408774,0.022989092252305523,1.012620041251304,0.31060053564710544,-1.1724439050000162,-1.404320052330941
2024-09-23 05:21:58.521882,40.05,20.741766,-0.01378124399408774,0.022989092252305523,1.012620041251304,0.31060053564710544,-1.1899764732599258,-1.404320052330941
2024-09-23 05:21:58.533191,40.05,20.741817,-0.013354434332716355,0.01853761414140007,1.0116442992417454,0.31060053564710544,-1.1899764732599258,-1.5487055005352943
2024-09-23 05:21:58.575441,40.05,20.741817,-0.013354434332716355,0.01853761414140007,1.0116442992417454,0.28871353347133843,-1.238104991568625,-1.5487055005352943
2024-09-23 05:21:58.629258,40.05,20.741905,-0.014939857124674697,0.019879204721382753,1.0131688171448936,0.3674952580444515,-1.238104991568625,-1.509343212995678
2024-09-23 05:21:58.672415,40.05,20.741957,-0.014939857124674697,0.019879204721382753,1.0131688171448936,0.3674952580444515,-1.2118635021161288,-1.3693696416858583
2024-09-23 05:21:58.684032,40.05,20.741957,-0.014756881194255646,0.017379001010813116,1.0109736163560281,0.3674952580444515,-1.2118635021161288,-1.3693696416858583
2024-09-23 05:21:58.818048,40.05,20.741957,-0.014756881194255646,0.017379001010813116,1.0109736163560281,0.3193667930966243,-1.2118635021161288,-1.4218526205908506
2024-09-23 05:21:58.830272,40.05,20.742007,-0.01182986782231462,0.017379001010813116,1.0109736163560281,0.3193667930966243,-1.2118635021161288,-1.4218526205908506
2024-09-23 05:21:58.863662,40.05,20.742007,-0.01182986782231462,0.01750101888823825,1.0109736163560281,0.3193667930966243,-1.2118635021161288,-1.4218526205908506
2024-09-23 05:21:58.875153,40.05,20.742007,-0.01182986782231462,0.01750101888823825,1.0146933350480416,0.2318188110739924,-1.1156065722204744,-1.3343619214642792
2024-09-23 05:21:58.918131,40.05,20.742101,-0.01182986782231462,0.01750101888823825,1.0146933350480416,0.2318188110739924,-1.1156065722204744,-1.3343619214642792
2024-09-23 05:21:58.960473,40.05,20.742101,-0.013110498830326714,0.01750101888823825,1.0146933350480416,0.2318188110739924,-1.1156065722204744,-1.3343619214642792
2024-09-23 05:21:58.973970,40.05,20.742101,-0.013110498830326714,0.01798878660260355,1.0100589250570406,0.2537058132497594,-1.1374934943549335,-1.4874562908612192
2024-09-23 05:21:59.017232,40.05,20.742151,-0.016037512202267738,0.017379001010813116,1.0134127283436565,0.2537058132497594,-1.1287272635858505,-1.4874562908612192
2024-09-23 05:21:59.059787,40.05,20.742247,-0.016037512202267738,0.017379001010813116,1.0134127283436565,0.2537058132497594,-1.1287272635858505,-1.404320052330941
2024-09-23 05:21:59.070805,40.05,20.742247,-0.01396421992450679,0.017561976941232165,1.0148152420401695,0.3499627431454137,-1.1287272635858505,-1.404320052330941
2024-09-23 05:21:59.114668,40.05,20.742394,-0.01268358815700636,0.02176952106872465,1.0111565740587272,0.3499627431454137,-1.1637349838074296,-1.3780785628784449
2024-09-23 05:21:59.157476,40.05,20.742394,-0.01268358815700636,0.02176952106872465,1.0111565740587272,0.3499627431454137,-1.1506142924420535,-1.3780785628784449
2024-09-23 05:21:59.168771,40.05,20.742445,-0.01664729931303485,0.01890346574977754,1.0111565740587272,0.3499627431454137,-1.1506142924420535,-1.4568603408124299
2024-09-23 05:21:59.211546,40.05,20.742542,-0.01664729931303485,0.01890346574977754,1.0136566395424191,0.41997821026900783,-1.1418479549512268,-1.483101830264926
2024-09-23 05:21:59.223751,40.05,20.742542,-0.013171458402297304,0.01890346574977754,1.0136566395424191,0.41997821026900783,-1.1418479549512268,-1.483101830264926
2024-09-23 05:21:59.255675,40.05,20.742542,-0.013171458402297304,0.02097675802753849,1.0115833457456815,0.41997821026900783,-1.1418479549512268,-1.483101830264926
2024-09-23 05:21:59.266776,40.05,20.742636,-0.013171458402297304,0.02097675802753849,1.0115833457456815,0.4287444677185267,-1.0980740039605648,-1.43932777255252
2024-09-23 05:21:59.309235,40.05,20.742636,-0.010976248499571852,0.017805912443621806,1.0105467474545664,0.3674952580444515,-1.0980740039605648,-1.43932777255252
2024-09-23 05:21:59.321778,40.05,20.742636,-0.010976248499571852,0.017805912443621806,1.0105467474545664,0.3674952580444515,-1.0980740039605648,-1.3343619214642792
2024-09-23 05:21:59.354215,39.86,20.742688,-0.013049540777332799,0.02067186599113161,1.0105467474545664,0.3674952580444515,-1.0980740039605648,-1.3343619214642792
2024-09-23 05:21:59.365689,39.86,20.742688,-0.013049540777332799,0.02067186599113161,1.0114614387535539,0.27123832814879717,-1.2555801435302942,-1.3343619214642792
2024-09-23 05:21:59.408255,39.86,20.742739,-0.01622038788022616,0.0187205915907958,1.00969310686615,0.29747979092085736,-1.2555801435302942,-1.2993542012427002
2024-09-23 05:21:59.451968,39.86,20.742789,-0.01622038788022616,0.0187205915907958,1.00969310686615,0.29747979092085736,-1.1724439050000162,-1.2818216329827905
2024-09-23 05:21:59.463778,39.86,20.742789,-0.011098165365048018,0.018171764051999276,1.0120102146471432,0.29747979092085736,-1.1724439050000162,-1.2818216329827905
2024-09-23 05:21:59.498778,39.86,20.742789,-0.011098165365048018,0.018171764051999276,1.0120102146471432,0.35872900059493257,-1.0324703336901964,-1.2818216329827905
2024-09-23 05:21:59.510773,39.86,20.74284,-0.010976248499571852,0.018842507696783625,1.0120102146471432,0.35872900059493257,-1.0324703336901964,-1.3562488435987383
2024-09-23 05:21:59.552701,39.86,20.742891,-0.010976248499571852,0.018842507696783625,1.0151202039495033,0.41997821026900783,-1.1418479549512268,-1.3255955839734523
2024-09-23 05:21:59.564989,39.86,20.742891,-0.015427726610477303,0.018842507696783625,1.0151202039495033,0.41997821026900783,-1.1418479549512268,-1.3255955839734523
2024-09-23 05:21:59.596989,39.86,20.742891,-0.015427726610477303,0.01963527073796979,1.0124370835486052,0.41997821026900783,-1.1418479549512268,-1.3255955839734523
2024-09-23 05:21:59.650251,39.86,20.742978,-0.015427726610477303,0.01963527073796979,1.0124370835486052,0.3237212803733535,-1.1068402347296475,-1.3868447936475277
2024-09-23 05:21:59.661759,39.86,20.742978,-0.014208053655459124,0.02225739055452726,1.0124370835486052,0.3237212803733535,-1.1068402347296475,-1.3868447936475277
2024-09-23 05:21:59.694322,39.86,20.742978,-0.014208053655459124,0.02225739055452726,1.0143883731387076,0.3237212803733535,-1.1068402347296475,-1.3868447936475277
2024-09-23 05:21:59.705438,39.86,20.743029,-0.012439653414105056,0.02225739055452726,1.0143883731387076,0.3237212803733535,-1.1418479549512268,-1.413086283100024
2024-09-23 05:21:59.747579,39.86,20.743029,-0.012439653414105056,0.02048899031317319,1.0145713308414066,0.3543172304221429,-1.207451731943339,-1.404320052330941
2024-09-23 05:21:59.759333,39.86,20.74308,-0.012439653414105056,0.02048899031317319,1.0145713308414066,0.3543172304221429,-1.207451731943339,-1.404320052330941
2024-09-23 05:21:59.791131,39.86,20.74308,-0.014391029585878175,0.01939133523558015,1.0145713308414066,0.3543172304221429,-1.207451731943339,-1.404320052330941
2024-09-23 05:21:59.802645,39.86,20.74308,-0.014391029585878175,0.01939133523558015,1.0114003880429827,0.3456082558686845,-1.1506142924420535,-1.3212411233771593
2024-09-23 05:21:59.844875,39.86,20.743131,-0.012073802565215924,0.02152558556633501,1.0140835084438808,0.3456082558686845,-1.1506142924420535,-1.3212411233771593
2024-09-23 05:21:59.888841,39.86,20.743131,-0.012073802565215924,0.02152558556633501,1.0140835084438808,0.2318188110739924,-1.1418479549512268,-1.3212411233771593
2024-09-23 05:21:59.900934,39.86,20.743223,-0.014634963569291141,0.020366972435748053,1.0140835084438808,0.2318188110739924,-1.1418479549512268,-1.448094003321603
2024-09-23 05:21:59.944508,39.86,20.743274,-0.014634963569291141,0.020366972435748053,1.0088393690632267,0.3237212803733535,-1.0937195433642715,-1.3474826128296553
2024-09-23 05:21:59.956054,39.86,20.743274,-0.015244750680058252,0.020366972435748053,1.0088393690632267,0.3237212803733535,-1.0937195433642715,-1.3474826128296553
2024-09-23 05:21:59.988408,39.86,20.743274,-0.015244750680058252,0.019513251341567978,1.01426646614658,0.3543172304221429,-1.0937195433642715,-1.3474826128296553
2024-09-23 05:21:59.999580,39.86,20.743324,-0.015244750680058252,0.019513251341567978,1.01426646614658,0.3543172304221429,-1.0762442846808582,-1.4087318225037306
2024-09-23 05:22:00.042612,39.86,20.743324,-0.01573262016586086,0.022928134199311608,1.014144559154452,0.29306802074806765,-1.1068402347296475,-1.3474826128296553
2024-09-23 05:22:00.085678,39.86,20.743375,-0.013476350438704184,0.022928134199311608,1.014144559154452,0.29306802074806765,-1.1068402347296475,-1.3474826128296553
2024-09-23 05:22:00.096715,39.86,20.743375,-0.013476350438704184,0.018964423802771455,1.011217527554791,0.29306802074806765,-1.1068402347296475,-1.3474826128296553
2024-09-23 05:22:00.140266,39.86,20.743466,-0.011220081471035847,0.020306014382754138,1.011217527554791,0.35872900059493257,-1.1199610328167677,-1.4306188513599336
2024-09-23 05:22:00.183504,39.86,20.743466,-0.011220081471035847,0.020306014382754138,1.0145713308414066,0.35872900059493257,-1.1549687530383468,-1.4306188513599336
2024-09-23 05:22:00.194798,39.86,20.743518,-0.011586034850850625,0.020306014382754138,1.0145713308414066,0.35872900059493257,-1.1549687530383468,-1.3737241022821516
2024-09-23 05:22:00.237366,39.86,20.743568,-0.011586034850850625,0.018659531766364576,1.0130469101527657,0.3630834878716618,-1.1111946953259408,-1.4306188513599336
2024-09-23 05:22:00.279443,39.86,20.743568,-0.01695219134944173,0.020610907938137694,1.0109736163560281,0.3630834878716618,-1.1111946953259408,-1.4306188513599336
2024-09-23 05:22:00.290992,39.86,20.743568,-0.01695219134944173,0.020610907938137694,1.0109736163560281,0.3062460483703762,-1.1243154934130608,-1.3474826128296553
2024-09-23 05:22:00.333368,39.86,20.743619,-0.012805606793919833,0.021098777423940302,1.0152421109416312,0.35872900059493257,-1.1330817241821438,-1.3474826128296553
2024-09-23 05:22:00.376348,40.3,20.74371,-0.012805606793919833,0.021098777423940302,1.0152421109416312,0.35872900059493257,-1.1330817241821438,-1.3999655917346479
2024-09-23 05:22:00.387425,40.3,20.74371,-0.012744546969488612,0.02018409827676631,1.011095523348156,0.3280757409696467,-1.1330817241821438,-1.3999655917346479
2024-09-23 05:22:00.480974,40.3,20.743761,-0.01341539238571027,0.018293680157987106,1.0112784810508548,0.3280757409696467,-1.0980740039605648,-1.3649578715130686
2024-09-23 05:22:00.524151,40.3,20.743761,-0.01341539238571027,0.018293680157987106,1.0112784810508548,0.3193667930966243,-0.9493340951599181,-1.3212411233771593
2024-09-23 05:22:00.535984,40.3,20.743812,-0.014756881194255646,0.019208359305161096,1.0112784810508548,0.3193667930966243,-0.9493340951599181,-1.3212411233771593
2024-09-23 05:22:00.578210,40.3,20.743863,-0.015976452377836518,0.019208359305161096,1.0130469101527657,0.3237212803733535,-1.0674780539117754,-1.3430708426568656
2024-09-23 05:22:00.620122,40.3,20.743863,-0.015976452377836518,0.02140366946034718,1.013778546534547,0.3237212803733535,-1.0674780539117754,-1.3430708426568656
2024-09-23 05:22:00.631650,40.3,20.743953,-0.015976452377836518,0.02140366946034718,1.013778546534547,0.28871353347133843,-1.0980740039605648,-1.3999655917346479
2024-09-23 05:22:00.674900,40.3,20.743953,-0.01396421992450679,0.02067186599113161,1.014144559154452,0.2668265312955715,-1.1637349838074296,-1.461214801408723
2024-09-23 05:22:00.717189,40.3,20.744051,-0.012378695361111141,0.02067186599113161,1.014144559154452,0.2668265312955715,-1.1637349838074296,-1.461214801408723
2024-09-23 05:22:00.728853,40.3,20.744051,-0.012378695361111141,0.020915799974544576,1.0123761300525411,0.27559278874509036,-1.0980740039605648,-1.461214801408723
2024-09-23 05:22:00.772229,40.3,20.744102,-0.012378695361111141,0.019330377182586234,1.01231507934197,0.2581175834225491,-1.0980740039605648,-1.3693696416858583
2024-09-23 05:22:00.814570,40.3,20.744102,-0.012378695361111141,0.019330377182586234,1.01231507934197,0.2581175834225491,-1.0630662837389857,-1.3868447936475277
2024-09-23 05:22:00.826008,40.3,20.744153,-0.014208053655459124,0.020001120827370582,1.0101808320491685,0.2581175834225491,-1.0630662837389857,-1.3868447936475277
2024-09-23 05:22:00.868055,40.3,20.744204,-0.014208053655459124,0.020001120827370582,1.0101808320491685,0.2362305812467821,-1.1506142924420535,-1.3124748926080763
2024-09-23 05:22:00.879723,40.3,20.744204,-0.00969561673207142,0.01963527073796979,1.0101808320491685,0.2362305812467821,-1.1506142924420535,-1.3124748926080763
2024-09-23 05:22:00.911921,40.3,20.744204,-0.00969561673207142,0.01963527073796979,1.0123761300525411,0.2362305812467821,-1.1506142924420535,-1.3124748926080763
2024-09-23 05:22:00.923878,40.3,20.744254,-0.014756881194255646,0.01963527073796979,1.0123761300525411,0.3368419984191656,-1.1812102424908428,-1.3343619214642792
2024-09-23 05:22:00.966388,40.3,20.744254,-0.014756881194255646,0.018964423802771455,1.0144494238492787,0.3543172304221429,-1.2424594521649182,-1.4306188513599336
2024-09-23 05:22:00.978424,40.3,20.744343,-0.014756881194255646,0.018964423802771455,1.0144494238492787,0.3543172304221429,-1.2424594521649182,-1.4306188513599336
2024-09-23 05:22:01.011487,40.3,20.744343,-0.013049540777332799,0.018964423802771455,1.0144494238492787,0.3543172304221429,-1.2424594521649182,-1.4306188513599336
2024-09-23 05:22:01.022613,40.3,20.744343,-0.013049540777332799,0.020915799974544576,1.0124370835486052,0.39809120809324083,-1.1680894444037229,-1.4524485706396402
2024-09-23 05:22:01.064766,40.3,20.744394,-0.014391029585878175,0.021586543619328925,1.0120102146471432,0.3368419984191656,-1.0805987452771515,-1.4524485706396402
2024-09-23 05:22:01.106809,40.3,20.744445,-0.014391029585878175,0.021586543619328925,1.0120102146471432,0.3368419984191656,-1.0805987452771515,-1.3474826128296553
2024-09-23 05:22:01.118876,40.3,20.744445,-0.016403363810645208,0.021586543619328925,1.0120102146471432,0.3368419984191656,-1.0805987452771515,-1.3474826128296553
2024-09-23 05:22:01.162378,40.3,20.744496,-0.016403363810645208,0.021037716080532405,1.0118273541589518,0.3368419984191656,-1.1330817241821438,-1.3474826128296553
2024-09-23 05:22:01.204903,40.3,20.744496,-0.011403058160943235,0.020427930488741967,1.0118273541589518,0.3368419984191656,-1.1330817241821438,-1.3474826128296553
2024-09-23 05:22:01.216359,40.3,20.744496,-0.011403058160943235,0.020427930488741967,1.008107538252431,0.3456082558686845,-1.203097164625302,-1.3911993609655648
2024-09-23 05:22:01.259296,40.3,20.744547,-0.01622038788022616,0.019208359305161096,1.0126809947473678,0.3411964856958948,-1.203097164625302,-1.3911993609655648
2024-09-23 05:22:01.271027,40.3,20.744547,-0.01622038788022616,0.019208359305161096,1.0126809947473678,0.3411964856958948,-1.0762442846808582,-1.3911993609655648
2024-09-23 05:22:01.303577,40.3,20.744597,-0.013049540777332799,0.019208359305161096,1.0126809947473678,0.3411964856958948,-1.0762442846808582,-1.3956111311383546
2024-09-23 05:22:01.314728,40.3,20.744597,-0.013049540777332799,0.02018409827676631,1.0139616014517532,0.3499627431454137,-1.0762442846808582,-1.3956111311383546
2024-09-23 05:22:01.358483,40.3,20.744684,-0.013842202047081654,0.016769215419022678,1.0086564113605276,0.3499627431454137,-1.1111946953259408,-1.3824903330512346
2024-09-23 05:22:01.401732,40.25,20.744684,-0.013842202047081654,0.016769215419022678,1.0086564113605276,0.3368419984191656,-1.1068402347296475,-1.461214801408723
2024-09-23 05:22:01.413266,40.25,20.744736,-0.015488684663471218,0.02048899031317319,1.0086564113605276,0.3368419984191656,-1.1068402347296475,-1.461214801408723
2024-09-23 05:22:01.455884,40.25,20.744786,-0.013598266544692013,0.02048899031317319,1.013778546534547,0.3368419984191656,-1.0937195433642715,-1.3868447936475277
2024-09-23 05:22:01.497843,40.25,20.744786,-0.013598266544692013,0.02134260963591596,1.01231507934197,0.3368419984191656,-1.0937195433642715,-1.3868447936475277
2024-09-23 05:22:01.510108,40.25,20.744879,-0.013598266544692013,0.02134260963591596,1.01231507934197,0.3499627431454137,-1.0630662837389857,-1.3649578715130686
2024-09-23 05:22:01.554478,40.25,20.744879,-0.01536666678604608,0.02140366946034718,1.012802998954003,0.29306802074806765,-1.028115873093903,-1.4306188513599336
2024-09-23 05:22:01.596697,40.25,20.744931,-0.01219582044264106,0.02067186599113161,1.012802998954003,0.29306802074806765,-1.028115873093903,-1.4306188513599336
2024-09-23 05:22:01.608580,40.25,20.744931,-0.01219582044264106,0.02067186599113161,1.015973941752427,0.28871353347133843,-1.0980740039605648,-1.4306188513599336
2024-09-23 05:22:01.651998,40.25,20.744981,-0.01713506550842347,0.017744852619190586,1.01231507934197,0.3149550229238346,-1.0980740039605648,-1.4306188513599336
2024-09-23 05:22:01.693977,40.25,20.745033,-0.01713506550842347,0.017744852619190586,1.01231507934197,0.3149550229238346,-1.014995075006783,-1.3255955839734523
2024-09-23 05:22:01.705805,40.25,20.745033,-0.01408613603049462,0.01695219134944173,1.01231507934197,0.3149550229238346,-1.014995075006783,-1.3255955839734523
2024-09-23 05:22:01.748546,40.25,20.745083,-0.014574005516297226,0.01695219134944173,1.011217527554791,0.3018342781975865,-1.1768557818945498,-1.3737241022821516
2024-09-23 05:22:01.792313,40.25,20.745083,-0.014574005516297226,0.02085484192155066,1.0143883731387076,0.3543172304221429,-1.1768557818945498,-1.3737241022821516
2024-09-23 05:22:01.804169,40.25,20.745134,-0.014574005516297226,0.02085484192155066,1.0143883731387076,0.3543172304221429,-1.1637349838074296,-1.3474826128296553
2024-09-23 05:22:01.836207,40.25,20.745134,-0.015427726610477303,0.02085484192155066,1.0143883731387076,0.3543172304221429,-1.1637349838074296,-1.3474826128296553
2024-09-23 05:22:01.888664,40.25,20.745134,-0.015427726610477303,0.020610907938137694,1.0131078636488298,0.3630834878716618,-1.1637349838074296,-1.3474826128296553
2024-09-23 05:22:01.900389,40.25,20.745134,-0.015427726610477303,0.020610907938137694,1.0131078636488298,0.3630834878716618,-1.0937195433642715,-1.4524485706396402
2024-09-23 05:22:01.943474,40.25,20.745221,-0.01481783924724956,0.01926931735815501,1.0138396944596255,0.3193667930966243,-1.1724439050000162,-1.4524485706396402
2024-09-23 05:22:01.987253,40.25,20.745272,-0.012866564846913748,0.01926931735815501,1.0138396944596255,0.3193667930966243,-1.1724439050000162,-1.3780785628784449
2024-09-23 05:22:01.998491,40.25,20.745272,-0.012866564846913748,0.020001120827370582,1.013778546534547,0.3193667930966243,-1.1724439050000162,-1.3780785628784449
2024-09-23 05:22:02.041868,40.25,20.745323,-0.014939857124674697,0.021037716080532405,1.0104247432479314,0.3193667930966243,-1.0849533125951887,-1.3868447936475277
2024-09-23 05:22:02.084093,40.25,20.745323,-0.014939857124674697,0.021037716080532405,1.0104247432479314,0.26247207069927825,-1.1068402347296475,-1.3956111311383546
2024-09-23 05:22:02.095616,40.25,20.745373,-0.016403363810645208,0.016708257366028764,1.0104247432479314,0.26247207069927825,-1.1068402347296475,-1.3956111311383546
2024-09-23 05:22:02.138477,40.25,20.745466,-0.014147094083488534,0.016708257366028764,1.0139006479556893,0.3411964856958948,-1.2118635021161288,-1.3868447936475277
2024-09-23 05:22:02.181151,40.25,20.745466,-0.014147094083488534,0.019513251341567978,1.0145103773453428,0.35872900059493257,-1.2118635021161288,-1.3868447936475277
2024-09-23 05:22:02.192182,40.25,20.745562,-0.014147094083488534,0.019513251341567978,1.0145103773453428,0.35872900059493257,-1.1243154934130608,-1.3474826128296553
2024-09-23 05:22:02.236854,40.25,20.745562,-0.014939857124674697,0.021708563015730736,1.0111565740587272,0.3018342781975865,-1.15932321363464,-1.3474826128296553
2024-09-23 05:22:02.279232,40.25,20.745613,-0.01268358815700636,0.019330377182586234,1.0111565740587272,0.3018342781975865,-1.15932321363464,-1.3474826128296553
2024-09-23 05:22:02.290802,40.25,20.745613,-0.01268358815700636,0.019330377182586234,1.01231507934197,0.3324875378228724,-1.1899764732599258,-1.3474826128296553
2024-09-23 05:22:02.333939,40.25,20.745664,-0.013598266544692013,0.019818144896951533,1.012802998954003,0.2668265312955715,-1.1899764732599258,-1.413086283100024
2024-09-23 05:22:02.377687,40.25,20.745715,-0.013598266544692013,0.019818144896951533,1.012802998954003,0.2668265312955715,-1.1812102424908428,-1.413086283100024
2024-09-23 05:22:02.388716,40.25,20.745715,-0.013598266544692013,0.020610907938137694,1.0185960114427541,0.2668265312955715,-1.1812102424908428,-1.413086283100024
2024-09-23 05:22:02.431795,40.04,20.745765,-0.014695923141261731,0.018842507696783625,1.0185960114427541,0.3456082558686845,-1.15932321363464,-1.4874562908612192
2024-09-23 05:22:02.525272,40.04,20.745816,-0.014695923141261731,0.018842507696783625,1.0133517748475924,0.3368419984191656,-1.224984193481505,-1.461214801408723
2024-09-23 05:22:02.537860,40.04,20.745816,-0.013232416455291218,0.018842507696783625,1.0133517748475924,0.3368419984191656,-1.224984193481505,-1.461214801408723
2024-09-23 05:22:02.570457,40.04,20.745816,-0.013232416455291218,0.019818144896951533,1.0143883731387076,0.3368419984191656,-1.224984193481505,-1.461214801408723
2024-09-23 05:22:02.581483,40.04,20.745903,-0.013232416455291218,0.019818144896951533,1.0143883731387076,0.3849704900474288,-1.1199610328167677,-1.3343619214642792
2024-09-23 05:22:02.624514,40.04,20.745903,-0.015244750680058252,0.020915799974544576,1.0122541258459061,0.31060053564710544,-1.0193495356030762,-1.3343619214642792
2024-09-23 05:22:02.636582,40.04,20.745903,-0.015244750680058252,0.020915799974544576,1.0122541258459061,0.31060053564710544,-1.0193495356030762,-1.2993542012427002
2024-09-23 05:22:02.668527,40.04,20.745954,-0.013049540777332799,0.022928134199311608,1.0122541258459061,0.31060053564710544,-1.0193495356030762,-1.2993542012427002
2024-09-23 05:22:02.679581,40.04,20.745954,-0.013049540777332799,0.022928134199311608,1.0151202039495033,0.3018342781975865,-1.1024857741333545,-1.2993542012427002
2024-09-23 05:22:02.722200,40.04,20.746005,-0.012256778495634975,0.01786687049661572,1.0151202039495033,0.3018342781975865,-1.1024857741333545,-1.3737241022821516
2024-09-23 05:22:02.764959,40.04,20.746005,-0.012256778495634975,0.01786687049661572,1.00969310686615,0.3237212803733535,-1.1024857741333545,-1.3737241022821516
2024-09-23 05:22:02.777162,40.04,20.7461,-0.014695923141261731,0.01786687049661572,1.00969310686615,0.3237212803733535,-1.1199610328167677,-1.4655692620050162
2024-09-23 05:22:02.820771,40.04,20.74615,-0.014695923141261731,0.01939133523558015,1.0107297051572652,0.38932495064372197,-1.1068402347296475,-1.461214801408723
2024-09-23 05:22:02.914928,40.04,20.74615,-0.011098165365048018,0.018842507696783625,1.0066440710598539,0.38932495064372197,-1.1068402347296475,-1.461214801408723
2024-09-23 05:22:02.926980,40.04,20.74615,-0.011098165365048018,0.018842507696783625,1.0066440710598539,0.38932495064372197,-1.1199610328167677,-1.461214801408723
2024-09-23 05:22:02.960357,40.04,20.746201,-0.011098165365048018,0.018842507696783625,1.0066440710598539,0.38932495064372197,-1.1199610328167677,-1.461214801408723
2024-09-23 05:22:02.971528,40.04,20.746201,-0.011281142054955407,0.021159735476934217,1.012802998954003,0.4287444677185267,-1.1199610328167677,-1.461214801408723
2024-09-23 05:22:03.014477,40.04,20.746293,-0.016525279916633037,0.018415698035412244,1.012802998954003,0.4287444677185267,-1.1899764732599258,-1.3999655917346479
2024-09-23 05:22:03.026453,40.04,20.746293,-0.016525279916633037,0.018415698035412244,1.0158518403312846,0.4287444677185267,-1.1899764732599258,-1.3999655917346479
2024-09-23 05:22:03.058683,40.04,20.746293,-0.016525279916633037,0.018415698035412244,1.0158518403312846,0.40685746554275976,-1.2731127117902041,-1.3824903330512346
2024-09-23 05:22:03.070998,40.04,20.746345,-0.011951885699739756,0.018293680157987106,1.0158518403312846,0.40685746554275976,-1.2731127117902041,-1.3824903330512346
2024-09-23 05:22:03.114017,40.04,20.746395,-0.018171764051999276,0.018293680157987106,1.01231507934197,0.2668265312955715,-1.2336931146740913,-1.483101830264926
2024-09-23 05:22:03.157833,40.04,20.746395,-0.018171764051999276,0.020610907938137694,1.013778546534547,0.3280757409696467,-1.2336931146740913,-1.483101830264926
2024-09-23 05:22:03.169597,40.04,20.746537,-0.018171764051999276,0.020610907938137694,1.013778546534547,0.3280757409696467,-1.1243154934130608,-1.4524485706396402
2024-09-23 05:22:03.201909,40.04,20.746537,-0.016098470255261652,0.020610907938137694,1.013778546534547,0.3280757409696467,-1.1243154934130608,-1.4524485706396402
2024-09-23 05:22:03.213122,40.04,20.746537,-0.016098470255261652,0.018171764051999276,1.0103637897518674,0.3368419984191656,-1.1637349838074296,-1.3124748926080763
2024-09-23 05:22:03.255457,40.04,20.746588,-0.012012843752733671,0.020001120827370582,1.0118883076550156,0.3368419984191656,-1.1637349838074296,-1.3124748926080763
2024-09-23 05:22:03.266803,40.04,20.746588,-0.012012843752733671,0.020001120827370582,1.0118883076550156,0.3499627431454137,-1.1330817241821438,-1.3124748926080763
2024-09-23 05:22:03.299349,40.04,20.746588,-0.012012843752733671,0.020001120827370582,1.0118883076550156,0.3499627431454137,-1.1330817241821438,-1.434973311956227
2024-09-23 05:22:03.310475,40.04,20.746639,-0.014878899071680782,0.019025483627202678,1.0117053499523165,0.3280757409696467,-1.1330817241821438,-1.434973311956227
2024-09-23 05:22:03.352620,40.04,20.74669,-0.01182986782231462,0.019025483627202678,1.0117053499523165,0.3280757409696467,-1.1855647030871361,-1.5268184716790913
2024-09-23 05:22:03.364219,40.04,20.74669,-0.01182986782231462,0.02067186599113161,1.0151202039495033,0.3280757409696467,-1.1855647030871361,-1.5268184716790913
2024-09-23 05:22:03.406212,40.04,20.74674,-0.016098470255261652,0.01695219134944173,1.0151202039495033,0.3193667930966243,-0.9668666634198279,-1.4306188513599336
2024-09-23 05:22:03.448753,40.08,20.74674,-0.016098470255261652,0.01695219134944173,1.0149982969573756,0.29747979092085736,-0.993108152872324,-1.4306188513599336
2024-09-23 05:22:03.460089,40.08,20.746791,-0.01573262016586086,0.01695219134944173,1.0149982969573756,0.29747979092085736,-0.993108152872324,-1.413086283100024
2024-09-23 05:22:03.503308,40.08,20.746878,-0.01573262016586086,0.021159735476934217,1.0132908213515286,0.27559278874509036,-1.0718325145080685,-1.4174980532728136
2024-09-23 05:22:03.547204,40.08,20.746878,-0.014512945691866003,0.01798878660260355,1.0115223922496177,0.27559278874509036,-1.0718325145080685,-1.4174980532728136
2024-09-23 05:22:03.559086,40.08,20.746878,-0.014512945691866003,0.01798878660260355,1.0115223922496177,0.38932495064372197,-1.1680894444037229,-1.413086283100024
2024-09-23 05:22:03.591485,40.08,20.74693,-0.014512945691866003,0.01798878660260355,1.0115223922496177,0.38932495064372197,-1.1680894444037229,-1.413086283100024
2024-09-23 05:22:03.603085,40.08,20.74693,-0.014025177977500705,0.01890346574977754,1.0134736818397203,0.37184974532118065,-1.1068402347296475,-1.413086283100024
2024-09-23 05:22:03.646146,40.08,20.74698,-0.014512945691866003,0.01890346574977754,1.0134736818397203,0.37184974532118065,-1.1068402347296475,-1.4524485706396402
2024-09-23 05:22:03.657168,40.08,20.74698,-0.014512945691866003,0.020062078880364497,1.012498037044669,0.38061600277069957,-1.1068402347296475,-1.4524485706396402
2024-09-23 05:22:03.689273,40.08,20.74698,-0.014512945691866003,0.020062078880364497,1.012498037044669,0.38061600277069957,-1.1812102424908428,-1.4524485706396402
2024-09-23 05:22:03.700929,40.08,20.747031,-0.012134760618209839,0.020062078880364497,1.012925003160638,0.38061600277069957,-1.1812102424908428,-1.3518370734259486
2024-09-23 05:22:03.742575,40.08,20.747031,-0.012134760618209839,0.020062078880364497,1.012925003160638,0.3630834878716618,-1.0193495356030762,-1.404320052330941
2024-09-23 05:22:03.753876,40.08,20.747082,-0.015061773230662524,0.020001120827370582,1.012925003160638,0.3630834878716618,-1.0193495356030762,-1.404320052330941
2024-09-23 05:22:03.786462,40.08,20.747082,-0.015061773230662524,0.020001120827370582,1.0125589905407328,0.3630834878716618,-1.0193495356030762,-1.404320052330941
2024-09-23 05:22:03.798332,40.08,20.747132,-0.012744546969488612,0.020001120827370582,1.0125589905407328,0.3368419984191656,-1.1549687530383468,-1.3518370734259486
2024-09-23 05:22:03.893269,40.08,20.747219,-0.012744546969488612,0.01975718684395762,1.0108517093639005,0.2843590461946093,-1.0805987452771515,-1.461214801408723
2024-09-23 05:22:03.936525,40.08,20.747219,-0.01219582044264106,0.020732824044125523,1.015973941752427,0.2843590461946093,-1.0805987452771515,-1.461214801408723
2024-09-23 05:22:03.948372,40.08,20.747219,-0.01219582044264106,0.020732824044125523,1.015973941752427,0.27559278874509036,-1.0805987452771515,-1.461214801408723
2024-09-23 05:22:03.990914,40.08,20.747271,-0.017196025080394063,0.022989092252305523,1.0149372462468045,0.27559278874509036,-1.0762442846808582,-1.3999655917346479
2024-09-23 05:22:04.035069,40.08,20.747271,-0.017196025080394063,0.022989092252305523,1.0149372462468045,0.3062460483703762,-1.1287272635858505,-1.3999655917346479
2024-09-23 05:22:04.047029,40.08,20.747322,-0.013354434332716355,0.02237930666051509,1.0149372462468045,0.3062460483703762,-1.1287272635858505,-1.3999655917346479
2024-09-23 05:22:04.080274,40.08,20.747322,-0.013354434332716355,0.02237930666051509,1.0122541258459061,0.3062460483703762,-1.1287272635858505,-1.3999655917346479
2024-09-23 05:22:04.091551,40.08,20.747372,-0.009634658679077505,0.02237930666051509,1.0122541258459061,0.3368419984191656,-1.1024857741333545,-1.4218526205908506
2024-09-23 05:22:04.187032,40.08,20.747465,-0.009634658679077505,0.02140366946034718,1.0139006479556893,0.27559278874509036,-1.1987427040290088,-1.3168293532043696
2024-09-23 05:22:04.229424,40.08,20.747465,-0.01396421992450679,0.020245056329760223,1.0117664006628877,0.27559278874509036,-1.1987427040290088,-1.3168293532043696
2024-09-23 05:22:04.241000,40.08,20.747465,-0.01396421992450679,0.020245056329760223,1.0117664006628877,0.3237212803733535,-1.1111946953259408,-1.3606034109167755
2024-09-23 05:22:04.283370,40.08,20.747561,-0.015976452377836518,0.018842507696783625,1.0112784810508548,0.31060053564710544,-1.1330817241821438,-1.3606034109167755
2024-09-23 05:22:04.326804,40.08,20.747612,-0.016159429827232244,0.018842507696783625,1.0112784810508548,0.31060053564710544,-1.1330817241821438,-1.4174980532728136
2024-09-23 05:22:04.338774,40.08,20.747612,-0.016159429827232244,0.01890346574977754,1.012620041251304,0.3193667930966243,-1.1330817241821438,-1.4174980532728136
2024-09-23 05:22:04.381005,40.08,20.747663,-0.013598266544692013,0.01926931735815501,1.0164007134393813,0.3193667930966243,-1.1418479549512268,-1.4218526205908506
2024-09-23 05:22:04.424433,40.08,20.747663,-0.013598266544692013,0.01926931735815501,1.0164007134393813,0.38061600277069957,-1.1243154934130608,-1.4306188513599336
2024-09-23 05:22:04.436188,40.08,20.747758,-0.013049540777332799,0.01939133523558015,1.0164007134393813,0.38061600277069957,-1.1243154934130608,-1.4306188513599336
2024-09-23 05:22:04.479237,39.94,20.747808,-0.013842202047081654,0.01939133523558015,1.0101808320491685,0.27994727602181957,-1.15932321363464,-1.3693696416858583
2024-09-23 05:22:04.522377,39.94,20.747808,-0.013842202047081654,0.020915799974544576,1.008229542459066,0.3237212803733535,-1.15932321363464,-1.3693696416858583
2024-09-23 05:22:04.533741,39.94,20.747902,-0.013842202047081654,0.020915799974544576,1.008229542459066,0.3237212803733535,-1.1987427040290088,-1.3737241022821516
2024-09-23 05:22:04.577101,39.94,20.747902,-0.015122834574070423,0.02201345505213762,1.0148152420401695,0.31060053564710544,-1.1987427040290088,-1.4306188513599336
2024-09-23 05:22:04.620198,39.94,20.747953,-0.012500713238536278,0.021098777423940302,1.0146322843374704,0.31060053564710544,-1.1987427040290088,-1.4306188513599336
2024-09-23 05:22:04.631932,39.94,20.747953,-0.012500713238536278,0.021098777423940302,1.0146322843374704,0.29306802074806765,-1.1243154934130608,-1.4306188513599336
2024-09-23 05:22:04.664719,39.94,20.747953,-0.012500713238536278,0.021098777423940302,1.0146322843374704,0.29306802074806765,-1.1243154934130608,-1.4437395427253097
2024-09-23 05:22:04.676429,39.94,20.748004,-0.013354434332716355,0.021464627513341095,1.0164007134393813,0.3193667930966243,-1.1243154934130608,-1.4437395427253097
2024-09-23 05:22:04.719375,39.94,20.748055,-0.01219582044264106,0.021464627513341095,1.0164007134393813,0.3193667930966243,-1.1111946953259408,-1.3780785628784449
2024-09-23 05:22:04.730818,39.94,20.748055,-0.01219582044264106,0.020366972435748053,1.0139616014517532,0.3193667930966243,-1.1111946953259408,-1.3780785628784449
2024-09-23 05:22:04.763557,39.94,20.748055,-0.01219582044264106,0.020366972435748053,1.0139616014517532,0.3193667930966243,-1.1987427040290088,-1.3780785628784449
2024-09-23 05:22:04.775051,39.94,20.748105,-0.015244750680058252,0.020366972435748053,1.0139616014517532,0.3193667930966243,-1.1987427040290088,-1.509343212995678
2024-09-23 05:22:04.817049,39.94,20.748156,-0.015244750680058252,0.020366972435748053,1.012802998954003,0.29306802074806765,-1.15932321363464,-1.491868061034009
2024-09-23 05:22:04.828772,39.94,20.748156,-0.01268358815700636,0.020366972435748053,1.012802998954003,0.29306802074806765,-1.15932321363464,-1.491868061034009
2024-09-23 05:22:04.861363,39.94,20.748156,-0.01268358815700636,0.02140366946034718,1.0115223922496177,0.29306802074806765,-1.15932321363464,-1.491868061034009
2024-09-23 05:22:04.872816,39.94,20.748243,-0.01268358815700636,0.02140366946034718,1.0115223922496177,0.3630834878716618,-1.1374934943549335,-1.4174980532728136
2024-09-23 05:22:04.914821,39.94,20.748243,-0.014695923141261731,0.020793883868556746,1.0115223922496177,0.3630834878716618,-1.1374934943549335,-1.4174980532728136
2024-09-23 05:22:04.956779,39.94,20.748243,-0.014695923141261731,0.020793883868556746,1.0162788064472537,0.3630834878716618,-1.1374934943549335,-1.4174980532728136
2024-09-23 05:22:04.968783,39.94,20.748243,-0.014695923141261731,0.020793883868556746,1.0162788064472537,0.3368419984191656,-1.1855647030871361,-1.4174980532728136
2024-09-23 05:22:05.011425,39.94,20.748243,-0.014695923141261731,0.020793883868556746,1.0162788064472537,0.3368419984191656,-1.1855647030871361,-1.43932777255252
2024-09-23 05:22:05.064664,39.94,20.748295,-0.013598266544692013,0.019025483627202678,1.0109126628599643,0.3456082558686845,-1.1418479549512268,-1.43932777255252
2024-09-23 05:22:05.107138,39.94,20.748346,-0.014756881194255646,0.019025483627202678,1.0109126628599643,0.3456082558686845,-1.1418479549512268,-1.3737241022821516
2024-09-23 05:22:05.118182,39.94,20.748346,-0.014756881194255646,0.020549948366167105,1.0149982969573756,0.3849704900474288,-1.1418479549512268,-1.3737241022821516
2024-09-23 05:22:05.160896,39.94,20.748396,-0.010183486217874026,0.02048899031317319,1.012620041251304,0.3849704900474288,-1.0718325145080685,-1.3780785628784449
2024-09-23 05:22:05.204549,39.94,20.748396,-0.010183486217874026,0.02048899031317319,1.012620041251304,0.3280757409696467,-1.1812102424908428,-1.3956111311383546
2024-09-23 05:22:05.216590,39.94,20.748447,-0.012622630104012445,0.021037716080532405,1.012620041251304,0.3280757409696467,-1.1812102424908428,-1.3956111311383546
2024-09-23 05:22:05.259628,39.94,20.748585,-0.012073802565215924,0.021037716080532405,1.012802998954003,0.38061600277069957,-1.1243154934130608,-1.3956111311383546
2024-09-23 05:22:05.302104,39.94,20.748585,-0.012073802565215924,0.019208359305161096,1.0136566395424191,0.3193667930966243,-1.1243154934130608,-1.3956111311383546
2024-09-23 05:22:05.313601,39.94,20.748682,-0.012073802565215924,0.019208359305161096,1.0136566395424191,0.3193667930966243,-1.1549687530383468,-1.404320052330941
2024-09-23 05:22:05.356945,39.94,20.748682,-0.013598266544692013,0.018476656088406155,1.0122541258459061,0.3456082558686845,-1.1724439050000162,-1.3474826128296553
2024-09-23 05:22:05.398683,39.94,20.748733,-0.013049540777332799,0.018171764051999276,1.0122541258459061,0.3456082558686845,-1.1724439050000162,-1.3474826128296553
2024-09-23 05:22:05.410164,39.94,20.748733,-0.013049540777332799,0.018171764051999276,1.0133517748475924,0.3499627431454137,-1.1680894444037229,-1.3474826128296553
2024-09-23 05:22:05.453265,39.94,20.748784,-0.011342100107949322,0.019940162774376668,1.015973941752427,0.3324875378228724,-1.1680894444037229,-1.3868447936475277
2024-09-23 05:22:05.496669,39.97,20.748835,-0.011342100107949322,0.019940162774376668,1.015973941752427,0.3324875378228724,-1.1068402347296475,-1.448094003321603
2024-09-23 05:22:05.508366,39.97,20.748835,-0.012256778495634975,0.019818144896951533,1.0135347325502915,0.3324875378228724,-1.1068402347296475,-1.448094003321603
2024-09-23 05:22:05.551557,39.97,20.748886,-0.012866564846913748,0.02152558556633501,1.0135347325502915,0.3674952580444515,-1.0762442846808582,-1.404320052330941
2024-09-23 05:22:05.594370,39.97,20.748886,-0.012866564846913748,0.02152558556633501,1.014205512650516,0.37620423259790986,-1.0893650827679784,-1.404320052330941
2024-09-23 05:22:05.606072,39.97,20.748936,-0.012744546969488612,0.02152558556633501,1.014205512650516,0.37620423259790986,-1.0893650827679784,-1.426207081187144
2024-09-23 05:22:05.648636,39.97,20.749023,-0.012744546969488612,0.02213537267710212,1.0124370835486052,0.3849704900474288,-1.1330817241821438,-1.3780785628784449
2024-09-23 05:22:05.690431,39.97,20.749023,-0.013049540777332799,0.01835463821098102,1.0124370835486052,0.3849704900474288,-1.1330817241821438,-1.3780785628784449
2024-09-23 05:22:05.702071,39.97,20.749023,-0.013049540777332799,0.01835463821098102,1.0145103773453428,0.3456082558686845,-1.2118635021161288,-1.448094003321603
2024-09-23 05:22:05.746323,39.97,20.749075,-0.011281142054955407,0.01811080599900536,1.0118883076550156,0.3543172304221429,-1.0762442846808582,-1.448094003321603
2024-09-23 05:22:05.788722,39.97,20.749125,-0.011281142054955407,0.01811080599900536,1.0118883076550156,0.3543172304221429,-1.0762442846808582,-1.434973311956227
2024-09-23 05:22:05.841076,39.97,20.749125,-0.01573262016586086,0.02097675802753849,1.0169495865474782,0.38061600277069957,-1.0762442846808582,-1.434973311956227
2024-09-23 05:22:05.853114,39.97,20.749125,-0.01573262016586086,0.02097675802753849,1.0169495865474782,0.38061600277069957,-1.0543573625463993,-1.483101830264926
2024-09-23 05:22:05.885392,39.97,20.749176,-0.013232416455291218,0.02097675802753849,1.0169495865474782,0.38061600277069957,-1.0543573625463993,-1.483101830264926
2024-09-23 05:22:05.896637,39.97,20.749176,-0.013232416455291218,0.019696228790963704,1.0128639524500669,0.27123832814879717,-1.0805987452771515,-1.483101830264926
2024-09-23 05:22:05.939777,39.97,20.749227,-0.014939857124674697,0.01798878660260355,1.0121931723498423,0.27559278874509036,-1.0805987452771515,-1.3911993609655648
2024-09-23 05:22:05.981913,39.97,20.749227,-0.014939857124674697,0.01798878660260355,1.0121931723498423,0.27559278874509036,-1.1243154934130608,-1.3562488435987383
2024-09-23 05:22:05.993823,39.97,20.749277,-0.014939857124674697,0.01798878660260355,1.0121931723498423,0.27559278874509036,-1.1243154934130608,-1.3562488435987383
2024-09-23 05:22:06.036609,39.97,20.749277,-0.010610295879245411,0.020306014382754138,1.014205512650516,0.28871353347133843,-1.0674780539117754,-1.3562488435987383
2024-09-23 05:22:06.048571,39.97,20.749277,-0.010610295879245411,0.020306014382754138,1.014205512650516,0.28871353347133843,-1.0674780539117754,-1.4655692620050162
2024-09-23 05:22:06.080287,39.97,20.749365,-0.010244444270867941,0.020306014382754138,1.014205512650516,0.28871353347133843,-1.0674780539117754,-1.4655692620050162
2024-09-23 05:22:06.092236,39.97,20.749365,-0.010244444270867941,0.019330377182586234,1.0140835084438808,0.2843590461946093,-1.0980740039605648,-1.4655692620050162
2024-09-23 05:22:06.135144,39.97,20.749416,-0.013903160100075569,0.02280611632188647,1.0120102146471432,0.3674952580444515,-1.0980740039605648,-1.4874562908612192
2024-09-23 05:22:06.177393,39.97,20.749416,-0.013903160100075569,0.02280611632188647,1.0120102146471432,0.3674952580444515,-1.1812102424908428,-1.483101830264926
2024-09-23 05:22:06.188762,39.97,20.749511,-0.012439653414105056,0.02176952106872465,1.0084734536578288,0.3674952580444515,-1.1812102424908428,-1.483101830264926
2024-09-23 05:22:06.231675,39.97,20.749561,-0.014208053655459124,0.02176952106872465,1.0084734536578288,0.3324875378228724,-1.1287272635858505,-1.4437395427253097
2024-09-23 05:22:06.243703,39.97,20.749561,-0.014208053655459124,0.016830173472016593,1.0084734536578288,0.3324875378228724,-1.1287272635858505,-1.4437395427253097
2024-09-23 05:22:06.276229,39.97,20.749561,-0.014208053655459124,0.016830173472016593,1.0111565740587272,0.3849704900474288,-1.1287272635858505,-1.4437395427253097
2024-09-23 05:22:06.287628,39.97,20.749612,-0.01622038788022616,0.016830173472016593,1.0111565740587272,0.3849704900474288,-1.1243154934130608,-1.469981032177806
2024-09-23 05:22:06.330688,39.97,20.749706,-0.01622038788022616,0.02237930666051509,1.0158518403312846,0.3543172304221429,-1.1287272635858505,-1.294999633924663
2024-09-23 05:22:06.372476,39.97,20.749706,-0.011524974266931064,0.02067186599113161,1.0158518403312846,0.3543172304221429,-1.1287272635858505,-1.294999633924663
2024-09-23 05:22:06.384103,39.97,20.749706,-0.011524974266931064,0.02067186599113161,1.0114003880429827,0.3324875378228724,-1.1549687530383468,-1.3780785628784449
2024-09-23 05:22:06.427496,39.97,20.749757,-0.012317737308117227,0.01975718684395762,1.012925003160638,0.3543172304221429,-1.0849533125951887,-1.3780785628784449
2024-09-23 05:22:06.470603,39.97,20.749808,-0.012317737308117227,0.01975718684395762,1.012925003160638,0.3543172304221429,-1.0849533125951887,-1.4174980532728136
2024-09-23 05:22:06.482436,39.97,20.749808,-0.015610600769459046,0.020732824044125523,1.0135347325502915,0.3324875378228724,-1.0849533125951887,-1.4174980532728136
2024-09-23 05:22:06.525742,39.66,20.749859,-0.012744546969488612,0.018415698035412244,1.0114003880429827,0.3324875378228724,-1.1374934943549335,-1.4218526205908506
2024-09-23 05:22:06.569638,39.66,20.749859,-0.012744546969488612,0.018415698035412244,1.0114003880429827,0.3062460483703762,-1.0368247942864894,-1.3780785628784449
2024-09-23 05:22:06.580837,39.66,20.749909,-0.015000815177668611,0.02213537267710212,1.0114003880429827,0.3062460483703762,-1.0368247942864894,-1.3780785628784449
2024-09-23 05:22:06.622608,39.66,20.74996,-0.01378124399408774,0.02213537267710212,1.0129859566567019,0.3237212803733535,-1.1156065722204744,-1.4568603408124299
2024-09-23 05:22:06.665466,39.66,20.74996,-0.01378124399408774,0.01786687049661572,1.0149372462468045,0.3237212803733535,-1.1156065722204744,-1.4568603408124299
2024-09-23 05:22:06.677338,39.66,20.750047,-0.01378124399408774,0.01786687049661572,1.0149372462468045,0.3368419984191656,-1.2862334031555802,-1.3824903330512346
2024-09-23 05:22:06.720598,39.66,20.750047,-0.014695923141261731,0.015549642716465131,1.0121322188537785,0.3499627431454137,-1.1330817241821438,-1.3824903330512346
2024-09-23 05:22:06.732414,39.66,20.750047,-0.014695923141261731,0.015549642716465131,1.0121322188537785,0.3499627431454137,-1.1330817241821438,-1.404320052330941
2024-09-23 05:22:06.764999,39.66,20.750099,-0.014208053655459124,0.01823272210499319,1.0121322188537785,0.3499627431454137,-1.1330817241821438,-1.404320052330941
2024-09-23 05:22:06.776204,39.66,20.750099,-0.014208053655459124,0.01823272210499319,1.0138396944596255,0.37620423259790986,-1.1724439050000162,-1.404320052330941
2024-09-23 05:22:06.818339,39.66,20.75015,-0.01146401621393715,0.02280611632188647,1.0114003880429827,0.27994727602181957,-1.1724439050000162,-1.469981032177806
2024-09-23 05:22:06.860798,39.66,20.75015,-0.01146401621393715,0.02280611632188647,1.0114003880429827,0.27994727602181957,-1.2424594521649182,-1.518109550486505
2024-09-23 05:22:06.872656,39.66,20.7502,-0.013537308491698099,0.019025483627202678,1.0140835084438808,0.27994727602181957,-1.2424594521649182,-1.518109550486505
2024-09-23 05:22:06.916316,39.66,20.750251,-0.013354434332716355,0.018598572194393984,1.0140835084438808,0.37620423259790986,-1.1199610328167677,-1.3956111311383546
2024-09-23 05:22:06.959251,39.66,20.750251,-0.013354434332716355,0.018598572194393984,1.0139006479556893,0.35872900059493257,-1.1549687530383468,-1.3956111311383546
2024-09-23 05:22:06.970293,39.66,20.750302,-0.017439959063807027,0.018598572194393984,1.0139006479556893,0.35872900059493257,-1.1549687530383468,-1.3606034109167755
2024-09-23 05:22:07.012923,39.66,20.750302,-0.017439959063807027,0.021708563015730736,1.0135956860463553,0.35872900059493257,-1.1549687530383468,-1.3606034109167755
2024-09-23 05:22:07.054669,39.66,20.750302,-0.017439959063807027,0.021708563015730736,1.0135956860463553,0.3411964856958948,-1.1199610328167677,-1.3606034109167755
2024-09-23 05:22:07.065930,39.66,20.750388,-0.015671560341429636,0.02018409827676631,1.0135956860463553,0.3411964856958948,-1.1199610328167677,-1.43932777255252
2024-09-23 05:22:07.109014,39.66,20.75044,-0.015671560341429636,0.02018409827676631,1.0120102146471432,0.3018342781975865,-1.1418479549512268,-1.4306188513599336
2024-09-23 05:22:07.121273,39.66,20.75044,-0.014939857124674697,0.02018409827676631,1.0120102146471432,0.3018342781975865,-1.1418479549512268,-1.4306188513599336
2024-09-23 05:22:07.154461,39.66,20.75044,-0.014939857124674697,0.018781549643789714,1.0121322188537785,0.3018342781975865,-1.1418479549512268,-1.4306188513599336
2024-09-23 05:22:07.165470,39.66,20.750491,-0.014939857124674697,0.018781549643789714,1.0121322188537785,0.3018342781975865,-1.1680894444037229,-1.3911993609655648
2024-09-23 05:22:07.207414,39.66,20.750491,-0.012622630104012445,0.02201345505213762,1.0148762927507406,0.29306802074806765,-1.1243154934130608,-1.3080631224352866
2024-09-23 05:22:07.249477,39.66,20.750542,-0.014574005516297226,0.02201345505213762,1.0148762927507406,0.29306802074806765,-1.1243154934130608,-1.3080631224352866
2024-09-23 05:22:07.261441,39.66,20.750542,-0.014574005516297226,0.01926931735815501,1.0148762927507406,0.29306802074806765,-1.1243154934130608,-1.3080631224352866
2024-09-23 05:22:07.355745,39.66,20.750633,-0.014025177977500705,0.01926931735815501,1.0117053499523165,0.3849704900474288,-1.1637349838074296,-1.3255955839734523
2024-09-23 05:22:07.398290,39.66,20.750633,-0.014025177977500705,0.016891131525010507,1.0157299333391567,0.3237212803733535,-1.1637349838074296,-1.3255955839734523
2024-09-23 05:22:07.409714,39.66,20.750684,-0.014025177977500705,0.016891131525010507,1.0157299333391567,0.3237212803733535,-1.1199610328167677,-1.426207081187144
2024-09-23 05:22:07.452436,39.66,20.750684,-0.014878899071680782,0.016769215419022678,1.0151202039495033,0.3674952580444515,-1.1680894444037229,-1.3606034109167755
2024-09-23 05:22:07.495114,39.66,20.750735,-0.014574005516297226,0.019513251341567978,1.0151202039495033,0.3674952580444515,-1.1680894444037229,-1.3606034109167755
2024-09-23 05:22:07.506513,39.66,20.750735,-0.014574005516297226,0.019513251341567978,1.0106077981651376,0.38061600277069957,-1.1812102424908428,-1.3606034109167755
2024-09-23 05:22:07.549859,39.73,20.750786,-0.01585453627184869,0.019513251341567978,1.0168886330514144,0.24499683869630098,-1.1812102424908428,-1.3474826128296553
2024-09-23 05:22:07.591776,39.73,20.750786,-0.01585453627184869,0.019513251341567978,1.0168886330514144,0.24499683869630098,-1.1943309338562191,-1.4087318225037306
2024-09-23 05:22:07.603025,39.73,20.750926,-0.015427726610477303,0.02048899031317319,1.0140835084438808,0.24499683869630098,-1.1943309338562191,-1.4087318225037306
2024-09-23 05:22:07.647476,39.73,20.750977,-0.017013149402435646,0.022989092252305523,1.0140835084438808,0.3193667930966243,-1.1768557818945498,-1.3606034109167755
2024-09-23 05:22:07.691004,39.73,20.750977,-0.017013149402435646,0.022989092252305523,1.0109736163560281,0.39809120809324083,-1.203097164625302,-1.3606034109167755
2024-09-23 05:22:07.702542,39.73,20.751028,-0.013476350438704184,0.022989092252305523,1.0109736163560281,0.39809120809324083,-1.203097164625302,-1.3693696416858583
2024-09-23 05:22:07.744568,39.73,20.751119,-0.013476350438704184,0.01853761414140007,1.0128639524500669,0.37620423259790986,-1.1024857741333545,-1.3824903330512346
2024-09-23 05:22:07.787398,39.73,20.751119,-0.01481783924724956,0.01890346574977754,1.0147542885441054,0.37620423259790986,-1.1024857741333545,-1.3824903330512346
2024-09-23 05:22:07.798640,39.73,20.751119,-0.01481783924724956,0.01890346574977754,1.0147542885441054,0.39373674749694765,-1.1156065722204744,-1.3824903330512346
2024-09-23 05:22:07.840702,39.73,20.751171,-0.015488684663471218,0.01890346574977754,1.0147542885441054,0.39373674749694765,-1.1156065722204744,-1.3824903330512346
2024-09-23 05:22:07.882952,39.73,20.751171,-0.015488684663471218,0.022318348607521174,1.0147542885441054,0.39373674749694765,-1.1156065722204744,-1.3824903330512346
2024-09-23 05:22:07.894243,39.73,20.751222,-0.015488684663471218,0.022318348607521174,1.0122541258459061,0.29306802074806765,-1.1855647030871361,-1.3956111311383546
2024-09-23 05:22:07.936670,39.73,20.751222,-0.011586034850850625,0.022318348607521174,1.0122541258459061,0.29306802074806765,-1.1855647030871361,-1.3956111311383546
2024-09-23 05:22:07.979932,39.73,20.751222,-0.011586034850850625,0.01750101888823825,1.0122541258459061,0.29306802074806765,-1.1855647030871361,-1.3956111311383546
2024-09-23 05:22:07.991631,39.73,20.751272,-0.011586034850850625,0.01750101888823825,1.0121322188537785,0.28871353347133843,-1.1418479549512268,-1.3606034109167755
2024-09-23 05:22:08.034242,39.73,20.751272,-0.015427726610477303,0.01750101888823825,1.0121322188537785,0.28871353347133843,-1.1418479549512268,-1.3606034109167755
2024-09-23 05:22:08.077857,39.73,20.751272,-0.015427726610477303,0.016159429827232244,1.0121322188537785,0.28871353347133843,-1.1418479549512268,-1.3606034109167755
2024-09-23 05:22:08.089370,39.73,20.751323,-0.015427726610477303,0.016159429827232244,1.0100589250570406,0.2537058132497594,-1.1462025222692638,-1.4174980532728136
2024-09-23 05:22:08.131161,39.73,20.751323,-0.01146401621393715,0.020306014382754138,1.0134736818397203,0.24499683869630098,-1.1462025222692638,-1.4174980532728136
2024-09-23 05:22:08.142997,39.73,20.751323,-0.01146401621393715,0.020306014382754138,1.0134736818397203,0.24499683869630098,-1.15932321363464,-1.3780785628784449
2024-09-23 05:22:08.176445,39.73,20.751374,-0.01146401621393715,0.020306014382754138,1.0134736818397203,0.24499683869630098,-1.15932321363464,-1.3780785628784449
2024-09-23 05:22:08.187683,39.73,20.751374,-0.01146401621393715,0.02152558556633501,1.015973941752427,0.3324875378228724,-1.203097164625302,-1.3780785628784449
2024-09-23 05:22:08.229913,39.73,20.751374,-0.01146401621393715,0.02152558556633501,1.015973941752427,0.3324875378228724,-1.203097164625302,-1.4087318225037306
2024-09-23 05:22:08.271436,39.73,20.751463,-0.01146401621393715,0.02152558556633501,1.015973941752427,0.3324875378228724,-1.203097164625302,-1.4087318225037306
2024-09-23 05:22:08.324449,39.73,20.751463,-0.014878899071680782,0.019940162774376668,1.0145103773453428,0.3324875378228724,-1.203097164625302,-1.4087318225037306
2024-09-23 05:22:08.335954,39.73,20.751463,-0.014878899071680782,0.019940162774376668,1.0145103773453428,0.3499627431454137,-1.203097164625302,-1.3737241022821516
2024-09-23 05:22:08.379735,39.73,20.75156,-0.011403058160943235,0.02048899031317319,1.016705578134208,0.3062460483703762,-1.0980740039605648,-1.3737241022821516
2024-09-23 05:22:08.423081,39.73,20.751658,-0.015061773230662524,0.02067186599113161,1.016705578134208,0.3062460483703762,-1.0980740039605648,-1.3299501512914895
2024-09-23 05:22:08.434403,39.73,20.751658,-0.015061773230662524,0.02067186599113161,1.0109736163560281,0.35872900059493257,-1.0980740039605648,-1.3299501512914895
2024-09-23 05:22:08.467582,39.73,20.751658,-0.015061773230662524,0.02067186599113161,1.0109736163560281,0.35872900059493257,-1.0587118231426924,-1.3299501512914895
2024-09-23 05:22:08.478827,39.73,20.751709,-0.01481783924724956,0.018964423802771455,1.0149982969573756,0.35872900059493257,-1.0587118231426924,-1.3212411233771593
2024-09-23 05:22:08.520888,39.73,20.751802,-0.01481783924724956,0.018964423802771455,1.0149982969573756,0.3324875378228724,-1.1506142924420535,-1.3824903330512346
2024-09-23 05:22:08.532946,39.73,20.751802,-0.019574312684975875,0.01811080599900536,1.0149982969573756,0.3324875378228724,-1.1506142924420535,-1.3824903330512346
2024-09-23 05:22:08.565701,39.98,20.751802,-0.019574312684975875,0.01811080599900536,1.014144559154452,0.3324875378228724,-1.1506142924420535,-1.3824903330512346
2024-09-23 05:22:08.577236,39.98,20.751902,-0.012256778495634975,0.01811080599900536,1.014144559154452,0.3543172304221429,-1.1462025222692638,-1.469981032177806
2024-09-23 05:22:08.619631,39.98,20.751902,-0.012256778495634975,0.020245056329760223,1.0149372462468045,0.31060053564710544,-1.1637349838074296,-1.3474826128296553
2024-09-23 05:22:08.631280,39.98,20.751997,-0.012256778495634975,0.020245056329760223,1.0149372462468045,0.31060053564710544,-1.1637349838074296,-1.3474826128296553
2024-09-23 05:22:08.663991,39.98,20.751997,-0.01536666678604608,0.021037716080532405,1.0149372462468045,0.31060053564710544,-1.1637349838074296,-1.3474826128296553
2024-09-23 05:22:08.675395,39.98,20.751997,-0.01536666678604608,0.021037716080532405,1.011217527554791,0.3280757409696467,-1.0893650827679784,-1.3649578715130686
2024-09-23 05:22:08.717084,39.98,20.752048,-0.015488684663471218,0.019513251341567978,1.0143883731387076,0.4330989549952559,-1.0893650827679784,-1.3649578715130686
2024-09-23 05:22:08.728890,39.98,20.752048,-0.015488684663471218,0.019513251341567978,1.0143883731387076,0.4330989549952559,-1.1724439050000162,-1.3649578715130686
2024-09-23 05:22:08.761791,39.98,20.752099,-0.015488684663471218,0.019513251341567978,1.0143883731387076,0.4330989549952559,-1.1724439050000162,-1.4306188513599336
2024-09-23 05:22:08.773614,39.98,20.752099,-0.013293374508285133,0.021037716080532405,1.012802998954003,0.41121195281948897,-1.1724439050000162,-1.4306188513599336
2024-09-23 05:22:08.816345,39.98,20.75215,-0.014025177977500705,0.019818144896951533,1.0140835084438808,0.41121195281948897,-1.1506142924420535,-1.413086283100024
2024-09-23 05:22:08.858293,39.98,20.75215,-0.014025177977500705,0.019818144896951533,1.0140835084438808,0.3499627431454137,-1.1024857741333545,-1.413086283100024
2024-09-23 05:22:08.910531,39.98,20.752201,-0.010793271809664462,0.020366972435748053,1.0140835084438808,0.3499627431454137,-1.1024857741333545,-1.3956111311383546
2024-09-23 05:22:08.955649,39.98,20.752201,-0.010793271809664462,0.020366972435748053,1.0139006479556893,0.3499627431454137,-1.1024857741333545,-1.3956111311383546
2024-09-23 05:22:08.967610,39.98,20.752251,-0.01536666678604608,0.020366972435748053,1.0139006479556893,0.2668265312955715,-1.1549687530383468,-1.3956111311383546
2024-09-23 05:22:09.061848,39.98,20.752251,-0.01536666678604608,0.020366972435748053,1.0139006479556893,0.2668265312955715,-1.1549687530383468,-1.3956111311383546
2024-09-23 05:22:09.104724,39.98,20.752251,-0.01536666678604608,0.020366972435748053,1.0132908213515286,0.27123832814879717,-1.0762442846808582,-1.3956111311383546
2024-09-23 05:22:09.116288,39.98,20.752338,-0.01433007153288426,0.020366972435748053,1.0132908213515286,0.27123832814879717,-1.0762442846808582,-1.4218526205908506
2024-09-23 05:22:09.159050,39.98,20.75239,-0.01433007153288426,0.01811080599900536,1.0117664006628877,0.3280757409696467,-1.1374934943549335,-1.3824903330512346
2024-09-23 05:22:09.201825,39.98,20.75239,-0.015976452377836518,0.0187205915907958,1.0131688171448936,0.3280757409696467,-1.1374934943549335,-1.3824903330512346
2024-09-23 05:22:09.213430,39.98,20.75239,-0.015976452377836518,0.0187205915907958,1.0131688171448936,0.3149550229238346,-1.1506142924420535,-1.3868447936475277
2024-09-23 05:22:09.257148,39.98,20.75244,-0.014512945691866003,0.023781855293491683,1.01542506864433,0.2843590461946093,-1.1068402347296475,-1.3868447936475277
2024-09-23 05:22:09.300204,39.98,20.752535,-0.010366361136344109,0.02048899031317319,1.01542506864433,0.2843590461946093,-1.1068402347296475,-1.4306188513599336
2024-09-23 05:22:09.312093,39.98,20.752535,-0.010366361136344109,0.02048899031317319,1.01426646614658,0.31060053564710544,-1.1068402347296475,-1.4306188513599336
2024-09-23 05:22:09.344407,39.98,20.752535,-0.010366361136344109,0.02048899031317319,1.01426646614658,0.31060053564710544,-1.2468139127612115,-1.4306188513599336
2024-09-23 05:22:09.355580,39.98,20.752681,-0.013842202047081654,0.019879204721382753,1.0159129882563631,0.31060053564710544,-1.2468139127612115,-1.3737241022821516
2024-09-23 05:22:09.398648,39.98,20.752732,-0.013842202047081654,0.019879204721382753,1.0159129882563631,0.29747979092085736,-1.1899764732599258,-1.3649578715130686
2024-09-23 05:22:09.410108,39.98,20.752732,-0.011586034850850625,0.02140366946034718,1.0159129882563631,0.29747979092085736,-1.1899764732599258,-1.3649578715130686
2024-09-23 05:22:09.441999,39.98,20.752732,-0.011586034850850625,0.02140366946034718,1.0124370835486052,0.29747979092085736,-1.1899764732599258,-1.3649578715130686
2024-09-23 05:22:09.454174,39.98,20.752783,-0.014269113479890346,0.02140366946034718,1.0124370835486052,0.37620423259790986,-1.2205724233087152,-1.3956111311383546
2024-09-23 05:22:09.497962,39.98,20.752783,-0.014269113479890346,0.018659531766364576,1.014022554947817,0.2537058132497594,-1.014995075006783,-1.3255955839734523
2024-09-23 05:22:09.510074,39.98,20.752875,-0.014269113479890346,0.018659531766364576,1.014022554947817,0.2537058132497594,-1.014995075006783,-1.3255955839734523
2024-09-23 05:22:09.544057,39.98,20.752875,-0.015793578218854774,0.020427930488741967,1.01231507934197,0.2537058132497594,-1.014995075006783,-1.3255955839734523
2024-09-23 05:22:09.555941,39.98,20.752875,-0.015793578218854774,0.020427930488741967,1.01231507934197,0.3456082558686845,-1.1156065722204744,-1.3956111311383546
2024-09-23 05:22:09.587950,40.16,20.752926,-0.015793578218854774,0.020427930488741967,1.01231507934197,0.3456082558686845,-1.1156065722204744,-1.3956111311383546
2024-09-23 05:22:09.598931,40.16,20.752926,-0.01445198763887209,0.019818144896951533,1.0132298678554648,0.37184974532118065,-1.1987427040290088,-1.3956111311383546
2024-09-23 05:22:09.640681,40.16,20.752977,-0.016830173472016593,0.019818144896951533,1.0132298678554648,0.37184974532118065,-1.1987427040290088,-1.3911993609655648
2024-09-23 05:22:09.652369,40.16,20.752977,-0.016830173472016593,0.02097675802753849,1.0131688171448936,0.3280757409696467,-1.1987427040290088,-1.3911993609655648
2024-09-23 05:22:09.695306,40.16,20.753027,-0.014391029585878175,0.021159735476934217,1.0139616014517532,0.3280757409696467,-1.1330817241821438,-1.3080631224352866
2024-09-23 05:22:09.738207,40.16,20.753027,-0.014391029585878175,0.021159735476934217,1.0139616014517532,0.38061600277069957,-1.1111946953259408,-1.3080631224352866
2024-09-23 05:22:09.749400,40.16,20.753078,-0.012927522899907663,0.01768389456619667,1.0139616014517532,0.38061600277069957,-1.1111946953259408,-1.4087318225037306
2024-09-23 05:22:09.791256,40.16,20.753129,-0.015122834574070423,0.01768389456619667,1.0109126628599643,0.3368419984191656,-1.0805987452771515,-1.3911993609655648
2024-09-23 05:22:09.835148,40.16,20.753129,-0.015122834574070423,0.019879204721382753,1.011095523348156,0.3630834878716618,-1.0805987452771515,-1.3911993609655648
2024-09-23 05:22:09.846686,40.16,20.753216,-0.015122834574070423,0.019879204721382753,1.011095523348156,0.3630834878716618,-1.1374934943549335,-1.3212411233771593
2024-09-23 05:22:09.889693,40.16,20.753216,-0.015610600769459046,0.02097675802753849,1.0148762927507406,0.4505741869982332,-1.203097164625302,-1.3911993609655648
2024-09-23 05:22:09.933116,40.16,20.753267,-0.016098470255261652,0.018171764051999276,1.0148762927507406,0.4505741869982332,-1.203097164625302,-1.3911993609655648
2024-09-23 05:22:09.945273,40.16,20.753267,-0.016098470255261652,0.018171764051999276,1.0115833457456815,0.4505741869982332,-1.203097164625302,-1.3911993609655648
2024-09-23 05:22:09.988449,40.16,20.753318,-0.015549642716465131,0.018964423802771455,1.0115833457456815,0.446219699721504,-1.1637349838074296,-1.3911993609655648
2024-09-23 05:22:10.033180,40.16,20.753318,-0.015549642716465131,0.018964423802771455,1.011034569852092,0.3193667930966243,-1.2293386540777982,-1.3911993609655648
2024-09-23 05:22:10.044606,40.16,20.753369,-0.008171151993106994,0.018964423802771455,1.011034569852092,0.3193667930966243,-1.2293386540777982,-1.3737241022821516
2024-09-23 05:22:10.129895,40.16,20.753369,-0.008171151993106994,0.02048899031317319,1.016705578134208,0.3062460483703762,-1.216217962712422,-1.3737241022821516
2024-09-23 05:22:10.141711,40.16,20.753419,-0.008171151993106994,0.02048899031317319,1.016705578134208,0.3062460483703762,-1.216217962712422,-1.426207081187144
2024-09-23 05:22:10.174402,40.16,20.753419,-0.012317737308117227,0.02048899031317319,1.016705578134208,0.3062460483703762,-1.216217962712422,-1.426207081187144
2024-09-23 05:22:10.186625,40.16,20.753419,-0.012317737308117227,0.020001120827370582,1.0125589905407328,0.3237212803733535,-1.1330817241821438,-1.4437395427253097
2024-09-23 05:22:10.230076,40.16,20.75347,-0.011403058160943235,0.01890346574977754,1.012498037044669,0.28871353347133843,-1.1330817241821438,-1.4437395427253097
2024-09-23 05:22:10.241817,40.16,20.75347,-0.011403058160943235,0.01890346574977754,1.012498037044669,0.28871353347133843,-1.1199610328167677,-1.4437395427253097
2024-09-23 05:22:10.273773,40.16,20.753558,-0.015183792627064338,0.01890346574977754,1.012498037044669,0.28871353347133843,-1.1199610328167677,-1.4568603408124299
2024-09-23 05:22:10.284837,40.16,20.753558,-0.015183792627064338,0.019879204721382753,1.0134736818397203,0.24499683869630098,-1.1199610328167677,-1.4568603408124299
2024-09-23 05:22:10.328243,40.16,20.753609,-0.013476350438704184,0.01963527073796979,1.0087784155671629,0.24499683869630098,-1.1199610328167677,-1.469981032177806
2024-09-23 05:22:10.371771,40.16,20.753609,-0.013476350438704184,0.01963527073796979,1.0087784155671629,0.37620423259790986,-1.0237041029211134,-1.294999633924663
2024-09-23 05:22:10.383297,40.16,20.753705,-0.011098165365048018,0.018476656088406155,1.0087784155671629,0.37620423259790986,-1.0237041029211134,-1.294999633924663
2024-09-23 05:22:10.425821,40.16,20.753756,-0.012012843752733671,0.018476656088406155,1.0112784810508548,0.3324875378228724,-1.1156065722204744,-1.3518370734259486
2024-09-23 05:22:10.468377,40.16,20.753756,-0.012012843752733671,0.019940162774376668,1.0134736818397203,0.28871353347133843,-1.1156065722204744,-1.3518370734259486
2024-09-23 05:22:10.520643,40.16,20.753849,-0.012134760618209839,0.021708563015730736,1.0134736818397203,0.28871353347133843,-1.0849533125951887,-1.3956111311383546
2024-09-23 05:22:10.532461,40.16,20.753849,-0.012134760618209839,0.021708563015730736,1.0139616014517532,0.28871353347133843,-1.0849533125951887,-1.3956111311383546
2024-09-23 05:22:10.565751,40.16,20.753849,-0.012134760618209839,0.021708563015730736,1.0139616014517532,0.3368419984191656,-1.1987427040290088,-1.3956111311383546
2024-09-23 05:22:10.576825,40.16,20.753901,-0.012622630104012445,0.018842507696783625,1.0139616014517532,0.3368419984191656,-1.1987427040290088,-1.4087318225037306
2024-09-23 05:22:10.619102,39.93,20.753952,-0.012622630104012445,0.018842507696783625,1.0125589905407328,0.3149550229238346,-1.1637349838074296,-1.3606034109167755
2024-09-23 05:22:10.631253,39.93,20.753952,-0.014756881194255646,0.018842507696783625,1.0125589905407328,0.3149550229238346,-1.1637349838074296,-1.3606034109167755
2024-09-23 05:22:10.663529,39.93,20.753952,-0.014756881194255646,0.021098777423940302,1.0107906586533293,0.3018342781975865,-1.1637349838074296,-1.3606034109167755
2024-09-23 05:22:10.677919,39.93,20.754002,-0.014756881194255646,0.021098777423940302,1.0107906586533293,0.3018342781975865,-1.1374934943549335,-1.3737241022821516
2024-09-23 05:22:10.709986,39.93,20.754002,-0.012317737308117227,0.021098777423940302,1.0107906586533293,0.3018342781975865,-1.1374934943549335,-1.3737241022821516
2024-09-23 05:22:10.720937,39.93,20.754002,-0.012317737308117227,0.01975718684395762,1.012742045457939,0.3324875378228724,-1.1374934943549335,-1.3737241022821516
2024-09-23 05:22:10.763069,39.93,20.754094,-0.01664729931303485,0.01975718684395762,1.012742045457939,0.3324875378228724,-1.1855647030871361,-1.3956111311383546
2024-09-23 05:22:10.774392,39.93,20.754094,-0.01664729931303485,0.02207441310513153,1.0140835084438808,0.3324875378228724,-1.1855647030871361,-1.3956111311383546
2024-09-23 05:22:10.806596,39.93,20.754094,-0.01664729931303485,0.02207441310513153,1.0140835084438808,0.3193667930966243,-1.1855647030871361,-1.3956111311383546
2024-09-23 05:22:10.818304,39.93,20.754145,-0.012927522899907663,0.019513251341567978,1.0140835084438808,0.3193667930966243,-1.0587118231426924,-1.4174980532728136
2024-09-23 05:22:10.861739,39.93,20.754145,-0.012927522899907663,0.019513251341567978,1.012802998954003,0.3149550229238346,-1.0587118231426924,-1.3649578715130686
2024-09-23 05:22:10.873379,39.93,20.754196,-0.011037206552565765,0.019513251341567978,1.012802998954003,0.3149550229238346,-1.0587118231426924,-1.3649578715130686
2024-09-23 05:22:10.905774,39.93,20.754196,-0.011037206552565765,0.018293680157987106,1.012802998954003,0.3149550229238346,-1.0587118231426924,-1.3649578715130686
2024-09-23 05:22:10.917663,39.93,20.754247,-0.011037206552565765,0.018293680157987106,1.0112784810508548,0.3149550229238346,-1.1024857741333545,-1.4524485706396402
2024-09-23 05:22:10.960393,39.93,20.754247,-0.01481783924724956,0.02018409827676631,1.0105467474545664,0.3674952580444515,-1.1374934943549335,-1.4524485706396402
2024-09-23 05:22:10.972219,39.93,20.754247,-0.01481783924724956,0.02018409827676631,1.0105467474545664,0.3674952580444515,-1.1374934943549335,-1.426207081187144
2024-09-23 05:22:11.004657,39.93,20.754337,-0.012622630104012445,0.02018409827676631,1.0105467474545664,0.3674952580444515,-1.1374934943549335,-1.426207081187144
2024-09-23 05:22:11.016335,39.93,20.754337,-0.012622630104012445,0.021464627513341095,1.0132908213515286,0.2668265312955715,-1.1943309338562191,-1.426207081187144
2024-09-23 05:22:11.059543,39.93,20.754389,-0.01219582044264106,0.021952496999143704,1.0138396944596255,0.3324875378228724,-1.1943309338562191,-1.3999655917346479
2024-09-23 05:22:11.152624,39.93,20.75444,-0.013232416455291218,0.021952496999143704,1.0138396944596255,0.3324875378228724,-1.1768557818945498,-1.3737241022821516
2024-09-23 05:22:11.164320,39.93,20.75444,-0.013232416455291218,0.020610907938137694,1.0146322843374704,0.3324875378228724,-1.1768557818945498,-1.3737241022821516
2024-09-23 05:22:11.196803,39.93,20.75444,-0.013232416455291218,0.020610907938137694,1.0146322843374704,0.3674952580444515,-1.1768557818945498,-1.3737241022821516
2024-09-23 05:22:11.208078,39.93,20.75449,-0.011707950956838454,0.021098777423940302,1.0146322843374704,0.3674952580444515,-1.1024857741333545,-1.3168293532043696
2024-09-23 05:22:11.251358,39.93,20.75449,-0.011707950956838454,0.021098777423940302,1.0144494238492787,0.3630834878716618,-1.0630662837389857,-1.3999655917346479
2024-09-23 05:22:11.262656,39.93,20.754541,-0.014208053655459124,0.021098777423940302,1.0144494238492787,0.3630834878716618,-1.0630662837389857,-1.3999655917346479
2024-09-23 05:22:11.294837,39.93,20.754541,-0.014208053655459124,0.019086441680196593,1.0144494238492787,0.3630834878716618,-1.0630662837389857,-1.3999655917346479
2024-09-23 05:22:11.306620,39.93,20.754541,-0.014208053655459124,0.019086441680196593,1.0101808320491685,0.3630834878716618,-1.0630662837389857,-1.3999655917346479
2024-09-23 05:22:11.348922,39.93,20.75463,-0.014208053655459124,0.019086441680196593,1.0101808320491685,0.2668265312955715,-1.0980740039605648,-1.3999655917346479
2024-09-23 05:22:11.360280,39.93,20.75463,-0.015122834574070423,0.02317206970170125,1.0101808320491685,0.2668265312955715,-1.0980740039605648,-1.3999655917346479
2024-09-23 05:22:11.393131,39.93,20.75463,-0.015122834574070423,0.02317206970170125,1.0135956860463553,0.2668265312955715,-1.0980740039605648,-1.3999655917346479
2024-09-23 05:22:11.405147,39.93,20.754727,-0.014512945691866003,0.02317206970170125,1.0135956860463553,0.3237212803733535,-1.1637349838074296,-1.4174980532728136
2024-09-23 05:22:11.448214,39.93,20.754727,-0.014512945691866003,0.019452293288574063,1.0157299333391567,0.3411964856958948,-1.1768557818945498,-1.3562488435987383
2024-09-23 05:22:11.459917,39.93,20.754779,-0.014512945691866003,0.019452293288574063,1.0157299333391567,0.3411964856958948,-1.1768557818945498,-1.3562488435987383
2024-09-23 05:22:11.493251,39.93,20.754779,-0.01256167205101853,0.020610907938137694,1.0174374089450038,0.3411964856958948,-1.1768557818945498,-1.3562488435987383
2024-09-23 05:22:11.504346,39.93,20.754779,-0.01256167205101853,0.020610907938137694,1.0174374089450038,0.3368419984191656,-1.1680894444037229,-1.3562488435987383
2024-09-23 05:22:11.546893,39.93,20.75483,-0.012439653414105056,0.02122069352992813,1.0146322843374704,0.38061600277069957,-1.1680894444037229,-1.3562488435987383
2024-09-23 05:22:11.558723,39.93,20.75483,-0.012439653414105056,0.02122069352992813,1.0146322843374704,0.38061600277069957,-1.1287272635858505,-1.3562488435987383
2024-09-23 05:22:11.590373,39.93,20.754923,-0.010671253932239326,0.02122069352992813,1.0146322843374704,0.38061600277069957,-1.1287272635858505,-1.434973311956227
2024-09-23 05:22:11.601455,39.93,20.754923,-0.010671253932239326,0.020245056329760223,1.0103028362558035,0.3062460483703762,-1.1287272635858505,-1.434973311956227
2024-09-23 05:22:11.644760,40.52,20.754974,-0.01585453627184869,0.019330377182586234,1.014144559154452,0.3062460483703762,-1.1374934943549335,-1.3649578715130686
2024-09-23 05:22:11.687723,40.52,20.754974,-0.01585453627184869,0.019330377182586234,1.014144559154452,0.3149550229238346,-1.1024857741333545,-1.3649578715130686
2024-09-23 05:22:11.699428,40.52,20.755025,-0.016586237969626952,0.019818144896951533,1.014144559154452,0.3149550229238346,-1.1024857741333545,-1.426207081187144
2024-09-23 05:22:11.742121,40.52,20.755076,-0.016586237969626952,0.019818144896951533,1.0096319589410718,0.3456082558686845,-1.1287272635858505,-1.3911993609655648
2024-09-23 05:22:11.784989,40.52,20.755076,-0.015183792627064338,0.02134260963591596,1.0132298678554648,0.3456082558686845,-1.1287272635858505,-1.3911993609655648
2024-09-23 05:22:11.796814,40.52,20.755076,-0.015183792627064338,0.02134260963591596,1.0132298678554648,0.3456082558686845,-1.1068402347296475,-1.3343619214642792
2024-09-23 05:22:11.839838,40.52,20.755166,-0.017196025080394063,0.019940162774376668,1.0104247432479314,0.3630834878716618,-1.0543573625463993,-1.3343619214642792
2024-09-23 05:22:11.883137,40.52,20.755217,-0.012134760618209839,0.019940162774376668,1.0104247432479314,0.3630834878716618,-1.0543573625463993,-1.404320052330941
2024-09-23 05:22:11.894441,40.52,20.755217,-0.012134760618209839,0.02018409827676631,1.015546975636458,0.4374534422719851,-1.0543573625463993,-1.404320052330941
2024-09-23 05:22:11.937393,40.52,20.755268,-0.012012843752733671,0.018659531766364576,1.0102418827597397,0.4374534422719851,-0.9493340951599181,-1.461214801408723
2024-09-23 05:22:11.979122,40.52,20.755268,-0.012012843752733671,0.018659531766364576,1.0102418827597397,0.41997821026900783,-1.1024857741333545,-1.461214801408723
2024-09-23 05:22:11.990762,40.52,20.755319,-0.018171764051999276,0.01811080599900536,1.0102418827597397,0.41997821026900783,-1.1024857741333545,-1.413086283100024
2024-09-23 05:22:12.033626,40.52,20.755369,-0.015183792627064338,0.01811080599900536,1.017132544250177,0.28871353347133843,-1.0937195433642715,-1.4568603408124299
2024-09-23 05:22:12.078033,40.52,20.755369,-0.015183792627064338,0.021098777423940302,1.0140835084438808,0.27994727602181957,-1.0937195433642715,-1.4568603408124299
2024-09-23 05:22:12.090198,40.52,20.755458,-0.015183792627064338,0.021098777423940302,1.0140835084438808,0.27994727602181957,-1.0937195433642715,-1.434973311956227
2024-09-23 05:22:12.132982,40.52,20.755458,-0.014574005516297226,0.018781549643789714,1.012925003160638,0.3543172304221429,-1.0980740039605648,-1.3999655917346479
2024-09-23 05:22:12.227920,40.52,20.75551,-0.017744852619190586,0.019879204721382753,1.0138396944596255,0.40244569536997005,-1.0980740039605648,-1.3999655917346479
2024-09-23 05:22:12.240203,40.52,20.75551,-0.017744852619190586,0.019879204721382753,1.0138396944596255,0.40244569536997005,-1.1637349838074296,-1.3999655917346479
2024-09-23 05:22:12.273081,40.52,20.75556,-0.012378695361111141,0.019879204721382753,1.0138396944596255,0.40244569536997005,-1.1637349838074296,-1.3999655917346479
2024-09-23 05:22:12.284727,40.52,20.75556,-0.012378695361111141,0.020549948366167105,1.0173154047383688,0.3368419984191656,-1.1637349838074296,-1.3999655917346479
2024-09-23 05:22:12.327299,40.52,20.755611,-0.009817635368984895,0.02018409827676631,1.0128639524500669,0.3368419984191656,-1.259991913703084,-1.3824903330512346
2024-09-23 05:22:12.370720,40.52,20.755611,-0.009817635368984895,0.02018409827676631,1.0128639524500669,0.3062460483703762,-1.1330817241821438,-1.4655692620050162
2024-09-23 05:22:12.382091,40.52,20.755662,-0.014634963569291141,0.018659531766364576,1.0128639524500669,0.3062460483703762,-1.1330817241821438,-1.4655692620050162
2024-09-23 05:22:12.425861,40.52,20.755713,-0.01378124399408774,0.018659531766364576,1.0160958487445546,0.3499627431454137,-1.15932321363464,-1.4568603408124299
2024-09-23 05:22:12.468212,40.52,20.755713,-0.01378124399408774,0.02048899031317319,1.0118273541589518,0.27123832814879717,-1.15932321363464,-1.4568603408124299
2024-09-23 05:22:12.479718,40.52,20.755848,-0.01378124399408774,0.02048899031317319,1.0118273541589518,0.27123832814879717,-1.0849533125951887,-1.434973311956227
2024-09-23 05:22:12.522492,40.52,20.755848,-0.013110498830326714,0.02085484192155066,1.0138396944596255,0.2843590461946093,-1.15932321363464,-1.3956111311383546
2024-09-23 05:22:12.564655,40.52,20.7559,-0.012439653414105056,0.02085484192155066,1.0138396944596255,0.2843590461946093,-1.15932321363464,-1.3956111311383546
2024-09-23 05:22:12.576530,40.52,20.7559,-0.012439653414105056,0.021708563015730736,1.01426646614658,0.3237212803733535,-1.203097164625302,-1.3956111311383546
2024-09-23 05:22:12.618907,40.52,20.75595,-0.015305708733052167,0.02085484192155066,1.0100589250570406,0.3630834878716618,-1.203097164625302,-1.3168293532043696
2024-09-23 05:22:12.661458,40.37,20.75595,-0.015305708733052167,0.02085484192155066,1.0100589250570406,0.3630834878716618,-1.1156065722204744,-1.3299501512914895
2024-09-23 05:22:12.672883,40.37,20.756001,-0.010671253932239326,0.017805912443621806,1.0108517093639005,0.3630834878716618,-1.1156065722204744,-1.3299501512914895
2024-09-23 05:22:12.715128,40.37,20.756052,-0.014208053655459124,0.017805912443621806,1.0108517093639005,0.37184974532118065,-1.0937195433642715,-1.404320052330941
2024-09-23 05:22:12.726531,40.37,20.756052,-0.014208053655459124,0.019574312684975875,1.0108517093639005,0.37184974532118065,-1.0937195433642715,-1.404320052330941
2024-09-23 05:22:12.759037,40.37,20.756052,-0.014208053655459124,0.019574312684975875,1.0130469101527657,0.2843590461946093,-1.0937195433642715,-1.404320052330941
2024-09-23 05:22:12.769983,40.37,20.756103,-0.011037206552565765,0.019574312684975875,1.0130469101527657,0.2843590461946093,-1.1156065722204744,-1.461214801408723
2024-09-23 05:22:12.864246,40.37,20.75619,-0.011037206552565765,0.021281651582922046,1.0107297051572652,0.3456082558686845,-1.1549687530383468,-1.3911993609655648
2024-09-23 05:22:12.906850,40.37,20.75619,-0.015793578218854774,0.018415698035412244,1.0132298678554648,0.3456082558686845,-1.1549687530383468,-1.3911993609655648
2024-09-23 05:22:12.918476,40.37,20.75619,-0.015793578218854774,0.018415698035412244,1.0132298678554648,0.28871353347133843,-1.1812102424908428,-1.426207081187144
2024-09-23 05:22:12.960994,40.37,20.756241,-0.01445198763887209,0.019086441680196593,1.012802998954003,0.41121195281948897,-1.1024857741333545,-1.426207081187144
2024-09-23 05:22:13.003258,40.37,20.756292,-0.01445198763887209,0.019086441680196593,1.012802998954003,0.41121195281948897,-1.1024857741333545,-1.3562488435987383
2024-09-23 05:22:13.056485,40.37,20.756292,-0.012500713238536278,0.016159429827232244,1.0099979715609768,0.37620423259790986,-1.1899764732599258,-1.3562488435987383
2024-09-23 05:22:13.068654,40.37,20.756292,-0.012500713238536278,0.016159429827232244,1.0099979715609768,0.37620423259790986,-1.1899764732599258,-1.404320052330941
2024-09-23 05:22:13.100281,40.37,20.756343,-0.014147094083488534,0.016159429827232244,1.0099979715609768,0.37620423259790986,-1.1899764732599258,-1.404320052330941
2024-09-23 05:22:13.111608,40.37,20.756343,-0.014147094083488534,0.019879204721382753,1.0130469101527657,0.39809120809324083,-1.1287272635858505,-1.404320052330941
2024-09-23 05:22:13.195196,40.37,20.756343,-0.014147094083488534,0.019879204721382753,1.0130469101527657,0.39809120809324083,-1.1287272635858505,-1.3430708426568656
2024-09-23 05:22:13.206785,40.37,20.756435,-0.01408613603049462,0.019879204721382753,1.0130469101527657,0.39809120809324083,-1.1287272635858505,-1.3430708426568656
2024-09-23 05:22:13.249882,40.37,20.756435,-0.01408613603049462,0.020245056329760223,1.015668979843093,0.40244569536997005,-1.1287272635858505,-1.3430708426568656
2024-09-23 05:22:13.293423,40.37,20.756435,-0.01408613603049462,0.020245056329760223,1.015668979843093,0.40244569536997005,-1.1287272635858505,-1.3430708426568656
2024-09-23 05:22:13.304810,40.37,20.756486,-0.015305708733052167,0.01713506550842347,1.0122541258459061,0.40244569536997005,-1.1287272635858505,-1.4437395427253097
2024-09-23 05:22:13.347673,40.37,20.756579,-0.015305708733052167,0.01713506550842347,1.0122541258459061,0.3499627431454137,-1.2555801435302942,-1.3518370734259486
2024-09-23 05:22:13.359190,40.37,20.756579,-0.017013149402435646,0.019086441680196593,1.0122541258459061,0.3499627431454137,-1.2555801435302942,-1.3518370734259486
2024-09-23 05:22:13.391959,40.37,20.756579,-0.017013149402435646,0.019086441680196593,1.0118883076550156,0.3499627431454137,-1.2555801435302942,-1.3518370734259486
2024-09-23 05:22:13.403933,40.37,20.756631,-0.014512945691866003,0.019086441680196593,1.0118883076550156,0.3543172304221429,-1.1156065722204744,-1.4087318225037306
2024-09-23 05:22:13.497368,40.37,20.756774,-0.014512945691866003,0.017561976941232165,1.0139006479556893,0.3324875378228724,-1.1637349838074296,-1.3956111311383546
2024-09-23 05:22:13.540671,40.37,20.756774,-0.015427726610477303,0.01975718684395762,1.0114003880429827,0.3324875378228724,-1.1637349838074296,-1.3956111311383546
2024-09-23 05:22:13.552373,40.37,20.756774,-0.015427726610477303,0.01975718684395762,1.0114003880429827,0.3543172304221429,-1.0455910250555724,-1.3649578715130686
2024-09-23 05:22:13.594606,40.37,20.756873,-0.016281345933220073,0.019086441680196593,1.0133517748475924,0.3237212803733535,-1.1024857741333545,-1.3649578715130686
2024-09-23 05:22:13.637921,40.37,20.756924,-0.01573262016586086,0.019086441680196593,1.0133517748475924,0.3237212803733535,-1.1024857741333545,-1.404320052330941
2024-09-23 05:22:13.649666,40.37,20.756924,-0.01573262016586086,0.016891131525010507,1.0145103773453428,0.3280757409696467,-1.1024857741333545,-1.404320052330941
2024-09-23 05:22:13.692818,40.02,20.756975,-0.01341539238571027,0.021281651582922046,1.0145713308414066,0.3280757409696467,-1.0762442846808582,-1.3868447936475277
2024-09-23 05:22:13.734661,40.02,20.756975,-0.01341539238571027,0.021281651582922046,1.0145713308414066,0.40685746554275976,-1.1156065722204744,-1.3518370734259486
2024-09-23 05:22:13.745918,40.02,20.757069,-0.013720285941093825,0.01975718684395762,1.0145713308414066,0.40685746554275976,-1.1156065722204744,-1.3518370734259486
2024-09-23 05:22:13.789557,40.02,20.75712,-0.011768909009832369,0.01975718684395762,1.0135347325502915,0.3674952580444515,-1.15932321363464,-1.3299501512914895
2024-09-23 05:22:13.832881,40.02,20.75712,-0.011768909009832369,0.018598572194393984,1.0151811574455674,0.19686837374847382,-1.15932321363464,-1.3299501512914895
2024-09-23 05:22:13.844414,40.02,20.757213,-0.011768909009832369,0.018598572194393984,1.0151811574455674,0.19686837374847382,-1.1812102424908428,-1.4568603408124299
2024-09-23 05:22:13.887255,40.02,20.757213,-0.011098165365048018,0.020793883868556746,1.0103637897518674,0.28871353347133843,-1.0849533125951887,-1.3430708426568656
2024-09-23 05:22:13.982260,40.02,20.757265,-0.016708257366028764,0.02018409827676631,1.0117053499523165,0.28871353347133843,-1.0849533125951887,-1.3430708426568656
2024-09-23 05:22:13.994730,40.02,20.757265,-0.016708257366028764,0.02018409827676631,1.0117053499523165,0.2581175834225491,-1.1462025222692638,-1.3430708426568656
2024-09-23 05:22:14.028528,40.02,20.757315,-0.012805606793919833,0.02018409827676631,1.0117053499523165,0.2581175834225491,-1.1462025222692638,-1.43932777255252
2024-09-23 05:22:14.039772,40.02,20.757315,-0.012805606793919833,0.01811080599900536,1.015486022140394,0.2581175834225491,-1.1462025222692638,-1.43932777255252
2024-09-23 05:22:14.083049,40.02,20.757366,-0.014634963569291141,0.02274515826889256,1.015486022140394,0.27559278874509036,-1.15932321363464,-1.3780785628784449
2024-09-23 05:22:14.124843,40.02,20.757366,-0.014634963569291141,0.02274515826889256,1.0130469101527657,0.3368419984191656,-1.15932321363464,-1.3780785628784449
2024-09-23 05:22:14.137190,40.02,20.757417,-0.01433007153288426,0.02274515826889256,1.0130469101527657,0.3368419984191656,-1.1462025222692638,-1.3387163820605725
2024-09-23 05:22:14.221398,40.02,20.757417,-0.01433007153288426,0.02237930666051509,1.0114614387535539,0.3368419984191656,-1.1462025222692638,-1.3387163820605725
2024-09-23 05:22:14.232599,40.02,20.757468,-0.01433007153288426,0.02237930666051509,1.0114614387535539,0.3237212803733535,-1.1637349838074296,-1.3343619214642792
2024-09-23 05:22:14.275842,40.02,20.757468,-0.010793271809664462,0.01975718684395762,1.009266140750181,0.2581175834225491,-1.1987427040290088,-1.3343619214642792
2024-09-23 05:22:14.287856,40.02,20.757468,-0.010793271809664462,0.01975718684395762,1.009266140750181,0.2581175834225491,-1.1987427040290088,-1.3518370734259486
2024-09-23 05:22:14.320786,40.02,20.757603,-0.01219582044264106,0.018293680157987106,1.009266140750181,0.2581175834225491,-1.1987427040290088,-1.3518370734259486
2024-09-23 05:22:14.332245,40.02,20.757603,-0.01219582044264106,0.018293680157987106,1.0165227176460165,0.2668265312955715,-1.2118635021161288,-1.3518370734259486
2024-09-23 05:22:14.374465,40.02,20.757655,-0.011890927646745842,0.019696228790963704,1.0106077981651376,0.3499627431454137,-1.2118635021161288,-1.3562488435987383
2024-09-23 05:22:14.417144,40.02,20.757705,-0.011890927646745842,0.019696228790963704,1.0106077981651376,0.3499627431454137,-1.2205724233087152,-1.3737241022821516
2024-09-23 05:22:14.428391,40.02,20.757705,-0.011098165365048018,0.017744852619190586,1.0158518403312846,0.3499627431454137,-1.2205724233087152,-1.3737241022821516
2024-09-23 05:22:14.470113,40.02,20.7578,-0.015976452377836518,0.017744852619190586,1.0158518403312846,0.3674952580444515,-1.1768557818945498,-1.518109550486505
2024-09-23 05:22:14.481800,40.02,20.7578,-0.015976452377836518,0.020610907938137694,1.0158518403312846,0.3674952580444515,-1.1768557818945498,-1.518109550486505
2024-09-23 05:22:14.514705,40.02,20.7578,-0.015976452377836518,0.020610907938137694,1.0135956860463553,0.35872900059493257,-1.1768557818945498,-1.518109550486505
2024-09-23 05:22:14.525810,40.02,20.757851,-0.015427726610477303,0.020610907938137694,1.0135956860463553,0.35872900059493257,-1.1243154934130608,-1.4655692620050162
2024-09-23 05:22:14.569688,40.02,20.757945,-0.015427726610477303,0.019025483627202678,1.0120712653577144,0.3018342781975865,-1.1287272635858505,-1.3649578715130686
2024-09-23 05:22:14.612790,40.02,20.757945,-0.014512945691866003,0.018476656088406155,1.015486022140394,0.3018342781975865,-1.1287272635858505,-1.3649578715130686
2024-09-23 05:22:14.624493,40.02,20.757945,-0.014512945691866003,0.018476656088406155,1.015486022140394,0.29306802074806765,-1.1462025222692638,-1.413086283100024
2024-09-23 05:22:14.667355,40.02,20.757996,-0.01396421992450679,0.01750101888823825,1.0139616014517532,0.4155664400962181,-1.1724439050000162,-1.413086283100024
2024-09-23 05:22:14.710346,39.97,20.758047,-0.012500713238536278,0.01750101888823825,1.0139616014517532,0.4155664400962181,-1.1724439050000162,-1.413086283100024
2024-09-23 05:22:14.722153,39.97,20.758047,-0.012500713238536278,0.017439959063807027,1.0164007134393813,0.4374534422719851,-1.1724439050000162,-1.413086283100024
2024-09-23 05:22:14.765058,39.97,20.758097,-0.015122834574070423,0.018659531766364576,1.0121931723498423,0.4374534422719851,-1.1156065722204744,-1.4437395427253097
2024-09-23 05:22:14.807930,39.97,20.758097,-0.015122834574070423,0.018659531766364576,1.0121931723498423,0.39809120809324083,-1.1724439050000162,-1.509343212995678
2024-09-23 05:22:14.819574,39.97,20.758148,-0.01481783924724956,0.02213537267710212,1.0121931723498423,0.39809120809324083,-1.1724439050000162,-1.509343212995678
2024-09-23 05:22:14.862302,39.97,20.758199,-0.011768909009832369,0.02213537267710212,1.0149982969573756,0.3456082558686845,-1.1374934943549335,-1.2818216329827905
2024-09-23 05:22:14.904866,39.97,20.758199,-0.011768909009832369,0.021952496999143704,1.0173154047383688,0.38061600277069957,-1.1374934943549335,-1.2818216329827905
2024-09-23 05:22:14.916131,39.97,20.758286,-0.011768909009832369,0.021952496999143704,1.0173154047383688,0.38061600277069957,-1.1068402347296475,-1.3911993609655648
2024-09-23 05:22:14.958418,39.97,20.758286,-0.01378124399408774,0.019452293288574063,1.0121931723498423,0.39809120809324083,-1.0674780539117754,-1.4087318225037306
2024-09-23 05:22:15.001392,39.97,20.758337,-0.014756881194255646,0.019452293288574063,1.0121931723498423,0.39809120809324083,-1.0674780539117754,-1.4087318225037306
2024-09-23 05:22:15.013827,39.97,20.758337,-0.014756881194255646,0.02140366946034718,1.0109736163560281,0.3411964856958948,-1.1768557818945498,-1.4087318225037306
2024-09-23 05:22:15.098398,39.97,20.758337,-0.014756881194255646,0.02140366946034718,1.0109736163560281,0.3411964856958948,-1.1768557818945498,-1.496222521630302
2024-09-23 05:22:15.110182,39.97,20.758388,-0.016098470255261652,0.018171764051999276,1.0132298678554648,0.3849704900474288,-1.1768557818945498,-1.496222521630302
2024-09-23 05:22:15.153278,39.97,20.758439,-0.016098470255261652,0.018171764051999276,1.0132298678554648,0.3849704900474288,-1.1549687530383468,-1.3999655917346479
2024-09-23 05:22:15.247106,39.97,20.758439,-0.014391029585878175,0.018171764051999276,1.0132298678554648,0.3849704900474288,-1.1549687530383468,-1.3999655917346479
2024-09-23 05:22:15.294286,39.97,20.758439,-0.014391029585878175,0.019086441680196593,1.0132298678554648,0.3849704900474288,-1.1549687530383468,-1.3999655917346479
2024-09-23 05:22:15.307025,39.97,20.758489,-0.014391029585878175,0.019086441680196593,1.0143883731387076,0.3411964856958948,-1.1637349838074296,-1.3911993609655648
2024-09-23 05:22:15.349827,39.97,20.758489,-0.01396421992450679,0.019818144896951533,1.0149982969573756,0.31060053564710544,-1.1418479549512268,-1.426207081187144
2024-09-23 05:22:15.394728,39.97,20.75854,-0.016708257366028764,0.02067186599113161,1.0149982969573756,0.31060053564710544,-1.1418479549512268,-1.426207081187144
2024-09-23 05:22:15.406361,39.97,20.75854,-0.016708257366028764,0.02067186599113161,1.0150592504534395,0.3237212803733535,-1.0849533125951887,-1.426207081187144
2024-09-23 05:22:15.439066,39.97,20.75854,-0.016708257366028764,0.02067186599113161,1.0150592504534395,0.3237212803733535,-1.0849533125951887,-1.3780785628784449
2024-09-23 05:22:15.450427,39.97,20.758627,-0.013354434332716355,0.017927828549609635,1.0148152420401695,0.3193667930966243,-1.0849533125951887,-1.3780785628784449
2024-09-23 05:22:15.493254,39.97,20.758725,-0.013171458402297304,0.016342405757651293,1.0148152420401695,0.3193667930966243,-1.2118635021161288,-1.3824903330512346
2024-09-23 05:22:15.505130,39.97,20.758725,-0.013171458402297304,0.016342405757651293,1.0119492611510794,0.3193667930966243,-1.2118635021161288,-1.3824903330512346
2024-09-23 05:22:15.537572,39.97,20.758725,-0.013171458402297304,0.016342405757651293,1.0119492611510794,0.29306802074806765,-1.1506142924420535,-1.3824903330512346
2024-09-23 05:22:15.549603,39.97,20.758873,-0.01365932788809991,0.018415698035412244,1.0119492611510794,0.29306802074806765,-1.1506142924420535,-1.426207081187144
2024-09-23 05:22:15.592008,39.97,20.758924,-0.01365932788809991,0.018415698035412244,1.0151202039495033,0.24499683869630098,-1.203097164625302,-1.518109550486505
2024-09-23 05:22:15.604262,39.97,20.758924,-0.014208053655459124,0.018415698035412244,1.0151202039495033,0.24499683869630098,-1.203097164625302,-1.518109550486505
2024-09-23 05:22:15.637361,39.97,20.758924,-0.014208053655459124,0.018049744655597465,1.0144494238492787,0.38061600277069957,-1.203097164625302,-1.518109550486505
2024-09-23 05:22:15.648759,39.97,20.759017,-0.014208053655459124,0.018049744655597465,1.0144494238492787,0.38061600277069957,-1.0937195433642715,-1.3430708426568656
2024-09-23 05:22:15.692240,39.97,20.759017,-0.013720285941093825,0.019025483627202678,1.012498037044669,0.4155664400962181,-1.1637349838074296,-1.3737241022821516
2024-09-23 05:22:15.735894,39.75,20.759069,-0.013537308491698099,0.02164760496273682,1.0124370835486052,0.4155664400962181,-1.1637349838074296,-1.3737241022821516
2024-09-23 05:22:15.747874,39.75,20.759069,-0.013537308491698099,0.02164760496273682,1.0124370835486052,0.3543172304221429,-1.1462025222692638,-1.3737241022821516
2024-09-23 05:22:15.780682,39.75,20.759069,-0.013537308491698099,0.02164760496273682,1.0124370835486052,0.3543172304221429,-1.1462025222692638,-1.3999655917346479
2024-09-23 05:22:15.792562,39.75,20.759119,-0.010305402323861856,0.019513251341567978,1.0146933350480416,0.3193667930966243,-1.1462025222692638,-1.3999655917346479
2024-09-23 05:22:15.834986,39.75,20.75917,-0.01256167205101853,0.02012303845233509,1.0146933350480416,0.3193667930966243,-1.1549687530383468,-1.3124748926080763
2024-09-23 05:22:15.847140,39.75,20.75917,-0.01256167205101853,0.02012303845233509,1.0103637897518674,0.3193667930966243,-1.1549687530383468,-1.3124748926080763
2024-09-23 05:22:15.880680,39.75,20.75917,-0.01256167205101853,0.02012303845233509,1.0103637897518674,0.27559278874509036,-1.0980740039605648,-1.3737241022821516
2024-09-23 05:22:15.892357,39.75,20.759221,-0.015610600769459046,0.021586543619328925,1.0103637897518674,0.27559278874509036,-1.0980740039605648,-1.3737241022821516
2024-09-23 05:22:15.935704,39.75,20.759271,-0.013720285941093825,0.021586543619328925,1.0114614387535539,0.3674952580444515,-1.2205724233087152,-1.649316891027242
2024-09-23 05:22:15.977800,39.75,20.759271,-0.013720285941093825,0.01811080599900536,1.0139616014517532,0.3543172304221429,-1.2205724233087152,-1.649316891027242
2024-09-23 05:22:15.989705,39.75,20.759358,-0.013720285941093825,0.01811080599900536,1.0139616014517532,0.3543172304221429,-1.1418479549512268,-1.469981032177806
2024-09-23 05:22:16.033276,39.75,20.759358,-0.013598266544692013,0.02122069352992813,1.0132908213515286,0.27123832814879717,-1.1243154934130608,-1.3999655917346479
2024-09-23 05:22:16.075642,39.75,20.75941,-0.011707950956838454,0.019940162774376668,1.0132908213515286,0.27123832814879717,-1.1243154934130608,-1.3999655917346479
2024-09-23 05:22:16.087303,39.75,20.75941,-0.011707950956838454,0.019940162774376668,1.014022554947817,0.3280757409696467,-1.1768557818945498,-1.3999655917346479
2024-09-23 05:22:16.120150,39.75,20.75941,-0.011707950956838454,0.019940162774376668,1.014022554947817,0.3280757409696467,-1.1768557818945498,-1.426207081187144
2024-09-23 05:22:16.131296,39.75,20.75946,-0.013171458402297304,0.021098777423940302,1.0145103773453428,0.3280757409696467,-1.1768557818945498,-1.426207081187144
2024-09-23 05:22:16.173698,39.75,20.75946,-0.013171458402297304,0.021098777423940302,1.0145103773453428,0.3674952580444515,-1.1462025222692638,-1.496222521630302
2024-09-23 05:22:16.184962,39.75,20.759511,-0.016098470255261652,0.017439959063807027,1.0145103773453428,0.3674952580444515,-1.1462025222692638,-1.496222521630302
2024-09-23 05:22:16.218924,39.75,20.759511,-0.016098470255261652,0.017439959063807027,1.0135347325502915,0.3674952580444515,-1.1462025222692638,-1.496222521630302
2024-09-23 05:22:16.230354,39.75,20.759562,-0.012622630104012445,0.017439959063807027,1.0135347325502915,0.35872900059493257,-1.1680894444037229,-1.3212411233771593
2024-09-23 05:22:16.272633,39.75,20.759562,-0.012622630104012445,0.020001120827370582,1.0135347325502915,0.35872900059493257,-1.1680894444037229,-1.3212411233771593
2024-09-23 05:22:16.325631,39.75,20.759613,-0.012622630104012445,0.020001120827370582,1.0099979715609768,0.37620423259790986,-1.2336931146740913,-1.3649578715130686
2024-09-23 05:22:16.368236,39.75,20.759613,-0.014695923141261731,0.018476656088406155,1.0178032271358946,0.37620423259790986,-1.2336931146740913,-1.3649578715130686
2024-09-23 05:22:16.379451,39.75,20.759613,-0.014695923141261731,0.018476656088406155,1.0178032271358946,0.3456082558686845,-1.0937195433642715,-1.3649578715130686
2024-09-23 05:22:16.421922,39.75,20.7597,-0.01219582044264106,0.02213537267710212,1.0133517748475924,0.41121195281948897,-1.1111946953259408,-1.3649578715130686
2024-09-23 05:22:16.464158,39.75,20.759751,-0.01219582044264106,0.02213537267710212,1.0133517748475924,0.41121195281948897,-1.1111946953259408,-1.3168293532043696
2024-09-23 05:22:16.475521,39.75,20.759751,-0.013720285941093825,0.01890346574977754,1.0135956860463553,0.3368419984191656,-1.1111946953259408,-1.3168293532043696
2024-09-23 05:22:16.518000,39.75,20.759802,-0.01536666678604608,0.021830479121718566,1.0135956860463553,0.3368419984191656,-1.0587118231426924,-1.404320052330941
2024-09-23 05:22:16.529578,39.75,20.759802,-0.01536666678604608,0.021830479121718566,1.012802998954003,0.3368419984191656,-1.0587118231426924,-1.404320052330941
2024-09-23 05:22:16.561021,39.75,20.759802,-0.01536666678604608,0.021830479121718566,1.012802998954003,0.3149550229238346,-1.0499454856518655,-1.404320052330941
2024-09-23 05:22:16.572421,39.75,20.759896,-0.01182986782231462,0.01890346574977754,1.012802998954003,0.3149550229238346,-1.0499454856518655,-1.434973311956227
2024-09-23 05:22:16.616074,39.75,20.759947,-0.014147094083488534,0.01890346574977754,1.0090222295514184,0.3280757409696467,-1.1637349838074296,-1.3911993609655648
2024-09-23 05:22:16.658557,39.75,20.759947,-0.014147094083488534,0.02067186599113161,1.0171934977462411,0.3280757409696467,-1.1637349838074296,-1.3911993609655648
2024-09-23 05:22:16.669922,39.75,20.760041,-0.014147094083488534,0.02067186599113161,1.0171934977462411,0.37620423259790986,-1.207451731943339,-1.3956111311383546
2024-09-23 05:22:16.712415,39.75,20.760041,-0.013293374508285133,0.021708563015730736,1.0082904959551298,0.37620423259790986,-1.1330817241821438,-1.3956111311383546
2024-09-23 05:22:16.724567,39.75,20.760041,-0.013293374508285133,0.021708563015730736,1.0082904959551298,0.37620423259790986,-1.1330817241821438,-1.474335492774099
2024-09-23 05:22:16.757037,40.07,20.760092,-0.011586034850850625,0.021708563015730736,1.0082904959551298,0.37620423259790986,-1.1330817241821438,-1.474335492774099
2024-09-23 05:22:16.768996,40.07,20.760092,-0.011586034850850625,0.017927828549609635,1.013778546534547,0.3456082558686845,-1.1943309338562191,-1.474335492774099
2024-09-23 05:22:16.812324,40.07,20.760143,-0.017805912443621806,0.019452293288574063,1.013778546534547,0.31060053564710544,-1.1943309338562191,-1.4437395427253097
2024-09-23 05:22:16.855818,40.07,20.760194,-0.017805912443621806,0.019452293288574063,1.013778546534547,0.31060053564710544,-1.1462025222692638,-1.491868061034009
2024-09-23 05:22:16.867878,40.07,20.760194,-0.016891131525010507,0.019940162774376668,1.0125589905407328,0.31060053564710544,-1.1462025222692638,-1.491868061034009
2024-09-23 05:22:16.899897,40.07,20.760194,-0.016891131525010507,0.019940162774376668,1.0125589905407328,0.27559278874509036,-1.1462025222692638,-1.491868061034009
2024-09-23 05:22:16.911093,40.07,20.760244,-0.011403058160943235,0.019330377182586234,1.0125589905407328,0.27559278874509036,-1.1462025222692638,-1.4306188513599336
2024-09-23 05:22:16.953017,40.07,20.760244,-0.011403058160943235,0.019330377182586234,1.015668979843093,0.3368419984191656,-1.1506142924420535,-1.4306188513599336
2024-09-23 05:22:16.964660,40.07,20.760295,-0.01408613603049462,0.019330377182586234,1.015668979843093,0.3368419984191656,-1.1506142924420535,-1.3693696416858583
2024-09-23 05:22:17.008687,40.07,20.760382,-0.01408613603049462,0.020245056329760223,1.0108517093639005,0.35872900059493257,-1.2205724233087152,-1.4218526205908506
2024-09-23 05:22:17.051944,40.07,20.760382,-0.010549337066763158,0.021281651582922046,1.0134127283436565,0.39809120809324083,-1.2205724233087152,-1.4218526205908506
2024-09-23 05:22:17.063848,40.07,20.760382,-0.010549337066763158,0.021281651582922046,1.0134127283436565,0.39809120809324083,-1.1418479549512268,-1.3737241022821516
2024-09-23 05:22:17.147761,40.07,20.760434,-0.015122834574070423,0.022318348607521174,1.0134127283436565,0.39809120809324083,-1.1418479549512268,-1.3737241022821516
2024-09-23 05:22:17.202054,40.07,20.760484,-0.012012843752733671,0.022318348607521174,1.0125589905407328,0.28871353347133843,-1.1024857741333545,-1.3911993609655648
2024-09-23 05:22:17.245365,40.07,20.760484,-0.012012843752733671,0.020001120827370582,1.00969310686615,0.3411964856958948,-1.1024857741333545,-1.3911993609655648
2024-09-23 05:22:17.257363,40.07,20.760535,-0.012012843752733671,0.020001120827370582,1.00969310686615,0.3411964856958948,-1.0849533125951887,-1.3956111311383546
2024-09-23 05:22:17.300572,40.07,20.760535,-0.013598266544692013,0.017196025080394063,1.0130469101527657,0.38061600277069957,-1.0762442846808582,-1.4087318225037306
2024-09-23 05:22:17.342407,40.07,20.760586,-0.01365932788809991,0.01853761414140007,1.0130469101527657,0.38061600277069957,-1.0762442846808582,-1.4087318225037306
2024-09-23 05:22:17.354040,40.07,20.760586,-0.01365932788809991,0.01853761414140007,1.01426646614658,0.38061600277069957,-1.0762442846808582,-1.4087318225037306
2024-09-23 05:22:17.438039,40.07,20.760586,-0.01365932788809991,0.01853761414140007,1.01426646614658,0.38932495064372197,-1.0762442846808582,-1.4087318225037306
2024-09-23 05:22:17.453940,40.07,20.760636,-0.011707950956838454,0.018293680157987106,1.01426646614658,0.38932495064372197,-1.1243154934130608,-1.3299501512914895
2024-09-23 05:22:17.485936,40.07,20.760636,-0.011707950956838454,0.018293680157987106,1.012742045457939,0.38932495064372197,-1.1243154934130608,-1.3299501512914895
2024-09-23 05:22:17.496942,40.07,20.760774,-0.01445198763887209,0.018293680157987106,1.012742045457939,0.3674952580444515,-1.0674780539117754,-1.3999655917346479
2024-09-23 05:22:17.539408,40.07,20.760774,-0.01445198763887209,0.019513251341567978,1.0125589905407328,0.3368419984191656,-1.1943309338562191,-1.3999655917346479
2024-09-23 05:22:17.551675,40.07,20.760824,-0.01445198763887209,0.019513251341567978,1.0125589905407328,0.3368419984191656,-1.1943309338562191,-1.4087318225037306
2024-09-23 05:22:17.583826,40.07,20.760824,-0.011524974266931064,0.019513251341567978,1.0125589905407328,0.3368419984191656,-1.1943309338562191,-1.4087318225037306
2024-09-23 05:22:17.594978,40.07,20.760824,-0.011524974266931064,0.017013149402435646,1.0124370835486052,0.3456082558686845,-1.0543573625463993,-1.3956111311383546
2024-09-23 05:22:17.638300,40.07,20.760875,-0.013598266544692013,0.019086441680196593,1.015608026347029,0.3456082558686845,-1.0543573625463993,-1.3956111311383546
2024-09-23 05:22:17.651199,40.07,20.760875,-0.013598266544692013,0.019086441680196593,1.015608026347029,0.3018342781975865,-1.1199610328167677,-1.3956111311383546
2024-09-23 05:22:17.683644,40.07,20.761017,-0.011890927646745842,0.019086441680196593,1.015608026347029,0.3018342781975865,-1.1199610328167677,-1.413086283100024
2024-09-23 05:22:17.694762,40.07,20.761017,-0.011890927646745842,0.016098470255261652,1.0117053499523165,0.4287444677185267,-1.1199610328167677,-1.413086283100024
2024-09-23 05:22:17.737044,40.07,20.761068,-0.01573262016586086,0.02311100987727003,1.0112784810508548,0.4287444677185267,-1.2512256829340012,-1.469981032177806
2024-09-23 05:22:17.780123,39.98,20.761068,-0.01573262016586086,0.02311100987727003,1.0112784810508548,0.40685746554275976,-1.1330817241821438,-1.469981032177806
2024-09-23 05:22:17.791462,39.98,20.761119,-0.017196025080394063,0.018659531766364576,1.0112784810508548,0.40685746554275976,-1.1330817241821438,-1.496222521630302
2024-09-23 05:22:17.835042,39.98,20.761169,-0.017196025080394063,0.018659531766364576,1.0149982969573756,0.3543172304221429,-1.1724439050000162,-1.3911993609655648
2024-09-23 05:22:17.846517,39.98,20.761169,-0.014756881194255646,0.018659531766364576,1.0149982969573756,0.3543172304221429,-1.1724439050000162,-1.3911993609655648
2024-09-23 05:22:17.879652,39.98,20.761169,-0.014756881194255646,0.019940162774376668,1.0126809947473678,0.20998910513450392,-1.1724439050000162,-1.3911993609655648
2024-09-23 05:22:17.890650,39.98,20.761259,-0.014756881194255646,0.019940162774376668,1.0126809947473678,0.20998910513450392,-1.1855647030871361,-1.3343619214642792
2024-09-23 05:22:17.933364,39.98,20.761259,-0.01433007153288426,0.023050050305299438,1.0131078636488298,0.3280757409696467,-1.0849533125951887,-1.3037086618389935
2024-09-23 05:22:17.977052,39.98,20.761311,-0.01408613603049462,0.02207441310513153,1.0131078636488298,0.3280757409696467,-1.0849533125951887,-1.3037086618389935
2024-09-23 05:22:17.988543,39.98,20.761311,-0.01408613603049462,0.02207441310513153,1.0125589905407328,0.40685746554275976,-1.1724439050000162,-1.3037086618389935
