Ayaan's Suite
Timestamp,Sample Rate (Hz),Time,Ax,Ay,Az,Gx,Gy,Gz
2024-09-23 19:23:20.172495,0,45.64685,-0.002785727465249955,-0.02293251340906919,0.09710254654607277,32.08287849390507,-92.24360919585227,84.22370748782159
2024-09-23 19:23:20.205100,0,45.64685,-0.0029349636958644295,-0.02313149783467906,0.09755024973162574,32.08287849390507,-92.24360919585227,84.22370748782159
2024-09-23 19:23:20.216570,0,45.64685,-0.0029349636958644295,-0.02313149783467906,0.09755024973162574,40.106058693909645,-88.23529758782387,84.22370748782159
2024-09-23 19:23:20.249600,0,45.646902,-0.0029349636958644295,-0.02313149783467906,0.09755024973162574,40.106058693909645,-88.23529758782387,84.22370748782159
2024-09-23 19:23:20.261293,0,45.646902,-0.0026862297461545674,-0.022982261414192504,0.09670458680871308,44.11764879391193,-84.22370748782159,84.22370748782159
2024-09-23 19:23:20.303076,0,45.646953,-0.0027359787006383035,-0.0228827638849692,0.09670458680871308,44.11764879391193,-84.22370748782159,80.21211738781929
2024-09-23 19:23:20.314207,0,45.646953,-0.0027359787006383035,-0.0228827638849692,0.09715228999426605,48.12595698684454,-84.22370748782159,80.21211738781929
2024-09-23 19:23:20.346986,0,45.646953,-0.0027359787006383035,-0.0228827638849692,0.09715228999426605,48.12595698684454,-92.24360919585227,80.21211738781929
2024-09-23 19:23:20.358683,0,45.647003,-0.0028354659767690416,-0.023330473146428877,0.09745075675933246,48.12595698684454,-92.24360919585227,84.22370748782159
2024-09-23 19:23:20.400881,0,45.647054,-0.0028354659767690416,-0.023330473146428877,0.09745075675933246,40.106058693909645,-92.24360919585227,80.21211738781929
2024-09-23 19:23:20.413073,0,45.647054,-0.0027359787006383035,-0.02338022115155219,0.09745075675933246,40.106058693909645,-92.24360919585227,80.21211738781929
2024-09-23 19:23:20.444947,0,45.647054,-0.0027359787006383035,-0.02338022115155219,0.09755024973162574,40.106058693909645,-92.24360919585227,80.21211738781929
2024-09-23 19:23:20.456952,0,45.647105,-0.0026862297461545674,-0.02338022115155219,0.09755024973162574,28.07457030097246,-88.23529758782387,84.22370748782159
2024-09-23 19:23:20.499292,0,45.647105,-0.0026862297461545674,-0.023479709566915436,0.09779897304849887,44.11764879391193,-96.25519929585457,84.22370748782159
2024-09-23 19:23:20.511160,0,45.647192,-0.0026862297461545674,-0.023479709566915436,0.09779897304849887,44.11764879391193,-96.25519929585457,76.200527287817
2024-09-23 19:23:20.543196,0,45.647192,-0.0030841997366068195,-0.023479709566915436,0.09779897304849887,44.11764879391193,-96.25519929585457,76.200527287817
2024-09-23 19:23:20.554969,0,45.647192,-0.0030841997366068195,-0.02313149783467906,0.09720203344245934,40.106058693909645,-92.24360919585227,80.21211738781929
2024-09-23 19:23:20.599012,0,45.647243,-0.002785727465249955,-0.023479709566915436,0.09705279702197278,40.106058693909645,-100.26678939585686,80.21211738781929
2024-09-23 19:23:20.642471,0,45.647294,-0.002437506429281439,-0.023479709566915436,0.09705279702197278,40.106058693909645,-100.26678939585686,68.18063240997792
2024-09-23 19:23:20.654051,0,45.647294,-0.002437506429281439,-0.023429960042815445,0.09710254654607277,40.106058693909645,-100.26678939585686,68.18063240997792
2024-09-23 19:23:20.696517,0,45.647345,-0.002586742470023829,-0.023827930413011865,0.09759999317981902,40.106058693909645,-96.25519929585457,76.200527287817
2024-09-23 19:23:20.740115,0,45.647345,-0.002586742470023829,-0.023827930413011865,0.09759999317981902,40.106058693909645,-96.25519929585457,72.1922225099802
2024-09-23 19:23:20.751273,0,45.647395,-0.0028354659767690416,-0.02308174982955575,0.09759999317981902,40.106058693909645,-96.25519929585457,72.1922225099802
2024-09-23 19:23:20.793770,0,45.647446,-0.002586742470023829,-0.02308174982955575,0.09695331012558621,36.09446859390736,-100.26678939585686,76.200527287817
2024-09-23 19:23:20.835777,0,45.647446,-0.002586742470023829,-0.02313149783467906,0.09680407370509965,36.09446859390736,-100.26678939585686,76.200527287817
2024-09-23 19:23:20.847166,0,45.647533,-0.002586742470023829,-0.02313149783467906,0.09680407370509965,36.09446859390736,-92.24360919585227,72.1922225099802
2024-09-23 19:23:20.889988,0,45.647533,-0.0025369937054121774,-0.023479709566915436,0.09680407370509965,32.08287849390507,-96.25519929585457,80.21211738781929
2024-09-23 19:23:20.932092,0,45.647585,-0.0025369937054121774,-0.023479709566915436,0.09680407370509965,32.08287849390507,-96.25519929585457,80.21211738781929
2024-09-23 19:23:20.943112,0,45.647585,-0.0030841997366068195,-0.023230986250042305,0.09690356060148622,36.09446859390736,-100.26678939585686,80.21211738781929
2024-09-23 19:23:20.986375,0,45.647635,-0.0024872551938930902,-0.023728432883788564,0.09690356060148622,36.09446859390736,-100.26678939585686,80.21211738781929
2024-09-23 19:23:20.998755,0,45.647635,-0.0024872551938930902,-0.023728432883788564,0.09690356060148622,40.106058693909645,-100.26678939585686,80.21211738781929
2024-09-23 19:23:21.030902,0,45.647635,-0.0024872551938930902,-0.023728432883788564,0.09690356060148622,40.106058693909645,-104.27510100388527,76.200527287817
2024-09-23 19:23:21.042074,0,45.647686,-0.0030344509719951677,-0.022833026512682618,0.09690356060148622,40.106058693909645,-104.27510100388527,76.200527287817
2024-09-23 19:23:21.083850,0,45.647737,-0.0024872551938930902,-0.022833026512682618,0.09690356060148622,36.09446859390736,-100.26678939585686,80.21211738781929
2024-09-23 19:23:21.095788,0,45.647737,-0.0024872551938930902,-0.023230986250042305,0.09690356060148622,36.09446859390736,-100.26678939585686,80.21211738781929
2024-09-23 19:23:21.127980,0,45.647737,-0.0024872551938930902,-0.023230986250042305,0.09809744588947199,36.09446859390736,-100.26678939585686,80.21211738781929
2024-09-23 19:23:21.139301,0,45.647787,-0.0025369937054121774,-0.023230986250042305,0.09809744588947199,36.09446859390736,-96.25519929585457,76.200527287817
2024-09-23 19:23:21.180799,45.08,45.647787,-0.0025369937054121774,-0.023230986250042305,0.09750050628343246,40.106058693909645,-88.23529758782387,76.200527287817
2024-09-23 19:23:21.192716,45.08,45.647874,-0.0025369937054121774,-0.023230986250042305,0.09750050628343246,40.106058693909645,-88.23529758782387,76.200527287817
2024-09-23 19:23:21.225984,45.08,45.647874,-0.0028852147413806935,-0.02338022115155219,0.09750050628343246,40.106058693909645,-88.23529758782387,76.200527287817
2024-09-23 19:23:21.237121,45.08,45.647874,-0.0028852147413806935,-0.02338022115155219,0.09690356060148622,40.106058693909645,-88.23529758782387,72.1922225099802
2024-09-23 19:23:21.280181,45.08,45.647926,-0.0020892956464054874,-0.02303200030545576,0.09750050628343246,40.106058693909645,-88.23529758782387,72.1922225099802
2024-09-23 19:23:21.322058,45.08,45.647926,-0.0020892956464054874,-0.02303200030545576,0.09750050628343246,40.106058693909645,-88.23529758782387,80.21211738781929
2024-09-23 19:23:21.333303,45.08,45.647976,-0.0028852147413806935,-0.023579196463302005,0.09705279702197278,48.12595698684454,-88.23529758782387,80.21211738781929
2024-09-23 19:23:21.376033,45.08,45.648027,-0.002636491424507565,-0.023579196463302005,0.09705279702197278,48.12595698684454,-84.22370748782159,80.21211738781929
2024-09-23 19:23:21.387340,45.08,45.648027,-0.002636491424507565,-0.023429960042815445,0.09725178296655933,48.12595698684454,-84.22370748782159,80.21211738781929
2024-09-23 19:23:21.419540,45.08,45.648027,-0.002636491424507565,-0.023429960042815445,0.09725178296655933,48.12595698684454,-84.22370748782159,80.21211738781929
2024-09-23 19:23:21.430469,45.08,45.648078,-0.0030344509719951677,-0.023280723622328886,0.09725178296655933,48.12595698684454,-88.23529758782387,80.21211738781929
2024-09-23 19:23:21.474964,45.08,45.648078,-0.0030344509719951677,-0.023280723622328886,0.09740101331113918,48.12595698684454,-100.26678939585686,80.21211738781929
2024-09-23 19:23:21.487713,45.08,45.648128,-0.0024872551938930902,-0.023280723622328886,0.09740101331113918,48.12595698684454,-100.26678939585686,80.21211738781929
2024-09-23 19:23:21.520065,45.08,45.648128,-0.0024872551938930902,-0.023181236725942318,0.09725178296655933,28.07457030097246,-100.26678939585686,80.21211738781929
2024-09-23 19:23:21.532516,45.08,45.648215,-0.0024872551938930902,-0.023181236725942318,0.09725178296655933,28.07457030097246,-96.25519929585457,80.21211738781929
2024-09-23 19:23:21.564768,45.08,45.648215,-0.0031836870127375577,-0.023181236725942318,0.09725178296655933,28.07457030097246,-96.25519929585457,80.21211738781929
2024-09-23 19:23:21.576461,45.08,45.648215,-0.0031836870127375577,-0.02352945757203875,0.0973015264147526,36.09446859390736,-96.25519929585457,80.21211738781929
2024-09-23 19:23:21.618336,45.08,45.648267,-0.0028354659767690416,-0.023181236725942318,0.09740101331113918,36.09446859390736,-96.25519929585457,80.21211738781929
2024-09-23 19:23:21.629807,45.08,45.648267,-0.0028354659767690416,-0.023181236725942318,0.09740101331113918,44.11764879391193,-96.25519929585457,80.21211738781929
2024-09-23 19:23:21.672566,45.08,45.648318,-0.0028354659767690416,-0.023181236725942318,0.09710254654607277,44.11764879391193,-96.25519929585457,80.21211738781929
2024-09-23 19:23:21.716118,45.08,45.648369,-0.0028354659767690416,-0.023181236725942318,0.09710254654607277,44.11764879391193,-96.25519929585457,80.21211738781929
2024-09-23 19:23:21.727542,45.08,45.648369,-0.0029349636958644295,-0.023728432883788564,0.09740101331113918,44.11764879391193,-96.25519929585457,80.21211738781929
2024-09-23 19:23:21.760138,45.08,45.648369,-0.0029349636958644295,-0.023728432883788564,0.09740101331113918,40.106058693909645,-96.25519929585457,80.21211738781929
2024-09-23 19:23:21.771826,45.08,45.64842,-0.0032831742888682963,-0.023280723622328886,0.09740101331113918,40.106058693909645,-96.25519929585457,80.21211738781929
2024-09-23 19:23:21.814291,45.08,45.64842,-0.0032831742888682963,-0.023280723622328886,0.09675432418099966,40.106058693909645,-96.25519929585457,72.1922225099802
2024-09-23 19:23:21.826218,45.08,45.648471,-0.0028354659767690416,-0.023280723622328886,0.09675432418099966,40.106058693909645,-96.25519929585457,72.1922225099802
2024-09-23 19:23:21.859183,45.08,45.648471,-0.0028354659767690416,-0.023181236725942318,0.09680407370509965,40.106058693909645,-96.25519929585457,72.1922225099802
2024-09-23 19:23:21.870641,45.08,45.648557,-0.0028354659767690416,-0.023181236725942318,0.09680407370509965,48.12595698684454,-96.25519929585457,76.200527287817
2024-09-23 19:23:21.913747,45.08,45.648557,-0.0031836870127375577,-0.023181236725942318,0.09715228999426605,36.09446859390736,-92.24360919585227,76.200527287817
2024-09-23 19:23:21.924947,45.08,45.648557,-0.0031836870127375577,-0.023181236725942318,0.09715228999426605,36.09446859390736,-92.24360919585227,84.22370748782159
2024-09-23 19:23:21.958361,45.08,45.648608,-0.0030841997366068195,-0.023330473146428877,0.09715228999426605,36.09446859390736,-92.24360919585227,84.22370748782159
2024-09-23 19:23:21.969312,45.08,45.648608,-0.0030841997366068195,-0.023330473146428877,0.09750050628343246,36.09446859390736,-92.24360919585227,84.22370748782159
2024-09-23 19:23:22.011841,45.08,45.648659,-0.0029349636958644295,-0.02303200030545576,0.09655535038822652,36.09446859390736,-92.24360919585227,72.1922225099802
2024-09-23 19:23:22.023491,45.08,45.648659,-0.0029349636958644295,-0.02303200030545576,0.09655535038822652,40.106058693909645,-92.24360919585227,72.1922225099802
2024-09-23 19:23:22.057702,45.08,45.64871,-0.0029349636958644295,-0.02303200030545576,0.09655535038822652,40.106058693909645,-96.25519929585457,76.200527287817
2024-09-23 19:23:22.068993,45.08,45.64871,-0.0029847020175114316,-0.02278327698858263,0.09680407370509965,40.106058693909645,-96.25519929585457,76.200527287817
2024-09-23 19:23:22.101297,45.08,45.64871,-0.0029847020175114316,-0.02278327698858263,0.09680407370509965,40.106058693909645,-96.25519929585457,76.200527287817
2024-09-23 19:23:22.113278,45.08,45.64876,-0.0024872551938930902,-0.02303200030545576,0.09680407370509965,40.106058693909645,-96.25519929585457,84.22370748782159
2024-09-23 19:23:22.156283,45.08,45.648811,-0.0024872551938930902,-0.02303200030545576,0.09710254654607277,32.08287849390507,-100.26678939585686,80.21211738781929
2024-09-23 19:23:22.198456,45.63,45.648811,-0.0029349636958644295,-0.02303200030545576,0.09710254654607277,32.08287849390507,-100.26678939585686,80.21211738781929
2024-09-23 19:23:22.209768,45.63,45.648811,-0.0029349636958644295,-0.023181236725942318,0.09725178296655933,36.09446859390736,-104.27510100388527,76.200527287817
2024-09-23 19:23:22.252242,45.63,45.648898,-0.002785727465249955,-0.023181236725942318,0.0966050877605131,36.09446859390736,-104.27510100388527,76.200527287817
2024-09-23 19:23:22.263772,45.63,45.648898,-0.002785727465249955,-0.023181236725942318,0.0966050877605131,40.106058693909645,-88.23529758782387,76.200527287817
2024-09-23 19:23:22.306267,45.63,45.64895,-0.0027359787006383035,-0.023230986250042305,0.09740101331113918,40.106058693909645,-88.23529758782387,80.21211738781929
2024-09-23 19:23:22.351111,45.63,45.649,-0.0031339382481259063,-0.023230986250042305,0.09740101331113918,40.106058693909645,-88.23529758782387,76.200527287817
2024-09-23 19:23:22.362479,45.63,45.649,-0.0031339382481259063,-0.023330473146428877,0.09690356060148622,40.106058693909645,-88.23529758782387,76.200527287817
2024-09-23 19:23:22.394956,45.63,45.649,-0.0031339382481259063,-0.023330473146428877,0.09690356060148622,40.106058693909645,-96.25519929585457,76.200527287817
2024-09-23 19:23:22.406686,45.63,45.649051,-0.0028354659767690416,-0.022833026512682618,0.09690356060148622,40.106058693909645,-96.25519929585457,76.200527287817
2024-09-23 19:23:22.448981,45.63,45.649102,-0.0028354659767690416,-0.022833026512682618,0.09720203344245934,44.11764879391193,-92.24360919585227,72.1922225099802
2024-09-23 19:23:22.460660,45.63,45.649102,-0.002785727465249955,-0.022833026512682618,0.09720203344245934,44.11764879391193,-92.24360919585227,72.1922225099802
2024-09-23 19:23:22.493395,45.63,45.649102,-0.002785727465249955,-0.02338022115155219,0.09685382322919964,44.11764879391193,-92.24360919585227,72.1922225099802
2024-09-23 19:23:22.504469,45.63,45.649191,-0.002785727465249955,-0.02338022115155219,0.09685382322919964,56.14914060194492,-96.25519929585457,72.1922225099802
2024-09-23 19:23:22.546318,45.63,45.649191,-0.0028354659767690416,-0.02338022115155219,0.0976994861521123,40.106058693909645,-88.23529758782387,72.1922225099802
2024-09-23 19:23:22.558262,45.63,45.649191,-0.0028354659767690416,-0.02338022115155219,0.0976994861521123,40.106058693909645,-88.23529758782387,80.21211738781929
2024-09-23 19:23:22.590184,45.63,45.649242,-0.0029847020175114316,-0.02338022115155219,0.0976994861521123,40.106058693909645,-88.23529758782387,80.21211738781929
2024-09-23 19:23:22.601829,45.63,45.649242,-0.0029847020175114316,-0.02352945757203875,0.0973512698629459,40.106058693909645,-96.25519929585457,80.21211738781929
2024-09-23 19:23:22.644184,45.63,45.649293,-0.0030841997366068195,-0.02338022115155219,0.09784872257259886,40.106058693909645,-96.25519929585457,80.21211738781929
2024-09-23 19:23:22.655948,45.63,45.649293,-0.0030841997366068195,-0.02338022115155219,0.09784872257259886,32.08287849390507,-96.25519929585457,80.21211738781929
2024-09-23 19:23:22.688365,45.63,45.649293,-0.0030841997366068195,-0.02338022115155219,0.09784872257259886,32.08287849390507,-92.24360919585227,84.22370748782159
2024-09-23 19:23:22.700327,45.63,45.649344,-0.002387757474797703,-0.022833026512682618,0.09690356060148622,32.08287849390507,-92.24360919585227,84.22370748782159
2024-09-23 19:23:22.743202,45.63,45.649394,-0.0030344509719951677,-0.022833026512682618,0.09690356060148622,36.09446859390736,-92.24360919585227,76.200527287817
2024-09-23 19:23:22.785782,45.63,45.649394,-0.0030344509719951677,-0.023330473146428877,0.09705279702197278,36.09446859390736,-92.24360919585227,76.200527287817
2024-09-23 19:23:22.797735,45.63,45.649445,-0.0030344509719951677,-0.023330473146428877,0.09705279702197278,40.106058693909645,-96.25519929585457,80.21211738781929
2024-09-23 19:23:22.841632,45.63,45.649445,-0.0025369937054121774,-0.02362894446842532,0.09685382322919964,40.106058693909645,-96.25519929585457,76.200527287817
2024-09-23 19:23:22.884546,45.63,45.649532,-0.0028354659767690416,-0.023280723622328886,0.09685382322919964,40.106058693909645,-96.25519929585457,76.200527287817
2024-09-23 19:23:22.895588,45.63,45.649532,-0.0028354659767690416,-0.023280723622328886,0.09670458680871308,32.08287849390507,-92.24360919585227,76.200527287817
2024-09-23 19:23:22.938354,45.63,45.649583,-0.0028852147413806935,-0.02303200030545576,0.09710254654607277,36.09446859390736,-92.24360919585227,80.21211738781929
2024-09-23 19:23:22.980449,45.63,45.649583,-0.0028852147413806935,-0.02303200030545576,0.09710254654607277,36.09446859390736,-96.25519929585457,80.21211738781929
2024-09-23 19:23:22.992153,45.63,45.649634,-0.0028852147413806935,-0.022733528983459317,0.09665483728461309,36.09446859390736,-96.25519929585457,80.21211738781929
2024-09-23 19:23:23.034844,45.63,45.649685,-0.0028852147413806935,-0.022733528983459317,0.09665483728461309,44.11764879391193,-104.27510100388527,68.18063240997792
2024-09-23 19:23:23.047110,45.63,45.649685,-0.0031836870127375577,-0.02367869399252531,0.09665483728461309,44.11764879391193,-104.27510100388527,68.18063240997792
2024-09-23 19:23:23.079207,45.63,45.649685,-0.0031836870127375577,-0.02367869399252531,0.09720203344245934,48.12595698684454,-100.26678939585686,68.18063240997792
2024-09-23 19:23:23.090261,45.63,45.649735,-0.0030344509719951677,-0.02367869399252531,0.09720203344245934,48.12595698684454,-100.26678939585686,76.200527287817
2024-09-23 19:23:23.132434,45.63,45.649824,-0.0030344509719951677,-0.023728432883788564,0.09680407370509965,40.106058693909645,-96.25519929585457,76.200527287817
2024-09-23 19:23:23.175085,45.63,45.649824,-0.0027359787006383035,-0.02308174982955575,0.09680407370509965,40.106058693909645,-96.25519929585457,76.200527287817
2024-09-23 19:23:23.186859,45.63,45.649824,-0.0027359787006383035,-0.02308174982955575,0.09715228999426605,24.06297849342227,-100.26678939585686,80.21211738781929
2024-09-23 19:23:23.229835,45.29,45.649876,-0.002586742470023829,-0.023280723622328886,0.0973015264147526,36.09446859390736,-100.26678939585686,80.21211738781929
2024-09-23 19:23:23.241814,45.29,45.649876,-0.002586742470023829,-0.023280723622328886,0.0973015264147526,36.09446859390736,-96.25519929585457,80.21211738781929
2024-09-23 19:23:23.274537,45.29,45.649927,-0.0028354659767690416,-0.023280723622328886,0.0973015264147526,36.09446859390736,-96.25519929585457,76.200527287817
2024-09-23 19:23:23.326783,45.29,45.649927,-0.0028354659767690416,-0.02313149783467906,0.09750050628343246,44.11764879391193,-96.25519929585457,76.200527287817
2024-09-23 19:23:23.338875,45.29,45.649977,-0.0028354659767690416,-0.02313149783467906,0.09750050628343246,44.11764879391193,-96.25519929585457,76.200527287817
2024-09-23 19:23:23.372031,45.29,45.649977,-0.0028852147413806935,-0.022584292562972758,0.09750050628343246,44.11764879391193,-96.25519929585457,76.200527287817
2024-09-23 19:23:23.383467,45.29,45.649977,-0.0028852147413806935,-0.022584292562972758,0.09750050628343246,40.106058693909645,-100.26678939585686,80.21211738781929
2024-09-23 19:23:23.426380,45.29,45.650028,-0.0028354659767690416,-0.023280723622328886,0.09725178296655933,36.09446859390736,-100.26678939585686,80.21211738781929
2024-09-23 19:23:23.468272,45.29,45.650079,-0.0028354659767690416,-0.023280723622328886,0.09725178296655933,36.09446859390736,-100.26678939585686,84.22370748782159
2024-09-23 19:23:23.479635,45.29,45.650079,-0.0031339382481259063,-0.02308174982955575,0.0970030596496862,52.137550501942634,-100.26678939585686,84.22370748782159
2024-09-23 19:23:23.522676,45.29,45.650166,-0.002437506429281439,-0.023280723622328886,0.09750050628343246,52.137550501942634,-92.24360919585227,76.200527287817
2024-09-23 19:23:23.564844,45.29,45.650166,-0.002437506429281439,-0.023280723622328886,0.09750050628343246,44.11764879391193,-92.24360919585227,76.200527287817
2024-09-23 19:23:23.576599,45.29,45.650217,-0.002586742470023829,-0.0228827638849692,0.09750050628343246,44.11764879391193,-88.23529758782387,76.200527287817
2024-09-23 19:23:23.619804,45.29,45.650268,-0.002586742470023829,-0.0228827638849692,0.0970030596496862,40.106058693909645,-96.25519929585457,80.21211738781929
2024-09-23 19:23:23.631778,45.29,45.650268,-0.0030841997366068195,-0.0228827638849692,0.0970030596496862,40.106058693909645,-96.25519929585457,80.21211738781929
2024-09-23 19:23:23.663815,45.29,45.650268,-0.0030841997366068195,-0.02362894446842532,0.09710254654607277,40.106058693909645,-96.25519929585457,80.21211738781929
2024-09-23 19:23:23.675023,45.29,45.650361,-0.0030841997366068195,-0.02362894446842532,0.09710254654607277,48.12595698684454,-96.25519929585457,76.200527287817
2024-09-23 19:23:23.717215,45.29,45.650361,-0.002437506429281439,-0.023877669304275123,0.09745075675933246,36.09446859390736,-92.24360919585227,76.200527287817
2024-09-23 19:23:23.729431,45.29,45.650361,-0.002437506429281439,-0.023877669304275123,0.09745075675933246,36.09446859390736,-92.24360919585227,88.23529758782387
2024-09-23 19:23:23.762037,45.29,45.650412,-0.0030841997366068195,-0.023330473146428877,0.09745075675933246,36.09446859390736,-92.24360919585227,88.23529758782387
2024-09-23 19:23:23.814573,45.29,45.650463,-0.0030841997366068195,-0.023330473146428877,0.09695331012558621,44.11764879391193,-92.24360919585227,80.21211738781929
2024-09-23 19:23:23.826474,45.29,45.650463,-0.0036811340262279837,-0.023330473146428877,0.09695331012558621,44.11764879391193,-92.24360919585227,80.21211738781929
2024-09-23 19:23:23.859115,45.29,45.650463,-0.0036811340262279837,-0.02362894446842532,0.09695331012558621,44.11764879391193,-92.24360919585227,80.21211738781929
2024-09-23 19:23:23.911927,45.29,45.650463,-0.0036811340262279837,-0.02362894446842532,0.09695331012558621,44.11764879391193,-96.25519929585457,76.200527287817
2024-09-23 19:23:23.923278,45.29,45.650514,-0.0028852147413806935,-0.02362894446842532,0.09695331012558621,44.11764879391193,-96.25519929585457,76.200527287817
2024-09-23 19:23:23.955837,45.29,45.650514,-0.0028852147413806935,-0.02293251340906919,0.09720203344245934,44.11764879391193,-96.25519929585457,76.200527287817
2024-09-23 19:23:23.967810,45.29,45.650564,-0.0028852147413806935,-0.02293251340906919,0.09720203344245934,28.07457030097246,-100.26678939585686,80.21211738781929
2024-09-23 19:23:24.011243,45.29,45.650564,-0.002785727465249955,-0.02352945757203875,0.09690356060148622,40.106058693909645,-96.25519929585457,76.200527287817
2024-09-23 19:23:24.054251,45.29,45.650615,-0.0030841997366068195,-0.023181236725942318,0.09690356060148622,40.106058693909645,-96.25519929585457,76.200527287817
2024-09-23 19:23:24.065428,45.29,45.650615,-0.0030841997366068195,-0.023181236725942318,0.09680407370509965,24.06297849342227,-96.25519929585457,76.200527287817
2024-09-23 19:23:24.109133,45.29,45.650703,-0.0029847020175114316,-0.023579196463302005,0.09715228999426605,32.08287849390507,-96.25519929585457,80.21211738781929
2024-09-23 19:23:24.151482,45.29,45.650801,-0.0029847020175114316,-0.023579196463302005,0.09715228999426605,32.08287849390507,-96.25519929585457,80.21211738781929
2024-09-23 19:23:24.162658,45.29,45.650801,-0.0036811340262279837,-0.02313149783467906,0.09740101331113918,32.08287849390507,-96.25519929585457,80.21211738781929
2024-09-23 19:23:24.205760,45.29,45.650852,-0.0029349636958644295,-0.02268379009219606,0.09740101331113918,36.09446859390736,-96.25519929585457,80.21211738781929
2024-09-23 19:23:24.250267,44.26,45.650852,-0.0029349636958644295,-0.02268379009219606,0.09640611396773996,44.11764879391193,-96.25519929585457,80.21211738781929
2024-09-23 19:23:24.261556,44.26,45.650902,-0.0027359787006383035,-0.02268379009219606,0.09640611396773996,44.11764879391193,-96.25519929585457,80.21211738781929
2024-09-23 19:23:24.304159,44.26,45.650902,-0.0027359787006383035,-0.023479709566915436,0.0970030596496862,40.106058693909645,-100.26678939585686,76.200527287817
2024-09-23 19:23:24.346441,44.26,45.650994,-0.0027359787006383035,-0.023479709566915436,0.0970030596496862,40.106058693909645,-100.26678939585686,76.200527287817
2024-09-23 19:23:24.399672,44.26,45.650994,-0.0034324103296106863,-0.023230986250042305,0.09745075675933246,36.09446859390736,-96.25519929585457,76.200527287817
2024-09-23 19:23:24.411485,44.26,45.650994,-0.0034324103296106863,-0.023230986250042305,0.09745075675933246,36.09446859390736,-96.25519929585457,80.21211738781929
2024-09-23 19:23:24.443507,44.26,45.651046,-0.0029847020175114316,-0.023230986250042305,0.09745075675933246,36.09446859390736,-96.25519929585457,80.21211738781929
2024-09-23 19:23:24.455471,44.26,45.651046,-0.0029847020175114316,-0.02367869399252531,0.09685382322919964,44.11764879391193,-96.25519929585457,80.21211738781929
2024-09-23 19:23:24.499596,44.26,45.651097,-0.0029349636958644295,-0.02362894446842532,0.09725178296655933,40.106058693909645,-96.25519929585457,80.21211738781929
2024-09-23 19:23:24.542609,44.26,45.651147,-0.0029349636958644295,-0.02362894446842532,0.09725178296655933,40.106058693909645,-100.26678939585686,76.200527287817
2024-09-23 19:23:24.553598,44.26,45.651147,-0.002636491424507565,-0.023181236725942318,0.09725178296655933,40.106058693909645,-100.26678939585686,76.200527287817
2024-09-23 19:23:24.596206,44.26,45.651198,-0.002586742470023829,-0.023230986250042305,0.09725178296655933,64.16903547978401,-96.25519929585457,80.21211738781929
2024-09-23 19:23:24.638788,44.26,45.651198,-0.002586742470023829,-0.023230986250042305,0.09680407370509965,44.11764879391193,-96.25519929585457,80.21211738781929
2024-09-23 19:23:24.650261,44.26,45.65129,-0.0030344509719951677,-0.023230986250042305,0.09680407370509965,44.11764879391193,-92.24360919585227,80.21211738781929
2024-09-23 19:23:24.693013,44.26,45.65129,-0.0030344509719951677,-0.023181236725942318,0.09720203344245934,40.106058693909645,-100.26678939585686,76.200527287817
2024-09-23 19:23:24.704908,44.26,45.651384,-0.0030344509719951677,-0.023181236725942318,0.09720203344245934,40.106058693909645,-100.26678939585686,76.200527287817
2024-09-23 19:23:24.737842,44.26,45.651384,-0.0028354659767690416,-0.02338022115155219,0.09720203344245934,40.106058693909645,-100.26678939585686,76.200527287817
2024-09-23 19:23:24.749386,44.26,45.651384,-0.0028354659767690416,-0.02338022115155219,0.09720203344245934,40.106058693909645,-92.24360919585227,80.21211738781929
2024-09-23 19:23:24.792240,44.26,45.651436,-0.0031339382481259063,-0.023330473146428877,0.09715228999426605,48.12595698684454,-100.26678939585686,80.21211738781929
2024-09-23 19:23:24.834844,44.26,45.651487,-0.0028354659767690416,-0.023330473146428877,0.09715228999426605,48.12595698684454,-100.26678939585686,76.200527287817
2024-09-23 19:23:24.846259,44.26,45.651487,-0.0028354659767690416,-0.023280723622328886,0.09665483728461309,40.106058693909645,-100.26678939585686,76.200527287817
2024-09-23 19:23:24.889385,44.26,45.651537,-0.0028354659767690416,-0.023280723622328886,0.09665483728461309,40.106058693909645,-100.26678939585686,72.1922225099802
2024-09-23 19:23:24.933918,44.26,45.651537,-0.0029847020175114316,-0.02308174982955575,0.09710254654607277,40.106058693909645,-100.26678939585686,72.1922225099802
2024-09-23 19:23:24.945830,44.26,45.651537,-0.0029847020175114316,-0.02308174982955575,0.09710254654607277,36.09446859390736,-96.25519929585457,80.21211738781929
2024-09-23 19:23:24.978623,44.26,45.651588,-0.0029847020175114316,-0.02308174982955575,0.09710254654607277,36.09446859390736,-96.25519929585457,80.21211738781929
2024-09-23 19:23:24.990188,44.26,45.651588,-0.0030841997366068195,-0.02278327698858263,0.09690356060148622,40.106058693909645,-96.25519929585457,80.21211738781929
2024-09-23 19:23:25.033285,44.26,45.651639,-0.002387757474797703,-0.02338022115155219,0.09690356060148622,40.106058693909645,-96.25519929585457,80.21211738781929
2024-09-23 19:23:25.045718,44.26,45.651639,-0.002387757474797703,-0.02338022115155219,0.09710254654607277,32.08287849390507,-96.25519929585457,80.21211738781929
2024-09-23 19:23:25.077683,44.26,45.651726,-0.002387757474797703,-0.02338022115155219,0.09710254654607277,32.08287849390507,-100.26678939585686,76.200527287817
2024-09-23 19:23:25.089186,44.26,45.651726,-0.0028852147413806935,-0.02303200030545576,0.09710254654607277,32.08287849390507,-100.26678939585686,76.200527287817
2024-09-23 19:23:25.131811,44.26,45.651777,-0.0029349636958644295,-0.022733528983459317,0.09710254654607277,44.11764879391193,-96.25519929585457,72.1922225099802
2024-09-23 19:23:25.175060,44.26,45.651777,-0.0029349636958644295,-0.022733528983459317,0.09710254654607277,44.11764879391193,-96.25519929585457,72.1922225099802
2024-09-23 19:23:25.186565,44.26,45.651827,-0.0030841997366068195,-0.022733528983459317,0.09710254654607277,44.11764879391193,-96.25519929585457,72.1922225099802
2024-09-23 19:23:25.230051,44.26,45.651921,-0.0030841997366068195,-0.02308174982955575,0.09670458680871308,32.08287849390507,-100.26678939585686,84.22370748782159
2024-09-23 19:23:25.272889,43.62,45.651921,-0.0031339382481259063,-0.02352945757203875,0.09705279702197278,32.08287849390507,-100.26678939585686,84.22370748782159
2024-09-23 19:23:25.284346,43.62,45.651921,-0.0031339382481259063,-0.02352945757203875,0.09705279702197278,36.09446859390736,-100.26678939585686,76.200527287817
2024-09-23 19:23:25.326227,43.62,45.651972,-0.0025369937054121774,-0.02352945757203875,0.09715228999426605,44.11764879391193,-96.25519929585457,76.200527287817
2024-09-23 19:23:25.421131,43.62,45.652023,-0.0030344509719951677,-0.022982261414192504,0.09715228999426605,44.11764879391193,-96.25519929585457,84.22370748782159
2024-09-23 19:23:25.474130,43.62,45.652073,-0.0034324103296106863,-0.022982261414192504,0.09690356060148622,40.106058693909645,-104.27510100388527,76.200527287817
2024-09-23 19:23:25.517396,43.62,45.652073,-0.0034324103296106863,-0.023280723622328886,0.09715228999426605,36.09446859390736,-104.27510100388527,76.200527287817
2024-09-23 19:23:25.529026,43.62,45.652124,-0.0034324103296106863,-0.023280723622328886,0.09715228999426605,36.09446859390736,-104.27510100388527,76.200527287817
2024-09-23 19:23:25.573460,43.62,45.652124,-0.0025369937054121774,-0.023330473146428877,0.09695331012558621,40.106058693909645,-104.27510100388527,80.21211738781929
2024-09-23 19:23:25.616091,43.62,45.652175,-0.003233425524256645,-0.02338022115155219,0.09680407370509965,40.106058693909645,-104.27510100388527,80.21211738781929
2024-09-23 19:23:25.627688,43.62,45.652175,-0.003233425524256645,-0.02338022115155219,0.09680407370509965,48.12595698684454,-92.24360919585227,80.21211738781929
2024-09-23 19:23:25.659716,43.62,45.652175,-0.003233425524256645,-0.02338022115155219,0.09680407370509965,48.12595698684454,-92.24360919585227,80.21211738781929
2024-09-23 19:23:25.671333,43.62,45.652262,-0.0029349636958644295,-0.023429960042815445,0.09784872257259886,40.106058693909645,-92.24360919585227,80.21211738781929
2024-09-23 19:23:25.713428,43.62,45.652361,-0.0033329230534799477,-0.023429960042815445,0.09784872257259886,40.106058693909645,-96.25519929585457,84.22370748782159
2024-09-23 19:23:25.724802,43.62,45.652361,-0.0033329230534799477,-0.023280723622328886,0.09685382322919964,40.106058693909645,-96.25519929585457,84.22370748782159
2024-09-23 19:23:25.757743,43.62,45.652361,-0.0033329230534799477,-0.023280723622328886,0.09685382322919964,36.09446859390736,-96.25519929585457,84.22370748782159
2024-09-23 19:23:25.769028,43.62,45.652412,-0.0026862297461545674,-0.023579196463302005,0.09685382322919964,36.09446859390736,-92.24360919585227,76.200527287817
2024-09-23 19:23:25.811545,43.62,45.652412,-0.0026862297461545674,-0.023579196463302005,0.09705279702197278,32.08287849390507,-96.25519929585457,80.21211738781929
2024-09-23 19:23:25.823169,43.62,45.652462,-0.0030841997366068195,-0.023579196463302005,0.09705279702197278,32.08287849390507,-96.25519929585457,80.21211738781929
2024-09-23 19:23:25.855124,43.62,45.652462,-0.0030841997366068195,-0.023877669304275123,0.09705279702197278,32.08287849390507,-96.25519929585457,80.21211738781929
2024-09-23 19:23:25.867021,43.62,45.652554,-0.0030841997366068195,-0.023877669304275123,0.09759999317981902,40.106058693909645,-100.26678939585686,76.200527287817
2024-09-23 19:23:25.910198,43.62,45.652554,-0.0025369937054121774,-0.023429960042815445,0.09710254654607277,40.106058693909645,-100.26678939585686,76.200527287817
2024-09-23 19:23:25.952562,43.62,45.652554,-0.0025369937054121774,-0.023429960042815445,0.09710254654607277,36.09446859390736,-100.26678939585686,76.200527287817
2024-09-23 19:23:25.963994,43.62,45.652606,-0.0029349636958644295,-0.02268379009219606,0.09710254654607277,36.09446859390736,-88.23529758782387,76.200527287817
2024-09-23 19:23:26.006738,43.62,45.652606,-0.0029349636958644295,-0.02268379009219606,0.09774922960030558,36.09446859390736,-100.26678939585686,72.1922225099802
2024-09-23 19:23:26.018399,43.62,45.652657,-0.002437506429281439,-0.02268379009219606,0.09774922960030558,36.09446859390736,-100.26678939585686,72.1922225099802
2024-09-23 19:23:26.050388,43.62,45.652657,-0.002437506429281439,-0.023280723622328886,0.09774922960030558,36.09446859390736,-100.26678939585686,72.1922225099802
2024-09-23 19:23:26.062275,43.62,45.652707,-0.002437506429281439,-0.023280723622328886,0.09690356060148622,40.106058693909645,-92.24360919585227,76.200527287817
2024-09-23 19:23:26.105034,43.62,45.652707,-0.0032831742888682963,-0.023280723622328886,0.0973015264147526,44.11764879391193,-96.25519929585457,76.200527287817
2024-09-23 19:23:26.116970,43.62,45.652707,-0.0032831742888682963,-0.023280723622328886,0.0973015264147526,44.11764879391193,-96.25519929585457,76.200527287817
2024-09-23 19:23:26.149703,43.62,45.652758,-0.0027359787006383035,-0.023280723622328886,0.0973015264147526,44.11764879391193,-96.25519929585457,76.200527287817
2024-09-23 19:23:26.161156,43.62,45.652758,-0.0027359787006383035,-0.02303200030545576,0.09740101331113918,36.09446859390736,-100.26678939585686,76.200527287817
2024-09-23 19:23:26.203831,43.62,45.652848,-0.0035318979854855937,-0.0228827638849692,0.0973512698629459,40.106058693909645,-100.26678939585686,80.21211738781929
2024-09-23 19:23:26.246397,43.62,45.652848,-0.0035318979854855937,-0.0228827638849692,0.0973512698629459,40.106058693909645,-100.26678939585686,76.200527287817
2024-09-23 19:23:26.258382,43.62,45.652899,-0.0028354659767690416,-0.023579196463302005,0.09685382322919964,40.106058693909645,-100.26678939585686,76.200527287817
2024-09-23 19:23:26.301564,43.15,45.65295,-0.0030344509719951677,-0.02362894446842532,0.09685382322919964,48.12595698684454,-92.24360919585227,80.21211738781929
2024-09-23 19:23:26.343568,43.15,45.65295,-0.0030344509719951677,-0.02362894446842532,0.09645586349183995,44.11764879391193,-92.24360919585227,80.21211738781929
2024-09-23 19:23:26.355179,43.15,45.653,-0.0028354659767690416,-0.02362894446842532,0.09645586349183995,44.11764879391193,-88.23529758782387,80.21211738781929
2024-09-23 19:23:26.398746,43.15,45.653091,-0.0028354659767690416,-0.023230986250042305,0.09784872257259886,60.15744537978172,-88.23529758782387,76.200527287817
2024-09-23 19:23:26.442305,43.15,45.653091,-0.002288270198666964,-0.02313149783467906,0.09784872257259886,60.15744537978172,-88.23529758782387,76.200527287817
2024-09-23 19:23:26.454085,43.15,45.653091,-0.002288270198666964,-0.02313149783467906,0.09670458680871308,40.106058693909645,-96.25519929585457,76.200527287817
2024-09-23 19:23:26.496737,43.15,45.653142,-0.0026862297461545674,-0.02303200030545576,0.0973512698629459,40.106058693909645,-96.25519929585457,76.200527287817
2024-09-23 19:23:26.539537,43.15,45.653142,-0.0026862297461545674,-0.02303200030545576,0.0973512698629459,44.11764879391193,-92.24360919585227,76.200527287817
2024-09-23 19:23:26.550653,43.15,45.653193,-0.0033329230534799477,-0.02367869399252531,0.0973512698629459,44.11764879391193,-92.24360919585227,80.21211738781929
2024-09-23 19:23:26.593035,43.15,45.653244,-0.0033329230534799477,-0.02367869399252531,0.09720203344245934,44.11764879391193,-96.25519929585457,76.200527287817
2024-09-23 19:23:26.604930,43.15,45.653244,-0.0020892956464054874,-0.02367869399252531,0.09720203344245934,44.11764879391193,-96.25519929585457,76.200527287817
2024-09-23 19:23:26.637076,43.15,45.653244,-0.0020892956464054874,-0.02338022115155219,0.09705279702197278,44.11764879391193,-96.25519929585457,76.200527287817
2024-09-23 19:23:26.648979,43.15,45.653294,-0.0020892956464054874,-0.02338022115155219,0.09705279702197278,36.09446859390736,-92.24360919585227,80.21211738781929
2024-09-23 19:23:26.692711,43.15,45.653294,-0.0030344509719951677,-0.023230986250042305,0.09705279702197278,32.08287849390507,-104.27510100388527,80.21211738781929
2024-09-23 19:23:26.734636,43.15,45.653345,-0.002437506429281439,-0.023230986250042305,0.09705279702197278,32.08287849390507,-104.27510100388527,80.21211738781929
2024-09-23 19:23:26.746650,43.15,45.653345,-0.002437506429281439,-0.023181236725942318,0.09715228999426605,40.106058693909645,-104.27510100388527,80.21211738781929
2024-09-23 19:23:26.790246,43.15,45.653433,-0.0029349636958644295,-0.023728432883788564,0.09725178296655933,40.106058693909645,-104.27510100388527,80.21211738781929
2024-09-23 19:23:26.832213,43.15,45.653433,-0.0029349636958644295,-0.023728432883788564,0.09725178296655933,40.106058693909645,-92.24360919585227,76.200527287817
2024-09-23 19:23:26.843391,43.15,45.653484,-0.0028354659767690416,-0.023230986250042305,0.09665483728461309,40.106058693909645,-92.24360919585227,76.200527287817
2024-09-23 19:23:26.886866,43.15,45.653535,-0.0029349636958644295,-0.023230986250042305,0.09665483728461309,40.106058693909645,-100.26678939585686,80.21211738781929
2024-09-23 19:23:26.898503,43.15,45.653535,-0.0029349636958644295,-0.02397715620066169,0.09665483728461309,40.106058693909645,-100.26678939585686,80.21211738781929
2024-09-23 19:23:26.931104,43.15,45.653535,-0.0029349636958644295,-0.02397715620066169,0.09685382322919964,32.08287849390507,-96.25519929585457,80.21211738781929
2024-09-23 19:23:26.942866,43.15,45.653585,-0.0028354659767690416,-0.02397715620066169,0.09685382322919964,32.08287849390507,-96.25519929585457,80.21211738781929
2024-09-23 19:23:26.985248,43.15,45.653676,-0.0028354659767690416,-0.023429960042815445,0.0973512698629459,40.106058693909645,-92.24360919585227,80.21211738781929
2024-09-23 19:23:27.029035,43.15,45.653676,-0.002636491424507565,-0.02303200030545576,0.0970030596496862,40.106058693909645,-92.24360919585227,80.21211738781929
2024-09-23 19:23:27.040094,43.15,45.653676,-0.002636491424507565,-0.02303200030545576,0.0970030596496862,40.106058693909645,-108.28669110388756,60.15744537978172
2024-09-23 19:23:27.082054,43.15,45.653727,-0.0028354659767690416,-0.023429960042815445,0.0973015264147526,44.11764879391193,-100.26678939585686,60.15744537978172
2024-09-23 19:23:27.124054,43.15,45.653778,-0.0028354659767690416,-0.023429960042815445,0.0973015264147526,44.11764879391193,-100.26678939585686,72.1922225099802
2024-09-23 19:23:27.136091,43.15,45.653778,-0.0032831742888682963,-0.02352945757203875,0.09725178296655933,40.106058693909645,-100.26678939585686,72.1922225099802
2024-09-23 19:23:27.179163,43.15,45.653829,-0.0029349636958644295,-0.023330473146428877,0.09680407370509965,40.106058693909645,-96.25519929585457,80.21211738781929
2024-09-23 19:23:27.222827,43.15,45.653829,-0.0029349636958644295,-0.023330473146428877,0.09680407370509965,48.12595698684454,-100.26678939585686,72.1922225099802
2024-09-23 19:23:27.234840,43.15,45.653879,-0.0030344509719951677,-0.02313149783467906,0.09680407370509965,48.12595698684454,-100.26678939585686,72.1922225099802
2024-09-23 19:23:27.278264,43.15,45.65393,-0.0028852147413806935,-0.02313149783467906,0.09725178296655933,40.106058693909645,-96.25519929585457,72.1922225099802
2024-09-23 19:23:27.320979,42.73,45.65393,-0.0028852147413806935,-0.023579196463302005,0.09725178296655933,44.11764879391193,-96.25519929585457,72.1922225099802
2024-09-23 19:23:27.332274,42.73,45.654017,-0.0028852147413806935,-0.023579196463302005,0.09725178296655933,44.11764879391193,-96.25519929585457,72.1922225099802
2024-09-23 19:23:27.375519,42.73,45.654017,-0.0025369937054121774,-0.02367869399252531,0.09690356060148622,48.12595698684454,-96.25519929585457,76.200527287817
2024-09-23 19:23:27.418438,42.73,45.654068,-0.0031339382481259063,-0.023280723622328886,0.09690356060148622,48.12595698684454,-96.25519929585457,76.200527287817
2024-09-23 19:23:27.430155,42.73,45.654068,-0.0031339382481259063,-0.023280723622328886,0.09764974270391902,40.106058693909645,-96.25519929585457,76.200527287817
2024-09-23 19:23:27.472761,42.73,45.654119,-0.002586742470023829,-0.022833026512682618,0.09755024973162574,36.09446859390736,-96.25519929585457,80.21211738781929
2024-09-23 19:23:27.566366,42.73,45.65417,-0.002586742470023829,-0.022833026512682618,0.09755024973162574,36.09446859390736,-96.25519929585457,84.22370748782159
2024-09-23 19:23:27.581943,42.73,45.65417,-0.0027359787006383035,-0.02367869399252531,0.09720203344245934,36.09446859390736,-96.25519929585457,84.22370748782159
2024-09-23 19:23:27.614668,42.73,45.65417,-0.0027359787006383035,-0.02367869399252531,0.09720203344245934,36.09446859390736,-92.24360919585227,80.21211738781929
2024-09-23 19:23:27.626505,42.73,45.65422,-0.0030344509719951677,-0.02338022115155219,0.09720203344245934,36.09446859390736,-92.24360919585227,80.21211738781929
2024-09-23 19:23:27.669193,42.73,45.654271,-0.002785727465249955,-0.02338022115155219,0.09720203344245934,48.12595698684454,-96.25519929585457,80.21211738781929
2024-09-23 19:23:27.713940,42.73,45.654271,-0.002785727465249955,-0.022733528983459317,0.09630662707135339,40.106058693909645,-92.24360919585227,80.21211738781929
2024-09-23 19:23:27.725798,42.73,45.654358,-0.002785727465249955,-0.022733528983459317,0.09630662707135339,40.106058693909645,-92.24360919585227,80.21211738781929
2024-09-23 19:23:27.758436,42.73,45.654358,-0.0026862297461545674,-0.02362894446842532,0.09630662707135339,40.106058693909645,-92.24360919585227,80.21211738781929
2024-09-23 19:23:27.770179,42.73,45.654358,-0.0026862297461545674,-0.02362894446842532,0.09720203344245934,40.106058693909645,-96.25519929585457,80.21211738781929
2024-09-23 19:23:27.812688,42.73,45.654456,-0.002636491424507565,-0.023429960042815445,0.09784872257259886,48.12595698684454,-96.25519929585457,80.21211738781929
2024-09-23 19:23:27.825056,42.73,45.654456,-0.002636491424507565,-0.023429960042815445,0.09784872257259886,48.12595698684454,-92.24360919585227,80.21211738781929
2024-09-23 19:23:27.857248,42.73,45.654508,-0.0034324103296106863,-0.023429960042815445,0.09784872257259886,48.12595698684454,-92.24360919585227,80.21211738781929
2024-09-23 19:23:27.869267,42.73,45.654508,-0.0034324103296106863,-0.023728432883788564,0.09745075675933246,40.106058693909645,-92.24360919585227,80.21211738781929
2024-09-23 19:23:27.911396,42.73,45.654558,-0.002437506429281439,-0.02313149783467906,0.0973512698629459,40.106058693909645,-100.26678939585686,72.1922225099802
2024-09-23 19:23:27.955407,42.73,45.654558,-0.002437506429281439,-0.02313149783467906,0.0973512698629459,40.106058693909645,-92.24360919585227,80.21211738781929
2024-09-23 19:23:27.966484,42.73,45.654609,-0.003233425524256645,-0.023827930413011865,0.0973512698629459,40.106058693909645,-92.24360919585227,80.21211738781929
2024-09-23 19:23:28.008758,42.73,45.65466,-0.0028354659767690416,-0.023827930413011865,0.09695331012558621,40.106058693909645,-88.23529758782387,88.23529758782387
2024-09-23 19:23:28.051085,42.73,45.65466,-0.0028354659767690416,-0.02352945757203875,0.09720203344245934,40.106058693909645,-88.23529758782387,88.23529758782387
2024-09-23 19:23:28.063126,42.73,45.654748,-0.0028354659767690416,-0.02352945757203875,0.09720203344245934,28.07457030097246,-96.25519929585457,76.200527287817
2024-09-23 19:23:28.106306,42.73,45.654748,-0.0026862297461545674,-0.02352945757203875,0.09720203344245934,28.07457030097246,-100.26678939585686,76.200527287817
2024-09-23 19:23:28.148678,42.73,45.654748,-0.0026862297461545674,-0.02352945757203875,0.09720203344245934,28.07457030097246,-100.26678939585686,76.200527287817
2024-09-23 19:23:28.202536,42.73,45.6548,-0.0029349636958644295,-0.02278327698858263,0.09705279702197278,40.106058693909645,-100.26678939585686,76.200527287817
2024-09-23 19:23:28.214236,42.73,45.6548,-0.0029349636958644295,-0.02278327698858263,0.09705279702197278,40.106058693909645,-96.25519929585457,76.200527287817
2024-09-23 19:23:28.246006,42.73,45.65485,-0.0029349636958644295,-0.02278327698858263,0.09705279702197278,40.106058693909645,-96.25519929585457,80.21211738781929
2024-09-23 19:23:28.257126,42.73,45.65485,-0.0033329230534799477,-0.023280723622328886,0.09745075675933246,36.09446859390736,-96.25519929585457,80.21211738781929
2024-09-23 19:23:28.300018,42.73,45.654901,-0.0025369937054121774,-0.023181236725942318,0.09745075675933246,36.09446859390736,-96.25519929585457,72.1922225099802
2024-09-23 19:23:28.311678,42.73,45.654901,-0.0025369937054121774,-0.023181236725942318,0.09690356060148622,36.09446859390736,-96.25519929585457,72.1922225099802
2024-09-23 19:23:28.345053,42.4,45.654901,-0.0025369937054121774,-0.023181236725942318,0.09690356060148622,40.106058693909645,-100.26678939585686,76.200527287817
2024-09-23 19:23:28.356456,42.4,45.654952,-0.0030841997366068195,-0.02338022115155219,0.09690356060148622,40.106058693909645,-100.26678939585686,76.200527287817
2024-09-23 19:23:28.399180,42.4,45.655002,-0.0028852147413806935,-0.02338022115155219,0.09715228999426605,44.11764879391193,-96.25519929585457,80.21211738781929
2024-09-23 19:23:28.441447,42.4,45.655002,-0.0028852147413806935,-0.02303200030545576,0.0973015264147526,48.12595698684454,-96.25519929585457,80.21211738781929
2024-09-23 19:23:28.452839,42.4,45.655138,-0.0028852147413806935,-0.02303200030545576,0.0973015264147526,48.12595698684454,-96.25519929585457,80.21211738781929
2024-09-23 19:23:28.495376,42.4,45.655138,-0.0028354659767690416,-0.02308174982955575,0.09715228999426605,36.09446859390736,-104.27510100388527,80.21211738781929
2024-09-23 19:23:28.537825,42.4,45.65519,-0.0025369937054121774,-0.02308174982955575,0.09715228999426605,36.09446859390736,-104.27510100388527,80.21211738781929
2024-09-23 19:23:28.549218,42.4,45.65519,-0.0025369937054121774,-0.02362894446842532,0.09605789160266685,48.12595698684454,-96.25519929585457,80.21211738781929
2024-09-23 19:23:28.592812,42.4,45.65524,-0.0025369937054121774,-0.023181236725942318,0.09670458680871308,24.06297849342227,-96.25519929585457,80.21211738781929
2024-09-23 19:23:28.635192,42.4,45.65524,-0.0025369937054121774,-0.023181236725942318,0.09670458680871308,24.06297849342227,-96.25519929585457,80.21211738781929
2024-09-23 19:23:28.646111,42.4,45.655291,-0.0028852147413806935,-0.02367869399252531,0.09670458680871308,24.06297849342227,-96.25519929585457,80.21211738781929
2024-09-23 19:23:28.688014,42.4,45.655291,-0.0028852147413806935,-0.02367869399252531,0.0976994861521123,24.06297849342227,-96.25519929585457,80.21211738781929
2024-09-23 19:23:28.731526,42.4,45.655291,-0.0028852147413806935,-0.02367869399252531,0.0976994861521123,4.008308192932605,-96.25519929585457,80.21211738781929
2024-09-23 19:23:28.742571,42.4,45.655342,-0.0028852147413806935,-0.02367869399252531,0.0976994861521123,4.008308192932605,-100.26678939585686,72.1922225099802
2024-09-23 19:23:28.785674,42.4,45.655342,-0.0028852147413806935,-0.023181236725942318,0.09794820946898543,40.106058693909645,-104.27510100388527,72.1922225099802
2024-09-23 19:23:28.797123,42.4,45.655392,-0.0028852147413806935,-0.023181236725942318,0.09794820946898543,40.106058693909645,-104.27510100388527,68.18063240997792
2024-09-23 19:23:28.830110,42.4,45.655392,-0.0027359787006383035,-0.023181236725942318,0.09794820946898543,40.106058693909645,-104.27510100388527,68.18063240997792
2024-09-23 19:23:28.841231,42.4,45.655392,-0.0027359787006383035,-0.023579196463302005,0.09670458680871308,52.137550501942634,-92.24360919585227,76.200527287817
2024-09-23 19:23:28.884347,42.4,45.655479,-0.003233425524256645,-0.023579196463302005,0.0970030596496862,52.137550501942634,-92.24360919585227,76.200527287817
2024-09-23 19:23:28.896149,42.4,45.655479,-0.003233425524256645,-0.023579196463302005,0.0970030596496862,40.106058693909645,-96.25519929585457,76.200527287817
2024-09-23 19:23:28.929118,42.4,45.655531,-0.002785727465249955,-0.023579196463302005,0.0970030596496862,40.106058693909645,-96.25519929585457,80.21211738781929
2024-09-23 19:23:28.941613,42.4,45.655531,-0.002785727465249955,-0.02338022115155219,0.09759999317981902,36.09446859390736,-96.25519929585457,80.21211738781929
2024-09-23 19:23:28.984935,42.4,45.655627,-0.0029349636958644295,-0.023479709566915436,0.09725178296655933,36.09446859390736,-92.24360919585227,80.21211738781929
2024-09-23 19:23:29.027585,42.4,45.655627,-0.0029349636958644295,-0.023479709566915436,0.09725178296655933,44.11764879391193,-88.23529758782387,80.21211738781929
2024-09-23 19:23:29.038547,42.4,45.655678,-0.0031339382481259063,-0.022833026512682618,0.09725178296655933,44.11764879391193,-88.23529758782387,80.21211738781929
2024-09-23 19:23:29.082143,42.4,45.655729,-0.002636491424507565,-0.022833026512682618,0.09645586349183995,36.09446859390736,-92.24360919585227,76.200527287817
2024-09-23 19:23:29.124383,42.4,45.655729,-0.002636491424507565,-0.023330473146428877,0.0970030596496862,44.11764879391193,-92.24360919585227,76.200527287817
2024-09-23 19:23:29.135564,42.4,45.655821,-0.002636491424507565,-0.023330473146428877,0.0970030596496862,44.11764879391193,-96.25519929585457,80.21211738781929
2024-09-23 19:23:29.218351,42.4,45.655821,-0.0028354659767690416,-0.023330473146428877,0.0970030596496862,44.11764879391193,-96.25519929585457,80.21211738781929
2024-09-23 19:23:29.229796,42.4,45.655821,-0.0028354659767690416,-0.02338022115155219,0.09705279702197278,40.106058693909645,-96.25519929585457,80.21211738781929
2024-09-23 19:23:29.272739,42.4,45.655872,-0.0029847020175114316,-0.02338022115155219,0.09705279702197278,40.106058693909645,-96.25519929585457,76.200527287817
2024-09-23 19:23:29.283701,42.4,45.655872,-0.0029847020175114316,-0.023579196463302005,0.09655535038822652,40.106058693909645,-96.25519929585457,76.200527287817
2024-09-23 19:23:29.317710,42.4,45.655872,-0.0029847020175114316,-0.023579196463302005,0.09655535038822652,40.106058693909645,-96.25519929585457,76.200527287817
2024-09-23 19:23:29.329276,42.4,45.655923,-0.0026862297461545674,-0.023728432883788564,0.09655535038822652,40.106058693909645,-96.25519929585457,76.200527287817
2024-09-23 19:23:29.371877,42.23,45.655974,-0.0026862297461545674,-0.023728432883788564,0.09670458680871308,36.09446859390736,-100.26678939585686,76.200527287817
2024-09-23 19:23:29.383461,42.23,45.655974,-0.0035318979854855937,-0.023728432883788564,0.09670458680871308,36.09446859390736,-100.26678939585686,76.200527287817
2024-09-23 19:23:29.416210,42.23,45.655974,-0.0035318979854855937,-0.023330473146428877,0.09675432418099966,36.09446859390736,-100.26678939585686,76.200527287817
2024-09-23 19:23:29.428069,42.23,45.656025,-0.0035318979854855937,-0.023330473146428877,0.09675432418099966,40.106058693909645,-96.25519929585457,76.200527287817
2024-09-23 19:23:29.470265,42.23,45.656025,-0.0023380189632786156,-0.02308174982955575,0.09675432418099966,52.137550501942634,-96.25519929585457,80.21211738781929
2024-09-23 19:23:29.512872,42.23,45.656162,-0.002387757474797703,-0.02308174982955575,0.09675432418099966,52.137550501942634,-96.25519929585457,80.21211738781929
2024-09-23 19:23:29.524510,42.23,45.656162,-0.002387757474797703,-0.023778180888911878,0.09755024973162574,44.11764879391193,-100.26678939585686,80.21211738781929
2024-09-23 19:23:29.567774,42.23,45.656214,-0.0023380189632786156,-0.023330473146428877,0.09809744588947199,44.11764879391193,-100.26678939585686,76.200527287817
2024-09-23 19:23:29.579567,42.23,45.656214,-0.0023380189632786156,-0.023330473146428877,0.09809744588947199,40.106058693909645,-100.26678939585686,76.200527287817
2024-09-23 19:23:29.612627,42.23,45.656265,-0.0023380189632786156,-0.023330473146428877,0.09809744588947199,40.106058693909645,-92.24360919585227,80.21211738781929
2024-09-23 19:23:29.624268,42.23,45.656265,-0.0029847020175114316,-0.023579196463302005,0.0973512698629459,40.106058693909645,-92.24360919585227,80.21211738781929
2024-09-23 19:23:29.667423,42.23,45.656315,-0.0029847020175114316,-0.022982261414192504,0.0973512698629459,56.14914060194492,-88.23529758782387,80.21211738781929
2024-09-23 19:23:29.710927,42.23,45.656315,-0.0029847020175114316,-0.022982261414192504,0.0976994861521123,48.12595698684454,-96.25519929585457,76.200527287817
2024-09-23 19:23:29.723789,42.23,45.656366,-0.0022385316871478774,-0.022982261414192504,0.0976994861521123,48.12595698684454,-96.25519929585457,76.200527287817
2024-09-23 19:23:29.757411,42.23,45.656366,-0.0022385316871478774,-0.023280723622328886,0.0973015264147526,48.12595698684454,-96.25519929585457,76.200527287817
2024-09-23 19:23:29.768983,42.23,45.656366,-0.0022385316871478774,-0.023280723622328886,0.0973015264147526,44.11764879391193,-88.23529758782387,72.1922225099802
2024-09-23 19:23:29.811813,42.23,45.656454,-0.0022385316871478774,-0.023280723622328886,0.0973015264147526,44.11764879391193,-88.23529758782387,72.1922225099802
2024-09-23 19:23:29.854588,42.23,45.656454,-0.0028852147413806935,-0.023280723622328886,0.0973015264147526,44.11764879391193,-88.23529758782387,72.1922225099802
2024-09-23 19:23:29.866140,42.23,45.656454,-0.0028852147413806935,-0.023429960042815445,0.09705279702197278,36.09446859390736,-92.24360919585227,76.200527287817
2024-09-23 19:23:29.908315,42.23,45.656506,-0.002785727465249955,-0.02338022115155219,0.09755024973162574,36.09446859390736,-92.24360919585227,76.200527287817
2024-09-23 19:23:29.920110,42.23,45.656506,-0.002785727465249955,-0.02338022115155219,0.09755024973162574,36.09446859390736,-92.24360919585227,76.200527287817
2024-09-23 19:23:29.952312,42.23,45.656557,-0.002785727465249955,-0.02338022115155219,0.09755024973162574,36.09446859390736,-92.24360919585227,76.200527287817
2024-09-23 19:23:29.963985,42.23,45.656557,-0.0028852147413806935,-0.023330473146428877,0.09690356060148622,44.11764879391193,-92.24360919585227,76.200527287817
2024-09-23 19:23:30.006298,42.23,45.656607,-0.0024872551938930902,-0.022982261414192504,0.09690356060148622,44.11764879391193,-88.23529758782387,76.200527287817
2024-09-23 19:23:30.018221,42.23,45.656607,-0.0024872551938930902,-0.022982261414192504,0.09725178296655933,44.11764879391193,-88.23529758782387,76.200527287817
2024-09-23 19:23:30.051530,42.23,45.656607,-0.0024872551938930902,-0.022982261414192504,0.09725178296655933,52.137550501942634,-92.24360919585227,76.200527287817
2024-09-23 19:23:30.063684,42.23,45.656658,-0.0028852147413806935,-0.02308174982955575,0.09725178296655933,52.137550501942634,-92.24360919585227,76.200527287817
2024-09-23 19:23:30.096287,42.23,45.656658,-0.0028852147413806935,-0.02308174982955575,0.09759999317981902,52.137550501942634,-92.24360919585227,76.200527287817
2024-09-23 19:23:30.108290,42.23,45.65675,-0.0029349636958644295,-0.02308174982955575,0.09759999317981902,52.137550501942634,-96.25519929585457,76.200527287817
2024-09-23 19:23:30.150270,42.23,45.65675,-0.0029349636958644295,-0.02367869399252531,0.09680407370509965,40.106058693909645,-100.26678939585686,76.200527287817
2024-09-23 19:23:30.162081,42.23,45.656844,-0.0029349636958644295,-0.02367869399252531,0.09680407370509965,40.106058693909645,-100.26678939585686,76.200527287817
2024-09-23 19:23:30.194941,42.23,45.656844,-0.0028852147413806935,-0.02367869399252531,0.09680407370509965,40.106058693909645,-100.26678939585686,76.200527287817
2024-09-23 19:23:30.205998,42.23,45.656844,-0.0028852147413806935,-0.023479709566915436,0.09690356060148622,36.09446859390736,-104.27510100388527,76.200527287817
2024-09-23 19:23:30.248720,42.23,45.656896,-0.0025369937054121774,-0.023479709566915436,0.09680407370509965,36.09446859390736,-104.27510100388527,76.200527287817
2024-09-23 19:23:30.260599,42.23,45.656896,-0.0025369937054121774,-0.023479709566915436,0.09680407370509965,36.09446859390736,-96.25519929585457,76.200527287817
2024-09-23 19:23:30.293398,42.23,45.656947,-0.0025369937054121774,-0.023479709566915436,0.09680407370509965,36.09446859390736,-96.25519929585457,76.200527287817
2024-09-23 19:23:30.305262,42.23,45.656947,-0.002387757474797703,-0.022833026512682618,0.0973015264147526,40.106058693909645,-96.25519929585457,76.200527287817
2024-09-23 19:23:30.347647,42.23,45.656997,-0.002387757474797703,-0.022833026512682618,0.0973015264147526,40.106058693909645,-96.25519929585457,72.1922225099802
2024-09-23 19:23:30.389933,42.53,45.656997,-0.0028354659767690416,-0.02352945757203875,0.0973015264147526,40.106058693909645,-96.25519929585457,72.1922225099802
2024-09-23 19:23:30.401265,42.53,45.656997,-0.0028354659767690416,-0.02352945757203875,0.09690356060148622,40.106058693909645,-96.25519929585457,72.1922225099802
2024-09-23 19:23:30.443894,42.53,45.657048,-0.002288270198666964,-0.023280723622328886,0.09690356060148622,40.106058693909645,-84.22370748782159,80.21211738781929
2024-09-23 19:23:30.455745,42.53,45.657048,-0.002288270198666964,-0.023280723622328886,0.09725178296655933,40.106058693909645,-84.22370748782159,80.21211738781929
2024-09-23 19:23:30.488150,42.53,45.657048,-0.002288270198666964,-0.023280723622328886,0.09725178296655933,44.11764879391193,-88.23529758782387,80.21211738781929
2024-09-23 19:23:30.499328,42.53,45.657099,-0.0024872551938930902,-0.02338022115155219,0.09725178296655933,44.11764879391193,-88.23529758782387,72.1922225099802
2024-09-23 19:23:30.542671,42.53,45.657186,-0.0024872551938930902,-0.02338022115155219,0.0973512698629459,40.106058693909645,-96.25519929585457,76.200527287817
2024-09-23 19:23:30.554761,42.53,45.657186,-0.002785727465249955,-0.02338022115155219,0.0973512698629459,40.106058693909645,-96.25519929585457,76.200527287817
2024-09-23 19:23:30.587407,42.53,45.657186,-0.002785727465249955,-0.023280723622328886,0.09720203344245934,36.09446859390736,-96.25519929585457,76.200527287817
2024-09-23 19:23:30.598775,42.53,45.657237,-0.002785727465249955,-0.023280723622328886,0.09720203344245934,36.09446859390736,-96.25519929585457,76.200527287817
2024-09-23 19:23:30.641630,42.53,45.657237,-0.0029349636958644295,-0.023230986250042305,0.09745075675933246,36.09446859390736,-100.26678939585686,80.21211738781929
2024-09-23 19:23:30.684173,42.53,45.657332,-0.0027359787006383035,-0.02338022115155219,0.09745075675933246,36.09446859390736,-100.26678939585686,80.21211738781929
2024-09-23 19:23:30.695813,42.53,45.657332,-0.0027359787006383035,-0.02338022115155219,0.09645586349183995,32.08287849390507,-92.24360919585227,80.21211738781929
2024-09-23 19:23:30.739177,42.53,45.657384,-0.0032831742888682963,-0.0228827638849692,0.09675432418099966,44.11764879391193,-92.24360919585227,84.22370748782159
2024-09-23 19:23:30.782122,42.53,45.657434,-0.0032831742888682963,-0.0228827638849692,0.09675432418099966,44.11764879391193,-92.24360919585227,76.200527287817
2024-09-23 19:23:30.793482,42.53,45.657434,-0.002636491424507565,-0.023330473146428877,0.0973512698629459,44.11764879391193,-92.24360919585227,76.200527287817
2024-09-23 19:23:30.878170,42.53,45.657434,-0.002636491424507565,-0.023330473146428877,0.0973512698629459,44.11764879391193,-96.25519929585457,76.200527287817
2024-09-23 19:23:30.889603,42.53,45.657485,-0.002636491424507565,-0.023330473146428877,0.0973512698629459,44.11764879391193,-96.25519929585457,80.21211738781929
2024-09-23 19:23:30.931547,42.53,45.657485,-0.0030344509719951677,-0.022982261414192504,0.09740101331113918,40.106058693909645,-96.25519929585457,80.21211738781929
2024-09-23 19:23:30.944269,42.53,45.657485,-0.0030344509719951677,-0.022982261414192504,0.09740101331113918,40.106058693909645,-96.25519929585457,76.200527287817
2024-09-23 19:23:30.977341,42.53,45.657536,-0.002387757474797703,-0.02352945757203875,0.09740101331113918,40.106058693909645,-96.25519929585457,76.200527287817
2024-09-23 19:23:30.989007,42.53,45.657536,-0.002387757474797703,-0.02352945757203875,0.09670458680871308,40.106058693909645,-92.24360919585227,76.200527287817
2024-09-23 19:23:31.031343,42.53,45.657624,-0.0030841997366068195,-0.023429960042815445,0.09745075675933246,36.09446859390736,-92.24360919585227,80.21211738781929
2024-09-23 19:23:31.073151,42.53,45.657624,-0.0030841997366068195,-0.023429960042815445,0.09745075675933246,36.09446859390736,-92.24360919585227,80.21211738781929
2024-09-23 19:23:31.085438,42.53,45.657676,-0.0028354659767690416,-0.023181236725942318,0.09675432418099966,36.09446859390736,-92.24360919585227,80.21211738781929
2024-09-23 19:23:31.128718,42.53,45.657772,-0.0030344509719951677,-0.02308174982955575,0.09675432418099966,44.11764879391193,-92.24360919585227,76.200527287817
2024-09-23 19:23:31.170767,42.53,45.657772,-0.0030344509719951677,-0.02308174982955575,0.09705279702197278,48.12595698684454,-92.24360919585227,76.200527287817
2024-09-23 19:23:31.182071,42.53,45.657823,-0.0027359787006383035,-0.02308174982955575,0.09705279702197278,48.12595698684454,-92.24360919585227,80.21211738781929
2024-09-23 19:23:31.225012,42.53,45.657917,-0.0027359787006383035,-0.023230986250042305,0.09755024973162574,44.11764879391193,-100.26678939585686,76.200527287817
2024-09-23 19:23:31.267465,42.53,45.657917,-0.002586742470023829,-0.023230986250042305,0.09755024973162574,44.11764879391193,-100.26678939585686,76.200527287817
2024-09-23 19:23:31.278528,42.53,45.657917,-0.002586742470023829,-0.023230986250042305,0.09745075675933246,32.08287849390507,-92.24360919585227,84.22370748782159
2024-09-23 19:23:31.320444,42.53,45.657968,-0.0027359787006383035,-0.02303200030545576,0.0966050877605131,32.08287849390507,-92.24360919585227,84.22370748782159
2024-09-23 19:23:31.332253,42.53,45.657968,-0.0027359787006383035,-0.02303200030545576,0.0966050877605131,32.08287849390507,-100.26678939585686,84.22370748782159
2024-09-23 19:23:31.364912,42.53,45.657968,-0.0027359787006383035,-0.02303200030545576,0.0966050877605131,32.08287849390507,-100.26678939585686,80.21211738781929
2024-09-23 19:23:31.376293,42.53,45.658019,-0.0036811340262279837,-0.023181236725942318,0.09665483728461309,32.08287849390507,-100.26678939585686,80.21211738781929
2024-09-23 19:23:31.418639,42.2,45.65807,-0.0028852147413806935,-0.023181236725942318,0.09665483728461309,44.11764879391193,-96.25519929585457,76.200527287817
2024-09-23 19:23:31.460591,42.2,45.65807,-0.0028852147413806935,-0.02338022115155219,0.09665483728461309,44.11764879391193,-96.25519929585457,76.200527287817
2024-09-23 19:23:31.472627,42.2,45.65807,-0.0028852147413806935,-0.02338022115155219,0.09725178296655933,44.11764879391193,-96.25519929585457,76.200527287817
2024-09-23 19:23:31.515518,42.2,45.658121,-0.0028852147413806935,-0.02338022115155219,0.09725178296655933,32.08287849390507,-100.26678939585686,76.200527287817
2024-09-23 19:23:31.526999,42.2,45.658121,-0.002636491424507565,-0.023579196463302005,0.09725178296655933,32.08287849390507,-100.26678939585686,76.200527287817
2024-09-23 19:23:31.558508,42.2,45.658121,-0.002636491424507565,-0.023579196463302005,0.09794820946898543,32.08287849390507,-100.26678939585686,76.200527287817
2024-09-23 19:23:31.569831,42.2,45.658171,-0.002636491424507565,-0.023579196463302005,0.09794820946898543,40.106058693909645,-100.26678939585686,80.21211738781929
2024-09-23 19:23:31.612933,42.2,45.658171,-0.002636491424507565,-0.02338022115155219,0.09725178296655933,40.106058693909645,-96.25519929585457,80.21211738781929
2024-09-23 19:23:31.624404,42.2,45.658258,-0.002636491424507565,-0.02338022115155219,0.09725178296655933,40.106058693909645,-96.25519929585457,76.200527287817
2024-09-23 19:23:31.656453,42.2,45.658258,-0.0031339382481259063,-0.02338022115155219,0.09725178296655933,40.106058693909645,-96.25519929585457,76.200527287817
2024-09-23 19:23:31.668191,42.2,45.658258,-0.0031339382481259063,-0.023330473146428877,0.09725178296655933,36.09446859390736,-96.25519929585457,80.21211738781929
2024-09-23 19:23:31.711633,42.2,45.65831,-0.002586742470023829,-0.02313149783467906,0.09774922960030558,40.106058693909645,-96.25519929585457,80.21211738781929
2024-09-23 19:23:31.723621,42.2,45.65831,-0.002586742470023829,-0.02313149783467906,0.09774922960030558,40.106058693909645,-92.24360919585227,80.21211738781929
2024-09-23 19:23:31.756990,42.2,45.658406,-0.0030841997366068195,-0.02313149783467906,0.09774922960030558,40.106058693909645,-92.24360919585227,80.21211738781929
2024-09-23 19:23:31.768275,42.2,45.658406,-0.0030841997366068195,-0.023330473146428877,0.0976994861521123,36.09446859390736,-92.24360919585227,80.21211738781929
2024-09-23 19:23:31.811699,42.2,45.658457,-0.0027359787006383035,-0.023330473146428877,0.09680407370509965,36.09446859390736,-92.24360919585227,76.200527287817
2024-09-23 19:23:31.855184,42.2,45.658457,-0.0027359787006383035,-0.023330473146428877,0.09680407370509965,36.09446859390736,-100.26678939585686,72.1922225099802
2024-09-23 19:23:31.867257,42.2,45.658507,-0.0029349636958644295,-0.023479709566915436,0.09680407370509965,36.09446859390736,-100.26678939585686,72.1922225099802
2024-09-23 19:23:31.899679,42.2,45.658507,-0.0029349636958644295,-0.023479709566915436,0.0976994861521123,36.09446859390736,-100.26678939585686,72.1922225099802
2024-09-23 19:23:31.911006,42.2,45.658558,-0.0030344509719951677,-0.023479709566915436,0.0976994861521123,40.106058693909645,-92.24360919585227,72.1922225099802
2024-09-23 19:23:31.953416,42.2,45.658558,-0.0030344509719951677,-0.023579196463302005,0.09695331012558621,48.12595698684454,-92.24360919585227,72.1922225099802
2024-09-23 19:23:31.965046,42.2,45.658648,-0.0030344509719951677,-0.023579196463302005,0.09695331012558621,48.12595698684454,-92.24360919585227,72.1922225099802
2024-09-23 19:23:31.996960,42.2,45.658648,-0.002139034157924574,-0.023579196463302005,0.09695331012558621,48.12595698684454,-92.24360919585227,72.1922225099802
2024-09-23 19:23:32.007844,42.2,45.658648,-0.002139034157924574,-0.02308174982955575,0.0973015264147526,48.12595698684454,-92.24360919585227,72.1922225099802
2024-09-23 19:23:32.050707,42.2,45.658648,-0.002139034157924574,-0.02308174982955575,0.0973015264147526,44.11764879391193,-112.29828120388984,64.16903547978401
2024-09-23 19:23:32.061835,42.2,45.6587,-0.0029847020175114316,-0.023728432883788564,0.0973015264147526,44.11764879391193,-112.29828120388984,64.16903547978401
2024-09-23 19:23:32.104861,42.2,45.65875,-0.0025369937054121774,-0.023728432883788564,0.09685382322919964,28.07457030097246,-104.27510100388527,72.1922225099802
2024-09-23 19:23:32.147481,42.2,45.65875,-0.0025369937054121774,-0.023230986250042305,0.0973512698629459,24.06297849342227,-104.27510100388527,72.1922225099802
2024-09-23 19:23:32.158864,42.2,45.658801,-0.0025369937054121774,-0.023230986250042305,0.0973512698629459,24.06297849342227,-104.27510100388527,72.1922225099802
2024-09-23 19:23:32.201636,42.2,45.658801,-0.0025369937054121774,-0.023230986250042305,0.09745075675933246,32.08287849390507,-100.26678939585686,76.200527287817
2024-09-23 19:23:32.244493,42.2,45.658852,-0.002785727465249955,-0.023330473146428877,0.09745075675933246,32.08287849390507,-100.26678939585686,76.200527287817
2024-09-23 19:23:32.256254,42.2,45.658852,-0.002785727465249955,-0.023330473146428877,0.09690356060148622,48.12595698684454,-100.26678939585686,76.200527287817
2024-09-23 19:23:32.299041,42.2,45.658942,-0.0027359787006383035,-0.02308174982955575,0.0973512698629459,36.09446859390736,-100.26678939585686,80.21211738781929
2024-09-23 19:23:32.341692,42.2,45.658993,-0.0027359787006383035,-0.02308174982955575,0.0973512698629459,36.09446859390736,-96.25519929585457,80.21211738781929
2024-09-23 19:23:32.353733,42.2,45.658993,-0.002636491424507565,-0.0228827638849692,0.09755024973162574,36.09446859390736,-96.25519929585457,80.21211738781929
2024-09-23 19:23:32.396389,42.2,45.659044,-0.0030344509719951677,-0.023479709566915436,0.09755024973162574,44.11764879391193,-88.23529758782387,80.21211738781929
2024-09-23 19:23:32.438661,41.89,45.659044,-0.0030344509719951677,-0.023479709566915436,0.0970030596496862,52.137550501942634,-88.23529758782387,80.21211738781929
2024-09-23 19:23:32.450092,41.89,45.659094,-0.0029847020175114316,-0.023479709566915436,0.0970030596496862,52.137550501942634,-96.25519929585457,84.22370748782159
2024-09-23 19:23:32.492696,41.89,45.659094,-0.0029847020175114316,-0.02362894446842532,0.0970030596496862,52.137550501942634,-96.25519929585457,84.22370748782159
2024-09-23 19:23:32.535591,41.89,45.659094,-0.0029847020175114316,-0.02362894446842532,0.09740101331113918,36.09446859390736,-96.25519929585457,84.22370748782159
2024-09-23 19:23:32.547202,41.89,45.659094,-0.0029847020175114316,-0.02362894446842532,0.09740101331113918,36.09446859390736,-84.22370748782159,80.21211738781929
2024-09-23 19:23:32.589369,41.89,45.659184,-0.0028852147413806935,-0.02338022115155219,0.0973512698629459,44.11764879391193,-84.22370748782159,80.21211738781929
2024-09-23 19:23:32.601411,41.89,45.659184,-0.0028852147413806935,-0.02338022115155219,0.0973512698629459,44.11764879391193,-84.22370748782159,80.21211738781929
2024-09-23 19:23:32.634777,41.89,45.659236,-0.0030344509719951677,-0.02338022115155219,0.0973512698629459,44.11764879391193,-84.22370748782159,76.200527287817
2024-09-23 19:23:32.646357,41.89,45.659236,-0.0030344509719951677,-0.02308174982955575,0.09759999317981902,40.106058693909645,-84.22370748782159,76.200527287817
2024-09-23 19:23:32.688846,41.89,45.659287,-0.0028354659767690416,-0.023429960042815445,0.09680407370509965,40.106058693909645,-100.26678939585686,84.22370748782159
2024-09-23 19:23:32.730596,41.89,45.659287,-0.0028354659767690416,-0.023429960042815445,0.09680407370509965,36.09446859390736,-96.25519929585457,84.22370748782159
2024-09-23 19:23:32.742828,41.89,45.659337,-0.0026862297461545674,-0.02338022115155219,0.09680407370509965,36.09446859390736,-96.25519929585457,76.200527287817
2024-09-23 19:23:32.786278,41.89,45.65943,-0.003631395514708897,-0.02338022115155219,0.09705279702197278,44.11764879391193,-88.23529758782387,84.22370748782159
2024-09-23 19:23:32.830540,41.89,45.65943,-0.003631395514708897,-0.023330473146428877,0.09705279702197278,40.106058693909645,-88.23529758782387,84.22370748782159
2024-09-23 19:23:32.841644,41.89,45.659526,-0.003631395514708897,-0.023330473146428877,0.09705279702197278,40.106058693909645,-100.26678939585686,80.21211738781929
2024-09-23 19:23:32.885360,41.89,45.659526,-0.0029349636958644295,-0.023479709566915436,0.09685382322919964,40.106058693909645,-104.27510100388527,80.21211738781929
2024-09-23 19:23:32.927869,41.89,45.659577,-0.0029349636958644295,-0.023181236725942318,0.09685382322919964,40.106058693909645,-104.27510100388527,80.21211738781929
2024-09-23 19:23:32.939040,41.89,45.659577,-0.0029349636958644295,-0.023181236725942318,0.09690356060148622,40.106058693909645,-96.25519929585457,80.21211738781929
2024-09-23 19:23:32.981645,41.89,45.659628,-0.0031836870127375577,-0.02278327698858263,0.09759999317981902,40.106058693909645,-96.25519929585457,84.22370748782159
2024-09-23 19:23:33.024494,41.89,45.659628,-0.0031836870127375577,-0.02278327698858263,0.09759999317981902,40.106058693909645,-96.25519929585457,84.22370748782159
2024-09-23 19:23:33.076825,41.89,45.659679,-0.0027359787006383035,-0.023280723622328886,0.09745075675933246,44.11764879391193,-96.25519929585457,84.22370748782159
2024-09-23 19:23:33.088890,41.89,45.659679,-0.0027359787006383035,-0.023280723622328886,0.09745075675933246,44.11764879391193,-100.26678939585686,84.22370748782159
2024-09-23 19:23:33.122620,41.89,45.659729,-0.002785727465249955,-0.023280723622328886,0.09745075675933246,44.11764879391193,-100.26678939585686,76.200527287817
2024-09-23 19:23:33.133782,41.89,45.659729,-0.002785727465249955,-0.023479709566915436,0.09759999317981902,36.09446859390736,-100.26678939585686,76.200527287817
2024-09-23 19:23:33.176334,41.89,45.65978,-0.003631395514708897,-0.02313149783467906,0.09705279702197278,36.09446859390736,-92.24360919585227,76.200527287817
2024-09-23 19:23:33.219605,41.89,45.65978,-0.003631395514708897,-0.02313149783467906,0.09705279702197278,40.106058693909645,-100.26678939585686,80.21211738781929
2024-09-23 19:23:33.231070,41.89,45.659867,-0.0028852147413806935,-0.02308174982955575,0.09705279702197278,40.106058693909645,-100.26678939585686,80.21211738781929
2024-09-23 19:23:33.274000,41.89,45.659918,-0.002785727465249955,-0.02308174982955575,0.0970030596496862,48.12595698684454,-92.24360919585227,80.21211738781929
2024-09-23 19:23:33.316725,41.89,45.659918,-0.002785727465249955,-0.02303200030545576,0.09690356060148622,40.106058693909645,-92.24360919585227,80.21211738781929
2024-09-23 19:23:33.327886,41.89,45.660013,-0.002785727465249955,-0.02303200030545576,0.09690356060148622,40.106058693909645,-96.25519929585457,72.1922225099802
2024-09-23 19:23:33.370738,41.89,45.660013,-0.002636491424507565,-0.02338022115155219,0.09720203344245934,44.11764879391193,-96.25519929585457,76.200527287817
2024-09-23 19:23:33.413090,41.89,45.660065,-0.0026862297461545674,-0.02338022115155219,0.09720203344245934,44.11764879391193,-96.25519929585457,76.200527287817
2024-09-23 19:23:33.424340,41.89,45.660065,-0.0026862297461545674,-0.023479709566915436,0.09705279702197278,36.09446859390736,-92.24360919585227,76.200527287817
2024-09-23 19:23:33.467529,41.42,45.660115,-0.002636491424507565,-0.023280723622328886,0.09685382322919964,36.09446859390736,-92.24360919585227,80.21211738781929
2024-09-23 19:23:33.479601,41.42,45.660115,-0.002636491424507565,-0.023280723622328886,0.09685382322919964,36.09446859390736,-92.24360919585227,80.21211738781929
2024-09-23 19:23:33.512265,41.42,45.660166,-0.002636491424507565,-0.023280723622328886,0.09685382322919964,36.09446859390736,-84.22370748782159,88.23529758782387
2024-09-23 19:23:33.523769,41.42,45.660166,-0.002785727465249955,-0.023230986250042305,0.09705279702197278,36.09446859390736,-84.22370748782159,88.23529758782387
2024-09-23 19:23:33.566352,41.42,45.660217,-0.0026862297461545674,-0.02313149783467906,0.09705279702197278,48.12595698684454,-84.22370748782159,84.22370748782159
2024-09-23 19:23:33.609140,41.42,45.660217,-0.0026862297461545674,-0.02313149783467906,0.09685382322919964,44.11764879391193,-92.24360919585227,84.22370748782159
2024-09-23 19:23:33.620802,41.42,45.660267,-0.0022385316871478774,-0.02313149783467906,0.09685382322919964,44.11764879391193,-92.24360919585227,84.22370748782159
2024-09-23 19:23:33.664044,41.42,45.660354,-0.0022385316871478774,-0.022982261414192504,0.0973015264147526,36.09446859390736,-92.24360919585227,84.22370748782159
2024-09-23 19:23:33.707074,41.42,45.660354,-0.0030841997366068195,-0.023728432883788564,0.09690356060148622,36.09446859390736,-92.24360919585227,84.22370748782159
2024-09-23 19:23:33.718713,41.42,45.660354,-0.0030841997366068195,-0.023728432883788564,0.09690356060148622,32.08287849390507,-92.24360919585227,76.200527287817
2024-09-23 19:23:33.762751,41.42,45.660407,-0.0031339382481259063,-0.023280723622328886,0.09745075675933246,36.09446859390736,-96.25519929585457,76.200527287817
2024-09-23 19:23:33.805801,41.42,45.660457,-0.0030841997366068195,-0.02313149783467906,0.09745075675933246,36.09446859390736,-96.25519929585457,80.21211738781929
2024-09-23 19:23:33.817400,41.42,45.660457,-0.0030841997366068195,-0.02313149783467906,0.09755024973162574,44.11764879391193,-96.25519929585457,80.21211738781929
2024-09-23 19:23:33.850534,41.42,45.660457,-0.0030841997366068195,-0.02313149783467906,0.09755024973162574,44.11764879391193,-96.25519929585457,80.21211738781929
2024-09-23 19:23:33.861913,41.42,45.660508,-0.0026862297461545674,-0.02308174982955575,0.09685382322919964,44.11764879391193,-96.25519929585457,80.21211738781929
2024-09-23 19:23:33.904902,41.42,45.660559,-0.0027359787006383035,-0.02308174982955575,0.09685382322919964,44.11764879391193,-100.26678939585686,80.21211738781929
2024-09-23 19:23:33.917183,41.42,45.660559,-0.0027359787006383035,-0.02313149783467906,0.09685382322919964,44.11764879391193,-100.26678939585686,80.21211738781929
2024-09-23 19:23:33.949106,41.42,45.660559,-0.0027359787006383035,-0.02313149783467906,0.09750050628343246,44.11764879391193,-100.26678939585686,80.21211738781929
2024-09-23 19:23:33.960898,41.42,45.660609,-0.0031339382481259063,-0.02313149783467906,0.09750050628343246,44.11764879391193,-100.26678939585686,80.21211738781929
2024-09-23 19:23:34.004129,41.42,45.660696,-0.0031339382481259063,-0.02352945757203875,0.09720203344245934,40.106058693909645,-96.25519929585457,80.21211738781929
2024-09-23 19:23:34.046662,41.42,45.660696,-0.0028354659767690416,-0.02338022115155219,0.09720203344245934,40.106058693909645,-96.25519929585457,80.21211738781929
2024-09-23 19:23:34.057918,41.42,45.660696,-0.0028354659767690416,-0.02338022115155219,0.09685382322919964,40.106058693909645,-104.27510100388527,80.21211738781929
2024-09-23 19:23:34.100220,41.42,45.660747,-0.002636491424507565,-0.023827930413011865,0.09725178296655933,40.106058693909645,-104.27510100388527,80.21211738781929
2024-09-23 19:23:34.143386,41.42,45.660747,-0.002636491424507565,-0.023827930413011865,0.09725178296655933,40.106058693909645,-96.25519929585457,76.200527287817
2024-09-23 19:23:34.196506,41.42,45.660798,-0.003382661564999035,-0.02352945757203875,0.09685382322919964,40.106058693909645,-96.25519929585457,76.200527287817
2024-09-23 19:23:34.208379,41.42,45.660798,-0.003382661564999035,-0.02352945757203875,0.09685382322919964,36.09446859390736,-88.23529758782387,76.200527287817
2024-09-23 19:23:34.241206,41.42,45.660798,-0.003382661564999035,-0.02352945757203875,0.09685382322919964,36.09446859390736,-88.23529758782387,76.200527287817
2024-09-23 19:23:34.253030,41.42,45.660849,-0.002437506429281439,-0.023479709566915436,0.09715228999426605,44.11764879391193,-88.23529758782387,76.200527287817
2024-09-23 19:23:34.295618,41.42,45.660899,-0.0027359787006383035,-0.022982261414192504,0.09715228999426605,44.11764879391193,-84.22370748782159,68.18063240997792
2024-09-23 19:23:34.308215,41.42,45.660899,-0.0027359787006383035,-0.022982261414192504,0.09715228999426605,44.11764879391193,-84.22370748782159,68.18063240997792
2024-09-23 19:23:34.339694,41.42,45.660899,-0.0027359787006383035,-0.022982261414192504,0.09715228999426605,48.12595698684454,-88.23529758782387,68.18063240997792
2024-09-23 19:23:34.351607,41.42,45.66095,-0.0025369937054121774,-0.023330473146428877,0.09715228999426605,48.12595698684454,-88.23529758782387,76.200527287817
2024-09-23 19:23:34.395029,41.42,45.661038,-0.0025369937054121774,-0.023330473146428877,0.09764974270391902,40.106058693909645,-92.24360919585227,80.21211738781929
2024-09-23 19:23:34.437012,41.42,45.661038,-0.0025369937054121774,-0.02367869399252531,0.09715228999426605,40.106058693909645,-92.24360919585227,80.21211738781929
2024-09-23 19:23:34.448920,41.42,45.661135,-0.0025369937054121774,-0.02367869399252531,0.09715228999426605,36.09446859390736,-88.23529758782387,76.200527287817
2024-09-23 19:23:34.492285,41.6,45.661135,-0.0022385316871478774,-0.02308174982955575,0.09745075675933246,44.11764879391193,-92.24360919585227,76.200527287817
2024-09-23 19:23:34.534653,41.6,45.661186,-0.0035318979854855937,-0.02308174982955575,0.09745075675933246,44.11764879391193,-92.24360919585227,76.200527287817
2024-09-23 19:23:34.546423,41.6,45.661186,-0.0035318979854855937,-0.02362894446842532,0.09705279702197278,40.106058693909645,-100.26678939585686,76.200527287817
2024-09-23 19:23:34.588601,41.6,45.661237,-0.0027359787006383035,-0.023181236725942318,0.09710254654607277,40.106058693909645,-100.26678939585686,80.21211738781929
2024-09-23 19:23:34.600551,41.6,45.661237,-0.0027359787006383035,-0.023181236725942318,0.09710254654607277,40.106058693909645,-100.26678939585686,80.21211738781929
2024-09-23 19:23:34.633260,41.6,45.661287,-0.0027359787006383035,-0.023181236725942318,0.09710254654607277,40.106058693909645,-96.25519929585457,76.200527287817
2024-09-23 19:23:34.644485,41.6,45.661287,-0.002636491424507565,-0.023280723622328886,0.09745075675933246,40.106058693909645,-96.25519929585457,76.200527287817
2024-09-23 19:23:34.687109,41.6,45.661338,-0.002636491424507565,-0.023280723622328886,0.09745075675933246,36.09446859390736,-92.24360919585227,76.200527287817
2024-09-23 19:23:34.729278,41.6,45.661338,-0.0032831742888682963,-0.023479709566915436,0.09745075675933246,36.09446859390736,-92.24360919585227,76.200527287817
2024-09-23 19:23:34.741979,41.6,45.661338,-0.0032831742888682963,-0.023479709566915436,0.09705279702197278,32.08287849390507,-92.24360919585227,76.200527287817
2024-09-23 19:23:34.784536,41.6,45.661389,-0.0028852147413806935,-0.02303200030545576,0.09710254654607277,40.106058693909645,-96.25519929585457,76.200527287817
2024-09-23 19:23:34.827552,41.6,45.661476,-0.0028852147413806935,-0.02303200030545576,0.09710254654607277,40.106058693909645,-96.25519929585457,84.22370748782159
2024-09-23 19:23:34.838897,41.6,45.661476,-0.0021887829225362256,-0.023230986250042305,0.09705279702197278,48.12595698684454,-96.25519929585457,84.22370748782159
2024-09-23 19:23:34.883239,41.6,45.661527,-0.002785727465249955,-0.02352945757203875,0.09710254654607277,48.12595698684454,-92.24360919585227,76.200527287817
2024-09-23 19:23:34.925847,41.6,45.661527,-0.002785727465249955,-0.02352945757203875,0.09710254654607277,40.106058693909645,-88.23529758782387,76.200527287817
2024-09-23 19:23:34.936917,41.6,45.661578,-0.002586742470023829,-0.02338022115155219,0.09710254654607277,40.106058693909645,-88.23529758782387,76.200527287817
2024-09-23 19:23:34.979076,41.6,45.661629,-0.0024872551938930902,-0.02338022115155219,0.0976994861521123,36.09446859390736,-100.26678939585686,76.200527287817
2024-09-23 19:23:35.022390,41.6,45.661629,-0.0024872551938930902,-0.02308174982955575,0.09690356060148622,36.09446859390736,-100.26678939585686,76.200527287817
2024-09-23 19:23:35.033298,41.6,45.66172,-0.0024872551938930902,-0.02308174982955575,0.09690356060148622,36.09446859390736,-100.26678939585686,80.21211738781929
2024-09-23 19:23:35.075734,41.6,45.66172,-0.0029349636958644295,-0.023827930413011865,0.0970030596496862,36.09446859390736,-104.27510100388527,80.21211738781929
2024-09-23 19:23:35.087721,41.6,45.66172,-0.0029349636958644295,-0.023827930413011865,0.0970030596496862,36.09446859390736,-104.27510100388527,80.21211738781929
2024-09-23 19:23:35.121040,41.6,45.661771,-0.0024872551938930902,-0.023827930413011865,0.0970030596496862,36.09446859390736,-104.27510100388527,80.21211738781929
2024-09-23 19:23:35.132625,41.6,45.661771,-0.0024872551938930902,-0.023827930413011865,0.09710254654607277,44.11764879391193,-104.27510100388527,80.21211738781929
2024-09-23 19:23:35.175051,41.6,45.661822,-0.0031339382481259063,-0.02352945757203875,0.0973512698629459,32.08287849390507,-104.27510100388527,68.18063240997792
2024-09-23 19:23:35.216872,41.6,45.661822,-0.0031339382481259063,-0.02352945757203875,0.0973512698629459,32.08287849390507,-96.25519929585457,76.200527287817
2024-09-23 19:23:35.228557,41.6,45.661872,-0.0024872551938930902,-0.02338022115155219,0.0973512698629459,32.08287849390507,-96.25519929585457,76.200527287817
2024-09-23 19:23:35.271509,41.6,45.661872,-0.0024872551938930902,-0.02338022115155219,0.09710254654607277,32.08287849390507,-96.25519929585457,76.200527287817
2024-09-23 19:23:35.313904,41.6,45.661872,-0.0024872551938930902,-0.02338022115155219,0.09710254654607277,36.09446859390736,-96.25519929585457,76.200527287817
2024-09-23 19:23:35.325976,41.6,45.661923,-0.0023380189632786156,-0.02308174982955575,0.09710254654607277,36.09446859390736,-88.23529758782387,76.200527287817
2024-09-23 19:23:35.368736,41.6,45.661974,-0.0023380189632786156,-0.02308174982955575,0.0973015264147526,40.106058693909645,-92.24360919585227,80.21211738781929
2024-09-23 19:23:35.381126,41.6,45.661974,-0.0028354659767690416,-0.02308174982955575,0.0973015264147526,40.106058693909645,-92.24360919585227,80.21211738781929
2024-09-23 19:23:35.413455,41.6,45.661974,-0.0028354659767690416,-0.02338022115155219,0.09690356060148622,40.106058693909645,-92.24360919585227,80.21211738781929
2024-09-23 19:23:35.425374,41.6,45.662061,-0.0028354659767690416,-0.02338022115155219,0.09690356060148622,40.106058693909645,-100.26678939585686,76.200527287817
2024-09-23 19:23:35.467967,41.6,45.662061,-0.0030344509719951677,-0.023181236725942318,0.09789846602079214,44.11764879391193,-100.26678939585686,76.200527287817
2024-09-23 19:23:35.510372,41.62,45.662112,-0.003233425524256645,-0.02362894446842532,0.09789846602079214,44.11764879391193,-100.26678939585686,76.200527287817
2024-09-23 19:23:35.521338,41.62,45.662112,-0.003233425524256645,-0.02362894446842532,0.09715228999426605,40.106058693909645,-92.24360919585227,76.200527287817
2024-09-23 19:23:35.563853,41.62,45.662208,-0.0028852147413806935,-0.02303200030545576,0.09745075675933246,44.11764879391193,-92.24360919585227,80.21211738781929
2024-09-23 19:23:35.606714,41.62,45.662208,-0.0028852147413806935,-0.02303200030545576,0.09745075675933246,44.11764879391193,-96.25519929585457,80.21211738781929
2024-09-23 19:23:35.618388,41.62,45.662259,-0.003233425524256645,-0.023230986250042305,0.09759999317981902,44.11764879391193,-96.25519929585457,80.21211738781929
2024-09-23 19:23:35.662770,41.62,45.66231,-0.0030344509719951677,-0.023230986250042305,0.09759999317981902,48.12595698684454,-92.24360919585227,84.22370748782159
2024-09-23 19:23:35.674041,41.62,45.66231,-0.0030344509719951677,-0.02313149783467906,0.09759999317981902,48.12595698684454,-92.24360919585227,84.22370748782159
2024-09-23 19:23:35.706585,41.62,45.66231,-0.0030344509719951677,-0.02313149783467906,0.09740101331113918,36.09446859390736,-92.24360919585227,84.22370748782159
2024-09-23 19:23:35.718060,41.62,45.662361,-0.0030841997366068195,-0.02313149783467906,0.09740101331113918,36.09446859390736,-92.24360919585227,84.22370748782159
2024-09-23 19:23:35.760883,41.62,45.662451,-0.0030841997366068195,-0.022982261414192504,0.09715228999426605,36.09446859390736,-92.24360919585227,76.200527287817
2024-09-23 19:23:35.803038,41.62,45.662451,-0.0028852147413806935,-0.02308174982955575,0.09725178296655933,36.09446859390736,-92.24360919585227,76.200527287817
2024-09-23 19:23:35.814032,41.62,45.662451,-0.0028852147413806935,-0.02308174982955575,0.09725178296655933,36.09446859390736,-100.26678939585686,76.200527287817
2024-09-23 19:23:35.897062,41.62,45.662502,-0.0028852147413806935,-0.02308174982955575,0.09725178296655933,36.09446859390736,-100.26678939585686,76.200527287817
2024-09-23 19:23:35.908559,41.62,45.662502,-0.0028354659767690416,-0.023877669304275123,0.09705279702197278,12.031489246711136,-96.25519929585457,76.200527287817
2024-09-23 19:23:35.950905,41.62,45.662553,-0.002387757474797703,-0.023877669304275123,0.09705279702197278,12.031489246711136,-96.25519929585457,80.21211738781929
2024-09-23 19:23:35.962292,41.62,45.662553,-0.002387757474797703,-0.023479709566915436,0.09695331012558621,12.031489246711136,-96.25519929585457,80.21211738781929
2024-09-23 19:23:36.005093,41.62,45.662604,-0.0028354659767690416,-0.02303200030545576,0.09705279702197278,12.031489246711136,-96.25519929585457,84.22370748782159
2024-09-23 19:23:36.049388,41.62,45.662654,-0.0028354659767690416,-0.02303200030545576,0.09705279702197278,40.106058693909645,-92.24360919585227,80.21211738781929
2024-09-23 19:23:36.060870,41.62,45.662654,-0.0030841997366068195,-0.02268379009219606,0.09705279702197278,40.106058693909645,-92.24360919585227,80.21211738781929
2024-09-23 19:23:36.093867,41.62,45.662654,-0.0030841997366068195,-0.02268379009219606,0.0973512698629459,40.106058693909645,-92.24360919585227,80.21211738781929
2024-09-23 19:23:36.105657,41.62,45.662705,-0.0031339382481259063,-0.02268379009219606,0.0973512698629459,28.07457030097246,-96.25519929585457,84.22370748782159
2024-09-23 19:23:36.148939,41.62,45.662841,-0.0031339382481259063,-0.023330473146428877,0.0966050877605131,44.11764879391193,-88.23529758782387,84.22370748782159
2024-09-23 19:23:36.191852,41.62,45.662841,-0.0027359787006383035,-0.023579196463302005,0.0966050877605131,44.11764879391193,-88.23529758782387,84.22370748782159
2024-09-23 19:23:36.203090,41.62,45.662841,-0.0027359787006383035,-0.023579196463302005,0.0970030596496862,36.09446859390736,-96.25519929585457,84.22370748782159
2024-09-23 19:23:36.245658,41.62,45.662892,-0.0026862297461545674,-0.02308174982955575,0.0973015264147526,32.08287849390507,-96.25519929585457,84.22370748782159
2024-09-23 19:23:36.289393,41.62,45.662892,-0.0026862297461545674,-0.02308174982955575,0.0973015264147526,32.08287849390507,-96.25519929585457,76.200527287817
2024-09-23 19:23:36.300465,41.62,45.662943,-0.0030344509719951677,-0.024076653729884996,0.09680407370509965,32.08287849390507,-96.25519929585457,76.200527287817
2024-09-23 19:23:36.342677,41.62,45.662943,-0.0030344509719951677,-0.024076653729884996,0.09680407370509965,32.08287849390507,-100.26678939585686,76.200527287817
2024-09-23 19:23:36.384837,41.62,45.662994,-0.0030344509719951677,-0.024076653729884996,0.09680407370509965,32.08287849390507,-100.26678939585686,76.200527287817
2024-09-23 19:23:36.396538,41.62,45.662994,-0.0030344509719951677,-0.023230986250042305,0.09710254654607277,44.11764879391193,-92.24360919585227,76.200527287817
2024-09-23 19:23:36.438780,41.62,45.663044,-0.0030344509719951677,-0.022982261414192504,0.09710254654607277,44.11764879391193,-92.24360919585227,80.21211738781929
2024-09-23 19:23:36.491310,41.62,45.663095,-0.002586742470023829,-0.022982261414192504,0.09665483728461309,44.11764879391193,-96.25519929585457,76.200527287817
2024-09-23 19:23:36.535368,41.43,45.663095,-0.002586742470023829,-0.02338022115155219,0.09755024973162574,28.07457030097246,-96.25519929585457,76.200527287817
2024-09-23 19:23:36.547223,41.43,45.663183,-0.002586742470023829,-0.02338022115155219,0.09755024973162574,28.07457030097246,-96.25519929585457,76.200527287817
2024-09-23 19:23:36.590043,41.43,45.663183,-0.0033329230534799477,-0.02367869399252531,0.0970030596496862,36.09446859390736,-100.26678939585686,76.200527287817
2024-09-23 19:23:36.632831,41.43,45.663233,-0.002785727465249955,-0.023479709566915436,0.0970030596496862,36.09446859390736,-100.26678939585686,76.200527287817
2024-09-23 19:23:36.645135,41.43,45.663233,-0.002785727465249955,-0.023479709566915436,0.09670458680871308,40.106058693909645,-88.23529758782387,76.200527287817
2024-09-23 19:23:36.678127,41.43,45.663233,-0.002785727465249955,-0.023479709566915436,0.09670458680871308,40.106058693909645,-88.23529758782387,72.1922225099802
2024-09-23 19:23:36.689132,41.43,45.663328,-0.003382661564999035,-0.02293251340906919,0.09680407370509965,40.106058693909645,-88.23529758782387,72.1922225099802
2024-09-23 19:23:36.732213,41.43,45.66338,-0.002387757474797703,-0.023280723622328886,0.09680407370509965,40.106058693909645,-96.25519929585457,84.22370748782159
2024-09-23 19:23:36.744023,41.43,45.66338,-0.002387757474797703,-0.023280723622328886,0.09750050628343246,40.106058693909645,-96.25519929585457,84.22370748782159
2024-09-23 19:23:36.777288,41.43,45.66338,-0.002387757474797703,-0.023280723622328886,0.09750050628343246,40.106058693909645,-96.25519929585457,84.22370748782159
2024-09-23 19:23:36.789061,41.43,45.66343,-0.0026862297461545674,-0.023429960042815445,0.09750050628343246,40.106058693909645,-96.25519929585457,84.22370748782159
2024-09-23 19:23:36.831298,41.43,45.663481,-0.0031836870127375577,-0.023429960042815445,0.09710254654607277,36.09446859390736,-92.24360919585227,88.23529758782387
2024-09-23 19:23:36.874388,41.43,45.663481,-0.0031836870127375577,-0.02338022115155219,0.0970030596496862,36.09446859390736,-92.24360919585227,88.23529758782387
2024-09-23 19:23:36.885759,41.43,45.663572,-0.0031836870127375577,-0.02338022115155219,0.0970030596496862,48.12595698684454,-100.26678939585686,76.200527287817
2024-09-23 19:23:36.928557,41.43,45.663572,-0.0025369937054121774,-0.024325377046758124,0.0970030596496862,32.08287849390507,-96.25519929585457,76.200527287817
2024-09-23 19:23:36.971280,41.43,45.663572,-0.0025369937054121774,-0.024325377046758124,0.0970030596496862,32.08287849390507,-96.25519929585457,80.21211738781929
2024-09-23 19:23:36.983086,41.43,45.663624,-0.002586742470023829,-0.02338022115155219,0.09715228999426605,32.08287849390507,-96.25519929585457,80.21211738781929
2024-09-23 19:23:37.026271,41.43,45.663674,-0.0029847020175114316,-0.02338022115155219,0.09715228999426605,44.11764879391193,-100.26678939585686,68.18063240997792
2024-09-23 19:23:37.038092,41.43,45.663674,-0.0029847020175114316,-0.023479709566915436,0.09715228999426605,44.11764879391193,-100.26678939585686,68.18063240997792
2024-09-23 19:23:37.071371,41.43,45.663674,-0.0029847020175114316,-0.023479709566915436,0.09690356060148622,44.11764879391193,-100.26678939585686,68.18063240997792
2024-09-23 19:23:37.082571,41.43,45.663725,-0.0027359787006383035,-0.023479709566915436,0.09690356060148622,44.11764879391193,-100.26678939585686,72.1922225099802
2024-09-23 19:23:37.125051,41.43,45.663776,-0.0027359787006383035,-0.022833026512682618,0.09715228999426605,44.11764879391193,-92.24360919585227,80.21211738781929
2024-09-23 19:23:37.219311,41.43,45.663776,-0.0035318979854855937,-0.023230986250042305,0.09725178296655933,32.08287849390507,-92.24360919585227,80.21211738781929
2024-09-23 19:23:37.231022,41.43,45.663776,-0.0035318979854855937,-0.023230986250042305,0.09725178296655933,32.08287849390507,-96.25519929585457,84.22370748782159
2024-09-23 19:23:37.263471,41.43,45.663865,-0.0035318979854855937,-0.023230986250042305,0.09725178296655933,32.08287849390507,-96.25519929585457,84.22370748782159
2024-09-23 19:23:37.274776,41.43,45.663865,-0.002586742470023829,-0.023230986250042305,0.09710254654607277,40.106058693909645,-92.24360919585227,84.22370748782159
2024-09-23 19:23:37.317015,41.43,45.663916,-0.0031339382481259063,-0.02313149783467906,0.09710254654607277,40.106058693909645,-92.24360919585227,80.21211738781929
2024-09-23 19:23:37.328360,41.43,45.663916,-0.0031339382481259063,-0.02313149783467906,0.09695331012558621,40.106058693909645,-92.24360919585227,80.21211738781929
2024-09-23 19:23:37.360608,41.43,45.663916,-0.0031339382481259063,-0.02313149783467906,0.09695331012558621,40.106058693909645,-100.26678939585686,80.21211738781929
2024-09-23 19:23:37.372947,41.43,45.663967,-0.0022385316871478774,-0.02313149783467906,0.09705279702197278,40.106058693909645,-100.26678939585686,76.200527287817
2024-09-23 19:23:37.415432,41.43,45.664017,-0.002387757474797703,-0.02313149783467906,0.09705279702197278,40.106058693909645,-88.23529758782387,80.21211738781929
2024-09-23 19:23:37.427559,41.43,45.664017,-0.002387757474797703,-0.023181236725942318,0.09705279702197278,40.106058693909645,-88.23529758782387,80.21211738781929
2024-09-23 19:23:37.459362,41.43,45.664017,-0.002387757474797703,-0.023181236725942318,0.09740101331113918,32.08287849390507,-88.23529758782387,80.21211738781929
2024-09-23 19:23:37.471055,41.43,45.664111,-0.0025369937054121774,-0.023181236725942318,0.09740101331113918,32.08287849390507,-96.25519929585457,76.200527287817
2024-09-23 19:23:37.513740,41.43,45.664206,-0.0025369937054121774,-0.023181236725942318,0.09789846602079214,44.11764879391193,-100.26678939585686,72.1922225099802
2024-09-23 19:23:37.555857,41.63,45.664206,-0.0026862297461545674,-0.023181236725942318,0.09789846602079214,44.11764879391193,-100.26678939585686,72.1922225099802
2024-09-23 19:23:37.566866,41.63,45.664206,-0.0026862297461545674,-0.023330473146428877,0.0973015264147526,44.11764879391193,-88.23529758782387,80.21211738781929
2024-09-23 19:23:37.609878,41.63,45.664257,-0.002785727465249955,-0.023230986250042305,0.09725178296655933,48.12595698684454,-88.23529758782387,80.21211738781929
2024-09-23 19:23:37.621945,41.63,45.664257,-0.002785727465249955,-0.023230986250042305,0.09725178296655933,48.12595698684454,-92.24360919585227,80.21211738781929
2024-09-23 19:23:37.654852,41.63,45.664308,-0.002785727465249955,-0.023230986250042305,0.09725178296655933,48.12595698684454,-92.24360919585227,80.21211738781929
2024-09-23 19:23:37.666153,41.63,45.664308,-0.002636491424507565,-0.02278327698858263,0.0970030596496862,52.137550501942634,-92.24360919585227,80.21211738781929
2024-09-23 19:23:37.708656,41.63,45.664359,-0.0030344509719951677,-0.0228827638849692,0.0970030596496862,52.137550501942634,-92.24360919585227,80.21211738781929
2024-09-23 19:23:37.720580,41.63,45.664359,-0.0030344509719951677,-0.0228827638849692,0.09685382322919964,52.137550501942634,-92.24360919585227,80.21211738781929
2024-09-23 19:23:37.752876,41.63,45.664359,-0.0030344509719951677,-0.0228827638849692,0.09685382322919964,44.11764879391193,-92.24360919585227,84.22370748782159
2024-09-23 19:23:37.764855,41.63,45.664409,-0.0028852147413806935,-0.023330473146428877,0.09685382322919964,44.11764879391193,-92.24360919585227,84.22370748782159
2024-09-23 19:23:37.806861,41.63,45.66446,-0.0028852147413806935,-0.023330473146428877,0.09690356060148622,32.08287849390507,-96.25519929585457,84.22370748782159
2024-09-23 19:23:37.818902,41.63,45.66446,-0.002785727465249955,-0.023330473146428877,0.09690356060148622,32.08287849390507,-96.25519929585457,84.22370748782159
2024-09-23 19:23:37.851103,41.63,45.66446,-0.002785727465249955,-0.024026904205785005,0.09764974270391902,24.06297849342227,-96.25519929585457,84.22370748782159
2024-09-23 19:23:37.862701,41.63,45.664547,-0.002785727465249955,-0.024026904205785005,0.09764974270391902,24.06297849342227,-96.25519929585457,76.200527287817
2024-09-23 19:23:37.905367,41.63,45.664547,-0.0029847020175114316,-0.02303200030545576,0.09740101331113918,32.08287849390507,-96.25519929585457,76.200527287817
2024-09-23 19:23:37.949143,41.63,45.664599,-0.0028354659767690416,-0.023429960042815445,0.09740101331113918,32.08287849390507,-96.25519929585457,76.200527287817
2024-09-23 19:23:37.961261,41.63,45.664599,-0.0028354659767690416,-0.023429960042815445,0.09740101331113918,40.106058693909645,-96.25519929585457,76.200527287817
2024-09-23 19:23:37.994043,41.63,45.664599,-0.0028354659767690416,-0.023429960042815445,0.09740101331113918,40.106058693909645,-96.25519929585457,80.21211738781929
2024-09-23 19:23:38.005083,41.63,45.664649,-0.0030344509719951677,-0.02303200030545576,0.09720203344245934,48.12595698684454,-96.25519929585457,80.21211738781929
2024-09-23 19:23:38.049187,41.63,45.6647,-0.0029349636958644295,-0.02303200030545576,0.09720203344245934,48.12595698684454,-100.26678939585686,76.200527287817
2024-09-23 19:23:38.061663,41.63,45.6647,-0.0029349636958644295,-0.023778180888911878,0.09759999317981902,48.12595698684454,-100.26678939585686,76.200527287817
2024-09-23 19:23:38.094350,41.63,45.6647,-0.0029349636958644295,-0.023778180888911878,0.09759999317981902,36.09446859390736,-96.25519929585457,80.21211738781929
2024-09-23 19:23:38.106227,41.63,45.664751,-0.0019400594157910128,-0.023579196463302005,0.09759999317981902,36.09446859390736,-96.25519929585457,80.21211738781929
2024-09-23 19:23:38.148886,41.63,45.664801,-0.002636491424507565,-0.023579196463302005,0.09690356060148622,32.08287849390507,-96.25519929585457,80.21211738781929
2024-09-23 19:23:38.192706,41.63,45.664801,-0.002636491424507565,-0.02308174982955575,0.09720203344245934,44.11764879391193,-96.25519929585457,80.21211738781929
2024-09-23 19:23:38.205482,41.63,45.664888,-0.002636491424507565,-0.02308174982955575,0.09720203344245934,44.11764879391193,-92.24360919585227,76.200527287817
2024-09-23 19:23:38.238307,41.63,45.664888,-0.003233425524256645,-0.02308174982955575,0.09720203344245934,44.11764879391193,-92.24360919585227,76.200527287817
2024-09-23 19:23:38.290622,41.63,45.664888,-0.003233425524256645,-0.023181236725942318,0.09745075675933246,44.11764879391193,-92.24360919585227,76.200527287817
2024-09-23 19:23:38.302118,41.63,45.66494,-0.003233425524256645,-0.023181236725942318,0.09745075675933246,44.11764879391193,-92.24360919585227,80.21211738781929
2024-09-23 19:23:38.335228,41.63,45.66494,-0.003482159473966507,-0.023181236725942318,0.09745075675933246,44.11764879391193,-92.24360919585227,80.21211738781929
2024-09-23 19:23:38.347118,41.63,45.66494,-0.003482159473966507,-0.023429960042815445,0.09695331012558621,40.106058693909645,-96.25519929585457,80.21211738781929
2024-09-23 19:23:38.388965,41.63,45.664991,-0.0026862297461545674,-0.023230986250042305,0.09705279702197278,40.106058693909645,-96.25519929585457,80.21211738781929
2024-09-23 19:23:38.400323,41.63,45.664991,-0.0026862297461545674,-0.023230986250042305,0.09705279702197278,40.106058693909645,-104.27510100388527,80.21211738781929
2024-09-23 19:23:38.432053,41.63,45.664991,-0.0026862297461545674,-0.023230986250042305,0.09705279702197278,40.106058693909645,-104.27510100388527,80.21211738781929
2024-09-23 19:23:38.443553,41.63,45.665041,-0.0028354659767690416,-0.023280723622328886,0.09725178296655933,44.11764879391193,-104.27510100388527,80.21211738781929
2024-09-23 19:23:38.485741,41.63,45.665092,-0.0028354659767690416,-0.023280723622328886,0.09725178296655933,44.11764879391193,-92.24360919585227,80.21211738781929
2024-09-23 19:23:38.496824,41.63,45.665092,-0.0030344509719951677,-0.023280723622328886,0.09745075675933246,44.11764879391193,-92.24360919585227,80.21211738781929
2024-09-23 19:23:38.539019,41.63,45.665183,-0.002586742470023829,-0.02293251340906919,0.09745075675933246,40.106058693909645,-100.26678939585686,76.200527287817
2024-09-23 19:23:38.632816,41.99,45.665183,-0.002586742470023829,-0.02293251340906919,0.09774922960030558,40.106058693909645,-96.25519929585457,76.200527287817
2024-09-23 19:23:38.644610,41.99,45.665234,-0.002586742470023829,-0.02293251340906919,0.09774922960030558,40.106058693909645,-96.25519929585457,76.200527287817
2024-09-23 19:23:38.678312,41.99,45.665234,-0.002586742470023829,-0.02352945757203875,0.0973015264147526,40.106058693909645,-96.25519929585457,76.200527287817
2024-09-23 19:23:38.690242,41.99,45.665327,-0.002586742470023829,-0.02352945757203875,0.0973015264147526,40.106058693909645,-88.23529758782387,80.21211738781929
2024-09-23 19:23:38.733734,41.99,45.665327,-0.002636491424507565,-0.02352945757203875,0.09650560086412653,44.11764879391193,-92.24360919585227,80.21211738781929
2024-09-23 19:23:38.777088,41.99,45.665379,-0.0028354659767690416,-0.023230986250042305,0.09650560086412653,44.11764879391193,-92.24360919585227,80.21211738781929
2024-09-23 19:23:38.788941,41.99,45.665379,-0.0028354659767690416,-0.023230986250042305,0.0970030596496862,44.11764879391193,-92.24360919585227,80.21211738781929
2024-09-23 19:23:38.832700,41.99,45.66543,-0.002387757474797703,-0.02367869399252531,0.09685382322919964,48.12595698684454,-92.24360919585227,80.21211738781929
2024-09-23 19:23:38.875029,41.99,45.665524,-0.002387757474797703,-0.02367869399252531,0.09685382322919964,48.12595698684454,-92.24360919585227,76.200527287817
2024-09-23 19:23:38.886393,41.99,45.665524,-0.0030841997366068195,-0.023877669304275123,0.09774922960030558,48.12595698684454,-92.24360919585227,76.200527287817
2024-09-23 19:23:38.929788,41.99,45.665574,-0.0031836870127375577,-0.023429960042815445,0.09774922960030558,52.137550501942634,-96.25519929585457,76.200527287817
2024-09-23 19:23:38.972747,41.99,45.665574,-0.0031836870127375577,-0.023429960042815445,0.0973015264147526,44.11764879391193,-96.25519929585457,76.200527287817
2024-09-23 19:23:38.984078,41.99,45.665625,-0.0028354659767690416,-0.023429960042815445,0.0973015264147526,44.11764879391193,-96.25519929585457,72.1922225099802
2024-09-23 19:23:39.026521,41.99,45.665717,-0.0028354659767690416,-0.022833026512682618,0.09759999317981902,32.08287849390507,-96.25519929585457,76.200527287817
2024-09-23 19:23:39.121140,41.99,45.665717,-0.002387757474797703,-0.023429960042815445,0.09675432418099966,32.08287849390507,-96.25519929585457,76.200527287817
2024-09-23 19:23:39.133725,41.99,45.665717,-0.002387757474797703,-0.023429960042815445,0.09675432418099966,32.08287849390507,-92.24360919585227,76.200527287817
2024-09-23 19:23:39.166057,41.99,45.665769,-0.002586742470023829,-0.023429960042815445,0.09675432418099966,32.08287849390507,-92.24360919585227,76.200527287817
2024-09-23 19:23:39.177936,41.99,45.665769,-0.002586742470023829,-0.023330473146428877,0.0973512698629459,36.09446859390736,-100.26678939585686,76.200527287817
2024-09-23 19:23:39.220594,41.99,45.665819,-0.002586742470023829,-0.02303200030545576,0.09680407370509965,36.09446859390736,-100.26678939585686,80.21211738781929
2024-09-23 19:23:39.262586,41.99,45.665819,-0.002586742470023829,-0.02303200030545576,0.09680407370509965,36.09446859390736,-96.25519929585457,80.21211738781929
2024-09-23 19:23:39.274527,41.99,45.66587,-0.002437506429281439,-0.023778180888911878,0.0973015264147526,36.09446859390736,-96.25519929585457,80.21211738781929
2024-09-23 19:23:39.317816,41.99,45.665921,-0.002437506429281439,-0.023778180888911878,0.0973015264147526,40.106058693909645,-92.24360919585227,76.200527287817
2024-09-23 19:23:39.328996,41.99,45.665921,-0.002437506429281439,-0.023479709566915436,0.0973015264147526,40.106058693909645,-92.24360919585227,76.200527287817
2024-09-23 19:23:39.361331,41.99,45.665921,-0.002437506429281439,-0.023479709566915436,0.09750050628343246,36.09446859390736,-96.25519929585457,76.200527287817
2024-09-23 19:23:39.372642,41.99,45.666012,-0.0029349636958644295,-0.023479709566915436,0.09750050628343246,36.09446859390736,-96.25519929585457,80.21211738781929
2024-09-23 19:23:39.415676,41.99,45.666107,-0.0029349636958644295,-0.02313149783467906,0.0970030596496862,52.137550501942634,-100.26678939585686,76.200527287817
2024-09-23 19:23:39.458323,41.99,45.666107,-0.0028354659767690416,-0.02352945757203875,0.0970030596496862,52.137550501942634,-100.26678939585686,76.200527287817
2024-09-23 19:23:39.469385,41.99,45.666107,-0.0028354659767690416,-0.02352945757203875,0.09779897304849887,44.11764879391193,-96.25519929585457,72.1922225099802
2024-09-23 19:23:39.511605,41.99,45.666159,-0.0024872551938930902,-0.02308174982955575,0.09710254654607277,44.11764879391193,-96.25519929585457,72.1922225099802
2024-09-23 19:23:39.523685,41.99,45.666159,-0.0024872551938930902,-0.02308174982955575,0.09710254654607277,40.106058693909645,-96.25519929585457,72.1922225099802
2024-09-23 19:23:39.556041,41.99,45.666209,-0.0024872551938930902,-0.02308174982955575,0.09710254654607277,40.106058693909645,-96.25519929585457,72.1922225099802
2024-09-23 19:23:39.608572,41.99,45.666209,-0.0024872551938930902,-0.0228827638849692,0.09720203344245934,40.106058693909645,-96.25519929585457,72.1922225099802
2024-09-23 19:23:39.620322,41.99,45.666209,-0.0024872551938930902,-0.0228827638849692,0.09720203344245934,56.14914060194492,-88.23529758782387,80.21211738781929
2024-09-23 19:23:39.652629,42.01,45.66626,-0.002586742470023829,-0.0228827638849692,0.09720203344245934,56.14914060194492,-88.23529758782387,80.21211738781929
2024-09-23 19:23:39.664692,42.01,45.66626,-0.002586742470023829,-0.02338022115155219,0.09720203344245934,56.14914060194492,-88.23529758782387,80.21211738781929
2024-09-23 19:23:39.707475,42.01,45.666311,-0.002586742470023829,-0.02338022115155219,0.09759999317981902,60.15744537978172,-92.24360919585227,80.21211738781929
2024-09-23 19:23:39.719327,42.01,45.666311,-0.002586742470023829,-0.02338022115155219,0.09759999317981902,60.15744537978172,-92.24360919585227,80.21211738781929
2024-09-23 19:23:39.751244,42.01,45.666311,-0.002586742470023829,-0.02313149783467906,0.09680407370509965,60.15744537978172,-92.24360919585227,80.21211738781929
2024-09-23 19:23:39.762640,42.01,45.666361,-0.002586742470023829,-0.02313149783467906,0.09680407370509965,56.14914060194492,-96.25519929585457,84.22370748782159
2024-09-23 19:23:39.806302,42.01,45.666361,-0.0027359787006383035,-0.02362894446842532,0.0973512698629459,40.106058693909645,-92.24360919585227,84.22370748782159
2024-09-23 19:23:39.849174,42.01,45.666448,-0.0027359787006383035,-0.023429960042815445,0.0973512698629459,40.106058693909645,-92.24360919585227,84.22370748782159
2024-09-23 19:23:39.860376,42.01,45.666448,-0.0027359787006383035,-0.023429960042815445,0.09715228999426605,36.09446859390736,-88.23529758782387,84.22370748782159
2024-09-23 19:23:39.902874,42.01,45.6665,-0.0031836870127375577,-0.023579196463302005,0.09690356060148622,44.11764879391193,-88.23529758782387,76.200527287817
2024-09-23 19:23:39.945780,42.01,45.6665,-0.0031836870127375577,-0.023579196463302005,0.09690356060148622,44.11764879391193,-92.24360919585227,76.200527287817
2024-09-23 19:23:39.956921,42.01,45.666596,-0.0028852147413806935,-0.02308174982955575,0.09725178296655933,44.11764879391193,-92.24360919585227,76.200527287817
2024-09-23 19:23:39.999531,42.01,45.666647,-0.0029847020175114316,-0.02308174982955575,0.09725178296655933,40.106058693909645,-88.23529758782387,76.200527287817
2024-09-23 19:23:40.011679,42.01,45.666647,-0.0029847020175114316,-0.022833026512682618,0.09725178296655933,40.106058693909645,-88.23529758782387,76.200527287817
2024-09-23 19:23:40.045249,42.01,45.666647,-0.0029847020175114316,-0.022833026512682618,0.09720203344245934,40.106058693909645,-92.24360919585227,76.200527287817
2024-09-23 19:23:40.058131,42.01,45.666698,-0.0031339382481259063,-0.022833026512682618,0.09720203344245934,40.106058693909645,-92.24360919585227,80.21211738781929
2024-09-23 19:23:40.089653,42.01,45.666698,-0.0031339382481259063,-0.02367869399252531,0.09720203344245934,40.106058693909645,-92.24360919585227,80.21211738781929
2024-09-23 19:23:40.101383,42.01,45.66679,-0.0031339382481259063,-0.02367869399252531,0.09705279702197278,40.106058693909645,-88.23529758782387,80.21211738781929
2024-09-23 19:23:40.144904,42.01,45.66679,-0.002785727465249955,-0.023230986250042305,0.09690356060148622,44.11764879391193,-96.25519929585457,80.21211738781929
2024-09-23 19:23:40.156657,42.01,45.66679,-0.002785727465249955,-0.023230986250042305,0.09690356060148622,44.11764879391193,-96.25519929585457,76.200527287817
2024-09-23 19:23:40.189098,42.01,45.666841,-0.0028852147413806935,-0.023230986250042305,0.09690356060148622,44.11764879391193,-96.25519929585457,76.200527287817
2024-09-23 19:23:40.200714,42.01,45.666841,-0.0028852147413806935,-0.02303200030545576,0.09720203344245934,40.106058693909645,-100.26678939585686,76.200527287817
2024-09-23 19:23:40.243269,42.01,45.666892,-0.0027359787006383035,-0.023579196463302005,0.09710254654607277,40.106058693909645,-100.26678939585686,76.200527287817
2024-09-23 19:23:40.255365,42.01,45.666892,-0.0027359787006383035,-0.023579196463302005,0.09710254654607277,40.106058693909645,-100.26678939585686,76.200527287817
2024-09-23 19:23:40.287157,42.01,45.666892,-0.0027359787006383035,-0.023579196463302005,0.09710254654607277,40.106058693909645,-92.24360919585227,72.1922225099802
2024-09-23 19:23:40.298240,42.01,45.666942,-0.002785727465249955,-0.023330473146428877,0.09725178296655933,40.106058693909645,-92.24360919585227,72.1922225099802
2024-09-23 19:23:40.340302,42.01,45.666993,-0.002785727465249955,-0.023330473146428877,0.09725178296655933,36.09446859390736,-96.25519929585457,76.200527287817
2024-09-23 19:23:40.352936,42.01,45.666993,-0.002387757474797703,-0.023728432883788564,0.09725178296655933,36.09446859390736,-96.25519929585457,76.200527287817
2024-09-23 19:23:40.385940,42.01,45.666993,-0.002387757474797703,-0.023728432883788564,0.09670458680871308,40.106058693909645,-104.27510100388527,76.200527287817
2024-09-23 19:23:40.397349,42.01,45.667044,-0.0029847020175114316,-0.023728432883788564,0.09670458680871308,40.106058693909645,-104.27510100388527,80.21211738781929
2024-09-23 19:23:40.440203,42.01,45.667131,-0.0029847020175114316,-0.023429960042815445,0.09740101331113918,44.11764879391193,-92.24360919585227,80.21211738781929
2024-09-23 19:23:40.482324,42.01,45.667131,-0.0026862297461545674,-0.0228827638849692,0.09740101331113918,44.11764879391193,-92.24360919585227,80.21211738781929
2024-09-23 19:23:40.494223,42.01,45.667131,-0.0026862297461545674,-0.0228827638849692,0.09680407370509965,40.106058693909645,-96.25519929585457,80.21211738781929
2024-09-23 19:23:40.578517,42.01,45.667182,-0.0026862297461545674,-0.0228827638849692,0.09680407370509965,40.106058693909645,-96.25519929585457,80.21211738781929
2024-09-23 19:23:40.589692,42.01,45.667182,-0.002437506429281439,-0.023429960042815445,0.0973015264147526,40.106058693909645,-96.25519929585457,80.21211738781929
2024-09-23 19:23:40.632489,42.01,45.667233,-0.002437506429281439,-0.023429960042815445,0.0973015264147526,44.11764879391193,-96.25519929585457,76.200527287817
2024-09-23 19:23:40.643642,42.01,45.667233,-0.0027359787006383035,-0.02362894446842532,0.0973015264147526,44.11764879391193,-96.25519929585457,76.200527287817
2024-09-23 19:23:40.675892,41.89,45.667233,-0.0027359787006383035,-0.02362894446842532,0.09745075675933246,44.11764879391193,-96.25519929585457,76.200527287817
2024-09-23 19:23:40.687811,41.89,45.667284,-0.002586742470023829,-0.02362894446842532,0.09745075675933246,40.106058693909645,-96.25519929585457,76.200527287817
2024-09-23 19:23:40.730742,41.89,45.667284,-0.002586742470023829,-0.02338022115155219,0.09705279702197278,44.11764879391193,-100.26678939585686,80.21211738781929
2024-09-23 19:23:40.742948,41.89,45.667334,-0.002586742470023829,-0.02338022115155219,0.09705279702197278,44.11764879391193,-100.26678939585686,80.21211738781929
2024-09-23 19:23:40.774868,41.89,45.667334,-0.0022385316871478774,-0.02338022115155219,0.09705279702197278,44.11764879391193,-100.26678939585686,80.21211738781929
2024-09-23 19:23:40.786205,41.89,45.667334,-0.0022385316871478774,-0.02338022115155219,0.09759999317981902,36.09446859390736,-96.25519929585457,80.21211738781929
2024-09-23 19:23:40.828551,41.89,45.667385,-0.002139034157924574,-0.023479709566915436,0.0973015264147526,40.106058693909645,-96.25519929585457,80.21211738781929
2024-09-23 19:23:40.840382,41.89,45.667385,-0.002139034157924574,-0.023479709566915436,0.0973015264147526,40.106058693909645,-96.25519929585457,80.21211738781929
2024-09-23 19:23:40.874680,41.89,45.667522,-0.0026862297461545674,-0.023479709566915436,0.0973015264147526,40.106058693909645,-96.25519929585457,80.21211738781929
2024-09-23 19:23:40.886042,41.89,45.667522,-0.0026862297461545674,-0.02362894446842532,0.09740101331113918,48.12595698684454,-96.25519929585457,80.21211738781929
2024-09-23 19:23:40.969277,41.89,45.667522,-0.0026862297461545674,-0.02362894446842532,0.09740101331113918,48.12595698684454,-92.24360919585227,76.200527287817
2024-09-23 19:23:40.980996,41.89,45.667573,-0.002586742470023829,-0.02362894446842532,0.09740101331113918,48.12595698684454,-92.24360919585227,76.200527287817
2024-09-23 19:23:41.065030,41.89,45.667573,-0.002586742470023829,-0.023429960042815445,0.09740101331113918,48.12595698684454,-92.24360919585227,76.200527287817
2024-09-23 19:23:41.077015,41.89,45.667624,-0.002586742470023829,-0.023429960042815445,0.09740101331113918,44.11764879391193,-100.26678939585686,72.1922225099802
2024-09-23 19:23:41.119978,41.89,45.667624,-0.0024872551938930902,-0.023280723622328886,0.09720203344245934,44.11764879391193,-100.26678939585686,72.1922225099802
2024-09-23 19:23:41.132173,41.89,45.667624,-0.0024872551938930902,-0.023280723622328886,0.09720203344245934,44.11764879391193,-96.25519929585457,72.1922225099802
2024-09-23 19:23:41.164207,41.89,45.667674,-0.0031339382481259063,-0.023280723622328886,0.09720203344245934,44.11764879391193,-96.25519929585457,72.1922225099802
2024-09-23 19:23:41.175582,41.89,45.667674,-0.0031339382481259063,-0.0228827638849692,0.0970030596496862,40.106058693909645,-92.24360919585227,72.1922225099802
2024-09-23 19:23:41.218318,41.89,45.667765,-0.0025369937054121774,-0.02308174982955575,0.09690356060148622,40.106058693909645,-92.24360919585227,76.200527287817
2024-09-23 19:23:41.230355,41.89,45.667765,-0.0025369937054121774,-0.02308174982955575,0.09690356060148622,40.106058693909645,-92.24360919585227,76.200527287817
2024-09-23 19:23:41.263721,41.89,45.667863,-0.0025369937054121774,-0.02308174982955575,0.09690356060148622,40.106058693909645,-92.24360919585227,80.21211738781929
2024-09-23 19:23:41.274674,41.89,45.667863,-0.003382661564999035,-0.023280723622328886,0.09715228999426605,40.106058693909645,-92.24360919585227,80.21211738781929
2024-09-23 19:23:41.316775,41.89,45.667962,-0.0030841997366068195,-0.02313149783467906,0.09715228999426605,36.09446859390736,-88.23529758782387,84.22370748782159
2024-09-23 19:23:41.359101,41.89,45.667962,-0.0030841997366068195,-0.02313149783467906,0.09705279702197278,32.08287849390507,-88.23529758782387,84.22370748782159
2024-09-23 19:23:41.370474,41.89,45.668012,-0.0028354659767690416,-0.02313149783467906,0.09705279702197278,32.08287849390507,-92.24360919585227,80.21211738781929
2024-09-23 19:23:41.413861,41.89,45.668106,-0.0028354659767690416,-0.023728432883788564,0.09774922960030558,40.106058693909645,-96.25519929585457,76.200527287817
2024-09-23 19:23:41.456025,41.89,45.668106,-0.0030344509719951677,-0.02352945757203875,0.09774922960030558,40.106058693909645,-96.25519929585457,76.200527287817
2024-09-23 19:23:41.467846,41.89,45.668106,-0.0030344509719951677,-0.02352945757203875,0.09745075675933246,48.12595698684454,-92.24360919585227,84.22370748782159
2024-09-23 19:23:41.511415,41.89,45.668157,-0.0026862297461545674,-0.023728432883788564,0.0973512698629459,44.11764879391193,-92.24360919585227,84.22370748782159
2024-09-23 19:23:41.553910,41.89,45.668208,-0.0026862297461545674,-0.023728432883788564,0.0973512698629459,44.11764879391193,-92.24360919585227,80.21211738781929
2024-09-23 19:23:41.565628,41.89,45.668208,-0.0026862297461545674,-0.02303200030545576,0.09680407370509965,36.09446859390736,-92.24360919585227,80.21211738781929
2024-09-23 19:23:41.607651,41.89,45.668259,-0.0031339382481259063,-0.02303200030545576,0.09680407370509965,36.09446859390736,-96.25519929585457,76.200527287817
2024-09-23 19:23:41.621125,41.89,45.668259,-0.0031339382481259063,-0.02352945757203875,0.09740101331113918,36.09446859390736,-96.25519929585457,76.200527287817
2024-09-23 19:23:41.653374,41.89,45.668259,-0.0031339382481259063,-0.02352945757203875,0.09740101331113918,32.08287849390507,-92.24360919585227,72.1922225099802
2024-09-23 19:23:41.664497,41.89,45.668309,-0.002785727465249955,-0.02338022115155219,0.09740101331113918,32.08287849390507,-92.24360919585227,72.1922225099802
2024-09-23 19:23:41.707240,41.88,45.66836,-0.0025369937054121774,-0.02338022115155219,0.0973015264147526,36.09446859390736,-92.24360919585227,72.1922225099802
2024-09-23 19:23:41.749463,41.88,45.66836,-0.0025369937054121774,-0.023479709566915436,0.0966050877605131,36.09446859390736,-92.24360919585227,72.1922225099802
