Ayaan's Suite
Timestamp,Sample Rate (Hz),Time,Ax,Ay,Az,Gx,Gy,Gz
2024-09-23 14:40:16.785920,0,28.662999,-0.0031339382481259063,-0.02313149783467906,0.09715228999426605,40.106058693909645,-96.25519929585457,80.21211738781929
2024-09-23 14:40:16.819348,0,28.66305,-0.003233425524256645,-0.02303200030545576,0.09715228999426605,40.106058693909645,-96.25519929585457,72.1922225099802
2024-09-23 14:40:16.831114,0,28.66305,-0.003233425524256645,-0.02303200030545576,0.09740101331113918,32.08287849390507,-96.25519929585457,72.1922225099802
2024-09-23 14:40:16.864400,0,28.663101,-0.003233425524256645,-0.02303200030545576,0.09740101331113918,32.08287849390507,-92.24360919585227,76.200527287817
2024-09-23 14:40:16.876126,0,28.663101,-0.0031339382481259063,-0.02278327698858263,0.09740101331113918,32.08287849390507,-92.24360919585227,76.200527287817
2024-09-23 14:40:16.920085,0,28.663152,-0.0030841997366068195,-0.022982261414192504,0.09740101331113918,44.11764879391193,-100.26678939585686,80.21211738781929
2024-09-23 14:40:16.962997,0,28.663152,-0.0030841997366068195,-0.022982261414192504,0.09680407370509965,44.11764879391193,-92.24360919585227,80.21211738781929
2024-09-23 14:40:16.974963,0,28.663245,-0.0024872551938930902,-0.022982261414192504,0.09680407370509965,44.11764879391193,-92.24360919585227,76.200527287817
2024-09-23 14:40:17.007628,0,28.663245,-0.0024872551938930902,-0.023778180888911878,0.09680407370509965,44.11764879391193,-92.24360919585227,76.200527287817
2024-09-23 14:40:17.019296,0,28.66334,-0.0024872551938930902,-0.023778180888911878,0.09715228999426605,32.08287849390507,-96.25519929585457,80.21211738781929
2024-09-23 14:40:17.062473,0,28.66334,-0.0030344509719951677,-0.023230986250042305,0.0970030596496862,36.09446859390736,-100.26678939585686,80.21211738781929
2024-09-23 14:40:17.074408,0,28.66334,-0.0030344509719951677,-0.023230986250042305,0.0970030596496862,36.09446859390736,-100.26678939585686,80.21211738781929
2024-09-23 14:40:17.106867,0,28.663391,-0.004029355252068585,-0.023230986250042305,0.0970030596496862,36.09446859390736,-100.26678939585686,80.21211738781929
2024-09-23 14:40:17.118124,0,28.663391,-0.004029355252068585,-0.022833026512682618,0.09705279702197278,40.106058693909645,-104.27510100388527,80.21211738781929
2024-09-23 14:40:17.161442,0,28.663442,-0.0032831742888682963,-0.023230986250042305,0.09720203344245934,40.106058693909645,-104.27510100388527,76.200527287817
2024-09-23 14:40:17.173152,0,28.663442,-0.0032831742888682963,-0.023230986250042305,0.09720203344245934,44.11764879391193,-104.27510100388527,76.200527287817
2024-09-23 14:40:17.205880,0,28.663493,-0.0032831742888682963,-0.023230986250042305,0.09720203344245934,44.11764879391193,-96.25519929585457,76.200527287817
2024-09-23 14:40:17.217858,0,28.663493,-0.003382661564999035,-0.023280723622328886,0.09705279702197278,44.11764879391193,-96.25519929585457,76.200527287817
2024-09-23 14:40:17.260302,0,28.663493,-0.003382661564999035,-0.023280723622328886,0.09705279702197278,40.106058693909645,-96.25519929585457,76.200527287817
2024-09-23 14:40:17.304001,0,28.663543,-0.0028852147413806935,-0.023330473146428877,0.09705279702197278,40.106058693909645,-96.25519929585457,76.200527287817
2024-09-23 14:40:17.315241,0,28.663543,-0.0028852147413806935,-0.023330473146428877,0.09695331012558621,36.09446859390736,-92.24360919585227,76.200527287817
2024-09-23 14:40:17.357879,0,28.663594,-0.003233425524256645,-0.02313149783467906,0.09715228999426605,36.09446859390736,-92.24360919585227,80.21211738781929
2024-09-23 14:40:17.453347,0,28.663681,-0.0035816467500972456,-0.02313149783467906,0.09715228999426605,36.09446859390736,-96.25519929585457,80.21211738781929
2024-09-23 14:40:17.465589,0,28.663681,-0.0035816467500972456,-0.023280723622328886,0.09690356060148622,36.09446859390736,-96.25519929585457,80.21211738781929
2024-09-23 14:40:17.498380,0,28.663681,-0.0035816467500972456,-0.023280723622328886,0.09690356060148622,48.12595698684454,-104.27510100388527,80.21211738781929
2024-09-23 14:40:17.510020,0,28.663732,-0.0028354659767690416,-0.023429960042815445,0.09690356060148622,48.12595698684454,-104.27510100388527,80.21211738781929
2024-09-23 14:40:17.552804,0,28.663783,-0.003482159473966507,-0.023429960042815445,0.09745075675933246,36.09446859390736,-96.25519929585457,80.21211738781929
2024-09-23 14:40:17.595622,0,28.663783,-0.003482159473966507,-0.02303200030545576,0.09655535038822652,40.106058693909645,-96.25519929585457,80.21211738781929
2024-09-23 14:40:17.606680,0,28.663876,-0.003482159473966507,-0.02303200030545576,0.09655535038822652,40.106058693909645,-100.26678939585686,80.21211738781929
2024-09-23 14:40:17.650319,0,28.663876,-0.0035816467500972456,-0.023479709566915436,0.09640611396773996,36.09446859390736,-96.25519929585457,84.22370748782159
2024-09-23 14:40:17.744184,0,28.663974,-0.0033329230534799477,-0.023429960042815445,0.09740101331113918,36.09446859390736,-96.25519929585457,84.22370748782159
2024-09-23 14:40:17.756170,0,28.663974,-0.0033329230534799477,-0.023429960042815445,0.09740101331113918,36.09446859390736,-92.24360919585227,84.22370748782159
2024-09-23 14:40:17.790055,40.36,28.664025,-0.0033329230534799477,-0.023429960042815445,0.09740101331113918,36.09446859390736,-92.24360919585227,80.21211738781929
2024-09-23 14:40:17.801799,40.36,28.664025,-0.0038801188315820256,-0.023429960042815445,0.09740101331113918,44.11764879391193,-92.24360919585227,80.21211738781929
2024-09-23 14:40:17.845151,40.36,28.664076,-0.0029847020175114316,-0.023230986250042305,0.09685382322919964,44.11764879391193,-104.27510100388527,72.1922225099802
2024-09-23 14:40:17.889579,40.36,28.664076,-0.0029847020175114316,-0.023230986250042305,0.09685382322919964,44.11764879391193,-96.25519929585457,76.200527287817
2024-09-23 14:40:17.900831,40.36,28.664127,-0.0031836870127375577,-0.02367869399252531,0.09685382322919964,44.11764879391193,-96.25519929585457,76.200527287817
2024-09-23 14:40:17.943503,40.36,28.664177,-0.0035318979854855937,-0.02367869399252531,0.09685382322919964,28.07457030097246,-100.26678939585686,80.21211738781929
2024-09-23 14:40:17.985308,40.36,28.664177,-0.0035318979854855937,-0.023181236725942318,0.09750050628343246,28.07457030097246,-100.26678939585686,80.21211738781929
2024-09-23 14:40:17.996829,40.36,28.664315,-0.0035318979854855937,-0.023181236725942318,0.09750050628343246,40.106058693909645,-96.25519929585457,76.200527287817
2024-09-23 14:40:18.040208,40.36,28.664315,-0.0035318979854855937,-0.02352945757203875,0.09759999317981902,36.09446859390736,-100.26678939585686,72.1922225099802
2024-09-23 14:40:18.082881,40.36,28.664366,-0.0033329230534799477,-0.02352945757203875,0.09759999317981902,36.09446859390736,-100.26678939585686,72.1922225099802
2024-09-23 14:40:18.094448,40.36,28.664366,-0.0033329230534799477,-0.02313149783467906,0.09705279702197278,36.09446859390736,-96.25519929585457,72.1922225099802
2024-09-23 14:40:18.137831,40.36,28.664417,-0.003382661564999035,-0.022982261414192504,0.0970030596496862,28.07457030097246,-96.25519929585457,72.1922225099802
2024-09-23 14:40:18.180125,40.36,28.664417,-0.003382661564999035,-0.022982261414192504,0.0970030596496862,28.07457030097246,-96.25519929585457,72.1922225099802
2024-09-23 14:40:18.191366,40.36,28.664468,-0.0030841997366068195,-0.023230986250042305,0.09680407370509965,28.07457030097246,-96.25519929585457,72.1922225099802
2024-09-23 14:40:18.233560,40.36,28.664468,-0.0030841997366068195,-0.023230986250042305,0.09680407370509965,36.09446859390736,-96.25519929585457,72.1922225099802
2024-09-23 14:40:18.276819,40.36,28.664519,-0.0030841997366068195,-0.023230986250042305,0.09680407370509965,36.09446859390736,-96.25519929585457,80.21211738781929
2024-09-23 14:40:18.287942,40.36,28.664519,-0.002785727465249955,-0.022982261414192504,0.09720203344245934,40.106058693909645,-96.25519929585457,80.21211738781929
2024-09-23 14:40:18.330744,40.36,28.664569,-0.0027359787006383035,-0.022982261414192504,0.09720203344245934,40.106058693909645,-96.25519929585457,80.21211738781929
2024-09-23 14:40:18.342458,40.36,28.664569,-0.0027359787006383035,-0.022584292562972758,0.09655535038822652,40.106058693909645,-96.25519929585457,80.21211738781929
2024-09-23 14:40:18.375375,40.36,28.664569,-0.0027359787006383035,-0.022584292562972758,0.09655535038822652,40.106058693909645,-100.26678939585686,80.21211738781929
2024-09-23 14:40:18.386375,40.36,28.664656,-0.0037308827908396356,-0.023579196463302005,0.09655535038822652,40.106058693909645,-100.26678939585686,72.1922225099802
2024-09-23 14:40:18.469583,40.36,28.664656,-0.0037308827908396356,-0.023579196463302005,0.09725178296655933,40.106058693909645,-100.26678939585686,72.1922225099802
2024-09-23 14:40:18.480828,40.36,28.664708,-0.0030344509719951677,-0.023579196463302005,0.09725178296655933,48.12595698684454,-100.26678939585686,72.1922225099802
2024-09-23 14:40:18.525125,40.36,28.664708,-0.0030344509719951677,-0.02313149783467906,0.09670458680871308,40.106058693909645,-100.26678939585686,80.21211738781929
2024-09-23 14:40:18.536991,40.36,28.664803,-0.0030344509719951677,-0.02313149783467906,0.09670458680871308,40.106058693909645,-100.26678939585686,80.21211738781929
2024-09-23 14:40:18.569686,40.36,28.664803,-0.003482159473966507,-0.02268379009219606,0.09670458680871308,40.106058693909645,-100.26678939585686,80.21211738781929
2024-09-23 14:40:18.580706,40.36,28.664803,-0.003482159473966507,-0.02268379009219606,0.09720203344245934,40.106058693909645,-96.25519929585457,80.21211738781929
2024-09-23 14:40:18.623971,40.36,28.664854,-0.003979606107712764,-0.023579196463302005,0.09740101331113918,36.09446859390736,-96.25519929585457,80.21211738781929
2024-09-23 14:40:18.666580,40.36,28.664905,-0.003979606107712764,-0.023579196463302005,0.09740101331113918,36.09446859390736,-96.25519929585457,80.21211738781929
2024-09-23 14:40:18.678350,40.36,28.664905,-0.0031339382481259063,-0.023181236725942318,0.09680407370509965,36.09446859390736,-96.25519929585457,80.21211738781929
2024-09-23 14:40:18.720695,40.36,28.664999,-0.0034324103296106863,-0.02338022115155219,0.09680407370509965,36.09446859390736,-104.27510100388527,76.200527287817
2024-09-23 14:40:18.732907,40.36,28.664999,-0.0034324103296106863,-0.02338022115155219,0.09740101331113918,36.09446859390736,-104.27510100388527,76.200527287817
2024-09-23 14:40:18.766662,40.36,28.664999,-0.0034324103296106863,-0.02338022115155219,0.09740101331113918,40.106058693909645,-104.27510100388527,76.200527287817
2024-09-23 14:40:18.777788,40.36,28.66505,-0.003382661564999035,-0.023479709566915436,0.09740101331113918,40.106058693909645,-104.27510100388527,76.200527287817
2024-09-23 14:40:18.820386,40.57,28.6651,-0.003979606107712764,-0.023479709566915436,0.0973015264147526,40.106058693909645,-96.25519929585457,76.200527287817
2024-09-23 14:40:18.863001,40.57,28.6651,-0.003979606107712764,-0.02308174982955575,0.0970030596496862,40.106058693909645,-96.25519929585457,76.200527287817
2024-09-23 14:40:18.875011,40.57,28.665192,-0.003979606107712764,-0.02308174982955575,0.0970030596496862,36.09446859390736,-96.25519929585457,76.200527287817
2024-09-23 14:40:18.917819,40.57,28.665192,-0.0030344509719951677,-0.02238531725122294,0.0973015264147526,36.09446859390736,-104.27510100388527,76.200527287817
2024-09-23 14:40:18.929835,40.57,28.665192,-0.0030344509719951677,-0.02238531725122294,0.0973015264147526,36.09446859390736,-104.27510100388527,80.21211738781929
2024-09-23 14:40:18.961236,40.57,28.665244,-0.0031836870127375577,-0.023579196463302005,0.0973015264147526,36.09446859390736,-104.27510100388527,80.21211738781929
2024-09-23 14:40:18.972689,40.57,28.665244,-0.0031836870127375577,-0.023579196463302005,0.09725178296655933,40.106058693909645,-96.25519929585457,80.21211738781929
2024-09-23 14:40:19.015655,40.57,28.665294,-0.0036811340262279837,-0.0228827638849692,0.09720203344245934,32.08287849390507,-96.25519929585457,80.21211738781929
2024-09-23 14:40:19.057775,40.57,28.665345,-0.0036811340262279837,-0.0228827638849692,0.09720203344245934,32.08287849390507,-104.27510100388527,80.21211738781929
2024-09-23 14:40:19.069751,40.57,28.665345,-0.003233425524256645,-0.02362894446842532,0.09705279702197278,32.08287849390507,-104.27510100388527,80.21211738781929
2024-09-23 14:40:19.112735,40.57,28.665396,-0.0031339382481259063,-0.023280723622328886,0.09705279702197278,32.08287849390507,-96.25519929585457,76.200527287817
2024-09-23 14:40:19.158653,40.57,28.665396,-0.0031339382481259063,-0.023280723622328886,0.0973512698629459,32.08287849390507,-96.25519929585457,76.200527287817
2024-09-23 14:40:19.169952,40.57,28.665446,-0.003482159473966507,-0.023280723622328886,0.0973512698629459,32.08287849390507,-96.25519929585457,80.21211738781929
2024-09-23 14:40:19.202321,40.57,28.665446,-0.003482159473966507,-0.02338022115155219,0.0973512698629459,32.08287849390507,-96.25519929585457,80.21211738781929
2024-09-23 14:40:19.214072,40.57,28.665533,-0.003482159473966507,-0.02338022115155219,0.0973015264147526,32.08287849390507,-92.24360919585227,72.1922225099802
2024-09-23 14:40:19.256862,40.57,28.665533,-0.0037308827908396356,-0.02313149783467906,0.09675432418099966,40.106058693909645,-100.26678939585686,72.1922225099802
2024-09-23 14:40:19.268984,40.57,28.665533,-0.0037308827908396356,-0.02313149783467906,0.09675432418099966,40.106058693909645,-100.26678939585686,80.21211738781929
2024-09-23 14:40:19.300616,40.57,28.665586,-0.0028354659767690416,-0.02313149783467906,0.09675432418099966,40.106058693909645,-100.26678939585686,80.21211738781929
2024-09-23 14:40:19.311776,40.57,28.665586,-0.0028354659767690416,-0.023479709566915436,0.09695331012558621,44.11764879391193,-92.24360919585227,80.21211738781929
2024-09-23 14:40:19.353975,40.57,28.665636,-0.0037308827908396356,-0.023181236725942318,0.0970030596496862,44.11764879391193,-92.24360919585227,80.21211738781929
2024-09-23 14:40:19.365936,40.57,28.665636,-0.0037308827908396356,-0.023181236725942318,0.0970030596496862,36.09446859390736,-92.24360919585227,80.21211738781929
2024-09-23 14:40:19.398451,40.57,28.665636,-0.0037308827908396356,-0.023181236725942318,0.0970030596496862,36.09446859390736,-96.25519929585457,76.200527287817
2024-09-23 14:40:19.410039,40.57,28.665687,-0.0031836870127375577,-0.02338022115155219,0.09670458680871308,36.09446859390736,-96.25519929585457,76.200527287817
2024-09-23 14:40:19.493254,40.57,28.665687,-0.0031836870127375577,-0.02338022115155219,0.09670458680871308,36.09446859390736,-96.25519929585457,76.200527287817
2024-09-23 14:40:19.504998,40.57,28.665738,-0.002785727465249955,-0.0228827638849692,0.09670458680871308,36.09446859390736,-96.25519929585457,80.21211738781929
2024-09-23 14:40:19.548023,40.57,28.665738,-0.002785727465249955,-0.0228827638849692,0.0970030596496862,44.11764879391193,-100.26678939585686,80.21211738781929
2024-09-23 14:40:19.559976,40.57,28.665788,-0.0031339382481259063,-0.0228827638849692,0.0970030596496862,44.11764879391193,-100.26678939585686,80.21211738781929
2024-09-23 14:40:19.592418,40.57,28.665788,-0.0031339382481259063,-0.02338022115155219,0.0970030596496862,44.11764879391193,-100.26678939585686,80.21211738781929
2024-09-23 14:40:19.603492,40.57,28.665875,-0.0031339382481259063,-0.02338022115155219,0.09680407370509965,36.09446859390736,-92.24360919585227,80.21211738781929
2024-09-23 14:40:19.646328,40.57,28.665875,-0.003780631555451287,-0.023230986250042305,0.09705279702197278,40.106058693909645,-104.27510100388527,80.21211738781929
2024-09-23 14:40:19.658165,40.57,28.665875,-0.003780631555451287,-0.023230986250042305,0.09705279702197278,40.106058693909645,-104.27510100388527,80.21211738781929
2024-09-23 14:40:19.690272,40.57,28.665926,-0.0037308827908396356,-0.023230986250042305,0.09705279702197278,40.106058693909645,-104.27510100388527,80.21211738781929
2024-09-23 14:40:19.702065,40.57,28.665926,-0.0037308827908396356,-0.02313149783467906,0.09695331012558621,44.11764879391193,-104.27510100388527,80.21211738781929
2024-09-23 14:40:19.744433,40.57,28.666022,-0.003482159473966507,-0.02313149783467906,0.09725178296655933,44.11764879391193,-104.27510100388527,76.200527287817
2024-09-23 14:40:19.756527,40.57,28.666022,-0.003482159473966507,-0.02313149783467906,0.09725178296655933,40.106058693909645,-104.27510100388527,76.200527287817
2024-09-23 14:40:19.789741,40.57,28.666073,-0.003482159473966507,-0.02313149783467906,0.09725178296655933,40.106058693909645,-96.25519929585457,76.200527287817
2024-09-23 14:40:19.800766,40.57,28.666073,-0.0032831742888682963,-0.022833026512682618,0.09750050628343246,40.106058693909645,-96.25519929585457,76.200527287817
2024-09-23 14:40:19.842526,41.72,28.666073,-0.0032831742888682963,-0.022833026512682618,0.09750050628343246,40.106058693909645,-96.25519929585457,76.200527287817
2024-09-23 14:40:19.885364,41.72,28.666073,-0.0032831742888682963,-0.022833026512682618,0.09750050628343246,40.106058693909645,-96.25519929585457,84.22370748782159
2024-09-23 14:40:19.897029,41.72,28.666124,-0.0033329230534799477,-0.023181236725942318,0.09715228999426605,40.106058693909645,-96.25519929585457,84.22370748782159
2024-09-23 14:40:19.939788,41.72,28.666174,-0.003482159473966507,-0.023181236725942318,0.09715228999426605,44.11764879391193,-100.26678939585686,76.200527287817
2024-09-23 14:40:19.951721,41.72,28.666174,-0.003482159473966507,-0.02313149783467906,0.09715228999426605,44.11764879391193,-100.26678939585686,76.200527287817
2024-09-23 14:40:19.983423,41.72,28.666174,-0.003482159473966507,-0.02313149783467906,0.09725178296655933,48.12595698684454,-100.26678939585686,76.200527287817
2024-09-23 14:40:19.994812,41.72,28.666265,-0.003382661564999035,-0.02313149783467906,0.09725178296655933,48.12595698684454,-96.25519929585457,80.21211738781929
2024-09-23 14:40:20.038470,41.72,28.666265,-0.003382661564999035,-0.02362894446842532,0.09725178296655933,36.09446859390736,-92.24360919585227,80.21211738781929
2024-09-23 14:40:20.050850,41.72,28.666316,-0.003382661564999035,-0.02362894446842532,0.09725178296655933,36.09446859390736,-92.24360919585227,80.21211738781929
2024-09-23 14:40:20.082396,41.72,28.666316,-0.003631395514708897,-0.02293251340906919,0.09695331012558621,36.09446859390736,-92.24360919585227,80.21211738781929
2024-09-23 14:40:20.093827,41.72,28.666316,-0.003631395514708897,-0.02293251340906919,0.09695331012558621,36.09446859390736,-96.25519929585457,80.21211738781929
2024-09-23 14:40:20.136745,41.72,28.666412,-0.003929857343101113,-0.02338022115155219,0.09715228999426605,32.08287849390507,-92.24360919585227,80.21211738781929
2024-09-23 14:40:20.180008,41.72,28.666463,-0.0037308827908396356,-0.02338022115155219,0.09715228999426605,32.08287849390507,-92.24360919585227,80.21211738781929
2024-09-23 14:40:20.191245,41.72,28.666463,-0.0037308827908396356,-0.02293251340906919,0.0973512698629459,36.09446859390736,-92.24360919585227,80.21211738781929
2024-09-23 14:40:20.233106,41.72,28.666514,-0.003233425524256645,-0.02367869399252531,0.09705279702197278,36.09446859390736,-96.25519929585457,76.200527287817
2024-09-23 14:40:20.274884,41.72,28.666514,-0.003233425524256645,-0.02367869399252531,0.09705279702197278,44.11764879391193,-92.24360919585227,76.200527287817
2024-09-23 14:40:20.286974,41.72,28.666564,-0.003233425524256645,-0.02303200030545576,0.09705279702197278,44.11764879391193,-92.24360919585227,80.21211738781929
2024-09-23 14:40:20.328911,41.72,28.666615,-0.003233425524256645,-0.02303200030545576,0.09655535038822652,28.07457030097246,-104.27510100388527,76.200527287817
2024-09-23 14:40:20.340577,41.72,28.666615,-0.0032831742888682963,-0.02303200030545576,0.09655535038822652,28.07457030097246,-104.27510100388527,76.200527287817
2024-09-23 14:40:20.372703,41.72,28.666615,-0.0032831742888682963,-0.023230986250042305,0.09710254654607277,28.07457030097246,-104.27510100388527,76.200527287817
2024-09-23 14:40:20.383999,41.72,28.666703,-0.0032831742888682963,-0.023230986250042305,0.09710254654607277,28.07457030097246,-100.26678939585686,72.1922225099802
2024-09-23 14:40:20.427377,41.72,28.666703,-0.0027359787006383035,-0.02367869399252531,0.09710254654607277,36.09446859390736,-100.26678939585686,72.1922225099802
2024-09-23 14:40:20.439028,41.72,28.666703,-0.0027359787006383035,-0.02367869399252531,0.09710254654607277,36.09446859390736,-100.26678939585686,72.1922225099802
2024-09-23 14:40:20.470672,41.72,28.666755,-0.0033329230534799477,-0.02367869399252531,0.09710254654607277,36.09446859390736,-100.26678939585686,72.1922225099802
2024-09-23 14:40:20.482206,41.72,28.666755,-0.0033329230534799477,-0.023479709566915436,0.0973015264147526,44.11764879391193,-100.26678939585686,72.1922225099802
2024-09-23 14:40:20.523855,41.72,28.666806,-0.0032831742888682963,-0.0228827638849692,0.0973015264147526,44.11764879391193,-100.26678939585686,80.21211738781929
2024-09-23 14:40:20.535779,41.72,28.666806,-0.0032831742888682963,-0.0228827638849692,0.0973015264147526,32.08287849390507,-100.26678939585686,80.21211738781929
2024-09-23 14:40:20.567883,41.72,28.666806,-0.0032831742888682963,-0.0228827638849692,0.0973015264147526,32.08287849390507,-92.24360919585227,84.22370748782159
2024-09-23 14:40:20.579165,41.72,28.666856,-0.0031339382481259063,-0.0228827638849692,0.09695331012558621,32.08287849390507,-92.24360919585227,84.22370748782159
2024-09-23 14:40:20.621989,41.72,28.666907,-0.0031836870127375577,-0.0228827638849692,0.09695331012558621,28.07457030097246,-92.24360919585227,80.21211738781929
2024-09-23 14:40:20.633737,41.72,28.666907,-0.0031836870127375577,-0.023181236725942318,0.09695331012558621,28.07457030097246,-92.24360919585227,80.21211738781929
2024-09-23 14:40:20.666814,41.72,28.666907,-0.0031836870127375577,-0.023181236725942318,0.09680407370509965,28.07457030097246,-92.24360919585227,80.21211738781929
2024-09-23 14:40:20.677955,41.72,28.666958,-0.0034324103296106863,-0.023181236725942318,0.09680407370509965,28.07457030097246,-100.26678939585686,80.21211738781929
2024-09-23 14:40:20.719965,41.72,28.667045,-0.0034324103296106863,-0.02313149783467906,0.09725178296655933,32.08287849390507,-96.25519929585457,80.21211738781929
2024-09-23 14:40:20.762726,41.72,28.667045,-0.0037308827908396356,-0.02313149783467906,0.09725178296655933,32.08287849390507,-96.25519929585457,80.21211738781929
2024-09-23 14:40:20.774197,41.72,28.667045,-0.0037308827908396356,-0.023181236725942318,0.0970030596496862,36.09446859390736,-104.27510100388527,76.200527287817
2024-09-23 14:40:20.816929,41.72,28.667096,-0.0032831742888682963,-0.023429960042815445,0.09690356060148622,36.09446859390736,-104.27510100388527,76.200527287817
2024-09-23 14:40:20.828754,41.72,28.667096,-0.0032831742888682963,-0.023429960042815445,0.09690356060148622,36.09446859390736,-100.26678939585686,76.200527287817
2024-09-23 14:40:20.860465,42.59,28.667147,-0.0032831742888682963,-0.023429960042815445,0.09690356060148622,36.09446859390736,-100.26678939585686,72.1922225099802
2024-09-23 14:40:20.872019,42.59,28.667147,-0.0035816467500972456,-0.02308174982955575,0.09745075675933246,36.09446859390736,-100.26678939585686,72.1922225099802
2024-09-23 14:40:20.915345,42.59,28.667198,-0.0028354659767690416,-0.02352945757203875,0.09750050628343246,36.09446859390736,-104.27510100388527,76.200527287817
2024-09-23 14:40:20.958388,42.59,28.667198,-0.0028354659767690416,-0.02352945757203875,0.09750050628343246,32.08287849390507,-96.25519929585457,76.200527287817
2024-09-23 14:40:20.969798,42.59,28.667248,-0.0035318979854855937,-0.023728432883788564,0.09750050628343246,32.08287849390507,-96.25519929585457,76.200527287817
2024-09-23 14:40:21.012682,42.59,28.667299,-0.003631395514708897,-0.023728432883788564,0.09670458680871308,32.08287849390507,-96.25519929585457,76.200527287817
2024-09-23 14:40:21.055854,42.59,28.667299,-0.003631395514708897,-0.023230986250042305,0.09715228999426605,32.08287849390507,-96.25519929585457,76.200527287817
2024-09-23 14:40:21.067681,42.59,28.667386,-0.003631395514708897,-0.023230986250042305,0.09715228999426605,36.09446859390736,-100.26678939585686,80.21211738781929
2024-09-23 14:40:21.110197,42.59,28.667386,-0.0031339382481259063,-0.023778180888911878,0.09705279702197278,32.08287849390507,-96.25519929585457,80.21211738781929
2024-09-23 14:40:21.121628,42.59,28.667386,-0.0031339382481259063,-0.023778180888911878,0.09705279702197278,32.08287849390507,-96.25519929585457,80.21211738781929
2024-09-23 14:40:21.154207,42.59,28.667438,-0.0026862297461545674,-0.02268379009219606,0.09705279702197278,32.08287849390507,-96.25519929585457,80.21211738781929
2024-09-23 14:40:21.165125,42.59,28.667438,-0.0026862297461545674,-0.02268379009219606,0.09740101331113918,28.07457030097246,-100.26678939585686,80.21211738781929
2024-09-23 14:40:21.207618,42.59,28.667488,-0.0026862297461545674,-0.023230986250042305,0.09725178296655933,28.07457030097246,-100.26678939585686,84.22370748782159
2024-09-23 14:40:21.219282,42.59,28.667488,-0.0026862297461545674,-0.023230986250042305,0.09725178296655933,36.09446859390736,-100.26678939585686,84.22370748782159
2024-09-23 14:40:21.251314,42.59,28.667488,-0.0026862297461545674,-0.023230986250042305,0.09725178296655933,36.09446859390736,-100.26678939585686,76.200527287817
2024-09-23 14:40:21.263465,42.59,28.667539,-0.0035318979854855937,-0.022584292562972758,0.09784872257259886,36.09446859390736,-100.26678939585686,76.200527287817
2024-09-23 14:40:21.306971,42.59,28.66759,-0.0027359787006383035,-0.022584292562972758,0.09784872257259886,32.08287849390507,-96.25519929585457,76.200527287817
2024-09-23 14:40:21.318676,42.59,28.66759,-0.0027359787006383035,-0.02338022115155219,0.09784872257259886,32.08287849390507,-96.25519929585457,76.200527287817
2024-09-23 14:40:21.350913,42.59,28.66759,-0.0027359787006383035,-0.02338022115155219,0.09725178296655933,32.08287849390507,-96.25519929585457,76.200527287817
2024-09-23 14:40:21.362756,42.59,28.667641,-0.0030841997366068195,-0.02338022115155219,0.09725178296655933,32.08287849390507,-96.25519929585457,76.200527287817
2024-09-23 14:40:21.394837,42.59,28.667641,-0.0030841997366068195,-0.023280723622328886,0.09725178296655933,32.08287849390507,-96.25519929585457,76.200527287817
2024-09-23 14:40:21.406397,42.59,28.667727,-0.0030841997366068195,-0.023280723622328886,0.09740101331113918,48.12595698684454,-92.24360919585227,80.21211738781929
2024-09-23 14:40:21.448190,42.59,28.667727,-0.0030344509719951677,-0.022833026512682618,0.09715228999426605,48.12595698684454,-92.24360919585227,80.21211738781929
2024-09-23 14:40:21.459079,42.59,28.667727,-0.0030344509719951677,-0.022833026512682618,0.09715228999426605,28.07457030097246,-100.26678939585686,80.21211738781929
2024-09-23 14:40:21.501789,42.59,28.667779,-0.0031339382481259063,-0.022833026512682618,0.09715228999426605,28.07457030097246,-100.26678939585686,80.21211738781929
2024-09-23 14:40:21.544340,42.59,28.667779,-0.0031339382481259063,-0.02338022115155219,0.09680407370509965,36.09446859390736,-100.26678939585686,80.21211738781929
2024-09-23 14:40:21.555975,42.59,28.667829,-0.0031339382481259063,-0.02338022115155219,0.09680407370509965,36.09446859390736,-100.26678939585686,80.21211738781929
2024-09-23 14:40:21.598868,42.59,28.667829,-0.0034324103296106863,-0.02362894446842532,0.09740101331113918,32.08287849390507,-96.25519929585457,80.21211738781929
2024-09-23 14:40:21.640805,42.59,28.66788,-0.0036811340262279837,-0.02362894446842532,0.09740101331113918,32.08287849390507,-96.25519929585457,80.21211738781929
2024-09-23 14:40:21.653005,42.59,28.66788,-0.0036811340262279837,-0.023429960042815445,0.09680407370509965,52.137550501942634,-88.23529758782387,80.21211738781929
2024-09-23 14:40:21.696440,42.59,28.667931,-0.0032831742888682963,-0.023181236725942318,0.09740101331113918,36.09446859390736,-88.23529758782387,80.21211738781929
2024-09-23 14:40:21.738892,42.59,28.667931,-0.0032831742888682963,-0.023181236725942318,0.09740101331113918,36.09446859390736,-100.26678939585686,80.21211738781929
2024-09-23 14:40:21.750634,42.59,28.667981,-0.003631395514708897,-0.02293251340906919,0.0973015264147526,36.09446859390736,-100.26678939585686,80.21211738781929
2024-09-23 14:40:21.793859,42.59,28.668071,-0.0033329230534799477,-0.02352945757203875,0.0973015264147526,32.08287849390507,-96.25519929585457,76.200527287817
2024-09-23 14:40:21.836211,42.59,28.668071,-0.0033329230534799477,-0.02352945757203875,0.09759999317981902,36.09446859390736,-96.25519929585457,76.200527287817
2024-09-23 14:40:21.847244,42.59,28.668121,-0.003233425524256645,-0.02352945757203875,0.09759999317981902,36.09446859390736,-100.26678939585686,80.21211738781929
2024-09-23 14:40:21.888957,42.62,28.668121,-0.003233425524256645,-0.02303200030545576,0.0970030596496862,40.106058693909645,-96.25519929585457,76.200527287817
2024-09-23 14:40:21.901678,42.62,28.668215,-0.003233425524256645,-0.02303200030545576,0.0970030596496862,40.106058693909645,-96.25519929585457,76.200527287817
2024-09-23 14:40:21.935448,42.62,28.668215,-0.0031836870127375577,-0.023230986250042305,0.09705279702197278,40.106058693909645,-96.25519929585457,76.200527287817
2024-09-23 14:40:21.947966,42.62,28.668215,-0.0031836870127375577,-0.023230986250042305,0.09705279702197278,40.106058693909645,-92.24360919585227,80.21211738781929
2024-09-23 14:40:21.979569,42.62,28.668266,-0.0031836870127375577,-0.023230986250042305,0.09705279702197278,40.106058693909645,-92.24360919585227,80.21211738781929
2024-09-23 14:40:21.991034,42.62,28.668266,-0.0034324103296106863,-0.023280723622328886,0.09705279702197278,44.11764879391193,-96.25519929585457,80.21211738781929
2024-09-23 14:40:22.034510,42.62,28.668317,-0.0032831742888682963,-0.02352945757203875,0.09705279702197278,44.11764879391193,-96.25519929585457,80.21211738781929
2024-09-23 14:40:22.046795,42.62,28.668317,-0.0032831742888682963,-0.02352945757203875,0.09675432418099966,36.09446859390736,-96.25519929585457,80.21211738781929
2024-09-23 14:40:22.079617,42.62,28.668317,-0.0032831742888682963,-0.02352945757203875,0.09675432418099966,36.09446859390736,-100.26678939585686,80.21211738781929
2024-09-23 14:40:22.091440,42.62,28.668368,-0.0035318979854855937,-0.02303200030545576,0.09665483728461309,36.09446859390736,-100.26678939585686,80.21211738781929
2024-09-23 14:40:22.134557,42.62,28.668418,-0.003382661564999035,-0.02293251340906919,0.09665483728461309,36.09446859390736,-100.26678939585686,80.21211738781929
2024-09-23 14:40:22.177191,42.62,28.668418,-0.003382661564999035,-0.02293251340906919,0.0966050877605131,40.106058693909645,-100.26678939585686,80.21211738781929
2024-09-23 14:40:22.188940,42.62,28.668469,-0.002785727465249955,-0.02293251340906919,0.0966050877605131,40.106058693909645,-92.24360919585227,84.22370748782159
2024-09-23 14:40:22.230542,42.62,28.668469,-0.002785727465249955,-0.023579196463302005,0.09715228999426605,32.08287849390507,-92.24360919585227,80.21211738781929
2024-09-23 14:40:22.242596,42.62,28.668556,-0.002785727465249955,-0.023579196463302005,0.09715228999426605,32.08287849390507,-92.24360919585227,80.21211738781929
2024-09-23 14:40:22.276189,42.62,28.668556,-0.003482159473966507,-0.02293251340906919,0.09680407370509965,32.08287849390507,-92.24360919585227,80.21211738781929
2024-09-23 14:40:22.288528,42.62,28.668556,-0.003482159473966507,-0.02293251340906919,0.09680407370509965,32.08287849390507,-92.24360919585227,80.21211738781929
2024-09-23 14:40:22.320728,42.62,28.668608,-0.003482159473966507,-0.02293251340906919,0.09680407370509965,32.08287849390507,-92.24360919585227,80.21211738781929
2024-09-23 14:40:22.332480,42.62,28.668608,-0.0032831742888682963,-0.023330473146428877,0.09725178296655933,44.11764879391193,-92.24360919585227,80.21211738781929
2024-09-23 14:40:22.376122,42.62,28.668658,-0.0031836870127375577,-0.023330473146428877,0.09740101331113918,44.11764879391193,-92.24360919585227,84.22370748782159
2024-09-23 14:40:22.387679,42.62,28.668658,-0.0031836870127375577,-0.023330473146428877,0.09740101331113918,36.09446859390736,-92.24360919585227,84.22370748782159
2024-09-23 14:40:22.420977,42.62,28.668658,-0.0031836870127375577,-0.023330473146428877,0.09740101331113918,36.09446859390736,-96.25519929585457,76.200527287817
2024-09-23 14:40:22.432636,42.62,28.668709,-0.0030841997366068195,-0.02303200030545576,0.09725178296655933,36.09446859390736,-96.25519929585457,76.200527287817
2024-09-23 14:40:22.475439,42.62,28.66876,-0.0033329230534799477,-0.02293251340906919,0.09725178296655933,36.09446859390736,-96.25519929585457,76.200527287817
2024-09-23 14:40:22.518438,42.62,28.66876,-0.0033329230534799477,-0.02293251340906919,0.09740101331113918,48.12595698684454,-96.25519929585457,76.200527287817
2024-09-23 14:40:22.530329,42.62,28.66881,-0.0033329230534799477,-0.02293251340906919,0.09740101331113918,48.12595698684454,-96.25519929585457,84.22370748782159
2024-09-23 14:40:22.573842,42.62,28.668897,-0.0033329230534799477,-0.02338022115155219,0.09715228999426605,36.09446859390736,-88.23529758782387,80.21211738781929
2024-09-23 14:40:22.615590,42.62,28.668897,-0.0031836870127375577,-0.023280723622328886,0.09715228999426605,36.09446859390736,-88.23529758782387,80.21211738781929
2024-09-23 14:40:22.627205,42.62,28.668897,-0.0031836870127375577,-0.023280723622328886,0.09720203344245934,36.09446859390736,-92.24360919585227,76.200527287817
2024-09-23 14:40:22.670365,42.62,28.668949,-0.0029847020175114316,-0.022982261414192504,0.09715228999426605,40.106058693909645,-100.26678939585686,76.200527287817
2024-09-23 14:40:22.713194,42.62,28.668999,-0.0029847020175114316,-0.022982261414192504,0.09715228999426605,40.106058693909645,-100.26678939585686,76.200527287817
2024-09-23 14:40:22.724312,42.62,28.668999,-0.0038801188315820256,-0.0228827638849692,0.0970030596496862,36.09446859390736,-100.26678939585686,76.200527287817
2024-09-23 14:40:22.767177,42.62,28.66905,-0.0026862297461545674,-0.02308174982955575,0.0970030596496862,36.09446859390736,-96.25519929585457,80.21211738781929
2024-09-23 14:40:22.779216,42.62,28.66905,-0.0026862297461545674,-0.02308174982955575,0.0973512698629459,36.09446859390736,-96.25519929585457,80.21211738781929
2024-09-23 14:40:22.812434,42.62,28.66905,-0.0026862297461545674,-0.02308174982955575,0.0973512698629459,24.06297849342227,-100.26678939585686,80.21211738781929
2024-09-23 14:40:22.824031,42.62,28.669101,-0.003780631555451287,-0.02303200030545576,0.0973512698629459,24.06297849342227,-100.26678939585686,80.21211738781929
2024-09-23 14:40:22.866526,42.62,28.669151,-0.0032831742888682963,-0.02303200030545576,0.09690356060148622,32.08287849390507,-100.26678939585686,80.21211738781929
2024-09-23 14:40:22.909039,43.04,28.669151,-0.0032831742888682963,-0.02338022115155219,0.09759999317981902,28.07457030097246,-100.26678939585686,80.21211738781929
2024-09-23 14:40:22.920502,43.04,28.669239,-0.0032831742888682963,-0.02338022115155219,0.09759999317981902,28.07457030097246,-88.23529758782387,84.22370748782159
2024-09-23 14:40:22.962981,43.04,28.669239,-0.003382661564999035,-0.023330473146428877,0.09725178296655933,28.07457030097246,-96.25519929585457,84.22370748782159
2024-09-23 14:40:23.005893,43.04,28.66929,-0.003482159473966507,-0.023330473146428877,0.09725178296655933,28.07457030097246,-96.25519929585457,84.22370748782159
2024-09-23 14:40:23.018052,43.04,28.66929,-0.003482159473966507,-0.023230986250042305,0.09705279702197278,32.08287849390507,-96.25519929585457,84.22370748782159
2024-09-23 14:40:23.061228,43.04,28.669341,-0.003382661564999035,-0.02338022115155219,0.09759999317981902,32.08287849390507,-96.25519929585457,76.200527287817
2024-09-23 14:40:23.104949,43.04,28.669391,-0.003382661564999035,-0.02338022115155219,0.09759999317981902,32.08287849390507,-96.25519929585457,80.21211738781929
2024-09-23 14:40:23.116640,43.04,28.669391,-0.003382661564999035,-0.02313149783467906,0.09759999317981902,32.08287849390507,-96.25519929585457,80.21211738781929
2024-09-23 14:40:23.150650,43.04,28.669391,-0.003382661564999035,-0.02313149783467906,0.09715228999426605,32.08287849390507,-96.25519929585457,80.21211738781929
2024-09-23 14:40:23.162273,43.04,28.669391,-0.003382661564999035,-0.02313149783467906,0.09715228999426605,32.08287849390507,-96.25519929585457,80.21211738781929
2024-09-23 14:40:23.204108,43.04,28.669442,-0.003382661564999035,-0.02313149783467906,0.09715228999426605,32.08287849390507,-96.25519929585457,80.21211738781929
2024-09-23 14:40:23.215113,43.04,28.669442,-0.003382661564999035,-0.022982261414192504,0.09745075675933246,32.08287849390507,-96.25519929585457,80.21211738781929
2024-09-23 14:40:23.257852,43.04,28.669493,-0.003631395514708897,-0.02313149783467906,0.09745075675933246,36.09446859390736,-92.24360919585227,84.22370748782159
2024-09-23 14:40:23.302101,43.04,28.669493,-0.003631395514708897,-0.02313149783467906,0.09705279702197278,40.106058693909645,-100.26678939585686,72.1922225099802
2024-09-23 14:40:23.313298,43.04,28.66958,-0.0035318979854855937,-0.02313149783467906,0.09705279702197278,40.106058693909645,-100.26678939585686,72.1922225099802
2024-09-23 14:40:23.345039,43.04,28.66958,-0.0035318979854855937,-0.023280723622328886,0.09705279702197278,40.106058693909645,-100.26678939585686,72.1922225099802
2024-09-23 14:40:23.356900,43.04,28.669631,-0.0035318979854855937,-0.023280723622328886,0.09710254654607277,44.11764879391193,-92.24360919585227,84.22370748782159
2024-09-23 14:40:23.398832,43.04,28.669631,-0.0029847020175114316,-0.02352945757203875,0.09740101331113918,28.07457030097246,-92.24360919585227,84.22370748782159
2024-09-23 14:40:23.410922,43.04,28.669631,-0.0029847020175114316,-0.02352945757203875,0.09740101331113918,28.07457030097246,-100.26678939585686,80.21211738781929
2024-09-23 14:40:23.443644,43.04,28.669727,-0.0029847020175114316,-0.02352945757203875,0.09740101331113918,28.07457030097246,-100.26678939585686,80.21211738781929
2024-09-23 14:40:23.454740,43.04,28.669727,-0.0028852147413806935,-0.02303200030545576,0.09710254654607277,36.09446859390736,-88.23529758782387,80.21211738781929
2024-09-23 14:40:23.496663,43.04,28.669778,-0.0033329230534799477,-0.023230986250042305,0.09710254654607277,36.09446859390736,-88.23529758782387,80.21211738781929
2024-09-23 14:40:23.508098,43.04,28.669778,-0.0033329230534799477,-0.023230986250042305,0.0970030596496862,36.09446859390736,-88.23529758782387,80.21211738781929
2024-09-23 14:40:23.541425,43.04,28.669778,-0.0033329230534799477,-0.023230986250042305,0.0970030596496862,36.09446859390736,-92.24360919585227,76.200527287817
2024-09-23 14:40:23.553337,43.04,28.669829,-0.003780631555451287,-0.02362894446842532,0.09725178296655933,36.09446859390736,-92.24360919585227,76.200527287817
2024-09-23 14:40:23.594966,43.04,28.669879,-0.0035318979854855937,-0.02362894446842532,0.09725178296655933,36.09446859390736,-100.26678939585686,76.200527287817
2024-09-23 14:40:23.606611,43.04,28.669879,-0.0035318979854855937,-0.023827930413011865,0.09725178296655933,36.09446859390736,-100.26678939585686,76.200527287817
2024-09-23 14:40:23.638926,43.04,28.669879,-0.0035318979854855937,-0.023827930413011865,0.09665483728461309,36.09446859390736,-100.26678939585686,76.200527287817
2024-09-23 14:40:23.650585,43.04,28.66993,-0.0030841997366068195,-0.023827930413011865,0.09665483728461309,36.09446859390736,-100.26678939585686,72.1922225099802
2024-09-23 14:40:23.693306,43.04,28.66993,-0.0030841997366068195,-0.02308174982955575,0.09705279702197278,28.07457030097246,-100.26678939585686,84.22370748782159
2024-09-23 14:40:23.705582,43.04,28.670019,-0.0030841997366068195,-0.02308174982955575,0.09705279702197278,28.07457030097246,-100.26678939585686,84.22370748782159
2024-09-23 14:40:23.737834,43.04,28.670019,-0.0032831742888682963,-0.02352945757203875,0.09720203344245934,28.07457030097246,-100.26678939585686,84.22370748782159
2024-09-23 14:40:23.749285,43.04,28.670019,-0.0032831742888682963,-0.02352945757203875,0.09720203344245934,36.09446859390736,-96.25519929585457,84.22370748782159
2024-09-23 14:40:23.792865,43.04,28.67007,-0.0033329230534799477,-0.02313149783467906,0.09705279702197278,40.106058693909645,-100.26678939585686,84.22370748782159
2024-09-23 14:40:23.836470,43.04,28.670121,-0.0026862297461545674,-0.02313149783467906,0.09705279702197278,40.106058693909645,-100.26678939585686,76.200527287817
2024-09-23 14:40:23.848351,43.04,28.670121,-0.0026862297461545674,-0.023181236725942318,0.09685382322919964,44.11764879391193,-100.26678939585686,76.200527287817
2024-09-23 14:40:23.890791,43.04,28.670172,-0.0037308827908396356,-0.0228827638849692,0.09685382322919964,44.11764879391193,-96.25519929585457,76.200527287817
2024-09-23 14:40:23.902998,43.04,28.670172,-0.0037308827908396356,-0.0228827638849692,0.09690356060148622,44.11764879391193,-96.25519929585457,76.200527287817
2024-09-23 14:40:23.934778,43.29,28.670172,-0.0037308827908396356,-0.0228827638849692,0.09690356060148622,36.09446859390736,-96.25519929585457,76.200527287817
2024-09-23 14:40:23.946013,43.29,28.670223,-0.0028354659767690416,-0.022833026512682618,0.09690356060148622,36.09446859390736,-96.25519929585457,76.200527287817
2024-09-23 14:40:23.989457,43.29,28.670273,-0.0034324103296106863,-0.022833026512682618,0.09750050628343246,40.106058693909645,-96.25519929585457,80.21211738781929
2024-09-23 14:40:24.031813,43.29,28.670273,-0.0034324103296106863,-0.02303200030545576,0.09685382322919964,48.12595698684454,-96.25519929585457,80.21211738781929
2024-09-23 14:40:24.043272,43.29,28.67036,-0.0034324103296106863,-0.02303200030545576,0.09685382322919964,48.12595698684454,-92.24360919585227,72.1922225099802
2024-09-23 14:40:24.086208,43.29,28.67036,-0.0031339382481259063,-0.02293251340906919,0.09764974270391902,32.08287849390507,-92.24360919585227,76.200527287817
2024-09-23 14:40:24.130739,43.29,28.670411,-0.003382661564999035,-0.023181236725942318,0.09764974270391902,32.08287849390507,-92.24360919585227,76.200527287817
2024-09-23 14:40:24.141830,43.29,28.670411,-0.003382661564999035,-0.023181236725942318,0.0973512698629459,28.07457030097246,-96.25519929585457,76.200527287817
2024-09-23 14:40:24.176147,43.29,28.670462,-0.003382661564999035,-0.023181236725942318,0.0973512698629459,28.07457030097246,-96.25519929585457,80.21211738781929
2024-09-23 14:40:24.187626,43.29,28.670462,-0.0031339382481259063,-0.02303200030545576,0.09740101331113918,32.08287849390507,-96.25519929585457,80.21211738781929
2024-09-23 14:40:24.230652,43.29,28.670513,-0.0030344509719951677,-0.023230986250042305,0.09740101331113918,32.08287849390507,-112.29828120388984,76.200527287817
2024-09-23 14:40:24.272759,43.29,28.670513,-0.0030344509719951677,-0.023230986250042305,0.0973015264147526,32.08287849390507,-112.29828120388984,76.200527287817
2024-09-23 14:40:24.326558,43.29,28.670563,-0.002785727465249955,-0.023230986250042305,0.0973015264147526,28.07457030097246,-100.26678939585686,76.200527287817
2024-09-23 14:40:24.338356,43.29,28.670563,-0.002785727465249955,-0.023280723622328886,0.0973015264147526,28.07457030097246,-100.26678939585686,76.200527287817
2024-09-23 14:40:24.370123,43.29,28.670563,-0.002785727465249955,-0.023280723622328886,0.09680407370509965,28.07457030097246,-100.26678939585686,76.200527287817
2024-09-23 14:40:24.381827,43.29,28.670614,-0.003382661564999035,-0.023280723622328886,0.09680407370509965,36.09446859390736,-100.26678939585686,76.200527287817
2024-09-23 14:40:24.424404,43.29,28.670614,-0.003382661564999035,-0.02313149783467906,0.09774922960030558,40.106058693909645,-100.26678939585686,80.21211738781929
2024-09-23 14:40:24.436393,43.29,28.670701,-0.003382661564999035,-0.02313149783467906,0.09774922960030558,40.106058693909645,-100.26678939585686,80.21211738781929
2024-09-23 14:40:24.468369,43.29,28.670701,-0.0032831742888682963,-0.02308174982955575,0.09774922960030558,40.106058693909645,-100.26678939585686,80.21211738781929
2024-09-23 14:40:24.479608,43.29,28.670701,-0.0032831742888682963,-0.02308174982955575,0.0962568775472534,40.106058693909645,-100.26678939585686,76.200527287817
2024-09-23 14:40:24.521144,43.29,28.670753,-0.0032831742888682963,-0.022833026512682618,0.09779897304849887,36.09446859390736,-100.26678939585686,76.200527287817
2024-09-23 14:40:24.533323,43.29,28.670753,-0.0032831742888682963,-0.022833026512682618,0.09779897304849887,36.09446859390736,-92.24360919585227,76.200527287817
2024-09-23 14:40:24.565826,43.29,28.670848,-0.0032831742888682963,-0.022833026512682618,0.09779897304849887,36.09446859390736,-92.24360919585227,76.200527287817
2024-09-23 14:40:24.577103,43.29,28.670848,-0.0028852147413806935,-0.023330473146428877,0.09725178296655933,36.09446859390736,-92.24360919585227,76.200527287817
2024-09-23 14:40:24.618772,43.29,28.670899,-0.0035318979854855937,-0.023579196463302005,0.09725178296655933,36.09446859390736,-100.26678939585686,80.21211738781929
2024-09-23 14:40:24.630478,43.29,28.670899,-0.0035318979854855937,-0.023579196463302005,0.09750050628343246,36.09446859390736,-100.26678939585686,80.21211738781929
2024-09-23 14:40:24.663757,43.29,28.670899,-0.0035318979854855937,-0.023579196463302005,0.09750050628343246,40.106058693909645,-96.25519929585457,80.21211738781929
2024-09-23 14:40:24.674897,43.29,28.67095,-0.0031339382481259063,-0.02338022115155219,0.09750050628343246,40.106058693909645,-96.25519929585457,76.200527287817
2024-09-23 14:40:24.718596,43.29,28.671001,-0.003382661564999035,-0.02338022115155219,0.0966050877605131,44.11764879391193,-92.24360919585227,80.21211738781929
2024-09-23 14:40:24.760698,43.29,28.671001,-0.003382661564999035,-0.023280723622328886,0.0973015264147526,44.11764879391193,-92.24360919585227,80.21211738781929
2024-09-23 14:40:24.772255,43.29,28.671091,-0.003382661564999035,-0.023280723622328886,0.0973015264147526,44.11764879391193,-96.25519929585457,80.21211738781929
2024-09-23 14:40:24.816232,43.29,28.671091,-0.003382661564999035,-0.02308174982955575,0.09755024973162574,36.09446859390736,-100.26678939585686,80.21211738781929
2024-09-23 14:40:24.859188,43.29,28.671143,-0.0035816467500972456,-0.02313149783467906,0.09755024973162574,36.09446859390736,-100.26678939585686,80.21211738781929
2024-09-23 14:40:24.870125,43.29,28.671143,-0.0035816467500972456,-0.02313149783467906,0.0973512698629459,40.106058693909645,-92.24360919585227,80.21211738781929
2024-09-23 14:40:24.912830,43.29,28.671193,-0.0029349636958644295,-0.02278327698858263,0.09685382322919964,36.09446859390736,-92.24360919585227,80.21211738781929
2024-09-23 14:40:24.955593,43.15,28.671193,-0.0029349636958644295,-0.02278327698858263,0.09685382322919964,36.09446859390736,-104.27510100388527,76.200527287817
2024-09-23 14:40:24.967020,43.15,28.671244,-0.0031339382481259063,-0.023280723622328886,0.09720203344245934,36.09446859390736,-104.27510100388527,76.200527287817
2024-09-23 14:40:25.010146,43.15,28.671295,-0.0029847020175114316,-0.023280723622328886,0.09720203344245934,36.09446859390736,-104.27510100388527,76.200527287817
2024-09-23 14:40:25.022148,43.15,28.671295,-0.0029847020175114316,-0.023181236725942318,0.09720203344245934,36.09446859390736,-104.27510100388527,76.200527287817
2024-09-23 14:40:25.054240,43.15,28.671295,-0.0029847020175114316,-0.023181236725942318,0.09695331012558621,36.09446859390736,-100.26678939585686,76.200527287817
2024-09-23 14:40:25.066156,43.15,28.671345,-0.003233425524256645,-0.023181236725942318,0.09695331012558621,36.09446859390736,-100.26678939585686,76.200527287817
2024-09-23 14:40:25.108828,43.15,28.671433,-0.003233425524256645,-0.023429960042815445,0.09745075675933246,32.08287849390507,-100.26678939585686,76.200527287817
2024-09-23 14:40:25.151246,43.15,28.671433,-0.0035318979854855937,-0.023330473146428877,0.09745075675933246,32.08287849390507,-100.26678939585686,76.200527287817
2024-09-23 14:40:25.163651,43.15,28.671433,-0.0035318979854855937,-0.023330473146428877,0.09755024973162574,40.106058693909645,-100.26678939585686,72.1922225099802
2024-09-23 14:40:25.206459,43.15,28.671484,-0.002785727465249955,-0.023230986250042305,0.09655535038822652,36.09446859390736,-96.25519929585457,72.1922225099802
2024-09-23 14:40:25.248710,43.15,28.671535,-0.002785727465249955,-0.023230986250042305,0.09655535038822652,36.09446859390736,-96.25519929585457,80.21211738781929
2024-09-23 14:40:25.259880,43.15,28.671535,-0.003382661564999035,-0.023280723622328886,0.09685382322919964,40.106058693909645,-96.25519929585457,80.21211738781929
2024-09-23 14:40:25.303162,43.15,28.671585,-0.0038303700669703737,-0.02293251340906919,0.0973015264147526,40.106058693909645,-92.24360919585227,84.22370748782159
2024-09-23 14:40:25.346135,43.15,28.671585,-0.0038303700669703737,-0.02293251340906919,0.0973015264147526,32.08287849390507,-104.27510100388527,84.22370748782159
2024-09-23 14:40:25.358006,43.15,28.671636,-0.0037308827908396356,-0.02338022115155219,0.0973015264147526,32.08287849390507,-104.27510100388527,80.21211738781929
2024-09-23 14:40:25.401392,43.15,28.671687,-0.003780631555451287,-0.02338022115155219,0.09710254654607277,36.09446859390736,-104.27510100388527,80.21211738781929
2024-09-23 14:40:25.444742,43.15,28.671687,-0.003780631555451287,-0.023479709566915436,0.0976994861521123,36.09446859390736,-104.27510100388527,80.21211738781929
2024-09-23 14:40:25.456157,43.15,28.671774,-0.003780631555451287,-0.023479709566915436,0.0976994861521123,36.09446859390736,-100.26678939585686,76.200527287817
2024-09-23 14:40:25.498774,43.15,28.671774,-0.003631395514708897,-0.023230986250042305,0.09710254654607277,32.08287849390507,-100.26678939585686,84.22370748782159
2024-09-23 14:40:25.542218,43.15,28.671825,-0.0031836870127375577,-0.02338022115155219,0.09710254654607277,32.08287849390507,-100.26678939585686,84.22370748782159
2024-09-23 14:40:25.554095,43.15,28.671825,-0.0031836870127375577,-0.02338022115155219,0.09680407370509965,28.07457030097246,-96.25519929585457,84.22370748782159
2024-09-23 14:40:25.598206,43.15,28.671876,-0.0028354659767690416,-0.023181236725942318,0.0973015264147526,40.106058693909645,-96.25519929585457,80.21211738781929
2024-09-23 14:40:25.640833,43.15,28.671926,-0.0028354659767690416,-0.023181236725942318,0.0973015264147526,40.106058693909645,-96.25519929585457,76.200527287817
2024-09-23 14:40:25.652916,43.15,28.671926,-0.0035318979854855937,-0.023579196463302005,0.09725178296655933,40.106058693909645,-96.25519929585457,76.200527287817
2024-09-23 14:40:25.685777,43.15,28.671926,-0.0035318979854855937,-0.023579196463302005,0.09725178296655933,40.106058693909645,-96.25519929585457,76.200527287817
2024-09-23 14:40:25.696591,43.15,28.671977,-0.0037308827908396356,-0.02338022115155219,0.09725178296655933,40.106058693909645,-92.24360919585227,84.22370748782159
2024-09-23 14:40:25.738310,43.15,28.671977,-0.0037308827908396356,-0.02338022115155219,0.0970030596496862,40.106058693909645,-96.25519929585457,80.21211738781929
2024-09-23 14:40:25.749925,43.15,28.672028,-0.0034324103296106863,-0.02338022115155219,0.0970030596496862,40.106058693909645,-96.25519929585457,80.21211738781929
2024-09-23 14:40:25.782296,43.15,28.672028,-0.0034324103296106863,-0.023230986250042305,0.0970030596496862,40.106058693909645,-96.25519929585457,80.21211738781929
2024-09-23 14:40:25.793750,43.15,28.672115,-0.0034324103296106863,-0.023230986250042305,0.09675432418099966,36.09446859390736,-96.25519929585457,84.22370748782159
2024-09-23 14:40:25.836497,43.15,28.672115,-0.003780631555451287,-0.023330473146428877,0.09670458680871308,40.106058693909645,-96.25519929585457,84.22370748782159
2024-09-23 14:40:25.848176,43.15,28.672115,-0.003780631555451287,-0.023330473146428877,0.09670458680871308,40.106058693909645,-92.24360919585227,84.22370748782159
2024-09-23 14:40:25.879796,43.15,28.672166,-0.003780631555451287,-0.023330473146428877,0.09670458680871308,40.106058693909645,-92.24360919585227,84.22370748782159
2024-09-23 14:40:25.891839,43.15,28.672166,-0.003482159473966507,-0.023429960042815445,0.0973015264147526,40.106058693909645,-100.26678939585686,84.22370748782159
2024-09-23 14:40:25.934883,43.15,28.672217,-0.0034324103296106863,-0.023330473146428877,0.0973015264147526,40.106058693909645,-100.26678939585686,76.200527287817
2024-09-23 14:40:25.946210,43.15,28.672217,-0.0034324103296106863,-0.023330473146428877,0.09670458680871308,40.106058693909645,-100.26678939585686,76.200527287817
2024-09-23 14:40:25.978773,43.13,28.672217,-0.0034324103296106863,-0.023330473146428877,0.09670458680871308,40.106058693909645,-92.24360919585227,76.200527287817
2024-09-23 14:40:25.990409,43.13,28.672268,-0.003382661564999035,-0.023330473146428877,0.09720203344245934,40.106058693909645,-92.24360919585227,80.21211738781929
2024-09-23 14:40:26.032847,43.13,28.672318,-0.0036811340262279837,-0.023330473146428877,0.09720203344245934,36.09446859390736,-88.23529758782387,80.21211738781929
2024-09-23 14:40:26.044846,43.13,28.672318,-0.0036811340262279837,-0.023181236725942318,0.09720203344245934,36.09446859390736,-88.23529758782387,80.21211738781929
2024-09-23 14:40:26.076744,43.13,28.672318,-0.0036811340262279837,-0.023181236725942318,0.09675432418099966,36.09446859390736,-88.23529758782387,80.21211738781929
2024-09-23 14:40:26.087837,43.13,28.672369,-0.0031339382481259063,-0.023181236725942318,0.09675432418099966,36.09446859390736,-92.24360919585227,84.22370748782159
2024-09-23 14:40:26.130436,43.13,28.672369,-0.0031339382481259063,-0.023230986250042305,0.09745075675933246,32.08287849390507,-100.26678939585686,80.21211738781929
2024-09-23 14:40:26.142017,43.13,28.672456,-0.0031339382481259063,-0.023230986250042305,0.09745075675933246,32.08287849390507,-100.26678939585686,80.21211738781929
2024-09-23 14:40:26.174499,43.13,28.672456,-0.003233425524256645,-0.023330473146428877,0.09745075675933246,32.08287849390507,-100.26678939585686,80.21211738781929
2024-09-23 14:40:26.185906,43.13,28.672456,-0.003233425524256645,-0.023330473146428877,0.09690356060148622,36.09446859390736,-104.27510100388527,80.21211738781929
2024-09-23 14:40:26.227541,43.13,28.672508,-0.0035318979854855937,-0.023280723622328886,0.09705279702197278,32.08287849390507,-104.27510100388527,80.21211738781929
2024-09-23 14:40:26.239165,43.13,28.672508,-0.0035318979854855937,-0.023280723622328886,0.09705279702197278,32.08287849390507,-88.23529758782387,80.21211738781929
2024-09-23 14:40:26.270873,43.13,28.672508,-0.0035318979854855937,-0.023280723622328886,0.09705279702197278,32.08287849390507,-88.23529758782387,80.21211738781929
2024-09-23 14:40:26.282530,43.13,28.672558,-0.003233425524256645,-0.02268379009219606,0.09725178296655933,44.11764879391193,-88.23529758782387,80.21211738781929
2024-09-23 14:40:26.325914,43.13,28.672609,-0.0028852147413806935,-0.023280723622328886,0.09725178296655933,44.11764879391193,-100.26678939585686,80.21211738781929
2024-09-23 14:40:26.337722,43.13,28.672609,-0.0028852147413806935,-0.023280723622328886,0.09705279702197278,44.11764879391193,-100.26678939585686,80.21211738781929
2024-09-23 14:40:26.369387,43.13,28.672609,-0.0028852147413806935,-0.023280723622328886,0.09705279702197278,36.09446859390736,-100.26678939585686,80.21211738781929
2024-09-23 14:40:26.381304,43.13,28.67266,-0.0031339382481259063,-0.023280723622328886,0.09705279702197278,36.09446859390736,-100.26678939585686,76.200527287817
2024-09-23 14:40:26.425079,43.13,28.67271,-0.0031339382481259063,-0.02338022115155219,0.09665483728461309,32.08287849390507,-92.24360919585227,80.21211738781929
2024-09-23 14:40:26.467071,43.13,28.67271,-0.003780631555451287,-0.02367869399252531,0.09665483728461309,32.08287849390507,-92.24360919585227,80.21211738781929
2024-09-23 14:40:26.479004,43.13,28.67271,-0.003780631555451287,-0.02367869399252531,0.0970030596496862,40.106058693909645,-100.26678939585686,76.200527287817
2024-09-23 14:40:26.521933,43.13,28.672797,-0.003780631555451287,-0.02293251340906919,0.0973015264147526,36.09446859390736,-96.25519929585457,76.200527287817
2024-09-23 14:40:26.566189,43.13,28.672849,-0.003382661564999035,-0.02293251340906919,0.0973015264147526,36.09446859390736,-96.25519929585457,76.200527287817
2024-09-23 14:40:26.577625,43.13,28.672849,-0.003382661564999035,-0.022982261414192504,0.09784872257259886,40.106058693909645,-96.25519929585457,76.200527287817
2024-09-23 14:40:26.620140,43.13,28.6729,-0.0030841997366068195,-0.023230986250042305,0.09645586349183995,40.106058693909645,-96.25519929585457,84.22370748782159
2024-09-23 14:40:26.661990,43.13,28.6729,-0.0030841997366068195,-0.023230986250042305,0.09645586349183995,40.106058693909645,-96.25519929585457,84.22370748782159
2024-09-23 14:40:26.673308,43.13,28.67295,-0.0037308827908396356,-0.023429960042815445,0.09645586349183995,40.106058693909645,-96.25519929585457,80.21211738781929
2024-09-23 14:40:26.715679,43.13,28.673001,-0.0037308827908396356,-0.023429960042815445,0.09784872257259886,40.106058693909645,-96.25519929585457,80.21211738781929
2024-09-23 14:40:26.728358,43.13,28.673001,-0.0035816467500972456,-0.023429960042815445,0.09784872257259886,40.106058693909645,-96.25519929585457,80.21211738781929
2024-09-23 14:40:26.761441,43.13,28.673001,-0.0035816467500972456,-0.022733528983459317,0.0973512698629459,48.12595698684454,-96.25519929585457,80.21211738781929
2024-09-23 14:40:26.772498,43.13,28.67309,-0.0035816467500972456,-0.022733528983459317,0.0973512698629459,48.12595698684454,-96.25519929585457,80.21211738781929
2024-09-23 14:40:26.815507,43.13,28.67309,-0.0035816467500972456,-0.023429960042815445,0.09774922960030558,40.106058693909645,-100.26678939585686,80.21211738781929
2024-09-23 14:40:26.858289,43.13,28.673141,-0.0030841997366068195,-0.02338022115155219,0.09774922960030558,40.106058693909645,-100.26678939585686,80.21211738781929
2024-09-23 14:40:26.869982,43.13,28.673141,-0.0030841997366068195,-0.02338022115155219,0.09695331012558621,32.08287849390507,-104.27510100388527,80.21211738781929
2024-09-23 14:40:26.912559,43.13,28.673192,-0.0038801188315820256,-0.02303200030545576,0.09740101331113918,44.11764879391193,-104.27510100388527,84.22370748782159
2024-09-23 14:40:26.956500,43.13,28.673243,-0.0038801188315820256,-0.02303200030545576,0.09740101331113918,44.11764879391193,-100.26678939585686,80.21211738781929
2024-09-23 14:40:26.967747,43.13,28.673243,-0.0035318979854855937,-0.023479709566915436,0.09675432418099966,44.11764879391193,-100.26678939585686,80.21211738781929
2024-09-23 14:40:27.010332,43.18,28.673294,-0.002785727465249955,-0.023280723622328886,0.09675432418099966,36.09446859390736,-100.26678939585686,76.200527287817
2024-09-23 14:40:27.053911,43.18,28.673294,-0.002785727465249955,-0.023280723622328886,0.09755024973162574,28.07457030097246,-96.25519929585457,76.200527287817
2024-09-23 14:40:27.065935,43.18,28.673345,-0.003631395514708897,-0.023280723622328886,0.09755024973162574,28.07457030097246,-96.25519929585457,80.21211738781929
2024-09-23 14:40:27.098539,43.18,28.673345,-0.003631395514708897,-0.022982261414192504,0.09755024973162574,28.07457030097246,-96.25519929585457,80.21211738781929
2024-09-23 14:40:27.110377,43.18,28.673431,-0.003631395514708897,-0.022982261414192504,0.09690356060148622,36.09446859390736,-100.26678939585686,72.1922225099802
2024-09-23 14:40:27.151981,43.18,28.673431,-0.003382661564999035,-0.02278327698858263,0.0973512698629459,36.09446859390736,-100.26678939585686,72.1922225099802
2024-09-23 14:40:27.163413,43.18,28.673431,-0.003382661564999035,-0.02278327698858263,0.0973512698629459,36.09446859390736,-96.25519929585457,80.21211738781929
2024-09-23 14:40:27.195990,43.18,28.673483,-0.003382661564999035,-0.02278327698858263,0.0973512698629459,36.09446859390736,-96.25519929585457,80.21211738781929
2024-09-23 14:40:27.207219,43.18,28.673483,-0.003631395514708897,-0.02308174982955575,0.09695331012558621,40.106058693909645,-100.26678939585686,80.21211738781929
2024-09-23 14:40:27.250431,43.18,28.673533,-0.0033329230534799477,-0.02308174982955575,0.09695331012558621,40.106058693909645,-100.26678939585686,80.21211738781929
2024-09-23 14:40:27.262351,43.18,28.673533,-0.0033329230534799477,-0.02308174982955575,0.09705279702197278,28.07457030097246,-100.26678939585686,80.21211738781929
2024-09-23 14:40:27.295203,43.18,28.673533,-0.0033329230534799477,-0.02308174982955575,0.09705279702197278,28.07457030097246,-104.27510100388527,80.21211738781929
2024-09-23 14:40:27.307957,43.18,28.673584,-0.0029847020175114316,-0.02308174982955575,0.09665483728461309,28.07457030097246,-104.27510100388527,80.21211738781929
2024-09-23 14:40:27.350244,43.18,28.673635,-0.0034324103296106863,-0.02308174982955575,0.09665483728461309,36.09446859390736,-104.27510100388527,72.1922225099802
2024-09-23 14:40:27.392861,43.18,28.673635,-0.0034324103296106863,-0.02308174982955575,0.09680407370509965,36.09446859390736,-104.27510100388527,72.1922225099802
2024-09-23 14:40:27.404275,43.18,28.673685,-0.0038801188315820256,-0.02308174982955575,0.09680407370509965,36.09446859390736,-100.26678939585686,72.1922225099802
2024-09-23 14:40:27.447691,43.18,28.673772,-0.0038801188315820256,-0.023181236725942318,0.09705279702197278,40.106058693909645,-92.24360919585227,84.22370748782159
2024-09-23 14:40:27.491070,43.18,28.673772,-0.003631395514708897,-0.023181236725942318,0.09705279702197278,40.106058693909645,-92.24360919585227,84.22370748782159
2024-09-23 14:40:27.502952,43.18,28.673772,-0.003631395514708897,-0.023181236725942318,0.09705279702197278,44.11764879391193,-100.26678939585686,68.18063240997792
2024-09-23 14:40:27.546348,43.18,28.673824,-0.003233425524256645,-0.023579196463302005,0.09750050628343246,40.106058693909645,-100.26678939585686,68.18063240997792
2024-09-23 14:40:27.590002,43.18,28.673875,-0.003233425524256645,-0.023579196463302005,0.09750050628343246,40.106058693909645,-100.26678939585686,76.200527287817
2024-09-23 14:40:27.601089,43.18,28.673875,-0.003233425524256645,-0.02367869399252531,0.09745075675933246,28.07457030097246,-100.26678939585686,76.200527287817
2024-09-23 14:40:27.643846,43.18,28.673925,-0.0035318979854855937,-0.022733528983459317,0.0970030596496862,28.07457030097246,-96.25519929585457,76.200527287817
2024-09-23 14:40:27.685984,43.18,28.673925,-0.0035318979854855937,-0.022733528983459317,0.0970030596496862,36.09446859390736,-96.25519929585457,76.200527287817
2024-09-23 14:40:27.697754,43.18,28.673976,-0.0029847020175114316,-0.023877669304275123,0.0970030596496862,36.09446859390736,-96.25519929585457,76.200527287817
2024-09-23 14:40:27.740285,43.18,28.674026,-0.0030841997366068195,-0.023877669304275123,0.0973512698629459,44.11764879391193,-100.26678939585686,76.200527287817
2024-09-23 14:40:27.782789,43.18,28.674026,-0.0030841997366068195,-0.023827930413011865,0.09745075675933246,44.11764879391193,-100.26678939585686,76.200527287817
2024-09-23 14:40:27.794709,43.18,28.674114,-0.0030841997366068195,-0.023827930413011865,0.09745075675933246,40.106058693909645,-100.26678939585686,72.1922225099802
2024-09-23 14:40:27.837715,43.18,28.674114,-0.0030344509719951677,-0.02338022115155219,0.09705279702197278,36.09446859390736,-96.25519929585457,80.21211738781929
2024-09-23 14:40:27.881110,43.18,28.674165,-0.0034324103296106863,-0.02338022115155219,0.09705279702197278,36.09446859390736,-96.25519929585457,80.21211738781929
2024-09-23 14:40:27.892870,43.18,28.674165,-0.0034324103296106863,-0.02278327698858263,0.0973015264147526,48.12595698684454,-104.27510100388527,80.21211738781929
2024-09-23 14:40:27.936370,43.18,28.674216,-0.0030841997366068195,-0.023429960042815445,0.0973512698629459,36.09446859390736,-104.27510100388527,84.22370748782159
2024-09-23 14:40:27.979811,43.18,28.674266,-0.0030841997366068195,-0.023429960042815445,0.0973512698629459,36.09446859390736,-100.26678939585686,84.22370748782159
2024-09-23 14:40:27.991263,43.18,28.674266,-0.003631395514708897,-0.022833026512682618,0.09695331012558621,36.09446859390736,-100.26678939585686,84.22370748782159
2024-09-23 14:40:28.033573,43.25,28.674317,-0.003631395514708897,-0.022833026512682618,0.09695331012558621,40.106058693909645,-96.25519929585457,80.21211738781929
2024-09-23 14:40:28.075205,43.25,28.674317,-0.003382661564999035,-0.02338022115155219,0.09695331012558621,40.106058693909645,-96.25519929585457,80.21211738781929
2024-09-23 14:40:28.087216,43.25,28.674317,-0.003382661564999035,-0.02338022115155219,0.09685382322919964,40.106058693909645,-88.23529758782387,84.22370748782159
2024-09-23 14:40:28.130429,43.25,28.674368,-0.0027359787006383035,-0.02338022115155219,0.09695331012558621,40.106058693909645,-96.25519929585457,84.22370748782159
2024-09-23 14:40:28.172660,43.25,28.674455,-0.0027359787006383035,-0.02338022115155219,0.09695331012558621,40.106058693909645,-96.25519929585457,76.200527287817
2024-09-23 14:40:28.184346,43.25,28.674455,-0.0031836870127375577,-0.023181236725942318,0.09745075675933246,36.09446859390736,-96.25519929585457,76.200527287817
2024-09-23 14:40:28.227310,43.25,28.674506,-0.0030841997366068195,-0.023330473146428877,0.09675432418099966,36.09446859390736,-100.26678939585686,76.200527287817
2024-09-23 14:40:28.269924,43.25,28.674506,-0.0030841997366068195,-0.023330473146428877,0.09675432418099966,36.09446859390736,-100.26678939585686,76.200527287817
2024-09-23 14:40:28.280841,43.25,28.674557,-0.0029847020175114316,-0.02268379009219606,0.09675432418099966,36.09446859390736,-96.25519929585457,76.200527287817
2024-09-23 14:40:28.323816,43.25,28.674608,-0.0029847020175114316,-0.02268379009219606,0.09685382322919964,32.08287849390507,-96.25519929585457,80.21211738781929
2024-09-23 14:40:28.336190,43.25,28.674608,-0.004079093383843503,-0.02268379009219606,0.09685382322919964,32.08287849390507,-96.25519929585457,80.21211738781929
2024-09-23 14:40:28.368510,43.25,28.674608,-0.004079093383843503,-0.02308174982955575,0.09715228999426605,32.08287849390507,-96.25519929585457,80.21211738781929
2024-09-23 14:40:28.380227,43.25,28.674699,-0.004079093383843503,-0.02308174982955575,0.09715228999426605,36.09446859390736,-100.26678939585686,76.200527287817
2024-09-23 14:40:28.423430,43.25,28.674699,-0.0028852147413806935,-0.023280723622328886,0.09695331012558621,36.09446859390736,-96.25519929585457,76.200527287817
2024-09-23 14:40:28.435201,43.25,28.674699,-0.0028852147413806935,-0.023280723622328886,0.09695331012558621,36.09446859390736,-96.25519929585457,76.200527287817
2024-09-23 14:40:28.467542,43.25,28.67475,-0.0029847020175114316,-0.02338022115155219,0.09695331012558621,36.09446859390736,-96.25519929585457,76.200527287817
2024-09-23 14:40:28.478728,43.25,28.67475,-0.0029847020175114316,-0.02338022115155219,0.09755024973162574,32.08287849390507,-96.25519929585457,76.200527287817
2024-09-23 14:40:28.521747,43.25,28.674801,-0.0034324103296106863,-0.022982261414192504,0.09799795899308542,36.09446859390736,-96.25519929585457,80.21211738781929
2024-09-23 14:40:28.564944,43.25,28.674851,-0.0034324103296106863,-0.022982261414192504,0.09799795899308542,36.09446859390736,-100.26678939585686,80.21211738781929
2024-09-23 14:40:28.576275,43.25,28.674851,-0.0034324103296106863,-0.023778180888911878,0.0970030596496862,36.09446859390736,-100.26678939585686,80.21211738781929
2024-09-23 14:40:28.619348,43.25,28.674902,-0.003382661564999035,-0.02338022115155219,0.0970030596496862,32.08287849390507,-96.25519929585457,84.22370748782159
2024-09-23 14:40:28.662343,43.25,28.674902,-0.003382661564999035,-0.02338022115155219,0.09695331012558621,40.106058693909645,-96.25519929585457,84.22370748782159
2024-09-23 14:40:28.715397,43.25,28.674953,-0.003482159473966507,-0.02362894446842532,0.09695331012558621,40.106058693909645,-96.25519929585457,80.21211738781929
2024-09-23 14:40:28.729886,43.25,28.674953,-0.003482159473966507,-0.02362894446842532,0.0973015264147526,40.106058693909645,-96.25519929585457,80.21211738781929
2024-09-23 14:40:28.763125,43.25,28.67504,-0.003631395514708897,-0.02362894446842532,0.0973015264147526,44.11764879391193,-104.27510100388527,80.21211738781929
2024-09-23 14:40:28.775329,43.25,28.67504,-0.003631395514708897,-0.023330473146428877,0.0973015264147526,44.11764879391193,-104.27510100388527,80.21211738781929
2024-09-23 14:40:28.807703,43.25,28.67504,-0.003631395514708897,-0.023330473146428877,0.09710254654607277,36.09446859390736,-104.27510100388527,80.21211738781929
2024-09-23 14:40:28.819012,43.25,28.675091,-0.0029847020175114316,-0.023330473146428877,0.09710254654607277,36.09446859390736,-100.26678939585686,80.21211738781929
2024-09-23 14:40:28.862369,43.25,28.675091,-0.0029847020175114316,-0.02313149783467906,0.09715228999426605,36.09446859390736,-88.23529758782387,84.22370748782159
2024-09-23 14:40:28.873865,43.25,28.675142,-0.0029847020175114316,-0.02313149783467906,0.09715228999426605,36.09446859390736,-88.23529758782387,84.22370748782159
2024-09-23 14:40:28.906835,43.25,28.675142,-0.0033329230534799477,-0.023728432883788564,0.09740101331113918,36.09446859390736,-88.23529758782387,84.22370748782159
2024-09-23 14:40:28.918365,43.25,28.675142,-0.0033329230534799477,-0.023728432883788564,0.09740101331113918,52.137550501942634,-92.24360919585227,80.21211738781929
2024-09-23 14:40:28.961029,43.25,28.675235,-0.0033329230534799477,-0.02338022115155219,0.0966050877605131,40.106058693909645,-108.28669110388756,80.21211738781929
2024-09-23 14:40:29.003562,43.25,28.675287,-0.003979606107712764,-0.02338022115155219,0.0966050877605131,40.106058693909645,-108.28669110388756,64.16903547978401
2024-09-23 14:40:29.014898,43.25,28.675287,-0.003979606107712764,-0.02338022115155219,0.0966050877605131,40.106058693909645,-108.28669110388756,64.16903547978401
2024-09-23 14:40:29.056783,43.38,28.675337,-0.0032831742888682963,-0.023479709566915436,0.0970030596496862,40.106058693909645,-100.26678939585686,72.1922225099802
2024-09-23 14:40:29.099158,43.38,28.675337,-0.0032831742888682963,-0.023479709566915436,0.0970030596496862,40.106058693909645,-100.26678939585686,72.1922225099802
2024-09-23 14:40:29.110486,43.38,28.675388,-0.0030841997366068195,-0.0228827638849692,0.0970030596496862,40.106058693909645,-100.26678939585686,76.200527287817
2024-09-23 14:40:29.152646,43.38,28.675388,-0.0030841997366068195,-0.0228827638849692,0.09710254654607277,40.106058693909645,-100.26678939585686,76.200527287817
2024-09-23 14:40:29.194778,43.38,28.675388,-0.0030841997366068195,-0.0228827638849692,0.09710254654607277,28.07457030097246,-100.26678939585686,76.200527287817
2024-09-23 14:40:29.206204,43.38,28.675439,-0.003233425524256645,-0.02308174982955575,0.09710254654607277,28.07457030097246,-104.27510100388527,80.21211738781929
2024-09-23 14:40:29.249077,43.38,28.675439,-0.003233425524256645,-0.02308174982955575,0.09755024973162574,40.106058693909645,-96.25519929585457,76.200527287817
2024-09-23 14:40:29.260848,43.38,28.675527,-0.0035318979854855937,-0.02308174982955575,0.09755024973162574,40.106058693909645,-96.25519929585457,76.200527287817
2024-09-23 14:40:29.293472,43.38,28.675527,-0.0035318979854855937,-0.022733528983459317,0.09755024973162574,40.106058693909645,-96.25519929585457,76.200527287817
2024-09-23 14:40:29.304744,43.38,28.675579,-0.0035318979854855937,-0.022733528983459317,0.09645586349183995,40.106058693909645,-104.27510100388527,76.200527287817
2024-09-23 14:40:29.347026,43.38,28.675579,-0.002785727465249955,-0.02367869399252531,0.09685382322919964,24.06297849342227,-104.27510100388527,76.200527287817
2024-09-23 14:40:29.358734,43.38,28.675579,-0.002785727465249955,-0.02367869399252531,0.09685382322919964,24.06297849342227,-96.25519929585457,76.200527287817
2024-09-23 14:40:29.392317,43.38,28.67563,-0.0032831742888682963,-0.02367869399252531,0.09685382322919964,24.06297849342227,-96.25519929585457,76.200527287817
2024-09-23 14:40:29.403936,43.38,28.67563,-0.0032831742888682963,-0.023479709566915436,0.09715228999426605,40.106058693909645,-100.26678939585686,76.200527287817
2024-09-23 14:40:29.447918,43.38,28.675723,-0.0030344509719951677,-0.023181236725942318,0.09645586349183995,44.11764879391193,-100.26678939585686,72.1922225099802
2024-09-23 14:40:29.490208,43.38,28.675775,-0.0030344509719951677,-0.023181236725942318,0.09645586349183995,44.11764879391193,-100.26678939585686,80.21211738781929
2024-09-23 14:40:29.501223,43.38,28.675775,-0.0029349636958644295,-0.023579196463302005,0.09715228999426605,44.11764879391193,-100.26678939585686,80.21211738781929
2024-09-23 14:40:29.543808,43.38,28.675825,-0.0036811340262279837,-0.02313149783467906,0.09715228999426605,32.08287849390507,-92.24360919585227,76.200527287817
2024-09-23 14:40:29.585917,43.38,28.675825,-0.0036811340262279837,-0.02313149783467906,0.09690356060148622,32.08287849390507,-92.24360919585227,76.200527287817
2024-09-23 14:40:29.598115,43.38,28.675876,-0.0034324103296106863,-0.02313149783467906,0.09690356060148622,40.106058693909645,-96.25519929585457,84.22370748782159
2024-09-23 14:40:29.641105,43.38,28.675876,-0.0034324103296106863,-0.02278327698858263,0.09715228999426605,32.08287849390507,-100.26678939585686,80.21211738781929
2024-09-23 14:40:29.652875,43.38,28.675966,-0.0034324103296106863,-0.02278327698858263,0.09715228999426605,32.08287849390507,-100.26678939585686,80.21211738781929
2024-09-23 14:40:29.685639,43.38,28.675966,-0.0031836870127375577,-0.023330473146428877,0.09715228999426605,32.08287849390507,-100.26678939585686,80.21211738781929
2024-09-23 14:40:29.738111,43.38,28.676018,-0.0035318979854855937,-0.023330473146428877,0.09715228999426605,44.11764879391193,-100.26678939585686,72.1922225099802
2024-09-23 14:40:29.750235,43.38,28.676018,-0.0035318979854855937,-0.022982261414192504,0.09715228999426605,44.11764879391193,-100.26678939585686,72.1922225099802
2024-09-23 14:40:29.782293,43.38,28.676018,-0.0035318979854855937,-0.022982261414192504,0.09685382322919964,36.09446859390736,-100.26678939585686,72.1922225099802
2024-09-23 14:40:29.794152,43.38,28.676069,-0.0028354659767690416,-0.022982261414192504,0.09685382322919964,36.09446859390736,-104.27510100388527,76.200527287817
2024-09-23 14:40:29.837645,43.38,28.676119,-0.0028354659767690416,-0.023479709566915436,0.0976994861521123,44.11764879391193,-108.28669110388756,80.21211738781929
2024-09-23 14:40:29.880890,43.38,28.676119,-0.0033329230534799477,-0.023230986250042305,0.09745075675933246,44.11764879391193,-108.28669110388756,80.21211738781929
2024-09-23 14:40:29.893086,43.38,28.676119,-0.0033329230534799477,-0.023230986250042305,0.09745075675933246,40.106058693909645,-92.24360919585227,84.22370748782159
2024-09-23 14:40:29.935490,43.38,28.67617,-0.0029349636958644295,-0.02308174982955575,0.09690356060148622,40.106058693909645,-104.27510100388527,84.22370748782159
2024-09-23 14:40:29.978515,43.38,28.67626,-0.0036811340262279837,-0.02308174982955575,0.09690356060148622,40.106058693909645,-104.27510100388527,76.200527287817
2024-09-23 14:40:29.989680,43.38,28.67626,-0.0036811340262279837,-0.023728432883788564,0.0966050877605131,44.11764879391193,-104.27510100388527,76.200527287817
2024-09-23 14:40:30.032562,43.38,28.676311,-0.0031339382481259063,-0.022982261414192504,0.09710254654607277,44.11764879391193,-104.27510100388527,76.200527287817
2024-09-23 14:40:30.074353,43.1,28.676311,-0.0031339382481259063,-0.022982261414192504,0.09710254654607277,44.11764879391193,-100.26678939585686,76.200527287817
2024-09-23 14:40:30.085880,43.1,28.676361,-0.0032831742888682963,-0.023479709566915436,0.09710254654607277,44.11764879391193,-100.26678939585686,76.200527287817
2024-09-23 14:40:30.127596,43.1,28.676412,-0.0032831742888682963,-0.023479709566915436,0.09690356060148622,44.11764879391193,-100.26678939585686,76.200527287817
2024-09-23 14:40:30.139541,43.1,28.676412,-0.0031339382481259063,-0.023479709566915436,0.09690356060148622,44.11764879391193,-100.26678939585686,76.200527287817
2024-09-23 14:40:30.172549,43.1,28.676412,-0.0031339382481259063,-0.02362894446842532,0.09695331012558621,36.09446859390736,-100.26678939585686,76.200527287817
2024-09-23 14:40:30.184976,43.1,28.676502,-0.0031339382481259063,-0.02362894446842532,0.09695331012558621,36.09446859390736,-100.26678939585686,84.22370748782159
2024-09-23 14:40:30.227684,43.1,28.676502,-0.003631395514708897,-0.02313149783467906,0.09725178296655933,40.106058693909645,-96.25519929585457,80.21211738781929
2024-09-23 14:40:30.270350,43.1,28.676554,-0.0028354659767690416,-0.024076653729884996,0.09725178296655933,40.106058693909645,-96.25519929585457,80.21211738781929
2024-09-23 14:40:30.282961,43.1,28.676554,-0.0028354659767690416,-0.024076653729884996,0.09715228999426605,40.106058693909645,-100.26678939585686,80.21211738781929
2024-09-23 14:40:30.326200,43.1,28.676605,-0.003233425524256645,-0.024076653729884996,0.09715228999426605,40.106058693909645,-100.26678939585686,84.22370748782159
2024-09-23 14:40:30.368355,43.1,28.676605,-0.003233425524256645,-0.02268379009219606,0.09685382322919964,40.106058693909645,-100.26678939585686,84.22370748782159
2024-09-23 14:40:30.380198,43.1,28.676655,-0.003233425524256645,-0.02268379009219606,0.09685382322919964,44.11764879391193,-96.25519929585457,76.200527287817
2024-09-23 14:40:30.423995,43.1,28.676655,-0.0031836870127375577,-0.02338022115155219,0.09715228999426605,48.12595698684454,-96.25519929585457,80.21211738781929
2024-09-23 14:40:30.466187,43.1,28.676706,-0.0029349636958644295,-0.023280723622328886,0.09715228999426605,48.12595698684454,-96.25519929585457,80.21211738781929
2024-09-23 14:40:30.477479,43.1,28.676706,-0.0029349636958644295,-0.023280723622328886,0.09774922960030558,36.09446859390736,-96.25519929585457,80.21211738781929
2024-09-23 14:40:30.521682,43.1,28.676757,-0.0033329230534799477,-0.02303200030545576,0.09685382322919964,44.11764879391193,-96.25519929585457,80.21211738781929
2024-09-23 14:40:30.565304,43.1,28.676844,-0.002586742470023829,-0.02303200030545576,0.09685382322919964,44.11764879391193,-96.25519929585457,76.200527287817
2024-09-23 14:40:30.577033,43.1,28.676844,-0.002586742470023829,-0.022982261414192504,0.09695331012558621,44.11764879391193,-96.25519929585457,76.200527287817
2024-09-23 14:40:30.609997,43.1,28.676844,-0.002586742470023829,-0.022982261414192504,0.09695331012558621,36.09446859390736,-96.25519929585457,76.200527287817
2024-09-23 14:40:30.621763,43.1,28.676895,-0.0029847020175114316,-0.023330473146428877,0.09695331012558621,36.09446859390736,-100.26678939585686,80.21211738781929
2024-09-23 14:40:30.664409,43.1,28.676946,-0.0029847020175114316,-0.023330473146428877,0.09690356060148622,44.11764879391193,-104.27510100388527,72.1922225099802
2024-09-23 14:40:30.676666,43.1,28.676946,-0.0031339382481259063,-0.023330473146428877,0.09690356060148622,44.11764879391193,-104.27510100388527,72.1922225099802
2024-09-23 14:40:30.709451,43.1,28.676946,-0.0031339382481259063,-0.023330473146428877,0.09705279702197278,40.106058693909645,-104.27510100388527,72.1922225099802
2024-09-23 14:40:30.721481,43.1,28.676946,-0.0031339382481259063,-0.023330473146428877,0.09705279702197278,40.106058693909645,-96.25519929585457,72.1922225099802
2024-09-23 14:40:30.763815,43.1,28.677039,-0.003382661564999035,-0.022982261414192504,0.09680407370509965,36.09446859390736,-96.25519929585457,80.21211738781929
2024-09-23 14:40:30.807202,43.1,28.67709,-0.003382661564999035,-0.022982261414192504,0.09680407370509965,36.09446859390736,-96.25519929585457,80.21211738781929
2024-09-23 14:40:30.818943,43.1,28.67709,-0.0029847020175114316,-0.02303200030545576,0.09774922960030558,36.09446859390736,-96.25519929585457,80.21211738781929
2024-09-23 14:40:30.852342,43.1,28.67709,-0.0029847020175114316,-0.02303200030545576,0.09774922960030558,36.09446859390736,-96.25519929585457,80.21211738781929
2024-09-23 14:40:30.863463,43.1,28.677141,-0.0037308827908396356,-0.02303200030545576,0.09774922960030558,36.09446859390736,-96.25519929585457,80.21211738781929
2024-09-23 14:40:30.906146,43.1,28.677141,-0.0037308827908396356,-0.022982261414192504,0.09680407370509965,36.09446859390736,-96.25519929585457,80.21211738781929
2024-09-23 14:40:30.917982,43.1,28.677192,-0.0037308827908396356,-0.022982261414192504,0.09680407370509965,36.09446859390736,-96.25519929585457,76.200527287817
2024-09-23 14:40:30.951375,43.1,28.677192,-0.003233425524256645,-0.022982261414192504,0.09680407370509965,36.09446859390736,-96.25519929585457,76.200527287817
2024-09-23 14:40:30.962641,43.1,28.677192,-0.003233425524256645,-0.023280723622328886,0.0973015264147526,40.106058693909645,-96.25519929585457,76.200527287817
2024-09-23 14:40:31.004541,43.1,28.677242,-0.002785727465249955,-0.023330473146428877,0.09720203344245934,40.106058693909645,-96.25519929585457,76.200527287817
2024-09-23 14:40:31.015508,43.1,28.677242,-0.002785727465249955,-0.023330473146428877,0.09720203344245934,32.08287849390507,-100.26678939585686,76.200527287817
2024-09-23 14:40:31.047444,43.1,28.677242,-0.002785727465249955,-0.023330473146428877,0.09720203344245934,32.08287849390507,-100.26678939585686,80.21211738781929
2024-09-23 14:40:31.059004,43.1,28.677332,-0.003233425524256645,-0.023479709566915436,0.09715228999426605,44.11764879391193,-100.26678939585686,80.21211738781929
2024-09-23 14:40:31.101244,42.96,28.677383,-0.0038801188315820256,-0.023479709566915436,0.09715228999426605,44.11764879391193,-100.26678939585686,80.21211738781929
2024-09-23 14:40:31.112598,42.96,28.677383,-0.0038801188315820256,-0.023280723622328886,0.09720203344245934,44.11764879391193,-100.26678939585686,80.21211738781929
2024-09-23 14:40:31.144451,42.96,28.677383,-0.0038801188315820256,-0.023280723622328886,0.09720203344245934,48.12595698684454,-100.26678939585686,80.21211738781929
2024-09-23 14:40:31.155983,42.96,28.677434,-0.0030344509719951677,-0.02362894446842532,0.09720203344245934,48.12595698684454,-100.26678939585686,80.21211738781929
2024-09-23 14:40:31.198703,42.96,28.677434,-0.0030344509719951677,-0.02362894446842532,0.0973015264147526,40.106058693909645,-92.24360919585227,76.200527287817
2024-09-23 14:40:31.210379,42.96,28.677484,-0.0035318979854855937,-0.02362894446842532,0.0973015264147526,40.106058693909645,-92.24360919585227,76.200527287817
2024-09-23 14:40:31.242849,42.96,28.677484,-0.0035318979854855937,-0.023181236725942318,0.0973015264147526,40.106058693909645,-92.24360919585227,76.200527287817
2024-09-23 14:40:31.254196,42.96,28.677484,-0.0035318979854855937,-0.023181236725942318,0.09705279702197278,32.08287849390507,-96.25519929585457,76.200527287817
2024-09-23 14:40:31.295772,42.96,28.677575,-0.003482159473966507,-0.02352945757203875,0.0973512698629459,32.08287849390507,-96.25519929585457,76.200527287817
2024-09-23 14:40:31.307387,42.96,28.677575,-0.003482159473966507,-0.02352945757203875,0.0973512698629459,36.09446859390736,-100.26678939585686,76.200527287817
2024-09-23 14:40:31.339314,42.96,28.677575,-0.003482159473966507,-0.02352945757203875,0.0973512698629459,36.09446859390736,-100.26678939585686,76.200527287817
2024-09-23 14:40:31.350939,42.96,28.677626,-0.0034324103296106863,-0.023330473146428877,0.0976994861521123,36.09446859390736,-100.26678939585686,76.200527287817
2024-09-23 14:40:31.393211,42.96,28.677677,-0.0034324103296106863,-0.023330473146428877,0.0976994861521123,36.09446859390736,-92.24360919585227,88.23529758782387
2024-09-23 14:40:31.404733,42.96,28.677677,-0.0034324103296106863,-0.02338022115155219,0.09705279702197278,36.09446859390736,-92.24360919585227,88.23529758782387
2024-09-23 14:40:31.437051,42.96,28.677677,-0.0034324103296106863,-0.02338022115155219,0.09705279702197278,32.08287849390507,-92.24360919585227,88.23529758782387
2024-09-23 14:40:31.448694,42.96,28.677728,-0.0030344509719951677,-0.022833026512682618,0.09705279702197278,32.08287849390507,-96.25519929585457,84.22370748782159
2024-09-23 14:40:31.490423,42.96,28.677728,-0.0030344509719951677,-0.022833026512682618,0.09690356060148622,28.07457030097246,-100.26678939585686,84.22370748782159
2024-09-23 14:40:31.501624,42.96,28.677778,-0.0037308827908396356,-0.022833026512682618,0.09690356060148622,28.07457030097246,-100.26678939585686,80.21211738781929
2024-09-23 14:40:31.544124,42.96,28.677867,-0.0037308827908396356,-0.02313149783467906,0.09680407370509965,32.08287849390507,-100.26678939585686,80.21211738781929
2024-09-23 14:40:31.586941,42.96,28.677867,-0.0034324103296106863,-0.023579196463302005,0.09695331012558621,32.08287849390507,-100.26678939585686,80.21211738781929
2024-09-23 14:40:31.597936,42.96,28.677867,-0.0034324103296106863,-0.023579196463302005,0.09695331012558621,40.106058693909645,-100.26678939585686,80.21211738781929
2024-09-23 14:40:31.641075,42.96,28.67792,-0.0032831742888682963,-0.023927417309398437,0.09705279702197278,36.09446859390736,-100.26678939585686,80.21211738781929
2024-09-23 14:40:31.683297,42.96,28.67792,-0.0032831742888682963,-0.023927417309398437,0.09705279702197278,36.09446859390736,-100.26678939585686,72.1922225099802
2024-09-23 14:40:31.694748,42.96,28.67797,-0.003780631555451287,-0.02308174982955575,0.09740101331113918,36.09446859390736,-100.26678939585686,72.1922225099802
2024-09-23 14:40:31.737266,42.96,28.678021,-0.003482159473966507,-0.02308174982955575,0.09740101331113918,36.09446859390736,-92.24360919585227,80.21211738781929
2024-09-23 14:40:31.780740,42.96,28.678021,-0.003482159473966507,-0.023429960042815445,0.09685382322919964,36.09446859390736,-92.24360919585227,80.21211738781929
2024-09-23 14:40:31.792568,42.96,28.678072,-0.003482159473966507,-0.023429960042815445,0.09685382322919964,36.09446859390736,-96.25519929585457,80.21211738781929
2024-09-23 14:40:31.836724,42.96,28.678072,-0.0031339382481259063,-0.02308174982955575,0.09720203344245934,36.09446859390736,-100.26678939585686,80.21211738781929
2024-09-23 14:40:31.879028,42.96,28.678122,-0.0029349636958644295,-0.02308174982955575,0.09720203344245934,36.09446859390736,-100.26678939585686,80.21211738781929
2024-09-23 14:40:31.890650,42.96,28.678122,-0.0029349636958644295,-0.02278327698858263,0.09715228999426605,44.11764879391193,-96.25519929585457,80.21211738781929
2024-09-23 14:40:31.933912,42.96,28.678209,-0.0030344509719951677,-0.023927417309398437,0.09670458680871308,32.08287849390507,-96.25519929585457,76.200527287817
2024-09-23 14:40:31.977707,42.96,28.678209,-0.0030344509719951677,-0.023927417309398437,0.09670458680871308,32.08287849390507,-108.28669110388756,76.200527287817
2024-09-23 14:40:32.031207,42.96,28.67826,-0.0036811340262279837,-0.023330473146428877,0.09740101331113918,36.09446859390736,-108.28669110388756,76.200527287817
2024-09-23 14:40:32.073088,42.96,28.67826,-0.0036811340262279837,-0.023330473146428877,0.09740101331113918,36.09446859390736,-100.26678939585686,72.1922225099802
2024-09-23 14:40:32.085382,42.96,28.678311,-0.0033329230534799477,-0.023181236725942318,0.0973512698629459,36.09446859390736,-100.26678939585686,72.1922225099802
2024-09-23 14:40:32.128314,42.87,28.678361,-0.003482159473966507,-0.02293251340906919,0.0973512698629459,36.09446859390736,-92.24360919585227,76.200527287817
2024-09-23 14:40:32.170333,42.87,28.678361,-0.003482159473966507,-0.02293251340906919,0.09740101331113918,40.106058693909645,-92.24360919585227,76.200527287817
2024-09-23 14:40:32.181723,42.87,28.678452,-0.0032831742888682963,-0.02293251340906919,0.09740101331113918,40.106058693909645,-92.24360919585227,84.22370748782159
2024-09-23 14:40:32.225367,42.87,28.678503,-0.0032831742888682963,-0.023280723622328886,0.09745075675933246,36.09446859390736,-100.26678939585686,76.200527287817
2024-09-23 14:40:32.268290,42.87,28.678503,-0.0028852147413806935,-0.023927417309398437,0.09745075675933246,36.09446859390736,-100.26678939585686,76.200527287817
2024-09-23 14:40:32.279848,42.87,28.678503,-0.0028852147413806935,-0.023927417309398437,0.09740101331113918,40.106058693909645,-92.24360919585227,84.22370748782159
2024-09-23 14:40:32.321662,42.87,28.678599,-0.0036811340262279837,-0.023429960042815445,0.09635636444363997,44.11764879391193,-92.24360919585227,84.22370748782159
2024-09-23 14:40:32.333792,42.87,28.678599,-0.0036811340262279837,-0.023429960042815445,0.09635636444363997,44.11764879391193,-96.25519929585457,84.22370748782159
2024-09-23 14:40:32.368200,42.87,28.678651,-0.0028852147413806935,-0.0228827638849692,0.09635636444363997,44.11764879391193,-96.25519929585457,80.21211738781929
2024-09-23 14:40:32.379468,42.87,28.678651,-0.0028852147413806935,-0.0228827638849692,0.09675432418099966,40.106058693909645,-96.25519929585457,80.21211738781929
2024-09-23 14:40:32.422685,42.87,28.678702,-0.0032831742888682963,-0.022982261414192504,0.09715228999426605,40.106058693909645,-100.26678939585686,76.200527287817
2024-09-23 14:40:32.465350,42.87,28.678702,-0.0032831742888682963,-0.022982261414192504,0.09715228999426605,36.09446859390736,-92.24360919585227,76.200527287817
2024-09-23 14:40:32.476728,42.87,28.678753,-0.003233425524256645,-0.022982261414192504,0.09715228999426605,36.09446859390736,-92.24360919585227,76.200527287817
2024-09-23 14:40:32.519795,42.87,28.678803,-0.0034324103296106863,-0.022982261414192504,0.09685382322919964,40.106058693909645,-92.24360919585227,76.200527287817
2024-09-23 14:40:32.561849,42.87,28.678803,-0.0034324103296106863,-0.023429960042815445,0.09675432418099966,32.08287849390507,-92.24360919585227,76.200527287817
2024-09-23 14:40:32.572974,42.87,28.678891,-0.0034324103296106863,-0.023429960042815445,0.09675432418099966,32.08287849390507,-96.25519929585457,84.22370748782159
2024-09-23 14:40:32.618383,42.87,28.678891,-0.0034324103296106863,-0.023827930413011865,0.09705279702197278,36.09446859390736,-92.24360919585227,84.22370748782159
2024-09-23 14:40:32.659979,42.87,28.678943,-0.0030841997366068195,-0.02338022115155219,0.09705279702197278,36.09446859390736,-92.24360919585227,84.22370748782159
2024-09-23 14:40:32.671188,42.87,28.678943,-0.0030841997366068195,-0.02338022115155219,0.09789846602079214,40.106058693909645,-96.25519929585457,84.22370748782159
2024-09-23 14:40:32.713796,42.87,28.678993,-0.003482159473966507,-0.023429960042815445,0.09725178296655933,44.11764879391193,-96.25519929585457,76.200527287817
2024-09-23 14:40:32.756393,42.87,28.679044,-0.003482159473966507,-0.023429960042815445,0.09725178296655933,44.11764879391193,-96.25519929585457,76.200527287817
2024-09-23 14:40:32.768353,42.87,28.679044,-0.0037308827908396356,-0.023429960042815445,0.09725178296655933,44.11764879391193,-96.25519929585457,76.200527287817
2024-09-23 14:40:32.811405,42.87,28.679095,-0.0037308827908396356,-0.023579196463302005,0.09680407370509965,32.08287849390507,-104.27510100388527,80.21211738781929
2024-09-23 14:40:32.855022,42.87,28.679095,-0.0033329230534799477,-0.02313149783467906,0.09720203344245934,32.08287849390507,-104.27510100388527,80.21211738781929
2024-09-23 14:40:32.866032,42.87,28.679095,-0.0033329230534799477,-0.02313149783467906,0.09720203344245934,36.09446859390736,-100.26678939585686,80.21211738781929
2024-09-23 14:40:32.908811,42.87,28.679145,-0.0031339382481259063,-0.023230986250042305,0.09675432418099966,32.08287849390507,-92.24360919585227,80.21211738781929
2024-09-23 14:40:32.950980,42.87,28.679233,-0.0031339382481259063,-0.023230986250042305,0.09675432418099966,32.08287849390507,-92.24360919585227,76.200527287817
2024-09-23 14:40:32.962312,42.87,28.679233,-0.0035318979854855937,-0.023181236725942318,0.09720203344245934,40.106058693909645,-92.24360919585227,76.200527287817
2024-09-23 14:40:33.005187,42.87,28.679233,-0.0035318979854855937,-0.023181236725942318,0.09720203344245934,40.106058693909645,-96.25519929585457,76.200527287817
2024-09-23 14:40:33.047495,42.87,28.679284,-0.0035318979854855937,-0.023181236725942318,0.09720203344245934,40.106058693909645,-96.25519929585457,76.200527287817
2024-09-23 14:40:33.059481,42.87,28.679284,-0.0033329230534799477,-0.02397715620066169,0.09755024973162574,32.08287849390507,-96.25519929585457,76.200527287817
2024-09-23 14:40:33.102289,42.87,28.679335,-0.003382661564999035,-0.0228827638849692,0.09720203344245934,32.08287849390507,-96.25519929585457,80.21211738781929
2024-09-23 14:40:33.114219,42.87,28.679335,-0.003382661564999035,-0.0228827638849692,0.09720203344245934,36.09446859390736,-96.25519929585457,80.21211738781929
2024-09-23 14:40:33.146591,42.39,28.679335,-0.003382661564999035,-0.0228827638849692,0.09720203344245934,36.09446859390736,-100.26678939585686,80.21211738781929
2024-09-23 14:40:33.158466,42.39,28.679385,-0.0028354659767690416,-0.023181236725942318,0.09690356060148622,36.09446859390736,-100.26678939585686,80.21211738781929
2024-09-23 14:40:33.200402,42.39,28.679476,-0.0031836870127375577,-0.02313149783467906,0.09690356060148622,44.11764879391193,-96.25519929585457,80.21211738781929
2024-09-23 14:40:33.244737,42.39,28.679476,-0.0031836870127375577,-0.02313149783467906,0.0970030596496862,32.08287849390507,-96.25519929585457,80.21211738781929
2024-09-23 14:40:33.256410,42.39,28.679527,-0.003233425524256645,-0.02313149783467906,0.0970030596496862,32.08287849390507,-96.25519929585457,84.22370748782159
2024-09-23 14:40:33.299042,42.39,28.679623,-0.003233425524256645,-0.02303200030545576,0.09725178296655933,36.09446859390736,-100.26678939585686,80.21211738781929
2024-09-23 14:40:33.343120,42.39,28.679623,-0.0034324103296106863,-0.02268379009219606,0.09745075675933246,36.09446859390736,-100.26678939585686,80.21211738781929
2024-09-23 14:40:33.355847,42.39,28.679623,-0.0034324103296106863,-0.02268379009219606,0.09745075675933246,40.106058693909645,-100.26678939585686,76.200527287817
2024-09-23 14:40:33.388838,42.39,28.679674,-0.003233425524256645,-0.02268379009219606,0.09745075675933246,40.106058693909645,-100.26678939585686,76.200527287817
2024-09-23 14:40:33.400278,42.39,28.679674,-0.003233425524256645,-0.023230986250042305,0.0973512698629459,40.106058693909645,-96.25519929585457,76.200527287817
2024-09-23 14:40:33.442561,42.39,28.679725,-0.0023380189632786156,-0.023479709566915436,0.0973512698629459,40.106058693909645,-96.25519929585457,76.200527287817
2024-09-23 14:40:33.455338,42.39,28.679725,-0.0023380189632786156,-0.023479709566915436,0.09740101331113918,40.106058693909645,-96.25519929585457,76.200527287817
2024-09-23 14:40:33.487750,42.39,28.679725,-0.0023380189632786156,-0.023479709566915436,0.09740101331113918,40.106058693909645,-104.27510100388527,80.21211738781929
2024-09-23 14:40:33.499490,42.39,28.679775,-0.003233425524256645,-0.023579196463302005,0.09710254654607277,40.106058693909645,-104.27510100388527,80.21211738781929
2024-09-23 14:40:33.541815,42.39,28.679826,-0.0029847020175114316,-0.02338022115155219,0.09710254654607277,40.106058693909645,-96.25519929585457,80.21211738781929
2024-09-23 14:40:33.584161,42.39,28.679826,-0.0029847020175114316,-0.02338022115155219,0.0973512698629459,36.09446859390736,-96.25519929585457,80.21211738781929
2024-09-23 14:40:33.596026,42.39,28.679877,-0.003233425524256645,-0.02338022115155219,0.0973512698629459,36.09446859390736,-100.26678939585686,80.21211738781929
2024-09-23 14:40:33.639125,42.39,28.679964,-0.003233425524256645,-0.023230986250042305,0.09695331012558621,48.12595698684454,-96.25519929585457,80.21211738781929
2024-09-23 14:40:33.681990,42.39,28.679964,-0.0036811340262279837,-0.022733528983459317,0.09695331012558621,48.12595698684454,-96.25519929585457,80.21211738781929
2024-09-23 14:40:33.693797,42.39,28.679964,-0.0036811340262279837,-0.022733528983459317,0.09720203344245934,52.137550501942634,-100.26678939585686,80.21211738781929
2024-09-23 14:40:33.737545,42.39,28.680015,-0.002586742470023829,-0.02308174982955575,0.09764974270391902,36.09446859390736,-96.25519929585457,80.21211738781929
2024-09-23 14:40:33.780428,42.39,28.680066,-0.0029847020175114316,-0.02308174982955575,0.09764974270391902,36.09446859390736,-96.25519929585457,84.22370748782159
2024-09-23 14:40:33.791987,42.39,28.680066,-0.0029847020175114316,-0.02362894446842532,0.0973015264147526,36.09446859390736,-96.25519929585457,84.22370748782159
2024-09-23 14:40:33.834433,42.39,28.680117,-0.003482159473966507,-0.02338022115155219,0.0973015264147526,40.106058693909645,-88.23529758782387,84.22370748782159
2024-09-23 14:40:33.877682,42.39,28.680117,-0.003482159473966507,-0.02338022115155219,0.09779897304849887,48.12595698684454,-88.23529758782387,84.22370748782159
2024-09-23 14:40:33.929688,42.39,28.680167,-0.0035318979854855937,-0.02338022115155219,0.09779897304849887,48.12595698684454,-96.25519929585457,80.21211738781929
2024-09-23 14:40:33.940938,42.39,28.680167,-0.0035318979854855937,-0.02293251340906919,0.0973015264147526,48.12595698684454,-96.25519929585457,80.21211738781929
2024-09-23 14:40:33.974465,42.39,28.680167,-0.0035318979854855937,-0.02293251340906919,0.0973015264147526,40.106058693909645,-92.24360919585227,80.21211738781929
2024-09-23 14:40:33.986405,42.39,28.680218,-0.003382661564999035,-0.023429960042815445,0.0973015264147526,40.106058693909645,-92.24360919585227,80.21211738781929
2024-09-23 14:40:34.028848,42.39,28.680305,-0.003382661564999035,-0.023429960042815445,0.09745075675933246,36.09446859390736,-92.24360919585227,76.200527287817
2024-09-23 14:40:34.040630,42.39,28.680305,-0.0034324103296106863,-0.023429960042815445,0.09745075675933246,36.09446859390736,-92.24360919585227,76.200527287817
2024-09-23 14:40:34.072351,42.39,28.680305,-0.0034324103296106863,-0.023330473146428877,0.09695331012558621,36.09446859390736,-92.24360919585227,76.200527287817
2024-09-23 14:40:34.085948,42.39,28.680305,-0.0034324103296106863,-0.023330473146428877,0.09695331012558621,32.08287849390507,-104.27510100388527,80.21211738781929
2024-09-23 14:40:34.172272,41.9,28.680357,-0.0028852147413806935,-0.023479709566915436,0.09705279702197278,32.08287849390507,-104.27510100388527,80.21211738781929
2024-09-23 14:40:34.183841,41.9,28.680357,-0.0028852147413806935,-0.023479709566915436,0.09705279702197278,44.11764879391193,-104.27510100388527,80.21211738781929
2024-09-23 14:40:34.215985,41.9,28.680357,-0.0028852147413806935,-0.023479709566915436,0.09705279702197278,44.11764879391193,-100.26678939585686,80.21211738781929
2024-09-23 14:40:34.227114,41.9,28.680452,-0.0030344509719951677,-0.023181236725942318,0.09759999317981902,44.11764879391193,-100.26678939585686,84.22370748782159
2024-09-23 14:40:34.269216,41.9,28.680503,-0.0030344509719951677,-0.023181236725942318,0.09759999317981902,44.11764879391193,-100.26678939585686,72.1922225099802
2024-09-23 14:40:34.280828,41.9,28.680503,-0.003482159473966507,-0.02362894446842532,0.09759999317981902,44.11764879391193,-100.26678939585686,72.1922225099802
2024-09-23 14:40:34.323646,41.9,28.680554,-0.003631395514708897,-0.02362894446842532,0.09695331012558621,40.106058693909645,-100.26678939585686,76.200527287817
2024-09-23 14:40:34.366754,41.9,28.680554,-0.003631395514708897,-0.02303200030545576,0.09750050628343246,44.11764879391193,-100.26678939585686,76.200527287817
2024-09-23 14:40:34.378065,41.9,28.680605,-0.003631395514708897,-0.02303200030545576,0.09750050628343246,44.11764879391193,-100.26678939585686,76.200527287817
2024-09-23 14:40:34.421474,41.9,28.680605,-0.003233425524256645,-0.02308174982955575,0.09670458680871308,44.11764879391193,-100.26678939585686,76.200527287817
2024-09-23 14:40:34.464540,41.9,28.680744,-0.0035816467500972456,-0.02338022115155219,0.09635636444363997,44.11764879391193,-100.26678939585686,76.200527287817
2024-09-23 14:40:34.476271,41.9,28.680744,-0.0035816467500972456,-0.02338022115155219,0.09635636444363997,36.09446859390736,-100.26678939585686,76.200527287817
2024-09-23 14:40:34.509796,41.9,28.680744,-0.0035816467500972456,-0.02338022115155219,0.09635636444363997,36.09446859390736,-100.26678939585686,72.1922225099802
2024-09-23 14:40:34.521811,41.9,28.680796,-0.0031836870127375577,-0.022982261414192504,0.09685382322919964,32.08287849390507,-100.26678939585686,72.1922225099802
2024-09-23 14:40:34.564147,41.9,28.680846,-0.0028354659767690416,-0.023429960042815445,0.09685382322919964,32.08287849390507,-100.26678939585686,72.1922225099802
2024-09-23 14:40:34.576361,41.9,28.680846,-0.0028354659767690416,-0.023429960042815445,0.09685382322919964,32.08287849390507,-100.26678939585686,72.1922225099802
2024-09-23 14:40:34.660510,41.9,28.680897,-0.0028354659767690416,-0.023429960042815445,0.09685382322919964,24.06297849342227,-104.27510100388527,72.1922225099802
2024-09-23 14:40:34.671961,41.9,28.680897,-0.0035816467500972456,-0.02268379009219606,0.09685382322919964,24.06297849342227,-104.27510100388527,72.1922225099802
2024-09-23 14:40:34.756419,41.9,28.680897,-0.0035816467500972456,-0.02268379009219606,0.0970030596496862,32.08287849390507,-104.27510100388527,72.1922225099802
2024-09-23 14:40:34.769641,41.9,28.680948,-0.0035318979854855937,-0.02268379009219606,0.0970030596496862,32.08287849390507,-104.27510100388527,84.22370748782159
2024-09-23 14:40:34.802265,41.9,28.680948,-0.0035318979854855937,-0.02308174982955575,0.0970030596496862,32.08287849390507,-104.27510100388527,84.22370748782159
2024-09-23 14:40:34.813265,41.9,28.680948,-0.0035318979854855937,-0.02308174982955575,0.09725178296655933,32.08287849390507,-104.27510100388527,72.1922225099802
2024-09-23 14:40:34.855879,41.9,28.681036,-0.003482159473966507,-0.02303200030545576,0.09750050628343246,32.08287849390507,-104.27510100388527,72.1922225099802
2024-09-23 14:40:34.867068,41.9,28.681036,-0.003482159473966507,-0.02303200030545576,0.09750050628343246,40.106058693909645,-100.26678939585686,72.1922225099802
2024-09-23 14:40:34.898992,41.9,28.681036,-0.003482159473966507,-0.02303200030545576,0.09750050628343246,40.106058693909645,-100.26678939585686,80.21211738781929
2024-09-23 14:40:34.910115,41.9,28.681088,-0.003233425524256645,-0.02303200030545576,0.09720203344245934,40.106058693909645,-100.26678939585686,80.21211738781929
2024-09-23 14:40:34.952184,41.9,28.681184,-0.0035318979854855937,-0.02303200030545576,0.09720203344245934,40.106058693909645,-96.25519929585457,80.21211738781929
2024-09-23 14:40:34.963550,41.9,28.681184,-0.0035318979854855937,-0.022833026512682618,0.0973512698629459,40.106058693909645,-96.25519929585457,80.21211738781929
2024-09-23 14:40:35.005880,41.9,28.681282,-0.003482159473966507,-0.023479709566915436,0.0973512698629459,36.09446859390736,-92.24360919585227,80.21211738781929
2024-09-23 14:40:35.050113,41.9,28.681282,-0.003482159473966507,-0.023479709566915436,0.09705279702197278,44.11764879391193,-96.25519929585457,80.21211738781929
2024-09-23 14:40:35.061120,41.9,28.681332,-0.0032831742888682963,-0.023479709566915436,0.09705279702197278,44.11764879391193,-96.25519929585457,76.200527287817
2024-09-23 14:40:35.094540,41.9,28.681332,-0.0032831742888682963,-0.023429960042815445,0.09705279702197278,44.11764879391193,-96.25519929585457,76.200527287817
2024-09-23 14:40:35.106164,41.9,28.681426,-0.0032831742888682963,-0.023429960042815445,0.09695331012558621,44.11764879391193,-100.26678939585686,76.200527287817
2024-09-23 14:40:35.148799,41.9,28.681426,-0.0029349636958644295,-0.023778180888911878,0.0973512698629459,36.09446859390736,-96.25519929585457,76.200527287817
2024-09-23 14:40:35.160904,41.9,28.681426,-0.0029349636958644295,-0.023778180888911878,0.0973512698629459,36.09446859390736,-96.25519929585457,84.22370748782159
2024-09-23 14:40:35.193347,41.9,28.681478,-0.0033329230534799477,-0.023778180888911878,0.0973512698629459,36.09446859390736,-96.25519929585457,84.22370748782159
2024-09-23 14:40:35.246444,41.9,28.681478,-0.0033329230534799477,-0.024076653729884996,0.09745075675933246,44.11764879391193,-92.24360919585227,80.21211738781929
2024-09-23 14:40:35.258803,41.9,28.681529,-0.0033329230534799477,-0.024076653729884996,0.09745075675933246,44.11764879391193,-92.24360919585227,80.21211738781929
2024-09-23 14:40:35.290767,41.9,28.681529,-0.0033329230534799477,-0.023429960042815445,0.09745075675933246,44.11764879391193,-92.24360919585227,80.21211738781929
2024-09-23 14:40:35.302083,41.9,28.681529,-0.0033329230534799477,-0.023429960042815445,0.09680407370509965,44.11764879391193,-96.25519929585457,76.200527287817
2024-09-23 14:40:35.344413,41.9,28.68158,-0.003382661564999035,-0.02303200030545576,0.09710254654607277,36.09446859390736,-96.25519929585457,76.200527287817
2024-09-23 14:40:35.356295,41.9,28.68158,-0.003382661564999035,-0.02303200030545576,0.09710254654607277,36.09446859390736,-92.24360919585227,76.200527287817
2024-09-23 14:40:35.388170,41.9,28.68163,-0.003382661564999035,-0.02303200030545576,0.09710254654607277,36.09446859390736,-92.24360919585227,80.21211738781929
2024-09-23 14:40:35.400412,41.9,28.68163,-0.003382661564999035,-0.023230986250042305,0.0973015264147526,36.09446859390736,-92.24360919585227,80.21211738781929
2024-09-23 14:40:35.442871,41.9,28.681681,-0.0033329230534799477,-0.023479709566915436,0.09715228999426605,36.09446859390736,-96.25519929585457,80.21211738781929
2024-09-23 14:40:35.485873,41.9,28.681681,-0.0033329230534799477,-0.023479709566915436,0.09715228999426605,36.09446859390736,-100.26678939585686,80.21211738781929
2024-09-23 14:40:35.496809,41.9,28.68177,-0.0035816467500972456,-0.02367869399252531,0.09715228999426605,36.09446859390736,-100.26678939585686,76.200527287817
2024-09-23 14:40:35.539582,41.9,28.68177,-0.0035816467500972456,-0.02367869399252531,0.09745075675933246,32.08287849390507,-96.25519929585457,80.21211738781929
2024-09-23 14:40:35.550945,41.9,28.68182,-0.0031836870127375577,-0.02367869399252531,0.09745075675933246,32.08287849390507,-96.25519929585457,80.21211738781929
2024-09-23 14:40:35.583251,41.9,28.68182,-0.0031836870127375577,-0.023181236725942318,0.09725178296655933,32.08287849390507,-96.25519929585457,80.21211738781929
2024-09-23 14:40:35.595349,41.9,28.681914,-0.0031836870127375577,-0.023181236725942318,0.09725178296655933,40.106058693909645,-100.26678939585686,84.22370748782159
2024-09-23 14:40:35.637427,41.9,28.681914,-0.0031836870127375577,-0.023330473146428877,0.0973015264147526,36.09446859390736,-96.25519929585457,84.22370748782159
2024-09-23 14:40:35.649689,41.9,28.681914,-0.0031836870127375577,-0.023330473146428877,0.0973015264147526,36.09446859390736,-96.25519929585457,76.200527287817
2024-09-23 14:40:35.682224,41.9,28.681966,-0.0026862297461545674,-0.02303200030545576,0.0973015264147526,36.09446859390736,-96.25519929585457,76.200527287817
2024-09-23 14:40:35.694053,41.9,28.681966,-0.0026862297461545674,-0.02303200030545576,0.09715228999426605,36.09446859390736,-96.25519929585457,76.200527287817
2024-09-23 14:40:35.778539,41.9,28.681966,-0.0026862297461545674,-0.02303200030545576,0.09715228999426605,40.106058693909645,-92.24360919585227,76.200527287817
2024-09-23 14:40:35.790518,41.9,28.682017,-0.0031836870127375577,-0.02263404056809607,0.09715228999426605,40.106058693909645,-92.24360919585227,84.22370748782159
2024-09-23 14:40:35.834632,41.9,28.682067,-0.0031836870127375577,-0.02263404056809607,0.09685382322919964,48.12595698684454,-96.25519929585457,80.21211738781929
2024-09-23 14:40:35.846678,41.9,28.682067,-0.0034324103296106863,-0.02263404056809607,0.09685382322919964,48.12595698684454,-96.25519929585457,80.21211738781929
2024-09-23 14:40:35.878691,41.9,28.682067,-0.0034324103296106863,-0.023728432883788564,0.09695331012558621,40.106058693909645,-96.25519929585457,80.21211738781929
2024-09-23 14:40:35.890421,41.9,28.682118,-0.0034324103296106863,-0.023728432883788564,0.09695331012558621,40.106058693909645,-92.24360919585227,80.21211738781929
2024-09-23 14:40:35.924621,41.9,28.682118,-0.0032831742888682963,-0.023181236725942318,0.09695331012558621,40.106058693909645,-92.24360919585227,80.21211738781929
2024-09-23 14:40:35.936040,41.9,28.682118,-0.0032831742888682963,-0.023181236725942318,0.09715228999426605,40.106058693909645,-88.23529758782387,76.200527287817
2024-09-23 14:40:35.978759,41.9,28.682169,-0.0036811340262279837,-0.0228827638849692,0.09655535038822652,48.12595698684454,-96.25519929585457,76.200527287817
2024-09-23 14:40:36.022026,41.9,28.682305,-0.0036811340262279837,-0.0228827638849692,0.09655535038822652,48.12595698684454,-96.25519929585457,80.21211738781929
2024-09-23 14:40:36.034187,41.9,28.682305,-0.003382661564999035,-0.023479709566915436,0.09725178296655933,40.106058693909645,-96.25519929585457,80.21211738781929
2024-09-23 14:40:36.076568,41.9,28.682356,-0.003382661564999035,-0.02338022115155219,0.09705279702197278,40.106058693909645,-104.27510100388527,80.21211738781929
2024-09-23 14:40:36.118880,41.9,28.682356,-0.003382661564999035,-0.02338022115155219,0.09705279702197278,32.08287849390507,-104.27510100388527,80.21211738781929
2024-09-23 14:40:36.130414,41.9,28.682407,-0.003382661564999035,-0.0228827638849692,0.09705279702197278,32.08287849390507,-104.27510100388527,80.21211738781929
2024-09-23 14:40:36.173725,41.9,28.682457,-0.003382661564999035,-0.0228827638849692,0.09665483728461309,36.09446859390736,-100.26678939585686,80.21211738781929
2024-09-23 14:40:36.186198,41.9,28.682457,-0.0034324103296106863,-0.0228827638849692,0.09665483728461309,36.09446859390736,-100.26678939585686,80.21211738781929
2024-09-23 14:40:36.218631,41.89,28.682457,-0.0034324103296106863,-0.02303200030545576,0.09685382322919964,36.09446859390736,-100.26678939585686,80.21211738781929
2024-09-23 14:40:36.230202,41.89,28.682548,-0.0034324103296106863,-0.02303200030545576,0.09685382322919964,36.09446859390736,-92.24360919585227,84.22370748782159
2024-09-23 14:40:36.273165,41.89,28.682548,-0.0033329230534799477,-0.02303200030545576,0.09685382322919964,36.09446859390736,-92.24360919585227,84.22370748782159
2024-09-23 14:40:36.316885,41.89,28.682548,-0.0033329230534799477,-0.02338022115155219,0.09680407370509965,32.08287849390507,-100.26678939585686,84.22370748782159
2024-09-23 14:40:36.328382,41.89,28.682599,-0.0033329230534799477,-0.02338022115155219,0.09680407370509965,32.08287849390507,-100.26678939585686,76.200527287817
2024-09-23 14:40:36.371276,41.89,28.682599,-0.0034324103296106863,-0.023330473146428877,0.09685382322919964,48.12595698684454,-112.29828120388984,64.16903547978401
2024-09-23 14:40:36.413646,41.89,28.68265,-0.003780631555451287,-0.02338022115155219,0.09685382322919964,48.12595698684454,-112.29828120388984,64.16903547978401
2024-09-23 14:40:36.426196,41.89,28.68265,-0.003780631555451287,-0.02338022115155219,0.09750050628343246,48.12595698684454,-104.27510100388527,64.16903547978401
2024-09-23 14:40:36.458727,41.89,28.68265,-0.003780631555451287,-0.02338022115155219,0.09750050628343246,48.12595698684454,-104.27510100388527,72.1922225099802
2024-09-23 14:40:36.470248,41.89,28.6827,-0.0030344509719951677,-0.023181236725942318,0.09715228999426605,32.08287849390507,-104.27510100388527,72.1922225099802
2024-09-23 14:40:36.513274,41.89,28.682751,-0.0035318979854855937,-0.023181236725942318,0.09715228999426605,32.08287849390507,-100.26678939585686,76.200527287817
2024-09-23 14:40:36.524631,41.89,28.682751,-0.0035318979854855937,-0.023230986250042305,0.09774922960030558,32.08287849390507,-100.26678939585686,76.200527287817
2024-09-23 14:40:36.558477,41.89,28.682751,-0.0035318979854855937,-0.023230986250042305,0.09774922960030558,36.09446859390736,-104.27510100388527,76.200527287817
2024-09-23 14:40:36.570235,41.89,28.682842,-0.0030841997366068195,-0.023181236725942318,0.09774922960030558,36.09446859390736,-104.27510100388527,80.21211738781929
2024-09-23 14:40:36.612203,41.89,28.682893,-0.0030841997366068195,-0.023181236725942318,0.09725178296655933,36.09446859390736,-100.26678939585686,80.21211738781929
2024-09-23 14:40:36.624129,41.89,28.682893,-0.0034324103296106863,-0.023181236725942318,0.09725178296655933,36.09446859390736,-100.26678939585686,80.21211738781929
2024-09-23 14:40:36.656089,41.89,28.682893,-0.0034324103296106863,-0.02367869399252531,0.0973512698629459,36.09446859390736,-100.26678939585686,80.21211738781929
2024-09-23 14:40:36.667904,41.89,28.682986,-0.0034324103296106863,-0.02367869399252531,0.0973512698629459,40.106058693909645,-96.25519929585457,80.21211738781929
2024-09-23 14:40:36.710517,41.89,28.682986,-0.0033329230534799477,-0.02293251340906919,0.09759999317981902,36.09446859390736,-96.25519929585457,80.21211738781929
2024-09-23 14:40:36.722017,41.89,28.682986,-0.0033329230534799477,-0.02293251340906919,0.09759999317981902,36.09446859390736,-96.25519929585457,80.21211738781929
2024-09-23 14:40:36.805425,41.89,28.683038,-0.0031836870127375577,-0.023429960042815445,0.09759999317981902,36.09446859390736,-96.25519929585457,80.21211738781929
2024-09-23 14:40:36.848479,41.89,28.683038,-0.0031836870127375577,-0.023429960042815445,0.0973015264147526,36.09446859390736,-96.25519929585457,80.21211738781929
2024-09-23 14:40:36.859627,41.89,28.683089,-0.0036811340262279837,-0.023429960042815445,0.0973015264147526,28.07457030097246,-96.25519929585457,80.21211738781929
2024-09-23 14:40:36.903105,41.89,28.683089,-0.0036811340262279837,-0.023181236725942318,0.09740101331113918,32.08287849390507,-96.25519929585457,80.21211738781929
2024-09-23 14:40:36.914383,41.89,28.683139,-0.0036811340262279837,-0.023181236725942318,0.09740101331113918,32.08287849390507,-96.25519929585457,76.200527287817
2024-09-23 14:40:36.950431,41.89,28.683139,-0.0036811340262279837,-0.02308174982955575,0.09665483728461309,32.08287849390507,-96.25519929585457,76.200527287817
2024-09-23 14:40:36.962357,41.89,28.683139,-0.0036811340262279837,-0.02308174982955575,0.09665483728461309,36.09446859390736,-96.25519929585457,84.22370748782159
2024-09-23 14:40:36.994360,41.89,28.68319,-0.0036811340262279837,-0.02308174982955575,0.09665483728461309,36.09446859390736,-96.25519929585457,84.22370748782159
2024-09-23 14:40:37.006164,41.89,28.68319,-0.003233425524256645,-0.023877669304275123,0.09799795899308542,40.106058693909645,-96.25519929585457,84.22370748782159
2024-09-23 14:40:37.049215,41.89,28.68324,-0.003631395514708897,-0.02268379009219606,0.09799795899308542,40.106058693909645,-96.25519929585457,84.22370748782159
2024-09-23 14:40:37.061163,41.89,28.68324,-0.003631395514708897,-0.02268379009219606,0.09745075675933246,40.106058693909645,-96.25519929585457,84.22370748782159
2024-09-23 14:40:37.093732,41.89,28.68324,-0.003631395514708897,-0.02268379009219606,0.09745075675933246,40.106058693909645,-92.24360919585227,84.22370748782159
2024-09-23 14:40:37.105613,41.89,28.683378,-0.0033329230534799477,-0.022584292562972758,0.09705279702197278,40.106058693909645,-92.24360919585227,80.21211738781929
2024-09-23 14:40:37.148137,41.89,28.683429,-0.0032831742888682963,-0.022584292562972758,0.09705279702197278,36.09446859390736,-100.26678939585686,84.22370748782159
2024-09-23 14:40:37.160391,41.89,28.683429,-0.0032831742888682963,-0.023181236725942318,0.09705279702197278,36.09446859390736,-100.26678939585686,84.22370748782159
2024-09-23 14:40:37.192782,41.89,28.683429,-0.0032831742888682963,-0.023181236725942318,0.09725178296655933,36.09446859390736,-92.24360919585227,84.22370748782159
2024-09-23 14:40:37.203816,41.89,28.68348,-0.0030344509719951677,-0.023181236725942318,0.09725178296655933,36.09446859390736,-92.24360919585227,84.22370748782159
2024-09-23 14:40:37.246803,41.91,28.683571,-0.0030344509719951677,-0.023230986250042305,0.09665483728461309,36.09446859390736,-88.23529758782387,88.23529758782387
2024-09-23 14:40:37.289151,41.91,28.683571,-0.0029847020175114316,-0.02338022115155219,0.09665483728461309,36.09446859390736,-88.23529758782387,88.23529758782387
2024-09-23 14:40:37.342341,41.91,28.683571,-0.0029847020175114316,-0.02338022115155219,0.09725178296655933,44.11764879391193,-92.24360919585227,80.21211738781929
2024-09-23 14:40:37.354935,41.91,28.683623,-0.002785727465249955,-0.02338022115155219,0.09725178296655933,44.11764879391193,-92.24360919585227,80.21211738781929
2024-09-23 14:40:37.386736,41.91,28.683623,-0.002785727465249955,-0.02352945757203875,0.09655535038822652,44.11764879391193,-92.24360919585227,80.21211738781929
2024-09-23 14:40:37.397796,41.91,28.683674,-0.002785727465249955,-0.02352945757203875,0.09655535038822652,44.11764879391193,-96.25519929585457,76.200527287817
2024-09-23 14:40:37.440697,41.91,28.683674,-0.0031836870127375577,-0.023429960042815445,0.09675432418099966,40.106058693909645,-96.25519929585457,76.200527287817
2024-09-23 14:40:37.452745,41.91,28.683674,-0.0031836870127375577,-0.023429960042815445,0.09675432418099966,40.106058693909645,-96.25519929585457,84.22370748782159
2024-09-23 14:40:37.484597,41.91,28.683725,-0.0033329230534799477,-0.023429960042815445,0.09675432418099966,40.106058693909645,-96.25519929585457,84.22370748782159
2024-09-23 14:40:37.496327,41.91,28.683725,-0.0033329230534799477,-0.024076653729884996,0.09695331012558621,24.06297849342227,-100.26678939585686,84.22370748782159
2024-09-23 14:40:37.538321,41.91,28.683776,-0.003929857343101113,-0.02338022115155219,0.09705279702197278,24.06297849342227,-100.26678939585686,76.200527287817
2024-09-23 14:40:37.550414,41.91,28.683776,-0.003929857343101113,-0.02338022115155219,0.09705279702197278,36.09446859390736,-100.26678939585686,76.200527287817
2024-09-23 14:40:37.583574,41.91,28.683866,-0.003929857343101113,-0.02338022115155219,0.09705279702197278,36.09446859390736,-104.27510100388527,80.21211738781929
2024-09-23 14:40:37.594678,41.91,28.683866,-0.0033329230534799477,-0.023280723622328886,0.09715228999426605,36.09446859390736,-104.27510100388527,80.21211738781929
2024-09-23 14:40:37.636680,41.91,28.683916,-0.003482159473966507,-0.02278327698858263,0.09715228999426605,36.09446859390736,-96.25519929585457,76.200527287817
2024-09-23 14:40:37.679436,41.91,28.683916,-0.003482159473966507,-0.02278327698858263,0.09690356060148622,36.09446859390736,-96.25519929585457,76.200527287817
2024-09-23 14:40:37.690926,41.91,28.683967,-0.003780631555451287,-0.02278327698858263,0.09690356060148622,36.09446859390736,-92.24360919585227,80.21211738781929
2024-09-23 14:40:37.734214,41.91,28.684059,-0.003780631555451287,-0.023330473146428877,0.09655535038822652,32.08287849390507,-108.28669110388756,84.22370748782159
2024-09-23 14:40:37.829010,41.91,28.684059,-0.0026862297461545674,-0.023778180888911878,0.0973512698629459,32.08287849390507,-108.28669110388756,84.22370748782159
2024-09-23 14:40:37.840527,41.91,28.684059,-0.0026862297461545674,-0.023778180888911878,0.0973512698629459,28.07457030097246,-100.26678939585686,76.200527287817
2024-09-23 14:40:37.926362,41.91,28.68411,-0.003233425524256645,-0.02313149783467906,0.0973512698629459,28.07457030097246,-100.26678939585686,76.200527287817
2024-09-23 14:40:37.938258,41.91,28.68411,-0.003233425524256645,-0.02313149783467906,0.09725178296655933,44.11764879391193,-104.27510100388527,76.200527287817
2024-09-23 14:40:37.971351,41.91,28.68411,-0.003233425524256645,-0.02313149783467906,0.09725178296655933,44.11764879391193,-104.27510100388527,80.21211738781929
2024-09-23 14:40:37.983312,41.91,28.684161,-0.004029355252068585,-0.02308174982955575,0.09764974270391902,44.11764879391193,-104.27510100388527,80.21211738781929
2024-09-23 14:40:38.025295,41.91,28.684212,-0.0038303700669703737,-0.02313149783467906,0.09764974270391902,44.11764879391193,-100.26678939585686,80.21211738781929
2024-09-23 14:40:38.037585,41.91,28.684212,-0.0038303700669703737,-0.02313149783467906,0.09725178296655933,44.11764879391193,-100.26678939585686,80.21211738781929
2024-09-23 14:40:38.069844,41.91,28.684212,-0.0038303700669703737,-0.02313149783467906,0.09725178296655933,36.09446859390736,-96.25519929585457,80.21211738781929
2024-09-23 14:40:38.081606,41.91,28.684263,-0.0036811340262279837,-0.022733528983459317,0.09725178296655933,36.09446859390736,-96.25519929585457,88.23529758782387
