Ayaan's Suite
Timestamp,Sample Rate (Hz),Time,Ax,Ay,Az,Gx,Gy,Gz
2024-09-23 20:06:20.738364,0,48.227331,0.0006964318663124887,-0.02263404056809607,0.09759999317981902,48.12595698684454,-96.25519929585457,76.200527287817
2024-09-23 20:06:20.749315,0,48.227417,0.0006964318663124887,-0.02263404056809607,0.09759999317981902,48.12595698684454,-100.26678939585686,72.1922225099802
2024-09-23 20:06:20.792397,0,48.227417,0.00024872343554318134,-0.022982261414192504,0.09715228999426605,36.09446859390736,-92.24360919585227,76.200527287817
2024-09-23 20:06:20.835805,0,48.227469,0.0006466830067647949,-0.023181236725942318,0.09715228999426605,36.09446859390736,-92.24360919585227,76.200527287817
2024-09-23 20:06:20.846801,0,48.227469,0.0006466830067647949,-0.023181236725942318,0.098047696365372,36.09446859390736,-96.25519929585457,76.200527287817
2024-09-23 20:06:20.889466,0,48.227519,0.0006964318663124887,-0.022982261414192504,0.09755024973162574,36.09446859390736,-96.25519929585457,76.200527287817
2024-09-23 20:06:20.901030,0,48.227519,0.0006964318663124887,-0.022982261414192504,0.09755024973162574,44.11764879391193,-96.25519929585457,76.200527287817
2024-09-23 20:06:20.933753,0,48.22757,0.0006964318663124887,-0.022982261414192504,0.09755024973162574,44.11764879391193,-96.25519929585457,72.1922225099802
2024-09-23 20:06:20.945589,0,48.22757,0.0007461703303635545,-0.02308174982955575,0.09740101331113918,44.11764879391193,-96.25519929585457,72.1922225099802
2024-09-23 20:06:20.987641,0,48.227621,0.0009948937421727254,-0.02308174982955575,0.09740101331113918,48.12595698684454,-96.25519929585457,72.1922225099802
2024-09-23 20:06:21.029377,0,48.227621,0.0009948937421727254,-0.02308174982955575,0.0973512698629459,56.14914060194492,-96.25519929585457,72.1922225099802
2024-09-23 20:06:21.040715,0,48.227671,0.001044642601720419,-0.02308174982955575,0.0973512698629459,56.14914060194492,-92.24360919585227,80.21211738781929
2024-09-23 20:06:21.083211,0,48.227671,0.001044642601720419,-0.023429960042815445,0.0973015264147526,40.106058693909645,-92.24360919585227,76.200527287817
2024-09-23 20:06:21.095366,0,48.227759,0.001044642601720419,-0.023429960042815445,0.0973015264147526,40.106058693909645,-92.24360919585227,76.200527287817
2024-09-23 20:06:21.127206,0,48.227759,0.0006964318663124887,-0.022584292562972758,0.0973015264147526,40.106058693909645,-92.24360919585227,76.200527287817
2024-09-23 20:06:21.138234,0,48.227759,0.0006964318663124887,-0.022584292562972758,0.09745075675933246,48.12595698684454,-96.25519929585457,80.21211738781929
2024-09-23 20:06:21.180579,0,48.22781,0.0009451553255896806,-0.022982261414192504,0.09750050628343246,48.12595698684454,-96.25519929585457,80.21211738781929
2024-09-23 20:06:21.192213,0,48.22781,0.0009451553255896806,-0.022982261414192504,0.09750050628343246,48.12595698684454,-92.24360919585227,80.21211738781929
2024-09-23 20:06:21.224453,0,48.22781,0.0009451553255896806,-0.022982261414192504,0.09750050628343246,48.12595698684454,-92.24360919585227,76.200527287817
2024-09-23 20:06:21.236005,0,48.227861,0.0011441298778511575,-0.02278327698858263,0.0973512698629459,36.09446859390736,-92.24360919585227,76.200527287817
2024-09-23 20:06:21.278339,0,48.227911,0.0008954064660419869,-0.023330473146428877,0.0973512698629459,36.09446859390736,-100.26678939585686,72.1922225099802
2024-09-23 20:06:21.290415,0,48.227911,0.0008954064660419869,-0.023330473146428877,0.09740101331113918,36.09446859390736,-100.26678939585686,72.1922225099802
2024-09-23 20:06:21.322204,0,48.227911,0.0008954064660419869,-0.023330473146428877,0.09740101331113918,48.12595698684454,-88.23529758782387,72.1922225099802
2024-09-23 20:06:21.333254,0,48.227962,0.0007461703303635545,-0.023230986250042305,0.09740101331113918,48.12595698684454,-88.23529758782387,68.18063240997792
2024-09-23 20:06:21.375816,0,48.228013,0.0007461703303635545,-0.023230986250042305,0.09799795899308542,52.137550501942634,-88.23529758782387,68.18063240997792
2024-09-23 20:06:21.387989,0,48.228013,0.000845657606494293,-0.023230986250042305,0.09799795899308542,52.137550501942634,-88.23529758782387,68.18063240997792
2024-09-23 20:06:21.421838,0,48.228013,0.000845657606494293,-0.02313149783467906,0.09715228999426605,44.11764879391193,-88.23529758782387,68.18063240997792
2024-09-23 20:06:21.432870,0,48.2281,0.000845657606494293,-0.02313149783467906,0.09715228999426605,44.11764879391193,-96.25519929585457,80.21211738781929
2024-09-23 20:06:21.475244,0,48.2281,0.0008954064660419869,-0.02313149783467906,0.09740101331113918,48.12595698684454,-92.24360919585227,76.200527287817
2024-09-23 20:06:21.518363,0,48.228151,0.0012436275969465451,-0.023181236725942318,0.09740101331113918,48.12595698684454,-92.24360919585227,76.200527287817
2024-09-23 20:06:21.530270,0,48.228151,0.0012436275969465451,-0.023181236725942318,0.09774922960030558,44.11764879391193,-92.24360919585227,76.200527287817
2024-09-23 20:06:21.572789,0,48.228202,0.0008954064660419869,-0.02338022115155219,0.09759999317981902,44.11764879391193,-92.24360919585227,76.200527287817
2024-09-23 20:06:21.615090,0,48.228202,0.0008954064660419869,-0.02338022115155219,0.09759999317981902,44.11764879391193,-100.26678939585686,72.1922225099802
2024-09-23 20:06:21.626126,0,48.228253,0.00029846189959424716,-0.02338022115155219,0.09784872257259886,44.11764879391193,-100.26678939585686,72.1922225099802
2024-09-23 20:06:21.668761,0,48.228303,0.000845657606494293,-0.02338022115155219,0.09784872257259886,48.12595698684454,-104.27510100388527,56.14914060194492
2024-09-23 20:06:21.680358,0,48.228303,0.000845657606494293,-0.023280723622328886,0.09784872257259886,48.12595698684454,-104.27510100388527,56.14914060194492
2024-09-23 20:06:21.712703,44.25,48.228303,0.000845657606494293,-0.023280723622328886,0.09779897304849887,40.106058693909645,-104.27510100388527,56.14914060194492
2024-09-23 20:06:21.723706,44.25,48.228354,0.0006466830067647949,-0.023280723622328886,0.09779897304849887,40.106058693909645,-104.27510100388527,68.18063240997792
2024-09-23 20:06:21.765584,44.25,48.228354,0.0006466830067647949,-0.02313149783467906,0.0973512698629459,36.09446859390736,-96.25519929585457,76.200527287817
2024-09-23 20:06:21.777770,44.25,48.228441,0.0006466830067647949,-0.02313149783467906,0.0973512698629459,36.09446859390736,-96.25519929585457,76.200527287817
2024-09-23 20:06:21.809692,44.25,48.228441,0.00044769805900669,-0.023330473146428877,0.0973512698629459,36.09446859390736,-96.25519929585457,76.200527287817
2024-09-23 20:06:21.820794,44.25,48.228441,0.00044769805900669,-0.023330473146428877,0.09750050628343246,44.11764879391193,-92.24360919585227,76.200527287817
2024-09-23 20:06:21.863228,44.25,48.228492,0.0009451553255896806,-0.02338022115155219,0.09764974270391902,44.11764879391193,-92.24360919585227,76.200527287817
2024-09-23 20:06:21.875107,44.25,48.228492,0.0009451553255896806,-0.02338022115155219,0.09764974270391902,44.11764879391193,-92.24360919585227,76.200527287817
2024-09-23 20:06:21.908258,44.25,48.228543,0.000845657606494293,-0.02338022115155219,0.09764974270391902,44.11764879391193,-92.24360919585227,76.200527287817
2024-09-23 20:06:21.919602,44.25,48.228543,0.000845657606494293,-0.02293251340906919,0.09655535038822652,40.106058693909645,-92.24360919585227,76.200527287817
2024-09-23 20:06:21.961822,44.25,48.228594,0.0011441298778511575,-0.023181236725942318,0.09720203344245934,40.106058693909645,-88.23529758782387,76.200527287817
2024-09-23 20:06:22.005987,44.25,48.228594,0.0011441298778511575,-0.023181236725942318,0.09720203344245934,40.106058693909645,-96.25519929585457,76.200527287817
2024-09-23 20:06:22.018103,44.25,48.228644,0.0005471957306340564,-0.02308174982955575,0.09720203344245934,40.106058693909645,-96.25519929585457,76.200527287817
2024-09-23 20:06:22.061558,44.25,48.228695,0.0009948937421727254,-0.02308174982955575,0.09759999317981902,32.08287849390507,-92.24360919585227,76.200527287817
2024-09-23 20:06:22.103395,44.25,48.228695,0.0009948937421727254,-0.022584292562972758,0.09755024973162574,40.106058693909645,-92.24360919585227,76.200527287817
2024-09-23 20:06:22.114342,44.25,48.228782,0.0009948937421727254,-0.022584292562972758,0.09755024973162574,40.106058693909645,-104.27510100388527,76.200527287817
2024-09-23 20:06:22.157927,44.25,48.228782,0.0009948937421727254,-0.02362894446842532,0.0976994861521123,36.09446859390736,-96.25519929585457,76.200527287817
2024-09-23 20:06:22.200267,44.25,48.228834,0.0005969341946851222,-0.0225345536717095,0.0976994861521123,36.09446859390736,-96.25519929585457,76.200527287817
2024-09-23 20:06:22.211353,44.25,48.228834,0.0005969341946851222,-0.0225345536717095,0.09774922960030558,56.14914060194492,-96.25519929585457,76.200527287817
2024-09-23 20:06:22.253913,44.25,48.228884,0.0009451553255896806,-0.023280723622328886,0.09715228999426605,44.11764879391193,-96.25519929585457,76.200527287817
2024-09-23 20:06:22.296947,44.25,48.228884,0.0009451553255896806,-0.023280723622328886,0.09715228999426605,44.11764879391193,-96.25519929585457,80.21211738781929
2024-09-23 20:06:22.308697,44.25,48.228935,0.0007959191899112484,-0.02308174982955575,0.09779897304849887,44.11764879391193,-96.25519929585457,80.21211738781929
2024-09-23 20:06:22.350780,44.25,48.228986,0.0009451553255896806,-0.02308174982955575,0.09779897304849887,44.11764879391193,-88.23529758782387,80.21211738781929
2024-09-23 20:06:22.362731,44.25,48.228986,0.0009451553255896806,-0.023330473146428877,0.09779897304849887,44.11764879391193,-88.23529758782387,80.21211738781929
2024-09-23 20:06:22.397675,44.25,48.228986,0.0009451553255896806,-0.023330473146428877,0.0973015264147526,36.09446859390736,-88.23529758782387,84.22370748782159
2024-09-23 20:06:22.409070,44.25,48.229036,0.000845657606494293,-0.023330473146428877,0.0973015264147526,36.09446859390736,-88.23529758782387,84.22370748782159
2024-09-23 20:06:22.440783,44.25,48.229036,0.000845657606494293,-0.023181236725942318,0.0973015264147526,36.09446859390736,-88.23529758782387,84.22370748782159
2024-09-23 20:06:22.452541,44.25,48.229123,0.000845657606494293,-0.023181236725942318,0.09745075675933246,40.106058693909645,-92.24360919585227,76.200527287817
2024-09-23 20:06:22.494596,44.25,48.229123,0.0006466830067647949,-0.02293251340906919,0.09720203344245934,44.11764879391193,-92.24360919585227,76.200527287817
2024-09-23 20:06:22.506092,44.25,48.229123,0.0006466830067647949,-0.02293251340906919,0.09720203344245934,44.11764879391193,-100.26678939585686,76.200527287817
2024-09-23 20:06:22.549032,44.25,48.229175,0.0006964318663124887,-0.02313149783467906,0.09755024973162574,36.09446859390736,-88.23529758782387,76.200527287817
2024-09-23 20:06:22.591418,44.25,48.229226,0.0006466830067647949,-0.02313149783467906,0.09755024973162574,36.09446859390736,-88.23529758782387,84.22370748782159
2024-09-23 20:06:22.602498,44.25,48.229226,0.0006466830067647949,-0.022982261414192504,0.09720203344245934,40.106058693909645,-88.23529758782387,84.22370748782159
2024-09-23 20:06:22.646702,44.25,48.229276,0.0009948937421727254,-0.023181236725942318,0.09745075675933246,40.106058693909645,-92.24360919585227,84.22370748782159
2024-09-23 20:06:22.689601,44.25,48.229327,0.0009948937421727254,-0.023181236725942318,0.09745075675933246,36.09446859390736,-96.25519929585457,76.200527287817
2024-09-23 20:06:22.701705,44.25,48.229327,0.0009451553255896806,-0.023181236725942318,0.09745075675933246,36.09446859390736,-96.25519929585457,76.200527287817
2024-09-23 20:06:22.733691,43.67,48.229327,0.0009451553255896806,-0.0228827638849692,0.09745075675933246,36.09446859390736,-96.25519929585457,76.200527287817
2024-09-23 20:06:22.745391,43.67,48.229327,0.0009451553255896806,-0.0228827638849692,0.09750050628343246,52.137550501942634,-96.25519929585457,76.200527287817
2024-09-23 20:06:22.788232,43.67,48.229378,0.0007461703303635545,-0.0228827638849692,0.09750050628343246,52.137550501942634,-92.24360919585227,76.200527287817
2024-09-23 20:06:22.799715,43.67,48.229378,0.0007461703303635545,-0.02303200030545576,0.09750050628343246,52.137550501942634,-92.24360919585227,76.200527287817
2024-09-23 20:06:22.833206,43.67,48.229378,0.0007461703303635545,-0.02303200030545576,0.09750050628343246,48.12595698684454,-96.25519929585457,76.200527287817
2024-09-23 20:06:22.844372,43.67,48.229465,0.001044642601720419,-0.02308174982955575,0.09750050628343246,48.12595698684454,-96.25519929585457,72.1922225099802
2024-09-23 20:06:22.887033,43.67,48.229516,0.001044642601720419,-0.02308174982955575,0.09705279702197278,48.12595698684454,-88.23529758782387,72.1922225099802
2024-09-23 20:06:22.898958,43.67,48.229516,0.0012933660135295898,-0.02308174982955575,0.09705279702197278,48.12595698684454,-88.23529758782387,72.1922225099802
2024-09-23 20:06:22.930659,43.67,48.229516,0.0012933660135295898,-0.02338022115155219,0.09755024973162574,48.12595698684454,-88.23529758782387,72.1922225099802
2024-09-23 20:06:22.941837,43.67,48.229567,0.0012933660135295898,-0.02338022115155219,0.09755024973162574,44.11764879391193,-96.25519929585457,76.200527287817
2024-09-23 20:06:22.983791,43.67,48.229567,0.0001989745997294981,-0.023230986250042305,0.09764974270391902,40.106058693909645,-84.22370748782159,76.200527287817
2024-09-23 20:06:22.995919,43.67,48.229567,0.0001989745997294981,-0.023230986250042305,0.09764974270391902,40.106058693909645,-84.22370748782159,72.1922225099802
2024-09-23 20:06:23.028482,43.67,48.22966,0.000845657606494293,-0.023230986250042305,0.09764974270391902,40.106058693909645,-84.22370748782159,72.1922225099802
2024-09-23 20:06:23.039511,43.67,48.22966,0.000845657606494293,-0.023330473146428877,0.09750050628343246,40.106058693909645,-92.24360919585227,72.1922225099802
2024-09-23 20:06:23.082371,43.67,48.229712,0.0010943914612681128,-0.02293251340906919,0.09755024973162574,40.106058693909645,-92.24360919585227,76.200527287817
2024-09-23 20:06:23.094117,43.67,48.229712,0.0010943914612681128,-0.02293251340906919,0.09755024973162574,44.11764879391193,-92.24360919585227,76.200527287817
2024-09-23 20:06:23.126158,43.67,48.229712,0.0010943914612681128,-0.02293251340906919,0.09755024973162574,44.11764879391193,-100.26678939585686,72.1922225099802
2024-09-23 20:06:23.137734,43.67,48.229762,0.001044642601720419,-0.02313149783467906,0.0976994861521123,44.11764879391193,-100.26678939585686,72.1922225099802
2024-09-23 20:06:23.180337,43.67,48.229813,0.0005471957306340564,-0.02338022115155219,0.0976994861521123,52.137550501942634,-88.23529758782387,72.1922225099802
2024-09-23 20:06:23.223811,43.67,48.229813,0.0005471957306340564,-0.02338022115155219,0.09759999317981902,48.12595698684454,-88.23529758782387,72.1922225099802
2024-09-23 20:06:23.235366,43.67,48.229864,0.0008954064660419869,-0.02338022115155219,0.09759999317981902,48.12595698684454,-92.24360919585227,72.1922225099802
2024-09-23 20:06:23.277892,43.67,48.229864,0.0008954064660419869,-0.02303200030545576,0.09715228999426605,40.106058693909645,-88.23529758782387,80.21211738781929
2024-09-23 20:06:23.289677,43.67,48.229952,0.0008954064660419869,-0.02303200030545576,0.09715228999426605,40.106058693909645,-88.23529758782387,80.21211738781929
2024-09-23 20:06:23.323339,43.67,48.229952,0.0007461703303635545,-0.02293251340906919,0.0973512698629459,40.106058693909645,-88.23529758782387,80.21211738781929
2024-09-23 20:06:23.334371,43.67,48.229952,0.0007461703303635545,-0.02293251340906919,0.0973512698629459,44.11764879391193,-92.24360919585227,68.18063240997792
2024-09-23 20:06:23.367143,43.67,48.230004,0.0007461703303635545,-0.02293251340906919,0.0973512698629459,44.11764879391193,-92.24360919585227,68.18063240997792
2024-09-23 20:06:23.378920,43.67,48.230004,0.0006964318663124887,-0.023330473146428877,0.0973015264147526,44.11764879391193,-96.25519929585457,68.18063240997792
2024-09-23 20:06:23.420877,43.67,48.230054,0.0003979595949556242,-0.023280723622328886,0.0973015264147526,44.11764879391193,-96.25519929585457,72.1922225099802
2024-09-23 20:06:23.432188,43.67,48.230054,0.0003979595949556242,-0.023280723622328886,0.09720203344245934,44.11764879391193,-96.25519929585457,72.1922225099802
2024-09-23 20:06:23.474739,43.67,48.230105,0.0004974468710863627,-0.02308174982955575,0.09720203344245934,44.11764879391193,-96.25519929585457,76.200527287817
2024-09-23 20:06:23.518851,43.67,48.230156,0.0004974468710863627,-0.02308174982955575,0.09720203344245934,32.08287849390507,-92.24360919585227,72.1922225099802
2024-09-23 20:06:23.530265,43.67,48.230156,0.000845657606494293,-0.023280723622328886,0.09720203344245934,32.08287849390507,-92.24360919585227,72.1922225099802
2024-09-23 20:06:23.562766,43.67,48.230156,0.000845657606494293,-0.023280723622328886,0.09705279702197278,32.08287849390507,-92.24360919585227,72.1922225099802
2024-09-23 20:06:23.573856,43.67,48.230206,0.00034821073540793035,-0.023280723622328886,0.09705279702197278,44.11764879391193,-100.26678939585686,80.21211738781929
2024-09-23 20:06:23.615682,43.67,48.230206,0.00034821073540793035,-0.022833026512682618,0.09720203344245934,40.106058693909645,-92.24360919585227,80.21211738781929
2024-09-23 20:06:23.627525,43.67,48.230293,0.00034821073540793035,-0.022833026512682618,0.09720203344245934,40.106058693909645,-92.24360919585227,72.1922225099802
2024-09-23 20:06:23.662247,43.67,48.230293,0.0009948937421727254,-0.02338022115155219,0.09720203344245934,40.106058693909645,-92.24360919585227,72.1922225099802
2024-09-23 20:06:23.673978,43.67,48.230293,0.0009948937421727254,-0.02338022115155219,0.09745075675933246,44.11764879391193,-92.24360919585227,72.1922225099802
2024-09-23 20:06:23.717808,43.67,48.230345,0.001044642601720419,-0.0228827638849692,0.09814718933766527,60.15744537978172,-96.25519929585457,72.1922225099802
2024-09-23 20:06:23.760482,44.7,48.230396,0.001044642601720419,-0.0228827638849692,0.09814718933766527,60.15744537978172,-96.25519929585457,76.200527287817
2024-09-23 20:06:23.772362,44.7,48.230396,0.001044642601720419,-0.02303200030545576,0.09814718933766527,60.15744537978172,-96.25519929585457,76.200527287817
2024-09-23 20:06:23.814035,44.7,48.230446,0.0007461703303635545,-0.02303200030545576,0.09720203344245934,60.15744537978172,-92.24360919585227,72.1922225099802
2024-09-23 20:06:23.856287,44.7,48.230446,0.0007461703303635545,-0.02308174982955575,0.09720203344245934,60.15744537978172,-92.24360919585227,72.1922225099802
2024-09-23 20:06:23.868197,44.7,48.230497,0.0007461703303635545,-0.02308174982955575,0.09755024973162574,44.11764879391193,-92.24360919585227,72.1922225099802
2024-09-23 20:06:23.910866,44.7,48.230497,0.000845657606494293,-0.023429960042815445,0.09750050628343246,40.106058693909645,-84.22370748782159,72.1922225099802
2024-09-23 20:06:23.922937,44.7,48.230497,0.000845657606494293,-0.023429960042815445,0.09750050628343246,40.106058693909645,-84.22370748782159,72.1922225099802
2024-09-23 20:06:23.955323,44.7,48.230548,0.000845657606494293,-0.023429960042815445,0.09750050628343246,40.106058693909645,-84.22370748782159,72.1922225099802
2024-09-23 20:06:24.008196,44.7,48.230548,0.00024872343554318134,-0.02352945757203875,0.0973512698629459,40.106058693909645,-96.25519929585457,72.1922225099802
2024-09-23 20:06:24.020601,44.7,48.230548,0.00024872343554318134,-0.02352945757203875,0.0973512698629459,40.106058693909645,-96.25519929585457,68.18063240997792
2024-09-23 20:06:24.052330,44.7,48.230635,0.0007959191899112484,-0.02352945757203875,0.0973512698629459,40.106058693909645,-96.25519929585457,68.18063240997792
2024-09-23 20:06:24.063478,44.7,48.230635,0.0007959191899112484,-0.023877669304275123,0.09720203344245934,36.09446859390736,-88.23529758782387,68.18063240997792
2024-09-23 20:06:24.105734,44.7,48.230686,0.0006466830067647949,-0.023479709566915436,0.0976994861521123,36.09446859390736,-88.23529758782387,84.22370748782159
2024-09-23 20:06:24.117716,44.7,48.230686,0.0006466830067647949,-0.023479709566915436,0.0976994861521123,40.106058693909645,-88.23529758782387,84.22370748782159
2024-09-23 20:06:24.151459,44.7,48.230737,0.0006466830067647949,-0.023479709566915436,0.0976994861521123,40.106058693909645,-92.24360919585227,80.21211738781929
2024-09-23 20:06:24.162754,44.7,48.230737,0.0007959191899112484,-0.0228827638849692,0.0973512698629459,40.106058693909645,-92.24360919585227,80.21211738781929
2024-09-23 20:06:24.205231,44.7,48.230788,0.0007959191899112484,-0.023230986250042305,0.0973512698629459,52.137550501942634,-92.24360919585227,76.200527287817
2024-09-23 20:06:24.247739,44.7,48.230788,0.0007959191899112484,-0.023230986250042305,0.0973015264147526,48.12595698684454,-92.24360919585227,76.200527287817
2024-09-23 20:06:24.259380,44.7,48.230881,0.00034821073540793035,-0.023230986250042305,0.0973015264147526,48.12595698684454,-92.24360919585227,84.22370748782159
2024-09-23 20:06:24.303194,44.7,48.230881,0.00034821073540793035,-0.02303200030545576,0.09784872257259886,44.11764879391193,-92.24360919585227,76.200527287817
2024-09-23 20:06:24.314637,44.7,48.230976,0.00034821073540793035,-0.02303200030545576,0.09784872257259886,44.11764879391193,-92.24360919585227,76.200527287817
2024-09-23 20:06:24.347457,44.7,48.230976,0.0008954064660419869,-0.0228827638849692,0.09745075675933246,44.11764879391193,-92.24360919585227,76.200527287817
2024-09-23 20:06:24.359001,44.7,48.230976,0.0008954064660419869,-0.0228827638849692,0.09745075675933246,52.137550501942634,-92.24360919585227,80.21211738781929
2024-09-23 20:06:24.392428,44.7,48.231027,0.0008954064660419869,-0.0228827638849692,0.09745075675933246,52.137550501942634,-92.24360919585227,80.21211738781929
2024-09-23 20:06:24.403269,44.7,48.231027,0.000845657606494293,-0.02313149783467906,0.09764974270391902,40.106058693909645,-88.23529758782387,80.21211738781929
2024-09-23 20:06:24.445853,44.7,48.231078,0.0011938787373988514,-0.023230986250042305,0.09764974270391902,40.106058693909645,-88.23529758782387,76.200527287817
2024-09-23 20:06:24.456854,44.7,48.231078,0.0011938787373988514,-0.023230986250042305,0.0973015264147526,44.11764879391193,-88.23529758782387,76.200527287817
2024-09-23 20:06:24.488581,44.7,48.231078,0.0011938787373988514,-0.023230986250042305,0.0973015264147526,44.11764879391193,-88.23529758782387,76.200527287817
2024-09-23 20:06:24.500344,44.7,48.231129,0.0004974468710863627,-0.023579196463302005,0.09764974270391902,44.11764879391193,-88.23529758782387,76.200527287817
2024-09-23 20:06:24.542744,44.7,48.231179,0.0004974468710863627,-0.023579196463302005,0.09764974270391902,44.11764879391193,-96.25519929585457,76.200527287817
2024-09-23 20:06:24.554010,44.7,48.231179,0.000845657606494293,-0.022833026512682618,0.09764974270391902,44.11764879391193,-96.25519929585457,76.200527287817
2024-09-23 20:06:24.586213,44.7,48.231179,0.000845657606494293,-0.022833026512682618,0.098047696365372,44.11764879391193,-96.25519929585457,76.200527287817
2024-09-23 20:06:24.638740,44.7,48.231179,0.000845657606494293,-0.022833026512682618,0.098047696365372,48.12595698684454,-96.25519929585457,80.21211738781929
2024-09-23 20:06:24.650242,44.7,48.23123,0.0011938787373988514,-0.023579196463302005,0.098047696365372,48.12595698684454,-96.25519929585457,80.21211738781929
2024-09-23 20:06:24.692702,44.7,48.231317,0.0011938787373988514,-0.023579196463302005,0.09745075675933246,32.08287849390507,-92.24360919585227,80.21211738781929
2024-09-23 20:06:24.704454,44.7,48.231317,0.0005471957306340564,-0.023579196463302005,0.09745075675933246,32.08287849390507,-92.24360919585227,80.21211738781929
2024-09-23 20:06:24.736546,44.7,48.231317,0.0005471957306340564,-0.023280723622328886,0.0973015264147526,36.09446859390736,-92.24360919585227,80.21211738781929
2024-09-23 20:06:24.747803,44.7,48.231369,0.0005471957306340564,-0.023280723622328886,0.0973015264147526,36.09446859390736,-92.24360919585227,84.22370748782159
2024-09-23 20:06:24.791459,44.68,48.231369,0.000845657606494293,-0.02293251340906919,0.09779897304849887,52.137550501942634,-92.24360919585227,84.22370748782159
2024-09-23 20:06:24.833812,44.68,48.231419,0.000845657606494293,-0.02293251340906919,0.09779897304849887,52.137550501942634,-92.24360919585227,72.1922225099802
2024-09-23 20:06:24.845140,44.68,48.231419,0.0011938787373988514,-0.02313149783467906,0.09740101331113918,52.137550501942634,-92.24360919585227,72.1922225099802
2024-09-23 20:06:24.887726,44.68,48.231513,0.0008954064660419869,-0.024176140626271565,0.09740101331113918,44.11764879391193,-100.26678939585686,72.1922225099802
2024-09-23 20:06:24.930958,44.68,48.231513,0.0008954064660419869,-0.024176140626271565,0.09745075675933246,44.11764879391193,-100.26678939585686,72.1922225099802
2024-09-23 20:06:24.942715,44.68,48.231564,0.00029846189959424716,-0.024176140626271565,0.09745075675933246,44.11764879391193,-100.26678939585686,76.200527287817
2024-09-23 20:06:24.985707,44.68,48.231615,0.00029846189959424716,-0.022982261414192504,0.09750050628343246,48.12595698684454,-84.22370748782159,84.22370748782159
2024-09-23 20:06:25.029579,44.68,48.231615,0.0009948937421727254,-0.023280723622328886,0.098047696365372,48.12595698684454,-84.22370748782159,84.22370748782159
2024-09-23 20:06:25.040851,44.68,48.231615,0.0009948937421727254,-0.023280723622328886,0.098047696365372,40.106058693909645,-88.23529758782387,80.21211738781929
2024-09-23 20:06:25.073239,44.68,48.231708,0.0009948937421727254,-0.023280723622328886,0.098047696365372,40.106058693909645,-88.23529758782387,80.21211738781929
2024-09-23 20:06:25.084676,44.68,48.231708,0.00044769805900669,-0.02293251340906919,0.09725178296655933,52.137550501942634,-92.24360919585227,80.21211738781929
2024-09-23 20:06:25.127063,44.68,48.231759,0.0010943914612681128,-0.02293251340906919,0.09725178296655933,52.137550501942634,-92.24360919585227,80.21211738781929
2024-09-23 20:06:25.138568,44.68,48.231759,0.0010943914612681128,-0.022982261414192504,0.09740101331113918,40.106058693909645,-92.24360919585227,80.21211738781929
2024-09-23 20:06:25.171258,44.68,48.231759,0.0010943914612681128,-0.022982261414192504,0.09740101331113918,40.106058693909645,-96.25519929585457,80.21211738781929
2024-09-23 20:06:25.184292,44.68,48.23181,0.0001989745997294981,-0.023181236725942318,0.09715228999426605,40.106058693909645,-96.25519929585457,76.200527287817
2024-09-23 20:06:25.226587,44.68,48.23181,0.0001989745997294981,-0.023181236725942318,0.09715228999426605,40.106058693909645,-92.24360919585227,76.200527287817
2024-09-23 20:06:25.269199,44.68,48.23181,0.0001989745997294981,-0.023181236725942318,0.09715228999426605,40.106058693909645,-92.24360919585227,76.200527287817
2024-09-23 20:06:25.280663,44.68,48.23186,0.0009451553255896806,-0.023429960042815445,0.09764974270391902,36.09446859390736,-92.24360919585227,76.200527287817
2024-09-23 20:06:25.322877,44.68,48.231911,0.0007959191899112484,-0.023429960042815445,0.09764974270391902,36.09446859390736,-92.24360919585227,80.21211738781929
2024-09-23 20:06:25.334682,44.68,48.231911,0.0007959191899112484,-0.02278327698858263,0.09764974270391902,36.09446859390736,-92.24360919585227,80.21211738781929
2024-09-23 20:06:25.367480,44.68,48.231911,0.0007959191899112484,-0.02278327698858263,0.09764974270391902,48.12595698684454,-92.24360919585227,80.21211738781929
2024-09-23 20:06:25.379468,44.68,48.232,0.0010943914612681128,-0.02313149783467906,0.09764974270391902,48.12595698684454,-92.24360919585227,72.1922225099802
2024-09-23 20:06:25.422748,44.68,48.232051,0.0004974468710863627,-0.02313149783467906,0.09759999317981902,40.106058693909645,-92.24360919585227,80.21211738781929
2024-09-23 20:06:25.465299,44.68,48.232051,0.0004974468710863627,-0.02293251340906919,0.09725178296655933,40.106058693909645,-92.24360919585227,80.21211738781929
2024-09-23 20:06:25.477282,44.68,48.232102,0.0004974468710863627,-0.02293251340906919,0.09725178296655933,36.09446859390736,-92.24360919585227,76.200527287817
2024-09-23 20:06:25.519455,44.68,48.232102,0.00044769805900669,-0.02313149783467906,0.0976994861521123,44.11764879391193,-92.24360919585227,76.200527287817
2024-09-23 20:06:25.531597,44.68,48.232102,0.00044769805900669,-0.02313149783467906,0.0976994861521123,44.11764879391193,-92.24360919585227,76.200527287817
2024-09-23 20:06:25.563601,44.68,48.232195,0.0007461703303635545,-0.02313149783467906,0.0976994861521123,44.11764879391193,-92.24360919585227,76.200527287817
2024-09-23 20:06:25.575467,44.68,48.232195,0.0007461703303635545,-0.023479709566915436,0.09750050628343246,40.106058693909645,-104.27510100388527,76.200527287817
2024-09-23 20:06:25.618876,44.68,48.232247,0.0006964318663124887,-0.02303200030545576,0.09740101331113918,40.106058693909645,-104.27510100388527,76.200527287817
2024-09-23 20:06:25.661239,44.68,48.232247,0.0006964318663124887,-0.02303200030545576,0.09740101331113918,40.106058693909645,-100.26678939585686,76.200527287817
2024-09-23 20:06:25.672931,44.68,48.232297,0.00024872343554318134,-0.023230986250042305,0.09705279702197278,40.106058693909645,-100.26678939585686,76.200527287817
2024-09-23 20:06:25.716589,44.68,48.232348,0.0007461703303635545,-0.023280723622328886,0.09705279702197278,40.106058693909645,-100.26678939585686,60.15744537978172
2024-09-23 20:06:25.758570,44.68,48.232348,0.0007461703303635545,-0.023280723622328886,0.09665483728461309,40.106058693909645,-100.26678939585686,60.15744537978172
2024-09-23 20:06:25.770479,44.68,48.232399,0.0004974468710863627,-0.023280723622328886,0.09665483728461309,40.106058693909645,-100.26678939585686,72.1922225099802
2024-09-23 20:06:25.813345,44.16,48.232399,0.0004974468710863627,-0.023181236725942318,0.0973015264147526,44.11764879391193,-92.24360919585227,76.200527287817
2024-09-23 20:06:25.855837,44.16,48.232487,0.0011938787373988514,-0.023181236725942318,0.0973015264147526,44.11764879391193,-92.24360919585227,76.200527287817
2024-09-23 20:06:25.867325,44.16,48.232487,0.0011938787373988514,-0.022982261414192504,0.09715228999426605,36.09446859390736,-96.25519929585457,76.200527287817
2024-09-23 20:06:25.909589,44.16,48.232539,0.0008954064660419869,-0.02362894446842532,0.0973512698629459,36.09446859390736,-96.25519929585457,72.1922225099802
2024-09-23 20:06:25.921888,44.16,48.232539,0.0008954064660419869,-0.02362894446842532,0.0973512698629459,40.106058693909645,-96.25519929585457,72.1922225099802
2024-09-23 20:06:25.954958,44.16,48.232589,0.0008954064660419869,-0.02362894446842532,0.0973512698629459,40.106058693909645,-96.25519929585457,72.1922225099802
2024-09-23 20:06:25.966504,44.16,48.232589,0.0007461703303635545,-0.023330473146428877,0.09740101331113918,40.106058693909645,-96.25519929585457,72.1922225099802
2024-09-23 20:06:26.009821,44.16,48.23264,0.000845657606494293,-0.023230986250042305,0.09740101331113918,44.11764879391193,-92.24360919585227,80.21211738781929
2024-09-23 20:06:26.051525,44.16,48.23264,0.000845657606494293,-0.023230986250042305,0.09690356060148622,48.12595698684454,-92.24360919585227,80.21211738781929
2024-09-23 20:06:26.062961,44.16,48.232691,0.00034821073540793035,-0.023230986250042305,0.09690356060148622,48.12595698684454,-92.24360919585227,76.200527287817
2024-09-23 20:06:26.106541,44.16,48.23278,0.00034821073540793035,-0.0228827638849692,0.09755024973162574,48.12595698684454,-92.24360919585227,72.1922225099802
2024-09-23 20:06:26.149830,44.16,48.23278,0.0006466830067647949,-0.02313149783467906,0.09725178296655933,48.12595698684454,-92.24360919585227,72.1922225099802
2024-09-23 20:06:26.161580,44.16,48.23278,0.0006466830067647949,-0.02313149783467906,0.09725178296655933,48.12595698684454,-96.25519929585457,76.200527287817
2024-09-23 20:06:26.205296,44.16,48.232831,0.00044769805900669,-0.023330473146428877,0.09774922960030558,56.14914060194492,-92.24360919585227,76.200527287817
2024-09-23 20:06:26.247856,44.16,48.232882,0.00044769805900669,-0.023330473146428877,0.09774922960030558,56.14914060194492,-92.24360919585227,76.200527287817
2024-09-23 20:06:26.259457,44.16,48.232882,0.0007959191899112484,-0.02352945757203875,0.09720203344245934,44.11764879391193,-92.24360919585227,76.200527287817
2024-09-23 20:06:26.302306,44.16,48.232933,0.000845657606494293,-0.022982261414192504,0.09680407370509965,44.11764879391193,-96.25519929585457,76.200527287817
2024-09-23 20:06:26.344768,44.16,48.232933,0.000845657606494293,-0.022982261414192504,0.09680407370509965,44.11764879391193,-96.25519929585457,76.200527287817
2024-09-23 20:06:26.356601,44.16,48.232983,0.0012436275969465451,-0.023181236725942318,0.09680407370509965,44.11764879391193,-96.25519929585457,76.200527287817
2024-09-23 20:06:26.399020,44.16,48.233034,0.0007959191899112484,-0.023181236725942318,0.09745075675933246,40.106058693909645,-96.25519929585457,76.200527287817
2024-09-23 20:06:26.441896,44.16,48.233034,0.0007959191899112484,-0.02278327698858263,0.09784872257259886,40.106058693909645,-96.25519929585457,76.200527287817
2024-09-23 20:06:26.453287,44.16,48.233121,0.0007959191899112484,-0.02278327698858263,0.09784872257259886,40.106058693909645,-100.26678939585686,76.200527287817
2024-09-23 20:06:26.498954,44.16,48.233121,0.0011441298778511575,-0.02303200030545576,0.09784872257259886,56.14914060194492,-100.26678939585686,72.1922225099802
2024-09-23 20:06:26.541577,44.16,48.233173,0.0007461703303635545,-0.02303200030545576,0.09784872257259886,56.14914060194492,-100.26678939585686,72.1922225099802
2024-09-23 20:06:26.594634,44.16,48.233223,0.0007461703303635545,-0.023429960042815445,0.09725178296655933,52.137550501942634,-96.25519929585457,72.1922225099802
2024-09-23 20:06:26.639866,44.16,48.233223,0.0009451553255896806,-0.023330473146428877,0.0976994861521123,44.11764879391193,-96.25519929585457,72.1922225099802
2024-09-23 20:06:26.651003,44.16,48.233223,0.0009451553255896806,-0.023330473146428877,0.0976994861521123,44.11764879391193,-84.22370748782159,84.22370748782159
2024-09-23 20:06:26.683796,44.16,48.233274,0.0009451553255896806,-0.023330473146428877,0.0976994861521123,44.11764879391193,-84.22370748782159,84.22370748782159
2024-09-23 20:06:26.694817,44.16,48.233274,0.0009451553255896806,-0.02352945757203875,0.09750050628343246,36.09446859390736,-92.24360919585227,84.22370748782159
2024-09-23 20:06:26.737423,44.16,48.233324,0.0006466830067647949,-0.023330473146428877,0.0970030596496862,36.09446859390736,-92.24360919585227,76.200527287817
2024-09-23 20:06:26.749671,44.16,48.233324,0.0006466830067647949,-0.023330473146428877,0.0970030596496862,44.11764879391193,-92.24360919585227,76.200527287817
2024-09-23 20:06:26.782210,44.16,48.233324,0.0006466830067647949,-0.023330473146428877,0.0970030596496862,44.11764879391193,-92.24360919585227,76.200527287817
2024-09-23 20:06:26.793268,44.16,48.233375,0.00024872343554318134,-0.022733528983459317,0.09740101331113918,44.11764879391193,-92.24360919585227,76.200527287817
2024-09-23 20:06:26.834990,43.32,48.233464,0.0007959191899112484,-0.022733528983459317,0.09740101331113918,48.12595698684454,-92.24360919585227,80.21211738781929
2024-09-23 20:06:26.846683,43.32,48.233464,0.0007959191899112484,-0.023877669304275123,0.09740101331113918,48.12595698684454,-92.24360919585227,80.21211738781929
2024-09-23 20:06:26.879113,43.32,48.233464,0.0007959191899112484,-0.023877669304275123,0.0973015264147526,48.12595698684454,-92.24360919585227,80.21211738781929
2024-09-23 20:06:26.889991,43.32,48.233515,0.00034821073540793035,-0.023877669304275123,0.0973015264147526,36.09446859390736,-88.23529758782387,80.21211738781929
2024-09-23 20:06:26.932487,43.32,48.233515,0.00034821073540793035,-0.02308174982955575,0.09784872257259886,48.12595698684454,-96.25519929585457,76.200527287817
2024-09-23 20:06:26.944283,43.32,48.233608,0.00034821073540793035,-0.02308174982955575,0.09784872257259886,48.12595698684454,-96.25519929585457,76.200527287817
2024-09-23 20:06:26.976568,43.32,48.233608,0.001044642601720419,-0.02308174982955575,0.09784872257259886,48.12595698684454,-96.25519929585457,76.200527287817
2024-09-23 20:06:27.029687,43.32,48.233608,0.001044642601720419,-0.023280723622328886,0.09745075675933246,44.11764879391193,-88.23529758782387,76.200527287817
2024-09-23 20:06:27.042525,43.32,48.23366,0.001044642601720419,-0.023280723622328886,0.09745075675933246,44.11764879391193,-88.23529758782387,76.200527287817
2024-09-23 20:06:27.074657,43.32,48.23366,0.0006466830067647949,-0.0228827638849692,0.09745075675933246,44.11764879391193,-88.23529758782387,76.200527287817
2024-09-23 20:06:27.086003,43.32,48.23366,0.0006466830067647949,-0.0228827638849692,0.09759999317981902,40.106058693909645,-92.24360919585227,80.21211738781929
2024-09-23 20:06:27.169783,43.32,48.233711,0.0006466830067647949,-0.0228827638849692,0.09759999317981902,40.106058693909645,-92.24360919585227,80.21211738781929
2024-09-23 20:06:27.181252,43.32,48.233711,0.0012436275969465451,-0.022982261414192504,0.0973512698629459,44.11764879391193,-92.24360919585227,80.21211738781929
2024-09-23 20:06:27.223877,43.32,48.233761,0.0007461703303635545,-0.02308174982955575,0.0973512698629459,44.11764879391193,-92.24360919585227,76.200527287817
2024-09-23 20:06:27.236174,43.32,48.233761,0.0007461703303635545,-0.02308174982955575,0.09750050628343246,44.11764879391193,-92.24360919585227,76.200527287817
2024-09-23 20:06:27.268559,43.32,48.233761,0.0007461703303635545,-0.02308174982955575,0.09750050628343246,44.11764879391193,-96.25519929585457,76.200527287817
2024-09-23 20:06:27.279717,43.32,48.233812,0.0005969341946851222,-0.02308174982955575,0.0966050877605131,44.11764879391193,-96.25519929585457,80.21211738781929
2024-09-23 20:06:27.322604,43.32,48.233903,0.0005969341946851222,-0.02308174982955575,0.0966050877605131,40.106058693909645,-96.25519929585457,76.200527287817
2024-09-23 20:06:27.334480,43.32,48.233903,0.0007461703303635545,-0.02308174982955575,0.0966050877605131,40.106058693909645,-96.25519929585457,76.200527287817
2024-09-23 20:06:27.367305,43.32,48.233903,0.0007461703303635545,-0.02308174982955575,0.09740101331113918,36.09446859390736,-96.25519929585457,76.200527287817
2024-09-23 20:06:27.378971,43.32,48.233954,0.0006466830067647949,-0.02308174982955575,0.09740101331113918,36.09446859390736,-96.25519929585457,76.200527287817
2024-09-23 20:06:27.421440,43.32,48.234096,0.0006466830067647949,-0.02313149783467906,0.09745075675933246,40.106058693909645,-92.24360919585227,72.1922225099802
2024-09-23 20:06:27.463866,43.32,48.234096,0.000845657606494293,-0.02308174982955575,0.09745075675933246,40.106058693909645,-92.24360919585227,72.1922225099802
2024-09-23 20:06:27.475560,43.32,48.234096,0.000845657606494293,-0.02308174982955575,0.09774922960030558,32.08287849390507,-96.25519929585457,80.21211738781929
2024-09-23 20:06:27.517634,43.32,48.234148,0.001044642601720419,-0.0228827638849692,0.0973015264147526,44.11764879391193,-96.25519929585457,80.21211738781929
2024-09-23 20:06:27.529546,43.32,48.234148,0.001044642601720419,-0.0228827638849692,0.0973015264147526,44.11764879391193,-92.24360919585227,80.21211738781929
2024-09-23 20:06:27.561763,43.32,48.234198,0.001044642601720419,-0.0228827638849692,0.0973015264147526,44.11764879391193,-92.24360919585227,84.22370748782159
2024-09-23 20:06:27.572955,43.32,48.234198,0.000845657606494293,-0.0228827638849692,0.09750050628343246,36.09446859390736,-92.24360919585227,84.22370748782159
2024-09-23 20:06:27.617428,43.32,48.234249,0.0009948937421727254,-0.02313149783467906,0.09750050628343246,36.09446859390736,-92.24360919585227,80.21211738781929
2024-09-23 20:06:27.628823,43.32,48.234249,0.0009948937421727254,-0.02313149783467906,0.09740101331113918,36.09446859390736,-92.24360919585227,80.21211738781929
2024-09-23 20:06:27.660573,43.32,48.234249,0.0009948937421727254,-0.02313149783467906,0.09740101331113918,44.11764879391193,-96.25519929585457,76.200527287817
2024-09-23 20:06:27.671994,43.32,48.234299,0.0011441298778511575,-0.023230986250042305,0.09740101331113918,44.11764879391193,-96.25519929585457,76.200527287817
2024-09-23 20:06:27.714011,43.32,48.23435,0.0009451553255896806,-0.023230986250042305,0.0973015264147526,48.12595698684454,-92.24360919585227,72.1922225099802
2024-09-23 20:06:27.757240,43.32,48.23435,0.0009451553255896806,-0.02303200030545576,0.09740101331113918,48.12595698684454,-92.24360919585227,72.1922225099802
2024-09-23 20:06:27.768353,43.32,48.234438,0.0009451553255896806,-0.02303200030545576,0.09740101331113918,44.11764879391193,-92.24360919585227,76.200527287817
2024-09-23 20:06:27.811094,43.32,48.234438,0.0006964318663124887,-0.0228827638849692,0.09695331012558621,40.106058693909645,-96.25519929585457,76.200527287817
2024-09-23 20:06:27.853942,43.3,48.234438,0.0006964318663124887,-0.0228827638849692,0.09695331012558621,40.106058693909645,-96.25519929585457,76.200527287817
2024-09-23 20:06:27.865833,43.3,48.234489,0.000845657606494293,-0.023230986250042305,0.0973512698629459,48.12595698684454,-96.25519929585457,76.200527287817
2024-09-23 20:06:27.908671,43.3,48.23454,0.0008954064660419869,-0.023827930413011865,0.0973512698629459,48.12595698684454,-100.26678939585686,80.21211738781929
2024-09-23 20:06:27.920397,43.3,48.23454,0.0008954064660419869,-0.023827930413011865,0.0976994861521123,48.12595698684454,-100.26678939585686,80.21211738781929
2024-09-23 20:06:27.952901,43.3,48.23454,0.0008954064660419869,-0.023827930413011865,0.0976994861521123,40.106058693909645,-92.24360919585227,80.21211738781929
2024-09-23 20:06:27.964072,43.3,48.234591,0.0003979595949556242,-0.022833026512682618,0.0976994861521123,40.106058693909645,-92.24360919585227,76.200527287817
2024-09-23 20:06:28.006461,43.3,48.234641,0.0013431148730772837,-0.022833026512682618,0.09779897304849887,44.11764879391193,-92.24360919585227,76.200527287817
2024-09-23 20:06:28.049361,43.3,48.234641,0.0013431148730772837,-0.02313149783467906,0.09759999317981902,44.11764879391193,-92.24360919585227,76.200527287817
2024-09-23 20:06:28.060466,43.3,48.234692,0.0013431148730772837,-0.02313149783467906,0.09759999317981902,40.106058693909645,-96.25519929585457,80.21211738781929
2024-09-23 20:06:28.102857,43.3,48.234692,0.0007959191899112484,-0.023479709566915436,0.0973512698629459,48.12595698684454,-96.25519929585457,80.21211738781929
2024-09-23 20:06:28.115933,43.3,48.234692,0.0007959191899112484,-0.023479709566915436,0.0973512698629459,48.12595698684454,-96.25519929585457,76.200527287817
2024-09-23 20:06:28.148134,43.3,48.234779,0.001044642601720419,-0.023728432883788564,0.0973512698629459,48.12595698684454,-96.25519929585457,76.200527287817
2024-09-23 20:06:28.160015,43.3,48.234779,0.001044642601720419,-0.023728432883788564,0.09759999317981902,44.11764879391193,-92.24360919585227,76.200527287817
2024-09-23 20:06:28.202769,43.3,48.23483,0.0008954064660419869,-0.02293251340906919,0.09655535038822652,36.09446859390736,-92.24360919585227,76.200527287817
2024-09-23 20:06:28.245600,43.3,48.234881,0.0008954064660419869,-0.02293251340906919,0.09655535038822652,36.09446859390736,-100.26678939585686,76.200527287817
2024-09-23 20:06:28.257146,43.3,48.234881,0.0007461703303635545,-0.02352945757203875,0.09710254654607277,36.09446859390736,-100.26678939585686,76.200527287817
2024-09-23 20:06:28.299964,43.3,48.234932,0.0005969341946851222,-0.02303200030545576,0.09710254654607277,32.08287849390507,-84.22370748782159,84.22370748782159
2024-09-23 20:06:28.342024,43.3,48.234932,0.0005969341946851222,-0.02303200030545576,0.09774922960030558,36.09446859390736,-84.22370748782159,84.22370748782159
2024-09-23 20:06:28.353695,43.3,48.234982,0.0010943914612681128,-0.02303200030545576,0.09774922960030558,36.09446859390736,-96.25519929585457,76.200527287817
2024-09-23 20:06:28.396626,43.3,48.235071,0.0010943914612681128,-0.023479709566915436,0.09779897304849887,44.11764879391193,-92.24360919585227,76.200527287817
2024-09-23 20:06:28.439204,43.3,48.235071,0.0006964318663124887,-0.023280723622328886,0.09779897304849887,44.11764879391193,-92.24360919585227,76.200527287817
2024-09-23 20:06:28.450744,43.3,48.235071,0.0006964318663124887,-0.023280723622328886,0.0973015264147526,44.11764879391193,-100.26678939585686,80.21211738781929
2024-09-23 20:06:28.492816,43.3,48.235122,0.0005471957306340564,-0.02313149783467906,0.09725178296655933,44.11764879391193,-100.26678939585686,80.21211738781929
2024-09-23 20:06:28.504972,43.3,48.235122,0.0005471957306340564,-0.02313149783467906,0.09725178296655933,44.11764879391193,-88.23529758782387,80.21211738781929
2024-09-23 20:06:28.537367,43.3,48.235173,0.0005471957306340564,-0.02313149783467906,0.09725178296655933,44.11764879391193,-88.23529758782387,76.200527287817
2024-09-23 20:06:28.549410,43.3,48.235173,0.0005471957306340564,-0.023579196463302005,0.09740101331113918,44.11764879391193,-88.23529758782387,76.200527287817
2024-09-23 20:06:28.592497,43.3,48.235224,0.0004974468710863627,-0.02352945757203875,0.09705279702197278,44.11764879391193,-92.24360919585227,72.1922225099802
2024-09-23 20:06:28.634671,43.3,48.235224,0.0004974468710863627,-0.02352945757203875,0.09705279702197278,36.09446859390736,-92.24360919585227,72.1922225099802
2024-09-23 20:06:28.646515,43.3,48.235274,0.0008954064660419869,-0.023330473146428877,0.09705279702197278,36.09446859390736,-88.23529758782387,76.200527287817
2024-09-23 20:06:28.690291,43.3,48.235325,0.0006466830067647949,-0.023330473146428877,0.0973512698629459,40.106058693909645,-88.23529758782387,84.22370748782159
2024-09-23 20:06:28.732617,43.3,48.235325,0.0006466830067647949,-0.02313149783467906,0.09720203344245934,40.106058693909645,-88.23529758782387,84.22370748782159
2024-09-23 20:06:28.743705,43.3,48.235412,0.0006466830067647949,-0.02313149783467906,0.09720203344245934,44.11764879391193,-88.23529758782387,76.200527287817
2024-09-23 20:06:28.787593,43.3,48.235412,0.000845657606494293,-0.022833026512682618,0.09745075675933246,52.137550501942634,-96.25519929585457,72.1922225099802
2024-09-23 20:06:28.829921,43.3,48.235464,0.0005471957306340564,-0.022833026512682618,0.09745075675933246,52.137550501942634,-96.25519929585457,72.1922225099802
2024-09-23 20:06:28.841719,43.3,48.235464,0.0005471957306340564,-0.023280723622328886,0.0973512698629459,44.11764879391193,-96.25519929585457,72.1922225099802
2024-09-23 20:06:28.885076,43.1,48.235514,0.0008954064660419869,-0.02352945757203875,0.09779897304849887,48.12595698684454,-96.25519929585457,80.21211738781929
2024-09-23 20:06:28.928684,43.1,48.235565,0.0008954064660419869,-0.02352945757203875,0.09779897304849887,48.12595698684454,-96.25519929585457,76.200527287817
2024-09-23 20:06:28.940284,43.1,48.235565,0.0010943914612681128,-0.02293251340906919,0.09764974270391902,48.12595698684454,-96.25519929585457,76.200527287817
2024-09-23 20:06:28.982498,43.1,48.235616,0.0006964318663124887,-0.023429960042815445,0.09764974270391902,44.11764879391193,-96.25519929585457,76.200527287817
2024-09-23 20:06:29.024683,43.1,48.235616,0.0006964318663124887,-0.023429960042815445,0.09715228999426605,40.106058693909645,-96.25519929585457,76.200527287817
2024-09-23 20:06:29.036951,43.1,48.235666,0.00029846189959424716,-0.023429960042815445,0.09715228999426605,40.106058693909645,-92.24360919585227,88.23529758782387
2024-09-23 20:06:29.079714,43.1,48.235753,0.00029846189959424716,-0.02268379009219606,0.09745075675933246,48.12595698684454,-100.26678939585686,76.200527287817
2024-09-23 20:06:29.122821,43.1,48.235753,0.0006964318663124887,-0.023230986250042305,0.09740101331113918,48.12595698684454,-100.26678939585686,76.200527287817
2024-09-23 20:06:29.175673,43.1,48.235805,0.0007959191899112484,-0.023230986250042305,0.09740101331113918,36.09446859390736,-96.25519929585457,72.1922225099802
2024-09-23 20:06:29.188697,43.1,48.235805,0.0007959191899112484,-0.023280723622328886,0.09740101331113918,36.09446859390736,-96.25519929585457,72.1922225099802
2024-09-23 20:06:29.220709,43.1,48.235805,0.0007959191899112484,-0.023280723622328886,0.0970030596496862,40.106058693909645,-88.23529758782387,72.1922225099802
2024-09-23 20:06:29.273479,43.1,48.235856,9.948729986474904e-05,-0.023181236725942318,0.09740101331113918,40.106058693909645,-88.23529758782387,84.22370748782159
2024-09-23 20:06:29.285226,43.1,48.235856,9.948729986474904e-05,-0.023181236725942318,0.09740101331113918,44.11764879391193,-88.23529758782387,84.22370748782159
2024-09-23 20:06:29.317363,43.1,48.235856,9.948729986474904e-05,-0.023181236725942318,0.09740101331113918,44.11764879391193,-92.24360919585227,80.21211738781929
2024-09-23 20:06:29.328594,43.1,48.235906,0.0007959191899112484,-0.023230986250042305,0.09779897304849887,44.11764879391193,-92.24360919585227,80.21211738781929
2024-09-23 20:06:29.371338,43.1,48.235957,0.0005969341946851222,-0.022733528983459317,0.09779897304849887,48.12595698684454,-96.25519929585457,72.1922225099802
2024-09-23 20:06:29.413915,43.1,48.235957,0.0005969341946851222,-0.022733528983459317,0.09755024973162574,44.11764879391193,-96.25519929585457,72.1922225099802
2024-09-23 20:06:29.425378,43.1,48.236047,0.0005969341946851222,-0.022733528983459317,0.09755024973162574,44.11764879391193,-96.25519929585457,80.21211738781929
2024-09-23 20:06:29.467510,43.1,48.236047,0.0005969341946851222,-0.023230986250042305,0.09705279702197278,36.09446859390736,-96.25519929585457,80.21211738781929
2024-09-23 20:06:29.479083,43.1,48.236098,0.0005969341946851222,-0.023230986250042305,0.09705279702197278,36.09446859390736,-96.25519929585457,80.21211738781929
2024-09-23 20:06:29.511430,43.1,48.236098,0.0011938787373988514,-0.023230986250042305,0.09705279702197278,36.09446859390736,-96.25519929585457,80.21211738781929
2024-09-23 20:06:29.523288,43.1,48.236098,0.0011938787373988514,-0.0228827638849692,0.09789846602079214,40.106058693909645,-96.25519929585457,72.1922225099802
2024-09-23 20:06:29.567566,43.1,48.236193,0.0005969341946851222,-0.02303200030545576,0.0973015264147526,44.11764879391193,-96.25519929585457,72.1922225099802
2024-09-23 20:06:29.609931,43.1,48.236244,0.0005969341946851222,-0.02303200030545576,0.0973015264147526,44.11764879391193,-96.25519929585457,76.200527287817
2024-09-23 20:06:29.621721,43.1,48.236244,0.0007461703303635545,-0.023479709566915436,0.0973512698629459,40.106058693909645,-96.25519929585457,76.200527287817
2024-09-23 20:06:29.664086,43.1,48.236295,0.0005471957306340564,-0.02338022115155219,0.09705279702197278,40.106058693909645,-96.25519929585457,76.200527287817
2024-09-23 20:06:29.707273,43.1,48.236295,0.0005471957306340564,-0.02338022115155219,0.09705279702197278,40.106058693909645,-92.24360919585227,76.200527287817
2024-09-23 20:06:29.718508,43.1,48.236345,0.0009948937421727254,-0.02367869399252531,0.09705279702197278,40.106058693909645,-92.24360919585227,80.21211738781929
2024-09-23 20:06:29.760833,43.1,48.236396,0.0009948937421727254,-0.02367869399252531,0.09715228999426605,40.106058693909645,-100.26678939585686,72.1922225099802
2024-09-23 20:06:29.773044,43.1,48.236396,0.00044769805900669,-0.02367869399252531,0.09715228999426605,40.106058693909645,-100.26678939585686,72.1922225099802
2024-09-23 20:06:29.857207,43.1,48.236396,0.00044769805900669,-0.02308174982955575,0.09695331012558621,44.11764879391193,-96.25519929585457,72.1922225099802
2024-09-23 20:06:29.868693,43.1,48.236485,0.00044769805900669,-0.02308174982955575,0.09695331012558621,44.11764879391193,-96.25519929585457,72.1922225099802
2024-09-23 20:06:29.900395,42.69,48.236485,0.0004974468710863627,-0.02308174982955575,0.09695331012558621,44.11764879391193,-96.25519929585457,72.1922225099802
2024-09-23 20:06:29.912475,42.69,48.236485,0.0004974468710863627,-0.02308174982955575,0.09680407370509965,40.106058693909645,-92.24360919585227,76.200527287817
2024-09-23 20:06:29.955833,42.69,48.236536,0.00044769805900669,-0.023330473146428877,0.09740101331113918,36.09446859390736,-92.24360919585227,76.200527287817
2024-09-23 20:06:29.967995,42.69,48.236536,0.00044769805900669,-0.023330473146428877,0.09740101331113918,36.09446859390736,-96.25519929585457,76.200527287817
2024-09-23 20:06:29.999502,42.69,48.236587,0.00044769805900669,-0.023330473146428877,0.09740101331113918,36.09446859390736,-96.25519929585457,72.1922225099802
2024-09-23 20:06:30.010574,42.69,48.236587,0.0003979595949556242,-0.02238531725122294,0.09755024973162574,44.11764879391193,-96.25519929585457,72.1922225099802
2024-09-23 20:06:30.053054,42.69,48.236638,0.0009948937421727254,-0.023230986250042305,0.09755024973162574,44.11764879391193,-96.25519929585457,76.200527287817
2024-09-23 20:06:30.065254,42.69,48.236638,0.0009948937421727254,-0.023230986250042305,0.09755024973162574,44.11764879391193,-96.25519929585457,76.200527287817
2024-09-23 20:06:30.097873,42.69,48.236638,0.0009948937421727254,-0.023230986250042305,0.09755024973162574,40.106058693909645,-96.25519929585457,76.200527287817
2024-09-23 20:06:30.109346,42.69,48.236731,0.0009451553255896806,-0.023479709566915436,0.09755024973162574,40.106058693909645,-96.25519929585457,68.18063240997792
2024-09-23 20:06:30.192650,42.69,48.236731,0.0009451553255896806,-0.023479709566915436,0.09779897304849887,40.106058693909645,-96.25519929585457,68.18063240997792
2024-09-23 20:06:30.203866,42.69,48.236781,0.0009948937421727254,-0.023479709566915436,0.09779897304849887,44.11764879391193,-96.25519929585457,76.200527287817
2024-09-23 20:06:30.245980,42.69,48.236781,0.0009948937421727254,-0.02308174982955575,0.09759999317981902,48.12595698684454,-96.25519929585457,76.200527287817
2024-09-23 20:06:30.257304,42.69,48.236875,0.0009948937421727254,-0.02308174982955575,0.09759999317981902,48.12595698684454,-100.26678939585686,80.21211738781929
2024-09-23 20:06:30.300090,42.69,48.236875,0.0006466830067647949,-0.02367869399252531,0.09750050628343246,44.11764879391193,-108.28669110388756,76.200527287817
2024-09-23 20:06:30.343225,42.69,48.236926,0.0009451553255896806,-0.023230986250042305,0.09750050628343246,44.11764879391193,-108.28669110388756,76.200527287817
2024-09-23 20:06:30.395747,42.69,48.236977,0.0009451553255896806,-0.022584292562972758,0.09750050628343246,36.09446859390736,-100.26678939585686,72.1922225099802
2024-09-23 20:06:30.438562,42.69,48.236977,0.0009451553255896806,-0.022584292562972758,0.09740101331113918,44.11764879391193,-100.26678939585686,72.1922225099802
2024-09-23 20:06:30.450022,42.69,48.237071,0.0006964318663124887,-0.022584292562972758,0.09740101331113918,44.11764879391193,-96.25519929585457,76.200527287817
2024-09-23 20:06:30.492820,42.69,48.237122,0.0006964318663124887,-0.023230986250042305,0.0976994861521123,44.11764879391193,-92.24360919585227,72.1922225099802
2024-09-23 20:06:30.535933,42.69,48.237122,0.0008954064660419869,-0.02313149783467906,0.0976994861521123,44.11764879391193,-92.24360919585227,72.1922225099802
2024-09-23 20:06:30.547274,42.69,48.237122,0.0008954064660419869,-0.02313149783467906,0.09725178296655933,44.11764879391193,-88.23529758782387,76.200527287817
2024-09-23 20:06:30.590706,42.69,48.237173,0.0005969341946851222,-0.02293251340906919,0.09720203344245934,40.106058693909645,-88.23529758782387,76.200527287817
2024-09-23 20:06:30.602614,42.69,48.237173,0.0005969341946851222,-0.02293251340906919,0.09720203344245934,40.106058693909645,-92.24360919585227,76.200527287817
2024-09-23 20:06:30.635832,42.69,48.237266,0.000845657606494293,-0.02293251340906919,0.09720203344245934,40.106058693909645,-92.24360919585227,80.21211738781929
2024-09-23 20:06:30.647215,42.69,48.237266,0.000845657606494293,-0.022982261414192504,0.09755024973162574,44.11764879391193,-92.24360919585227,80.21211738781929
2024-09-23 20:06:30.690019,42.69,48.237317,0.0004974468710863627,-0.02313149783467906,0.0973015264147526,44.11764879391193,-104.27510100388527,64.16903547978401
2024-09-23 20:06:30.733029,42.69,48.237368,0.0004974468710863627,-0.02313149783467906,0.0973015264147526,44.11764879391193,-96.25519929585457,72.1922225099802
2024-09-23 20:06:30.744680,42.69,48.237368,0.0008954064660419869,-0.0228827638849692,0.0973015264147526,44.11764879391193,-96.25519929585457,72.1922225099802
2024-09-23 20:06:30.787052,42.69,48.237418,0.0005969341946851222,-0.0228827638849692,0.09720203344245934,44.11764879391193,-92.24360919585227,76.200527287817
2024-09-23 20:06:30.880899,42.69,48.237418,0.0005969341946851222,-0.022833026512682618,0.09695331012558621,36.09446859390736,-100.26678939585686,76.200527287817
2024-09-23 20:06:30.892218,42.69,48.237508,0.0005969341946851222,-0.022833026512682618,0.09695331012558621,36.09446859390736,-100.26678939585686,76.200527287817
2024-09-23 20:06:30.924245,42.33,48.237508,0.001044642601720419,-0.022833026512682618,0.09695331012558621,36.09446859390736,-100.26678939585686,76.200527287817
2024-09-23 20:06:30.936246,42.33,48.237508,0.001044642601720419,-0.02293251340906919,0.09705279702197278,40.106058693909645,-96.25519929585457,76.200527287817
2024-09-23 20:06:30.978070,42.33,48.237561,0.0008954064660419869,-0.023330473146428877,0.09705279702197278,40.106058693909645,-96.25519929585457,76.200527287817
2024-09-23 20:06:30.989164,42.33,48.237561,0.0008954064660419869,-0.023330473146428877,0.09695331012558621,40.106058693909645,-88.23529758782387,76.200527287817
2024-09-23 20:06:31.022500,42.33,48.237561,0.0008954064660419869,-0.023330473146428877,0.09695331012558621,40.106058693909645,-88.23529758782387,76.200527287817
2024-09-23 20:06:31.033843,42.33,48.237611,0.0005969341946851222,-0.02362894446842532,0.09789846602079214,32.08287849390507,-88.23529758782387,76.200527287817
2024-09-23 20:06:31.075992,42.33,48.237662,0.00029846189959424716,-0.023429960042815445,0.09789846602079214,32.08287849390507,-96.25519929585457,80.21211738781929
2024-09-23 20:06:31.087626,42.33,48.237662,0.00029846189959424716,-0.023429960042815445,0.09720203344245934,32.08287849390507,-96.25519929585457,80.21211738781929
2024-09-23 20:06:31.120283,42.33,48.237662,0.00029846189959424716,-0.023429960042815445,0.09720203344245934,36.09446859390736,-92.24360919585227,80.21211738781929
2024-09-23 20:06:31.132029,42.33,48.237754,0.0011441298778511575,-0.02293251340906919,0.09720203344245934,36.09446859390736,-92.24360919585227,76.200527287817
2024-09-23 20:06:31.174102,42.33,48.237805,0.0011441298778511575,-0.02293251340906919,0.09799795899308542,48.12595698684454,-100.26678939585686,76.200527287817
2024-09-23 20:06:31.185792,42.33,48.237805,0.0009948937421727254,-0.02293251340906919,0.09799795899308542,48.12595698684454,-100.26678939585686,76.200527287817
2024-09-23 20:06:31.217788,42.33,48.237805,0.0009948937421727254,-0.02293251340906919,0.09685382322919964,48.12595698684454,-100.26678939585686,76.200527287817
2024-09-23 20:06:31.229203,42.33,48.237898,0.0009948937421727254,-0.02293251340906919,0.09685382322919964,44.11764879391193,-96.25519929585457,72.1922225099802
2024-09-23 20:06:31.271420,42.33,48.237898,0.000845657606494293,-0.02293251340906919,0.09779897304849887,44.11764879391193,-92.24360919585227,72.1922225099802
2024-09-23 20:06:31.283052,42.33,48.237898,0.000845657606494293,-0.02293251340906919,0.09779897304849887,44.11764879391193,-92.24360919585227,68.18063240997792
2024-09-23 20:06:31.315245,42.33,48.23795,0.0005969341946851222,-0.02293251340906919,0.09779897304849887,44.11764879391193,-92.24360919585227,68.18063240997792
2024-09-23 20:06:31.327226,42.33,48.23795,0.0005969341946851222,-0.022833026512682618,0.0970030596496862,48.12595698684454,-92.24360919585227,68.18063240997792
2024-09-23 20:06:31.369630,42.33,48.238001,9.948729986474904e-05,-0.02303200030545576,0.0973015264147526,48.12595698684454,-92.24360919585227,72.1922225099802
2024-09-23 20:06:31.381856,42.33,48.238001,9.948729986474904e-05,-0.02303200030545576,0.0973015264147526,52.137550501942634,-92.24360919585227,72.1922225099802
2024-09-23 20:06:31.414778,42.33,48.238051,9.948729986474904e-05,-0.02303200030545576,0.0973015264147526,52.137550501942634,-92.24360919585227,84.22370748782159
2024-09-23 20:06:31.426372,42.33,48.238051,0.0007461703303635545,-0.02303200030545576,0.09725178296655933,52.137550501942634,-92.24360919585227,84.22370748782159
2024-09-23 20:06:31.469125,42.33,48.238102,0.0006964318663124887,-0.02268379009219606,0.09725178296655933,48.12595698684454,-96.25519929585457,80.21211738781929
2024-09-23 20:06:31.512805,42.33,48.238102,0.0006964318663124887,-0.02268379009219606,0.0970030596496862,40.106058693909645,-96.25519929585457,80.21211738781929
2024-09-23 20:06:31.526829,42.33,48.238153,0.0012436275969465451,-0.02268379009219606,0.0970030596496862,40.106058693909645,-96.25519929585457,72.1922225099802
2024-09-23 20:06:31.559018,42.33,48.238153,0.0012436275969465451,-0.023429960042815445,0.0970030596496862,40.106058693909645,-96.25519929585457,72.1922225099802
2024-09-23 20:06:31.570785,42.33,48.23824,0.0012436275969465451,-0.023429960042815445,0.09745075675933246,44.11764879391193,-88.23529758782387,80.21211738781929
2024-09-23 20:06:31.613370,42.33,48.23824,0.0010943914612681128,-0.02308174982955575,0.09779897304849887,44.11764879391193,-88.23529758782387,80.21211738781929
2024-09-23 20:06:31.625647,42.33,48.23824,0.0010943914612681128,-0.02308174982955575,0.09779897304849887,44.11764879391193,-88.23529758782387,80.21211738781929
2024-09-23 20:06:31.658693,42.33,48.238292,0.0007959191899112484,-0.023181236725942318,0.09779897304849887,44.11764879391193,-88.23529758782387,80.21211738781929
2024-09-23 20:06:31.670242,42.33,48.238292,0.0007959191899112484,-0.023181236725942318,0.09774922960030558,44.11764879391193,-88.23529758782387,80.21211738781929
2024-09-23 20:06:31.713040,42.33,48.238343,0.00034821073540793035,-0.022733528983459317,0.09690356060148622,44.11764879391193,-88.23529758782387,84.22370748782159
2024-09-23 20:06:31.754888,42.33,48.238343,0.00034821073540793035,-0.022733528983459317,0.09690356060148622,44.11764879391193,-92.24360919585227,80.21211738781929
2024-09-23 20:06:31.767044,42.33,48.238393,0.001044642601720419,-0.023230986250042305,0.09755024973162574,44.11764879391193,-92.24360919585227,80.21211738781929
2024-09-23 20:06:31.809762,42.33,48.238444,0.0010943914612681128,-0.023230986250042305,0.09755024973162574,40.106058693909645,-96.25519929585457,80.21211738781929
2024-09-23 20:06:31.821234,42.33,48.238444,0.0010943914612681128,-0.023280723622328886,0.09755024973162574,40.106058693909645,-96.25519929585457,80.21211738781929
2024-09-23 20:06:31.853397,42.33,48.238444,0.0010943914612681128,-0.023280723622328886,0.09755024973162574,44.11764879391193,-92.24360919585227,80.21211738781929
2024-09-23 20:06:31.866085,42.33,48.238495,0.000845657606494293,-0.023280723622328886,0.09755024973162574,44.11764879391193,-92.24360919585227,76.200527287817
2024-09-23 20:06:31.898382,42.33,48.238495,0.000845657606494293,-0.023280723622328886,0.09755024973162574,44.11764879391193,-92.24360919585227,76.200527287817
2024-09-23 20:06:31.910268,42.33,48.238581,0.000845657606494293,-0.023280723622328886,0.09725178296655933,40.106058693909645,-92.24360919585227,76.200527287817
2024-09-23 20:06:31.952746,42.57,48.238581,0.0007461703303635545,-0.0228827638849692,0.0973015264147526,36.09446859390736,-92.24360919585227,76.200527287817
2024-09-23 20:06:31.964576,42.57,48.238581,0.0007461703303635545,-0.0228827638849692,0.0973015264147526,36.09446859390736,-84.22370748782159,80.21211738781929
2024-09-23 20:06:31.997581,42.57,48.238633,0.0007461703303635545,-0.0228827638849692,0.0973015264147526,36.09446859390736,-84.22370748782159,80.21211738781929
2024-09-23 20:06:32.009755,42.57,48.238633,0.0005471957306340564,-0.023330473146428877,0.09755024973162574,48.12595698684454,-88.23529758782387,80.21211738781929
2024-09-23 20:06:32.052174,42.57,48.238683,0.0008954064660419869,-0.0228827638849692,0.0973512698629459,48.12595698684454,-88.23529758782387,76.200527287817
2024-09-23 20:06:32.064364,42.57,48.238683,0.0008954064660419869,-0.0228827638849692,0.0973512698629459,48.12595698684454,-88.23529758782387,76.200527287817
2024-09-23 20:06:32.096261,42.57,48.238683,0.0008954064660419869,-0.0228827638849692,0.0973512698629459,48.12595698684454,-96.25519929585457,76.200527287817
2024-09-23 20:06:32.107670,42.57,48.238734,0.0005969341946851222,-0.02338022115155219,0.0973512698629459,48.12595698684454,-96.25519929585457,76.200527287817
2024-09-23 20:06:32.150382,42.57,48.238785,0.0007461703303635545,-0.02313149783467906,0.0973512698629459,44.11764879391193,-92.24360919585227,76.200527287817
2024-09-23 20:06:32.193653,42.57,48.238785,0.0007461703303635545,-0.02313149783467906,0.09750050628343246,44.11764879391193,-92.24360919585227,76.200527287817
2024-09-23 20:06:32.205539,42.57,48.238835,0.0013431148730772837,-0.02313149783467906,0.09750050628343246,44.11764879391193,-96.25519929585457,72.1922225099802
2024-09-23 20:06:32.249045,42.57,48.238922,0.0013431148730772837,-0.02303200030545576,0.09759999317981902,48.12595698684454,-92.24360919585227,80.21211738781929
2024-09-23 20:06:32.291850,42.57,48.238922,0.0007959191899112484,-0.02338022115155219,0.09720203344245934,48.12595698684454,-92.24360919585227,80.21211738781929
2024-09-23 20:06:32.302963,42.57,48.238922,0.0007959191899112484,-0.02338022115155219,0.09720203344245934,40.106058693909645,-96.25519929585457,72.1922225099802
2024-09-23 20:06:32.345245,42.57,48.238974,0.0007959191899112484,-0.023429960042815445,0.0973015264147526,44.11764879391193,-96.25519929585457,72.1922225099802
2024-09-23 20:06:32.357274,42.57,48.238974,0.0007959191899112484,-0.023429960042815445,0.0973015264147526,44.11764879391193,-96.25519929585457,72.1922225099802
2024-09-23 20:06:32.390335,42.57,48.239024,0.0007959191899112484,-0.023429960042815445,0.0973015264147526,44.11764879391193,-96.25519929585457,80.21211738781929
2024-09-23 20:06:32.401865,42.57,48.239024,0.0007959191899112484,-0.02352945757203875,0.09750050628343246,40.106058693909645,-96.25519929585457,80.21211738781929
2024-09-23 20:06:32.444070,42.57,48.239075,0.0009948937421727254,-0.023230986250042305,0.09774922960030558,40.106058693909645,-92.24360919585227,76.200527287817
2024-09-23 20:06:32.487341,42.57,48.239075,0.0009948937421727254,-0.023230986250042305,0.09774922960030558,44.11764879391193,-92.24360919585227,72.1922225099802
2024-09-23 20:06:32.498978,42.57,48.239126,0.000845657606494293,-0.023230986250042305,0.09774922960030558,44.11764879391193,-92.24360919585227,72.1922225099802
2024-09-23 20:06:32.541467,42.57,48.239176,0.000845657606494293,-0.023230986250042305,0.09784872257259886,48.12595698684454,-96.25519929585457,80.21211738781929
2024-09-23 20:06:32.553359,42.57,48.239176,0.00024872343554318134,-0.023230986250042305,0.09784872257259886,48.12595698684454,-96.25519929585457,80.21211738781929
2024-09-23 20:06:32.586098,42.57,48.239176,0.00024872343554318134,-0.02338022115155219,0.09755024973162574,40.106058693909645,-88.23529758782387,80.21211738781929
2024-09-23 20:06:32.597218,42.57,48.239264,0.00024872343554318134,-0.02338022115155219,0.09755024973162574,40.106058693909645,-88.23529758782387,80.21211738781929
2024-09-23 20:06:32.629645,42.57,48.239264,0.0001989745997294981,-0.02338022115155219,0.09755024973162574,40.106058693909645,-88.23529758782387,80.21211738781929
2024-09-23 20:06:32.640692,42.57,48.239264,0.0001989745997294981,-0.023280723622328886,0.0973015264147526,48.12595698684454,-96.25519929585457,80.21211738781929
2024-09-23 20:06:32.683000,42.57,48.239315,0.0012436275969465451,-0.023280723622328886,0.0973015264147526,48.12595698684454,-96.25519929585457,80.21211738781929
2024-09-23 20:06:32.694513,42.57,48.239315,0.0012436275969465451,-0.023579196463302005,0.09759999317981902,44.11764879391193,-96.25519929585457,80.21211738781929
2024-09-23 20:06:32.729688,42.57,48.239366,0.0012436275969465451,-0.023579196463302005,0.09759999317981902,44.11764879391193,-96.25519929585457,76.200527287817
2024-09-23 20:06:32.741769,42.57,48.239366,0.0009948937421727254,-0.023181236725942318,0.09750050628343246,40.106058693909645,-96.25519929585457,76.200527287817
2024-09-23 20:06:32.784450,42.57,48.239416,0.0010943914612681128,-0.023280723622328886,0.0973512698629459,40.106058693909645,-100.26678939585686,80.21211738781929
2024-09-23 20:06:32.826757,42.57,48.239416,0.0010943914612681128,-0.023280723622328886,0.0973512698629459,40.106058693909645,-88.23529758782387,80.21211738781929
2024-09-23 20:06:32.838346,42.57,48.239467,0.0008954064660419869,-0.02303200030545576,0.0973512698629459,40.106058693909645,-88.23529758782387,76.200527287817
2024-09-23 20:06:32.922398,42.57,48.239467,0.0008954064660419869,-0.02303200030545576,0.09824668230995855,40.106058693909645,-88.23529758782387,76.200527287817
2024-09-23 20:06:32.934121,42.57,48.239518,0.0005471957306340564,-0.02303200030545576,0.09824668230995855,48.12595698684454,-88.23529758782387,80.21211738781929
2024-09-23 20:06:32.976212,42.56,48.239518,0.0005471957306340564,-0.02308174982955575,0.09720203344245934,40.106058693909645,-96.25519929585457,80.21211738781929
2024-09-23 20:06:32.987918,42.56,48.239605,0.0005471957306340564,-0.02308174982955575,0.09720203344245934,40.106058693909645,-96.25519929585457,80.21211738781929
2024-09-23 20:06:33.019972,42.56,48.239605,0.0008954064660419869,-0.02308174982955575,0.09720203344245934,40.106058693909645,-96.25519929585457,80.21211738781929
2024-09-23 20:06:33.031043,42.56,48.239605,0.0008954064660419869,-0.02303200030545576,0.09764974270391902,48.12595698684454,-96.25519929585457,72.1922225099802
2024-09-23 20:06:33.074129,42.56,48.239656,0.0007461703303635545,-0.023280723622328886,0.09764974270391902,48.12595698684454,-96.25519929585457,72.1922225099802
2024-09-23 20:06:33.085352,42.56,48.239656,0.0007461703303635545,-0.023280723622328886,0.09755024973162574,44.11764879391193,-92.24360919585227,72.1922225099802
2024-09-23 20:06:33.118201,42.56,48.239656,0.0007461703303635545,-0.023280723622328886,0.09755024973162574,44.11764879391193,-92.24360919585227,68.18063240997792
2024-09-23 20:06:33.129563,42.56,48.239707,0.0006964318663124887,-0.02293251340906919,0.09745075675933246,32.08287849390507,-92.24360919585227,68.18063240997792
2024-09-23 20:06:33.171221,42.56,48.239802,0.0013431148730772837,-0.02293251340906919,0.09745075675933246,32.08287849390507,-88.23529758782387,72.1922225099802
2024-09-23 20:06:33.182877,42.56,48.239802,0.0013431148730772837,-0.02338022115155219,0.09725178296655933,32.08287849390507,-88.23529758782387,72.1922225099802
2024-09-23 20:06:33.217098,42.56,48.239802,0.0013431148730772837,-0.02338022115155219,0.09725178296655933,44.11764879391193,-88.23529758782387,72.1922225099802
2024-09-23 20:06:33.229184,42.56,48.239852,0.0006964318663124887,-0.02352945757203875,0.09725178296655933,44.11764879391193,-88.23529758782387,76.200527287817
2024-09-23 20:06:33.272750,42.56,48.239903,0.0008954064660419869,-0.02352945757203875,0.09710254654607277,32.08287849390507,-88.23529758782387,80.21211738781929
2024-09-23 20:06:33.316040,42.56,48.239903,0.0008954064660419869,-0.02303200030545576,0.09720203344245934,44.11764879391193,-88.23529758782387,80.21211738781929
2024-09-23 20:06:33.327560,42.56,48.239995,0.0008954064660419869,-0.02303200030545576,0.09720203344245934,44.11764879391193,-88.23529758782387,76.200527287817
2024-09-23 20:06:33.370250,42.56,48.239995,0.0009451553255896806,-0.023230986250042305,0.0970030596496862,48.12595698684454,-92.24360919585227,76.200527287817
2024-09-23 20:06:33.412423,42.56,48.240046,0.0006466830067647949,-0.023230986250042305,0.0970030596496862,48.12595698684454,-92.24360919585227,76.200527287817
2024-09-23 20:06:33.424178,42.56,48.240046,0.0006466830067647949,-0.02352945757203875,0.09784872257259886,44.11764879391193,-96.25519929585457,76.200527287817
2024-09-23 20:06:33.467942,42.56,48.240097,0.0005969341946851222,-0.02338022115155219,0.09834616920634512,48.12595698684454,-96.25519929585457,80.21211738781929
2024-09-23 20:06:33.511318,42.56,48.240148,0.0005969341946851222,-0.02338022115155219,0.09834616920634512,48.12595698684454,-92.24360919585227,68.18063240997792
2024-09-23 20:06:33.523118,42.56,48.240148,0.0001989745997294981,-0.02367869399252531,0.09794820946898543,48.12595698684454,-92.24360919585227,68.18063240997792
2024-09-23 20:06:33.565235,42.56,48.240148,0.0001989745997294981,-0.02367869399252531,0.09794820946898543,44.11764879391193,-100.26678939585686,80.21211738781929
2024-09-23 20:06:33.607469,42.56,48.240198,0.00044769805900669,-0.02367869399252531,0.09794820946898543,44.11764879391193,-100.26678939585686,80.21211738781929
2024-09-23 20:06:33.619164,42.56,48.240198,0.00044769805900669,-0.022982261414192504,0.09799795899308542,40.106058693909645,-88.23529758782387,80.21211738781929
2024-09-23 20:06:33.662027,42.56,48.240249,0.0006466830067647949,-0.02263404056809607,0.09695331012558621,40.106058693909645,-88.23529758782387,72.1922225099802
2024-09-23 20:06:33.674057,42.56,48.240249,0.0006466830067647949,-0.02263404056809607,0.09695331012558621,36.09446859390736,-88.23529758782387,72.1922225099802
2024-09-23 20:06:33.706285,42.56,48.240336,0.0006466830067647949,-0.02263404056809607,0.09695331012558621,36.09446859390736,-96.25519929585457,76.200527287817
2024-09-23 20:06:33.717846,42.56,48.240336,0.0010943914612681128,-0.023280723622328886,0.098047696365372,36.09446859390736,-96.25519929585457,76.200527287817
2024-09-23 20:06:33.760552,42.56,48.240388,0.0009451553255896806,-0.0228827638849692,0.098047696365372,40.106058693909645,-92.24360919585227,84.22370748782159
2024-09-23 20:06:33.802359,42.56,48.240388,0.0009451553255896806,-0.0228827638849692,0.09764974270391902,44.11764879391193,-92.24360919585227,84.22370748782159
2024-09-23 20:06:33.813642,42.56,48.240438,0.000845657606494293,-0.0228827638849692,0.09764974270391902,44.11764879391193,-88.23529758782387,76.200527287817
2024-09-23 20:06:33.856653,42.56,48.240531,0.000845657606494293,-0.022982261414192504,0.09740101331113918,40.106058693909645,-96.25519929585457,72.1922225099802
2024-09-23 20:06:33.899648,42.56,48.240531,0.00044769805900669,-0.023230986250042305,0.09740101331113918,40.106058693909645,-96.25519929585457,72.1922225099802
2024-09-23 20:06:33.911247,42.56,48.240531,0.00044769805900669,-0.023230986250042305,0.09720203344245934,48.12595698684454,-96.25519929585457,72.1922225099802
2024-09-23 20:06:33.953241,42.56,48.240583,0.0006964318663124887,-0.023280723622328886,0.0976994861521123,48.12595698684454,-96.25519929585457,72.1922225099802
2024-09-23 20:06:33.966049,42.56,48.240583,0.0006964318663124887,-0.023280723622328886,0.0976994861521123,48.12595698684454,-100.26678939585686,72.1922225099802
2024-09-23 20:06:33.998812,42.29,48.240633,0.0007461703303635545,-0.023280723622328886,0.0976994861521123,48.12595698684454,-100.26678939585686,72.1922225099802
2024-09-23 20:06:34.009767,42.29,48.240633,0.0007461703303635545,-0.02338022115155219,0.09755024973162574,36.09446859390736,-100.26678939585686,72.1922225099802
2024-09-23 20:06:34.053865,42.29,48.240684,0.0011938787373988514,-0.02308174982955575,0.09740101331113918,36.09446859390736,-96.25519929585457,76.200527287817
2024-09-23 20:06:34.096655,42.29,48.240684,0.0011938787373988514,-0.02308174982955575,0.09740101331113918,36.09446859390736,-84.22370748782159,84.22370748782159
2024-09-23 20:06:34.108148,42.29,48.240735,0.001044642601720419,-0.023479709566915436,0.09740101331113918,36.09446859390736,-84.22370748782159,84.22370748782159
2024-09-23 20:06:34.151206,42.29,48.240785,0.0006964318663124887,-0.023479709566915436,0.0976994861521123,48.12595698684454,-92.24360919585227,76.200527287817
2024-09-23 20:06:34.193950,42.29,48.240785,0.0006964318663124887,-0.022833026512682618,0.09789846602079214,48.12595698684454,-92.24360919585227,76.200527287817
2024-09-23 20:06:34.206666,42.29,48.240785,0.0006964318663124887,-0.022833026512682618,0.09789846602079214,44.11764879391193,-96.25519929585457,76.200527287817
2024-09-23 20:06:34.240125,42.29,48.240872,0.0006964318663124887,-0.022833026512682618,0.09789846602079214,44.11764879391193,-96.25519929585457,76.200527287817
2024-09-23 20:06:34.251634,42.29,48.240872,0.000845657606494293,-0.02352945757203875,0.09750050628343246,48.12595698684454,-84.22370748782159,76.200527287817
2024-09-23 20:06:34.293302,42.29,48.240924,0.0003979595949556242,-0.02303200030545576,0.09750050628343246,48.12595698684454,-84.22370748782159,76.200527287817
2024-09-23 20:06:34.304353,42.29,48.240924,0.0003979595949556242,-0.02303200030545576,0.09675432418099966,44.11764879391193,-84.22370748782159,76.200527287817
2024-09-23 20:06:34.335772,42.29,48.240924,0.0003979595949556242,-0.02303200030545576,0.09675432418099966,44.11764879391193,-92.24360919585227,76.200527287817
2024-09-23 20:06:34.347644,42.29,48.240974,0.000845657606494293,-0.02293251340906919,0.09755024973162574,44.11764879391193,-92.24360919585227,80.21211738781929
2024-09-23 20:06:34.389951,42.29,48.241025,0.000845657606494293,-0.02293251340906919,0.09755024973162574,44.11764879391193,-96.25519929585457,76.200527287817
2024-09-23 20:06:34.401263,42.29,48.241025,0.0009451553255896806,-0.02308174982955575,0.09755024973162574,44.11764879391193,-96.25519929585457,76.200527287817
2024-09-23 20:06:34.444184,42.29,48.241076,0.0008954064660419869,-0.02308174982955575,0.09740101331113918,44.11764879391193,-92.24360919585227,76.200527287817
2024-09-23 20:06:34.488486,42.29,48.241076,0.0008954064660419869,-0.02308174982955575,0.09779897304849887,44.11764879391193,-96.25519929585457,76.200527287817
2024-09-23 20:06:34.499510,42.29,48.241165,0.0008954064660419869,-0.02308174982955575,0.09779897304849887,44.11764879391193,-96.25519929585457,80.21211738781929
2024-09-23 20:06:34.531129,42.29,48.241165,0.000845657606494293,-0.02308174982955575,0.09779897304849887,44.11764879391193,-96.25519929585457,80.21211738781929
2024-09-23 20:06:34.542857,42.29,48.241165,0.000845657606494293,-0.02338022115155219,0.09755024973162574,40.106058693909645,-92.24360919585227,80.21211738781929
2024-09-23 20:06:34.585231,42.29,48.241216,0.0009451553255896806,-0.022982261414192504,0.0973015264147526,40.106058693909645,-92.24360919585227,80.21211738781929
2024-09-23 20:06:34.596971,42.29,48.241216,0.0009451553255896806,-0.022982261414192504,0.0973015264147526,48.12595698684454,-92.24360919585227,80.21211738781929
2024-09-23 20:06:34.629894,42.29,48.241216,0.0009451553255896806,-0.022982261414192504,0.0973015264147526,48.12595698684454,-92.24360919585227,76.200527287817
2024-09-23 20:06:34.641328,42.29,48.241267,0.000845657606494293,-0.02308174982955575,0.0970030596496862,44.11764879391193,-92.24360919585227,76.200527287817
2024-09-23 20:06:34.684280,42.29,48.241318,0.0006466830067647949,-0.023230986250042305,0.0970030596496862,44.11764879391193,-88.23529758782387,76.200527287817
2024-09-23 20:06:34.696252,42.29,48.241318,0.0006466830067647949,-0.023230986250042305,0.09725178296655933,44.11764879391193,-88.23529758782387,76.200527287817
2024-09-23 20:06:34.729224,42.29,48.241318,0.0006466830067647949,-0.023230986250042305,0.09725178296655933,44.11764879391193,-84.22370748782159,88.23529758782387
2024-09-23 20:06:34.782659,42.29,48.241368,0.0010943914612681128,-0.022833026512682618,0.09745075675933246,32.08287849390507,-88.23529758782387,88.23529758782387
2024-09-23 20:06:34.825964,42.29,48.241419,0.0010943914612681128,-0.022833026512682618,0.09745075675933246,32.08287849390507,-88.23529758782387,84.22370748782159
2024-09-23 20:06:34.837238,42.29,48.241419,0.0006964318663124887,-0.023230986250042305,0.09690356060148622,52.137550501942634,-88.23529758782387,84.22370748782159
2024-09-23 20:06:34.879662,42.29,48.241506,0.0007959191899112484,-0.02263404056809607,0.09690356060148622,52.137550501942634,-92.24360919585227,76.200527287817
2024-09-23 20:06:34.891557,42.29,48.241506,0.0007959191899112484,-0.02263404056809607,0.0976994861521123,52.137550501942634,-92.24360919585227,76.200527287817
2024-09-23 20:06:34.923942,42.29,48.241506,0.0007959191899112484,-0.02263404056809607,0.0976994861521123,48.12595698684454,-88.23529758782387,76.200527287817
2024-09-23 20:06:34.935023,42.29,48.241558,0.000845657606494293,-0.023728432883788564,0.0976994861521123,48.12595698684454,-88.23529758782387,80.21211738781929
2024-09-23 20:06:34.977454,42.29,48.241608,0.000845657606494293,-0.023728432883788564,0.09710254654607277,36.09446859390736,-96.25519929585457,76.200527287817
2024-09-23 20:06:34.989821,42.29,48.241608,0.0004974468710863627,-0.023728432883788564,0.09710254654607277,36.09446859390736,-96.25519929585457,76.200527287817
2024-09-23 20:06:35.022643,42.22,48.241608,0.0004974468710863627,-0.02362894446842532,0.09755024973162574,40.106058693909645,-96.25519929585457,76.200527287817
2024-09-23 20:06:35.034347,42.22,48.241701,0.0004974468710863627,-0.02362894446842532,0.09755024973162574,40.106058693909645,-92.24360919585227,76.200527287817
2024-09-23 20:06:35.077479,42.22,48.241701,0.0009948937421727254,-0.02308174982955575,0.0976994861521123,44.11764879391193,-92.24360919585227,80.21211738781929
2024-09-23 20:06:35.120491,42.22,48.241753,0.0007461703303635545,-0.02278327698858263,0.0976994861521123,44.11764879391193,-92.24360919585227,80.21211738781929
2024-09-23 20:06:35.131723,42.22,48.241753,0.0007461703303635545,-0.02278327698858263,0.09814718933766527,44.11764879391193,-92.24360919585227,80.21211738781929
2024-09-23 20:06:35.174077,42.22,48.241803,0.0006964318663124887,-0.023778180888911878,0.09715228999426605,44.11764879391193,-92.24360919585227,80.21211738781929
2024-09-23 20:06:35.217412,42.22,48.241854,0.0006964318663124887,-0.023778180888911878,0.09715228999426605,44.11764879391193,-88.23529758782387,80.21211738781929
2024-09-23 20:06:35.229012,42.22,48.241854,0.0004974468710863627,-0.023579196463302005,0.0970030596496862,44.11764879391193,-88.23529758782387,80.21211738781929
2024-09-23 20:06:35.272092,42.22,48.241905,0.0005471957306340564,-0.023479709566915436,0.0970030596496862,40.106058693909645,-96.25519929585457,76.200527287817
2024-09-23 20:06:35.314726,42.22,48.241905,0.0005471957306340564,-0.023479709566915436,0.0973512698629459,36.09446859390736,-96.25519929585457,76.200527287817
2024-09-23 20:06:35.368068,42.22,48.241955,0.00034821073540793035,-0.022833026512682618,0.09725178296655933,36.09446859390736,-104.27510100388527,76.200527287817
2024-09-23 20:06:35.411132,42.22,48.241955,0.00034821073540793035,-0.022833026512682618,0.09725178296655933,40.106058693909645,-96.25519929585457,76.200527287817
2024-09-23 20:06:35.422238,42.22,48.242042,0.0006964318663124887,-0.023429960042815445,0.09725178296655933,40.106058693909645,-96.25519929585457,80.21211738781929
2024-09-23 20:06:35.464703,42.22,48.242094,0.0006964318663124887,-0.023429960042815445,0.09740101331113918,44.11764879391193,-100.26678939585686,76.200527287817
2024-09-23 20:06:35.476674,42.22,48.242094,0.0006466830067647949,-0.023429960042815445,0.09740101331113918,44.11764879391193,-100.26678939585686,76.200527287817
2024-09-23 20:06:35.508542,42.22,48.242094,0.0006466830067647949,-0.02313149783467906,0.09740101331113918,44.11764879391193,-100.26678939585686,76.200527287817
2024-09-23 20:06:35.520007,42.22,48.242145,0.0006466830067647949,-0.02313149783467906,0.09740101331113918,44.11764879391193,-92.24360919585227,72.1922225099802
2024-09-23 20:06:35.563001,42.22,48.242145,0.0009948937421727254,-0.023827930413011865,0.09745075675933246,32.08287849390507,-88.23529758782387,72.1922225099802
2024-09-23 20:06:35.605362,42.22,48.242238,0.0006466830067647949,-0.023827930413011865,0.09745075675933246,32.08287849390507,-88.23529758782387,72.1922225099802
2024-09-23 20:06:35.617267,42.22,48.242238,0.0006466830067647949,-0.023479709566915436,0.09725178296655933,44.11764879391193,-96.25519929585457,72.1922225099802
2024-09-23 20:06:35.660367,42.22,48.242289,0.0004974468710863627,-0.023330473146428877,0.09715228999426605,40.106058693909645,-96.25519929585457,72.1922225099802
2024-09-23 20:06:35.703859,42.22,48.242289,0.0004974468710863627,-0.023330473146428877,0.09715228999426605,40.106058693909645,-92.24360919585227,72.1922225099802
2024-09-23 20:06:35.715282,42.22,48.24234,0.0001989745997294981,-0.022982261414192504,0.0973015264147526,40.106058693909645,-92.24360919585227,72.1922225099802
2024-09-23 20:06:35.758793,42.22,48.242391,-0.00014922575204880957,-0.02367869399252531,0.0973015264147526,48.12595698684454,-92.24360919585227,80.21211738781929
2024-09-23 20:06:35.802414,42.22,48.242391,-0.00014922575204880957,-0.02367869399252531,0.09725178296655933,40.106058693909645,-92.24360919585227,80.21211738781929
2024-09-23 20:06:35.813298,42.22,48.242441,0.0007461703303635545,-0.02367869399252531,0.09725178296655933,40.106058693909645,-92.24360919585227,80.21211738781929
2024-09-23 20:06:35.855818,42.22,48.242441,0.0007461703303635545,-0.023181236725942318,0.09784872257259886,36.09446859390736,-100.26678939585686,76.200527287817
2024-09-23 20:06:35.867787,42.22,48.24253,0.0007461703303635545,-0.023181236725942318,0.09784872257259886,36.09446859390736,-100.26678939585686,76.200527287817
2024-09-23 20:06:35.952354,42.22,48.24253,0.0005471957306340564,-0.023181236725942318,0.09690356060148622,48.12595698684454,-100.26678939585686,76.200527287817
2024-09-23 20:06:35.964103,42.22,48.24253,0.0005471957306340564,-0.023181236725942318,0.09690356060148622,48.12595698684454,-100.26678939585686,72.1922225099802
2024-09-23 20:06:35.996525,42.22,48.242581,0.0007461703303635545,-0.023181236725942318,0.09690356060148622,48.12595698684454,-100.26678939585686,72.1922225099802
2024-09-23 20:06:36.007587,42.22,48.242581,0.0007461703303635545,-0.02338022115155219,0.09794820946898543,44.11764879391193,-96.25519929585457,72.1922225099802
2024-09-23 20:06:36.049644,41.91,48.242632,0.0009948937421727254,-0.02313149783467906,0.09665483728461309,44.11764879391193,-96.25519929585457,76.200527287817
2024-09-23 20:06:36.062374,41.91,48.242632,0.0009948937421727254,-0.02313149783467906,0.09665483728461309,40.106058693909645,-96.25519929585457,76.200527287817
2024-09-23 20:06:36.094824,41.91,48.242683,0.0009948937421727254,-0.02313149783467906,0.09665483728461309,40.106058693909645,-92.24360919585227,80.21211738781929
2024-09-23 20:06:36.107595,41.91,48.242683,0.00044769805900669,-0.022733528983459317,0.0973015264147526,40.106058693909645,-92.24360919585227,80.21211738781929
2024-09-23 20:06:36.140250,41.91,48.242683,0.00044769805900669,-0.022733528983459317,0.0973015264147526,36.09446859390736,-92.24360919585227,80.21211738781929
2024-09-23 20:06:36.151408,41.91,48.242733,0.00044769805900669,-0.023181236725942318,0.0973015264147526,36.09446859390736,-92.24360919585227,72.1922225099802
2024-09-23 20:06:36.194377,41.91,48.242733,0.00044769805900669,-0.023181236725942318,0.09715228999426605,44.11764879391193,-100.26678939585686,76.200527287817
2024-09-23 20:06:36.206043,41.91,48.242825,0.00034821073540793035,-0.023181236725942318,0.09715228999426605,44.11764879391193,-100.26678939585686,76.200527287817
2024-09-23 20:06:36.239025,41.91,48.242825,0.00034821073540793035,-0.023429960042815445,0.09715228999426605,44.11764879391193,-100.26678939585686,76.200527287817
2024-09-23 20:06:36.251010,41.91,48.24292,0.00034821073540793035,-0.023429960042815445,0.09720203344245934,52.137550501942634,-96.25519929585457,76.200527287817
2024-09-23 20:06:36.292954,41.91,48.24292,0.0006964318663124887,-0.02303200030545576,0.0973512698629459,52.137550501942634,-96.25519929585457,76.200527287817
2024-09-23 20:06:36.304892,41.91,48.24292,0.0006964318663124887,-0.02303200030545576,0.0973512698629459,52.137550501942634,-96.25519929585457,72.1922225099802
2024-09-23 20:06:36.336698,41.91,48.242971,0.000845657606494293,-0.02303200030545576,0.0973512698629459,52.137550501942634,-96.25519929585457,72.1922225099802
2024-09-23 20:06:36.348295,41.91,48.242971,0.000845657606494293,-0.023330473146428877,0.09670458680871308,40.106058693909645,-100.26678939585686,72.1922225099802
2024-09-23 20:06:36.390571,41.91,48.243022,0.0003979595949556242,-0.02367869399252531,0.09740101331113918,40.106058693909645,-100.26678939585686,68.18063240997792
2024-09-23 20:06:36.402332,41.91,48.243022,0.0003979595949556242,-0.02367869399252531,0.09740101331113918,40.106058693909645,-100.26678939585686,68.18063240997792
2024-09-23 20:06:36.434129,41.91,48.243022,0.0003979595949556242,-0.02367869399252531,0.09740101331113918,40.106058693909645,-96.25519929585457,68.18063240997792
2024-09-23 20:06:36.446092,41.91,48.243073,0.0005969341946851222,-0.022833026512682618,0.09759999317981902,40.106058693909645,-96.25519929585457,76.200527287817
2024-09-23 20:06:36.488505,41.91,48.243123,0.001442602149208022,-0.022833026512682618,0.09759999317981902,40.106058693909645,-96.25519929585457,80.21211738781929
2024-09-23 20:06:36.500473,41.91,48.243123,0.001442602149208022,-0.023330473146428877,0.09759999317981902,40.106058693909645,-96.25519929585457,80.21211738781929
2024-09-23 20:06:36.533189,41.91,48.243123,0.001442602149208022,-0.023330473146428877,0.09779897304849887,36.09446859390736,-96.25519929585457,80.21211738781929
2024-09-23 20:06:36.544475,41.91,48.243174,0.0006466830067647949,-0.023330473146428877,0.09779897304849887,36.09446859390736,-92.24360919585227,76.200527287817
2024-09-23 20:06:36.586675,41.91,48.243261,0.0006466830067647949,-0.02268379009219606,0.09685382322919964,44.11764879391193,-100.26678939585686,76.200527287817
2024-09-23 20:06:36.630012,41.91,48.243261,0.0009948937421727254,-0.02338022115155219,0.09685382322919964,44.11764879391193,-100.26678939585686,76.200527287817
2024-09-23 20:06:36.641042,41.91,48.243261,0.0009948937421727254,-0.02338022115155219,0.09720203344245934,40.106058693909645,-96.25519929585457,76.200527287817
2024-09-23 20:06:36.683620,41.91,48.243313,0.00044769805900669,-0.023230986250042305,0.0973015264147526,40.106058693909645,-96.25519929585457,76.200527287817
2024-09-23 20:06:36.695277,41.91,48.243313,0.00044769805900669,-0.023230986250042305,0.0973015264147526,40.106058693909645,-100.26678939585686,76.200527287817
2024-09-23 20:06:36.727228,41.91,48.243363,0.00044769805900669,-0.023230986250042305,0.0973015264147526,40.106058693909645,-100.26678939585686,72.1922225099802
2024-09-23 20:06:36.739090,41.91,48.243363,0.00034821073540793035,-0.023429960042815445,0.09784872257259886,44.11764879391193,-100.26678939585686,72.1922225099802
2024-09-23 20:06:36.782931,41.91,48.243414,0.0006964318663124887,-0.022833026512682618,0.09745075675933246,44.11764879391193,-88.23529758782387,80.21211738781929
2024-09-23 20:06:36.825671,41.91,48.243414,0.0006964318663124887,-0.022833026512682618,0.09745075675933246,40.106058693909645,-88.23529758782387,76.200527287817
2024-09-23 20:06:36.837865,41.91,48.243465,0.0010943914612681128,-0.023230986250042305,0.09745075675933246,40.106058693909645,-88.23529758782387,76.200527287817
2024-09-23 20:06:36.880533,41.91,48.243515,0.0006466830067647949,-0.023230986250042305,0.09745075675933246,44.11764879391193,-96.25519929585457,72.1922225099802
2024-09-23 20:06:36.922517,41.91,48.243515,0.0006466830067647949,-0.023230986250042305,0.0973512698629459,44.11764879391193,-96.25519929585457,72.1922225099802
2024-09-23 20:06:36.933695,41.91,48.243602,0.0006466830067647949,-0.023230986250042305,0.0973512698629459,44.11764879391193,-92.24360919585227,76.200527287817
2024-09-23 20:06:36.976318,41.91,48.243602,0.0006964318663124887,-0.022982261414192504,0.09720203344245934,44.11764879391193,-92.24360919585227,76.200527287817
2024-09-23 20:06:36.988091,41.91,48.243602,0.0006964318663124887,-0.022982261414192504,0.09720203344245934,44.11764879391193,-92.24360919585227,76.200527287817
2024-09-23 20:06:37.021139,41.91,48.243654,0.0006964318663124887,-0.02338022115155219,0.09720203344245934,44.11764879391193,-92.24360919585227,76.200527287817
2024-09-23 20:06:37.032921,41.91,48.243654,0.0006964318663124887,-0.02338022115155219,0.09690356060148622,44.11764879391193,-92.24360919585227,76.200527287817
2024-09-23 20:06:37.075650,42.57,48.243704,0.0006466830067647949,-0.023181236725942318,0.09755024973162574,32.08287849390507,-92.24360919585227,72.1922225099802
2024-09-23 20:06:37.119928,42.57,48.243755,0.0006466830067647949,-0.023181236725942318,0.09755024973162574,32.08287849390507,-96.25519929585457,76.200527287817
2024-09-23 20:06:37.131170,42.57,48.243755,0.0006466830067647949,-0.02278327698858263,0.09710254654607277,32.08287849390507,-96.25519929585457,76.200527287817
2024-09-23 20:06:37.174782,42.57,48.243806,0.0005471957306340564,-0.023280723622328886,0.09710254654607277,40.106058693909645,-92.24360919585227,72.1922225099802
2024-09-23 20:06:37.216770,42.57,48.243806,0.0005471957306340564,-0.023280723622328886,0.0970030596496862,36.09446859390736,-84.22370748782159,72.1922225099802
2024-09-23 20:06:37.228564,42.57,48.243856,0.0005969341946851222,-0.023280723622328886,0.0970030596496862,36.09446859390736,-84.22370748782159,76.200527287817
2024-09-23 20:06:37.261407,42.57,48.243856,0.0005969341946851222,-0.023280723622328886,0.0970030596496862,36.09446859390736,-84.22370748782159,76.200527287817
2024-09-23 20:06:37.273258,42.57,48.243944,0.0005969341946851222,-0.023280723622328886,0.09720203344245934,44.11764879391193,-92.24360919585227,68.18063240997792
2024-09-23 20:06:37.315902,42.57,48.243944,0.0007959191899112484,-0.023429960042815445,0.09764974270391902,40.106058693909645,-92.24360919585227,68.18063240997792
2024-09-23 20:06:37.327602,42.57,48.243944,0.0007959191899112484,-0.023429960042815445,0.09764974270391902,40.106058693909645,-92.24360919585227,76.200527287817
2024-09-23 20:06:37.360817,42.57,48.243996,0.0011441298778511575,-0.023429960042815445,0.09764974270391902,40.106058693909645,-92.24360919585227,76.200527287817
2024-09-23 20:06:37.372011,42.57,48.243996,0.0011441298778511575,-0.022982261414192504,0.0973015264147526,48.12595698684454,-96.25519929585457,76.200527287817
2024-09-23 20:06:37.415231,42.57,48.244046,0.0005969341946851222,-0.023330473146428877,0.09745075675933246,48.12595698684454,-96.25519929585457,76.200527287817
2024-09-23 20:06:37.426941,42.57,48.244046,0.0005969341946851222,-0.023330473146428877,0.09745075675933246,44.11764879391193,-96.25519929585457,76.200527287817
2024-09-23 20:06:37.458420,42.57,48.244046,0.0005969341946851222,-0.023330473146428877,0.09745075675933246,44.11764879391193,-92.24360919585227,80.21211738781929
2024-09-23 20:06:37.470166,42.57,48.244097,0.0008954064660419869,-0.023230986250042305,0.09665483728461309,44.11764879391193,-92.24360919585227,80.21211738781929
2024-09-23 20:06:37.513594,42.57,48.244148,0.0012436275969465451,-0.02293251340906919,0.09665483728461309,44.11764879391193,-88.23529758782387,76.200527287817
2024-09-23 20:06:37.555548,42.57,48.244148,0.0012436275969465451,-0.02293251340906919,0.0973015264147526,36.09446859390736,-88.23529758782387,76.200527287817
2024-09-23 20:06:37.567113,42.57,48.244198,0.0006964318663124887,-0.02293251340906919,0.0973015264147526,36.09446859390736,-96.25519929585457,80.21211738781929
2024-09-23 20:06:37.610977,42.57,48.244285,0.0006964318663124887,-0.022982261414192504,0.09764974270391902,32.08287849390507,-92.24360919585227,76.200527287817
2024-09-23 20:06:37.653429,42.57,48.244285,0.0006964318663124887,-0.02308174982955575,0.09764974270391902,32.08287849390507,-92.24360919585227,76.200527287817
2024-09-23 20:06:37.664515,42.57,48.244285,0.0006964318663124887,-0.02308174982955575,0.098047696365372,44.11764879391193,-96.25519929585457,72.1922225099802
2024-09-23 20:06:37.707340,42.57,48.244336,0.0006964318663124887,-0.023827930413011865,0.09794820946898543,44.11764879391193,-96.25519929585457,72.1922225099802
2024-09-23 20:06:37.719445,42.57,48.244336,0.0006964318663124887,-0.023827930413011865,0.09794820946898543,44.11764879391193,-96.25519929585457,72.1922225099802
2024-09-23 20:06:37.752333,42.57,48.244387,4.973845218406054e-05,-0.023827930413011865,0.09794820946898543,44.11764879391193,-96.25519929585457,76.200527287817
2024-09-23 20:06:37.764052,42.57,48.244387,4.973845218406054e-05,-0.022733528983459317,0.0966050877605131,44.11764879391193,-96.25519929585457,76.200527287817
2024-09-23 20:06:37.806483,42.57,48.244438,0.0006964318663124887,-0.023330473146428877,0.09784872257259886,44.11764879391193,-88.23529758782387,76.200527287817
2024-09-23 20:06:37.848669,42.57,48.244438,0.0006964318663124887,-0.023330473146428877,0.09784872257259886,36.09446859390736,-96.25519929585457,76.200527287817
2024-09-23 20:06:37.861993,42.57,48.244488,0.0009451553255896806,-0.02278327698858263,0.09784872257259886,36.09446859390736,-96.25519929585457,76.200527287817
2024-09-23 20:06:37.897124,42.57,48.244488,0.0009451553255896806,-0.02278327698858263,0.09764974270391902,48.12595698684454,-96.25519929585457,76.200527287817
2024-09-23 20:06:37.908913,42.57,48.244539,0.0013928637326249774,-0.02278327698858263,0.09764974270391902,48.12595698684454,-96.25519929585457,76.200527287817
2024-09-23 20:06:37.951430,42.57,48.244626,0.0013928637326249774,-0.022733528983459317,0.0973015264147526,36.09446859390736,-92.24360919585227,76.200527287817
2024-09-23 20:06:37.994673,42.57,48.244626,0.0006964318663124887,-0.02303200030545576,0.0973015264147526,36.09446859390736,-92.24360919585227,76.200527287817
2024-09-23 20:06:38.006307,42.57,48.244626,0.0006964318663124887,-0.02303200030545576,0.0973512698629459,44.11764879391193,-84.22370748782159,80.21211738781929
2024-09-23 20:06:38.049905,42.57,48.244678,0.0005969341946851222,-0.022833026512682618,0.09759999317981902,44.11764879391193,-84.22370748782159,80.21211738781929
2024-09-23 20:06:38.061830,42.57,48.244678,0.0005969341946851222,-0.022833026512682618,0.09759999317981902,48.12595698684454,-88.23529758782387,80.21211738781929
2024-09-23 20:06:38.094770,42.67,48.244728,0.0005471957306340564,-0.022833026512682618,0.09759999317981902,48.12595698684454,-88.23529758782387,76.200527287817
2024-09-23 20:06:38.106664,42.67,48.244728,0.0005471957306340564,-0.02303200030545576,0.09725178296655933,44.11764879391193,-88.23529758782387,76.200527287817
2024-09-23 20:06:38.138816,42.67,48.244728,0.0005471957306340564,-0.02303200030545576,0.09725178296655933,44.11764879391193,-96.25519929585457,76.200527287817
2024-09-23 20:06:38.149860,42.67,48.244779,0.000845657606494293,-0.02268379009219606,0.09725178296655933,44.11764879391193,-96.25519929585457,76.200527287817
2024-09-23 20:06:38.192459,42.67,48.244779,0.000845657606494293,-0.02268379009219606,0.09725178296655933,36.09446859390736,-100.26678939585686,76.200527287817
2024-09-23 20:06:38.204541,42.67,48.24483,0.00029846189959424716,-0.02338022115155219,0.09725178296655933,36.09446859390736,-100.26678939585686,76.200527287817
2024-09-23 20:06:38.238219,42.67,48.24483,0.00029846189959424716,-0.02338022115155219,0.0973512698629459,44.11764879391193,-100.26678939585686,76.200527287817
2024-09-23 20:06:38.249425,42.67,48.24488,0.0005969341946851222,-0.02338022115155219,0.0973512698629459,44.11764879391193,-92.24360919585227,72.1922225099802
2024-09-23 20:06:38.292201,42.67,48.24488,0.0005969341946851222,-0.0228827638849692,0.09655535038822652,48.12595698684454,-92.24360919585227,72.1922225099802
2024-09-23 20:06:38.304290,42.67,48.244967,0.0005969341946851222,-0.0228827638849692,0.09655535038822652,48.12595698684454,-92.24360919585227,76.200527287817
2024-09-23 20:06:38.336877,42.67,48.244967,0.0009451553255896806,-0.023280723622328886,0.09779897304849887,48.12595698684454,-92.24360919585227,76.200527287817
2024-09-23 20:06:38.348467,42.67,48.244967,0.0009451553255896806,-0.023280723622328886,0.09779897304849887,40.106058693909645,-96.25519929585457,76.200527287817
2024-09-23 20:06:38.391384,42.67,48.245019,0.0007461703303635545,-0.02308174982955575,0.09794820946898543,28.07457030097246,-96.25519929585457,76.200527287817
2024-09-23 20:06:38.433405,42.67,48.245069,0.0007461703303635545,-0.02308174982955575,0.09794820946898543,28.07457030097246,-96.25519929585457,76.200527287817
2024-09-23 20:06:38.445628,42.67,48.245069,0.0011938787373988514,-0.023230986250042305,0.09755024973162574,36.09446859390736,-96.25519929585457,76.200527287817
2024-09-23 20:06:38.487754,42.67,48.24512,0.0004974468710863627,-0.02308174982955575,0.09764974270391902,36.09446859390736,-96.25519929585457,76.200527287817
2024-09-23 20:06:38.530402,42.67,48.24512,0.0004974468710863627,-0.02308174982955575,0.09764974270391902,44.11764879391193,-96.25519929585457,76.200527287817
2024-09-23 20:06:38.541887,42.67,48.245171,0.0007461703303635545,-0.023280723622328886,0.09764974270391902,44.11764879391193,-96.25519929585457,76.200527287817
2024-09-23 20:06:38.584534,42.67,48.245221,0.0007461703303635545,-0.023280723622328886,0.09759999317981902,36.09446859390736,-92.24360919585227,76.200527287817
2024-09-23 20:06:38.596670,42.67,48.245221,0.0006964318663124887,-0.023280723622328886,0.09759999317981902,36.09446859390736,-92.24360919585227,76.200527287817
2024-09-23 20:06:38.628563,42.67,48.245221,0.0006964318663124887,-0.023479709566915436,0.09725178296655933,36.09446859390736,-92.24360919585227,76.200527287817
2024-09-23 20:06:38.639619,42.67,48.245309,0.0006964318663124887,-0.023479709566915436,0.09725178296655933,36.09446859390736,-96.25519929585457,72.1922225099802
2024-09-23 20:06:38.683960,42.67,48.245309,0.0006466830067647949,-0.023280723622328886,0.09745075675933246,40.106058693909645,-92.24360919585227,72.1922225099802
2024-09-23 20:06:38.695522,42.67,48.245309,0.0006466830067647949,-0.023280723622328886,0.09745075675933246,40.106058693909645,-92.24360919585227,72.1922225099802
2024-09-23 20:06:38.728401,42.67,48.24536,0.0011938787373988514,-0.023280723622328886,0.09725178296655933,40.106058693909645,-92.24360919585227,72.1922225099802
2024-09-23 20:06:38.739936,42.67,48.24536,0.0011938787373988514,-0.023280723622328886,0.09725178296655933,40.106058693909645,-104.27510100388527,72.1922225099802
2024-09-23 20:06:38.782718,42.67,48.245411,0.0008954064660419869,-0.023230986250042305,0.09740101331113918,40.106058693909645,-104.27510100388527,68.18063240997792
2024-09-23 20:06:38.825135,42.67,48.245461,0.0008954064660419869,-0.023230986250042305,0.09740101331113918,40.106058693909645,-96.25519929585457,68.18063240997792
2024-09-23 20:06:38.836637,42.67,48.245461,0.0009948937421727254,-0.023330473146428877,0.09755024973162574,40.106058693909645,-96.25519929585457,68.18063240997792
2024-09-23 20:06:38.879271,42.67,48.245512,0.0006964318663124887,-0.02303200030545576,0.09755024973162574,40.106058693909645,-96.25519929585457,76.200527287817
2024-09-23 20:06:38.922003,42.67,48.245512,0.0006964318663124887,-0.02303200030545576,0.09745075675933246,44.11764879391193,-96.25519929585457,76.200527287817
2024-09-23 20:06:38.933197,42.67,48.245563,0.0005969341946851222,-0.02303200030545576,0.09745075675933246,44.11764879391193,-96.25519929585457,72.1922225099802
2024-09-23 20:06:38.976638,42.67,48.24565,0.0005969341946851222,-0.02352945757203875,0.09755024973162574,44.11764879391193,-92.24360919585227,72.1922225099802
2024-09-23 20:06:39.019018,42.67,48.24565,0.000845657606494293,-0.02352945757203875,0.09755024973162574,44.11764879391193,-92.24360919585227,72.1922225099802
2024-09-23 20:06:39.071982,42.67,48.24565,0.000845657606494293,-0.02338022115155219,0.09755024973162574,48.12595698684454,-88.23529758782387,76.200527287817
2024-09-23 20:06:39.085991,42.67,48.245701,0.000845657606494293,-0.02338022115155219,0.09755024973162574,48.12595698684454,-88.23529758782387,76.200527287817
2024-09-23 20:06:39.118471,42.8,48.245701,0.0009451553255896806,-0.02313149783467906,0.0973015264147526,48.12595698684454,-88.23529758782387,76.200527287817
2024-09-23 20:06:39.130480,42.8,48.245701,0.0009451553255896806,-0.02313149783467906,0.0973015264147526,48.12595698684454,-92.24360919585227,72.1922225099802
2024-09-23 20:06:39.162215,42.8,48.245752,0.0009451553255896806,-0.02313149783467906,0.0973015264147526,48.12595698684454,-92.24360919585227,72.1922225099802
2024-09-23 20:06:39.173302,42.8,48.245752,0.0008954064660419869,-0.02233556924609963,0.09750050628343246,52.137550501942634,-96.25519929585457,72.1922225099802
2024-09-23 20:06:39.215641,42.8,48.245803,0.0001989745997294981,-0.02233556924609963,0.09750050628343246,52.137550501942634,-96.25519929585457,76.200527287817
2024-09-23 20:06:39.226603,42.8,48.245803,0.0001989745997294981,-0.023280723622328886,0.09774922960030558,40.106058693909645,-96.25519929585457,76.200527287817
2024-09-23 20:06:39.270414,42.8,48.245853,0.0007461703303635545,-0.023280723622328886,0.09745075675933246,40.106058693909645,-100.26678939585686,80.21211738781929
2024-09-23 20:06:39.314226,42.8,48.245853,0.0007461703303635545,-0.023280723622328886,0.09745075675933246,44.11764879391193,-96.25519929585457,72.1922225099802
2024-09-23 20:06:39.325819,42.8,48.245944,0.0009948937421727254,-0.02362894446842532,0.09745075675933246,44.11764879391193,-96.25519929585457,72.1922225099802
2024-09-23 20:06:39.359109,42.8,48.245944,0.0009948937421727254,-0.02362894446842532,0.09740101331113918,44.11764879391193,-96.25519929585457,72.1922225099802
2024-09-23 20:06:39.370143,42.8,48.245995,0.001044642601720419,-0.02362894446842532,0.09740101331113918,48.12595698684454,-92.24360919585227,80.21211738781929
2024-09-23 20:06:39.412966,42.8,48.245995,0.001044642601720419,-0.0225345536717095,0.09750050628343246,44.11764879391193,-92.24360919585227,76.200527287817
2024-09-23 20:06:39.424448,42.8,48.246089,0.001044642601720419,-0.0225345536717095,0.09750050628343246,44.11764879391193,-92.24360919585227,76.200527287817
2024-09-23 20:06:39.457239,42.8,48.246089,0.0009948937421727254,-0.023280723622328886,0.09750050628343246,44.11764879391193,-92.24360919585227,76.200527287817
2024-09-23 20:06:39.468564,42.8,48.246089,0.0009948937421727254,-0.023280723622328886,0.09720203344245934,40.106058693909645,-96.25519929585457,76.200527287817
2024-09-23 20:06:39.511382,42.8,48.24614,0.0009451553255896806,-0.02303200030545576,0.0973512698629459,48.12595698684454,-96.25519929585457,76.200527287817
2024-09-23 20:06:39.523049,42.8,48.24614,0.0009451553255896806,-0.02303200030545576,0.0973512698629459,48.12595698684454,-92.24360919585227,76.200527287817
2024-09-23 20:06:39.554380,42.8,48.246191,0.0009451553255896806,-0.02303200030545576,0.0973512698629459,48.12595698684454,-92.24360919585227,76.200527287817
2024-09-23 20:06:39.566016,42.8,48.246191,0.0009451553255896806,-0.02293251340906919,0.0976994861521123,48.12595698684454,-92.24360919585227,76.200527287817
2024-09-23 20:06:39.608990,42.8,48.246241,0.00034821073540793035,-0.022982261414192504,0.0976994861521123,48.12595698684454,-88.23529758782387,76.200527287817
2024-09-23 20:06:39.620596,42.8,48.246241,0.00034821073540793035,-0.022982261414192504,0.09759999317981902,48.12595698684454,-88.23529758782387,76.200527287817
2024-09-23 20:06:39.652308,42.8,48.246241,0.00034821073540793035,-0.022982261414192504,0.09759999317981902,48.12595698684454,-88.23529758782387,76.200527287817
2024-09-23 20:06:39.663442,42.8,48.246292,0.0004974468710863627,-0.022982261414192504,0.09759999317981902,48.12595698684454,-88.23529758782387,80.21211738781929
2024-09-23 20:06:39.706767,42.8,48.246343,0.000845657606494293,-0.022982261414192504,0.09715228999426605,44.11764879391193,-108.28669110388756,72.1922225099802
2024-09-23 20:06:39.749184,42.8,48.246343,0.000845657606494293,-0.022733528983459317,0.0976994861521123,44.11764879391193,-108.28669110388756,72.1922225099802
2024-09-23 20:06:39.760768,42.8,48.24643,0.000845657606494293,-0.022733528983459317,0.0976994861521123,40.106058693909645,-96.25519929585457,84.22370748782159
2024-09-23 20:06:39.802554,42.8,48.24643,0.0005969341946851222,-0.023230986250042305,0.09690356060148622,44.11764879391193,-92.24360919585227,84.22370748782159
2024-09-23 20:06:39.814612,42.8,48.24643,0.0005969341946851222,-0.023230986250042305,0.09690356060148622,44.11764879391193,-92.24360919585227,84.22370748782159
2024-09-23 20:06:39.846762,42.8,48.246481,0.0005471957306340564,-0.023230986250042305,0.09690356060148622,44.11764879391193,-92.24360919585227,84.22370748782159
2024-09-23 20:06:39.858459,42.8,48.246481,0.0005471957306340564,-0.02293251340906919,0.09675432418099966,32.08287849390507,-96.25519929585457,84.22370748782159
2024-09-23 20:06:39.900918,42.8,48.246532,0.0005969341946851222,-0.023181236725942318,0.09750050628343246,32.08287849390507,-96.25519929585457,72.1922225099802
2024-09-23 20:06:39.913159,42.8,48.246532,0.0005969341946851222,-0.023181236725942318,0.09750050628343246,44.11764879391193,-96.25519929585457,72.1922225099802
2024-09-23 20:06:39.946596,42.8,48.246583,0.0005969341946851222,-0.023181236725942318,0.09750050628343246,44.11764879391193,-92.24360919585227,80.21211738781929
2024-09-23 20:06:39.957871,42.8,48.246583,0.0004974468710863627,-0.023181236725942318,0.09750050628343246,44.11764879391193,-92.24360919585227,80.21211738781929
2024-09-23 20:06:40.000880,42.8,48.246633,0.000845657606494293,-0.022733528983459317,0.09750050628343246,40.106058693909645,-84.22370748782159,80.21211738781929
2024-09-23 20:06:40.043010,42.8,48.246633,0.000845657606494293,-0.022733528983459317,0.09784872257259886,44.11764879391193,-84.22370748782159,80.21211738781929
2024-09-23 20:06:40.055060,42.8,48.246684,0.0010943914612681128,-0.022733528983459317,0.09784872257259886,44.11764879391193,-84.22370748782159,84.22370748782159
2024-09-23 20:06:40.097267,42.8,48.246771,0.0010943914612681128,-0.023479709566915436,0.09755024973162574,40.106058693909645,-88.23529758782387,68.18063240997792
2024-09-23 20:06:40.139755,43.36,48.246771,0.0008954064660419869,-0.0228827638849692,0.09755024973162574,40.106058693909645,-88.23529758782387,68.18063240997792
2024-09-23 20:06:40.151539,43.36,48.246771,0.0008954064660419869,-0.0228827638849692,0.09774922960030558,48.12595698684454,-92.24360919585227,76.200527287817
2024-09-23 20:06:40.195482,43.36,48.246823,0.0005969341946851222,-0.023181236725942318,0.09740101331113918,36.09446859390736,-92.24360919585227,76.200527287817
2024-09-23 20:06:40.239148,43.36,48.246873,0.0006964318663124887,-0.023181236725942318,0.09740101331113918,36.09446859390736,-92.24360919585227,76.200527287817
2024-09-23 20:06:40.250248,43.36,48.246873,0.0006964318663124887,-0.02308174982955575,0.09710254654607277,40.106058693909645,-92.24360919585227,76.200527287817
2024-09-23 20:06:40.292967,43.36,48.246924,0.0006466830067647949,-0.02303200030545576,0.09779897304849887,40.106058693909645,-88.23529758782387,84.22370748782159
2024-09-23 20:06:40.336057,43.36,48.246924,0.0006466830067647949,-0.02303200030545576,0.09779897304849887,40.106058693909645,-92.24360919585227,80.21211738781929
2024-09-23 20:06:40.347519,43.36,48.246975,0.0007461703303635545,-0.023230986250042305,0.09779897304849887,40.106058693909645,-92.24360919585227,80.21211738781929
2024-09-23 20:06:40.389444,43.36,48.247026,0.0008954064660419869,-0.023230986250042305,0.0976994861521123,52.137550501942634,-96.25519929585457,80.21211738781929
2024-09-23 20:06:40.431648,43.36,48.247026,0.0008954064660419869,-0.0228827638849692,0.09799795899308542,52.137550501942634,-96.25519929585457,80.21211738781929
2024-09-23 20:06:40.443286,43.36,48.247112,0.0008954064660419869,-0.0228827638849692,0.09799795899308542,40.106058693909645,-92.24360919585227,76.200527287817
2024-09-23 20:06:40.486905,43.36,48.247112,0.0009451553255896806,-0.023181236725942318,0.09675432418099966,36.09446859390736,-96.25519929585457,76.200527287817
2024-09-23 20:06:40.530641,43.36,48.247164,0.0012436275969465451,-0.023181236725942318,0.09675432418099966,36.09446859390736,-96.25519929585457,76.200527287817
2024-09-23 20:06:40.542551,43.36,48.247164,0.0012436275969465451,-0.02352945757203875,0.09799795899308542,40.106058693909645,-92.24360919585227,76.200527287817
2024-09-23 20:06:40.586275,43.36,48.247214,0.001044642601720419,-0.023429960042815445,0.09715228999426605,48.12595698684454,-92.24360919585227,76.200527287817
2024-09-23 20:06:40.628679,43.36,48.247265,0.001044642601720419,-0.023429960042815445,0.09715228999426605,48.12595698684454,-96.25519929585457,72.1922225099802
2024-09-23 20:06:40.641070,43.36,48.247265,0.0009948937421727254,-0.02303200030545576,0.0973015264147526,48.12595698684454,-96.25519929585457,72.1922225099802
2024-09-23 20:06:40.684054,43.36,48.247316,0.0009451553255896806,-0.02293251340906919,0.0973015264147526,40.106058693909645,-100.26678939585686,76.200527287817
2024-09-23 20:06:40.726760,43.36,48.247316,0.0009451553255896806,-0.02293251340906919,0.09755024973162574,32.08287849390507,-100.26678939585686,76.200527287817
2024-09-23 20:06:40.737808,43.36,48.247366,0.0006964318663124887,-0.02293251340906919,0.09755024973162574,32.08287849390507,-100.26678939585686,76.200527287817
2024-09-23 20:06:40.780653,43.36,48.247454,0.0006964318663124887,-0.023330473146428877,0.09725178296655933,44.11764879391193,-96.25519929585457,72.1922225099802
2024-09-23 20:06:40.824247,43.36,48.247454,0.0005471957306340564,-0.023230986250042305,0.09755024973162574,44.11764879391193,-96.25519929585457,72.1922225099802
2024-09-23 20:06:40.835583,43.36,48.247454,0.0005471957306340564,-0.023230986250042305,0.09755024973162574,48.12595698684454,-88.23529758782387,72.1922225099802
2024-09-23 20:06:40.868656,43.36,48.247505,0.0005471957306340564,-0.023230986250042305,0.09755024973162574,48.12595698684454,-88.23529758782387,72.1922225099802
2024-09-23 20:06:40.880785,43.36,48.247505,0.0005969341946851222,-0.02308174982955575,0.09745075675933246,52.137550501942634,-92.24360919585227,72.1922225099802
2024-09-23 20:06:40.923697,43.36,48.247556,0.0007959191899112484,-0.022982261414192504,0.09745075675933246,52.137550501942634,-92.24360919585227,76.200527287817
2024-09-23 20:06:40.935405,43.36,48.247556,0.0007959191899112484,-0.022982261414192504,0.09715228999426605,48.12595698684454,-92.24360919585227,76.200527287817
2024-09-23 20:06:40.968412,43.36,48.247556,0.0007959191899112484,-0.022982261414192504,0.09715228999426605,48.12595698684454,-96.25519929585457,80.21211738781929
2024-09-23 20:06:40.979661,43.36,48.247606,0.0010943914612681128,-0.023181236725942318,0.0970030596496862,48.12595698684454,-96.25519929585457,80.21211738781929
2024-09-23 20:06:41.022206,43.36,48.247657,0.0006466830067647949,-0.023181236725942318,0.0970030596496862,48.12595698684454,-96.25519929585457,76.200527287817
2024-09-23 20:06:41.033914,43.36,48.247657,0.0006466830067647949,-0.02303200030545576,0.0970030596496862,48.12595698684454,-96.25519929585457,76.200527287817
2024-09-23 20:06:41.066688,43.36,48.247657,0.0006466830067647949,-0.02303200030545576,0.09779897304849887,44.11764879391193,-96.25519929585457,76.200527287817
2024-09-23 20:06:41.078765,43.36,48.247708,0.0006964318663124887,-0.02303200030545576,0.09779897304849887,44.11764879391193,-100.26678939585686,72.1922225099802
2024-09-23 20:06:41.121827,43.36,48.247795,0.0006964318663124887,-0.02367869399252531,0.09755024973162574,36.09446859390736,-96.25519929585457,80.21211738781929
2024-09-23 20:06:41.163485,43.56,48.247795,0.0009948937421727254,-0.02303200030545576,0.09755024973162574,36.09446859390736,-96.25519929585457,80.21211738781929
2024-09-23 20:06:41.175356,43.56,48.247795,0.0009948937421727254,-0.02303200030545576,0.0973512698629459,40.106058693909645,-88.23529758782387,80.21211738781929
2024-09-23 20:06:41.219013,43.56,48.247846,0.0005471957306340564,-0.022982261414192504,0.09799795899308542,44.11764879391193,-96.25519929585457,80.21211738781929
2024-09-23 20:06:41.263083,43.56,48.247897,0.0009948937421727254,-0.022982261414192504,0.09799795899308542,44.11764879391193,-96.25519929585457,84.22370748782159
2024-09-23 20:06:41.275004,43.56,48.247897,0.0009948937421727254,-0.02313149783467906,0.09740101331113918,48.12595698684454,-96.25519929585457,84.22370748782159
2024-09-23 20:06:41.317090,43.56,48.247948,0.000845657606494293,-0.0228827638849692,0.0973015264147526,48.12595698684454,-92.24360919585227,80.21211738781929
2024-09-23 20:06:41.359651,43.56,48.247948,0.000845657606494293,-0.0228827638849692,0.0973015264147526,44.11764879391193,-96.25519929585457,64.16903547978401
2024-09-23 20:06:41.370606,43.56,48.247998,0.0004974468710863627,-0.023181236725942318,0.0973015264147526,44.11764879391193,-96.25519929585457,64.16903547978401
2024-09-23 20:06:41.412792,43.56,48.248049,0.0006466830067647949,-0.023181236725942318,0.09784872257259886,48.12595698684454,-96.25519929585457,76.200527287817
2024-09-23 20:06:41.456110,43.56,48.248049,0.0006466830067647949,-0.02338022115155219,0.09695331012558621,48.12595698684454,-96.25519929585457,76.200527287817
2024-09-23 20:06:41.469905,43.56,48.248136,0.0006466830067647949,-0.02338022115155219,0.09695331012558621,48.12595698684454,-92.24360919585227,76.200527287817
2024-09-23 20:06:41.502266,43.56,48.248136,0.0005969341946851222,-0.02338022115155219,0.09695331012558621,48.12595698684454,-92.24360919585227,76.200527287817
2024-09-23 20:06:41.513886,43.56,48.248136,0.0005969341946851222,-0.023181236725942318,0.09755024973162574,40.106058693909645,-96.25519929585457,76.200527287817
2024-09-23 20:06:41.555701,43.56,48.248188,0.0008954064660419869,-0.023181236725942318,0.09755024973162574,40.106058693909645,-96.25519929585457,76.200527287817
2024-09-23 20:06:41.608789,43.56,48.248238,0.0008954064660419869,-0.023778180888911878,0.09784872257259886,44.11764879391193,-92.24360919585227,80.21211738781929
2024-09-23 20:06:41.652643,43.56,48.248238,0.0007959191899112484,-0.02308174982955575,0.09720203344245934,44.11764879391193,-92.24360919585227,80.21211738781929
2024-09-23 20:06:41.664159,43.56,48.248238,0.0007959191899112484,-0.02308174982955575,0.09720203344245934,44.11764879391193,-92.24360919585227,84.22370748782159
2024-09-23 20:06:41.706814,43.56,48.248289,0.00044769805900669,-0.022733528983459317,0.0973512698629459,40.106058693909645,-92.24360919585227,84.22370748782159
2024-09-23 20:06:41.749626,43.56,48.24834,0.0006964318663124887,-0.022733528983459317,0.0973512698629459,40.106058693909645,-92.24360919585227,76.200527287817
2024-09-23 20:06:41.761852,43.56,48.24834,0.0006964318663124887,-0.023280723622328886,0.09720203344245934,36.09446859390736,-92.24360919585227,76.200527287817
2024-09-23 20:06:41.804962,43.56,48.24839,0.0009451553255896806,-0.02313149783467906,0.09750050628343246,36.09446859390736,-100.26678939585686,76.200527287817
2024-09-23 20:06:41.847931,43.56,48.24839,0.0009451553255896806,-0.02313149783467906,0.09750050628343246,40.106058693909645,-96.25519929585457,72.1922225099802
2024-09-23 20:06:41.858978,43.56,48.24848,0.0009451553255896806,-0.02263404056809607,0.09750050628343246,40.106058693909645,-96.25519929585457,72.1922225099802
2024-09-23 20:06:41.902577,43.56,48.24853,0.00044769805900669,-0.02263404056809607,0.09745075675933246,44.11764879391193,-100.26678939585686,80.21211738781929
2024-09-23 20:06:41.945862,43.56,48.24853,0.00044769805900669,-0.023280723622328886,0.09755024973162574,44.11764879391193,-100.26678939585686,80.21211738781929
2024-09-23 20:06:41.957333,43.56,48.248624,0.00044769805900669,-0.023280723622328886,0.09755024973162574,44.11764879391193,-84.22370748782159,80.21211738781929
2024-09-23 20:06:41.990803,43.56,48.248624,0.0008954064660419869,-0.023280723622328886,0.09755024973162574,44.11764879391193,-84.22370748782159,80.21211738781929
2024-09-23 20:06:42.002774,43.56,48.248624,0.0008954064660419869,-0.02303200030545576,0.09745075675933246,48.12595698684454,-92.24360919585227,76.200527287817
2024-09-23 20:06:42.046368,43.56,48.248675,0.0006964318663124887,-0.02268379009219606,0.09750050628343246,40.106058693909645,-108.28669110388756,76.200527287817
