Ayaan's Suite
Timestamp,Sample Rate (Hz),Time,Ax,Ay,Az,Gx,Gy,Gz
2024-09-23 22:27:22.566357,0,56.689395,4.973845218406054e-05,-0.0228827638849692,0.0976994861521123,40.106058693909645,-100.26678939585686,80.21211738781929
2024-09-23 22:27:22.598795,0,56.689446,0.0008954064660419869,-0.0228827638849692,0.0976994861521123,40.106058693909645,-100.26678939585686,80.21211738781929
2024-09-23 22:27:22.609814,0,56.689446,0.0008954064660419869,-0.023429960042815445,0.0976994861521123,32.08287849390507,-104.27510100388527,80.21211738781929
2024-09-23 22:27:22.652881,0,56.689497,0.00044769805900669,-0.023181236725942318,0.09725178296655933,40.106058693909645,-104.27510100388527,80.21211738781929
2024-09-23 22:27:22.696013,0,56.689497,0.00044769805900669,-0.023181236725942318,0.09725178296655933,40.106058693909645,-100.26678939585686,76.200527287817
2024-09-23 22:27:22.707578,0,56.689548,0.00034821073540793035,-0.02263404056809607,0.0973512698629459,40.106058693909645,-100.26678939585686,76.200527287817
2024-09-23 22:27:22.749818,0,56.689598,0.0012933660135295898,-0.02263404056809607,0.0973512698629459,48.12595698684454,-96.25519929585457,72.1922225099802
2024-09-23 22:27:22.762146,0,56.689598,0.0012933660135295898,-0.02338022115155219,0.0973512698629459,48.12595698684454,-96.25519929585457,72.1922225099802
2024-09-23 22:27:22.793972,0,56.689598,0.0012933660135295898,-0.02338022115155219,0.09774922960030558,36.09446859390736,-96.25519929585457,72.1922225099802
2024-09-23 22:27:22.805709,0,56.68969,0.0009948937421727254,-0.02338022115155219,0.09774922960030558,36.09446859390736,-88.23529758782387,76.200527287817
2024-09-23 22:27:22.848681,0,56.689785,0.0009948937421727254,-0.02303200030545576,0.09750050628343246,36.09446859390736,-96.25519929585457,76.200527287817
2024-09-23 22:27:22.890887,0,56.689785,0.0009948937421727254,-0.0224350561424862,0.09750050628343246,36.09446859390736,-96.25519929585457,76.200527287817
2024-09-23 22:27:22.902173,0,56.689785,0.0009948937421727254,-0.0224350561424862,0.09834616920634512,52.137550501942634,-96.25519929585457,76.200527287817
2024-09-23 22:27:22.944272,0,56.689836,0.0012436275969465451,-0.023330473146428877,0.09750050628343246,52.137550501942634,-96.25519929585457,76.200527287817
2024-09-23 22:27:22.956353,0,56.689836,0.0012436275969465451,-0.023330473146428877,0.09750050628343246,40.106058693909645,-92.24360919585227,76.200527287817
2024-09-23 22:27:22.989429,0,56.689887,0.0012436275969465451,-0.023330473146428877,0.09750050628343246,40.106058693909645,-92.24360919585227,72.1922225099802
2024-09-23 22:27:23.000998,0,56.689887,0.0014923510087557158,-0.022833026512682618,0.0973015264147526,52.137550501942634,-92.24360919585227,72.1922225099802
2024-09-23 22:27:23.043345,0,56.689938,0.0007959191899112484,-0.02303200030545576,0.09809744588947199,52.137550501942634,-96.25519929585457,76.200527287817
2024-09-23 22:27:23.085896,0,56.689938,0.0007959191899112484,-0.02303200030545576,0.09809744588947199,40.106058693909645,-88.23529758782387,76.200527287817
2024-09-23 22:27:23.097306,0,56.689988,0.0005969341946851222,-0.023280723622328886,0.09809744588947199,40.106058693909645,-88.23529758782387,76.200527287817
2024-09-23 22:27:23.140559,0,56.690039,0.0005969341946851222,-0.023280723622328886,0.09794820946898543,40.106058693909645,-92.24360919585227,72.1922225099802
2024-09-23 22:27:23.152378,0,56.690039,0.0006466830067647949,-0.023280723622328886,0.09794820946898543,40.106058693909645,-92.24360919585227,72.1922225099802
2024-09-23 22:27:23.186349,0,56.690039,0.0006466830067647949,-0.02313149783467906,0.09814718933766527,56.14914060194492,-92.24360919585227,72.1922225099802
2024-09-23 22:27:23.197750,0,56.690126,0.0006466830067647949,-0.02313149783467906,0.09814718933766527,56.14914060194492,-92.24360919585227,72.1922225099802
2024-09-23 22:27:23.241279,0,56.690126,0.0007959191899112484,-0.022484804147609512,0.09725178296655933,32.08287849390507,-84.22370748782159,72.1922225099802
2024-09-23 22:27:23.283660,0,56.690178,0.0006964318663124887,-0.022982261414192504,0.09745075675933246,32.08287849390507,-84.22370748782159,72.1922225099802
2024-09-23 22:27:23.296553,0,56.690178,0.0006964318663124887,-0.022982261414192504,0.09745075675933246,32.08287849390507,-96.25519929585457,72.1922225099802
2024-09-23 22:27:23.329440,0,56.690228,0.0006964318663124887,-0.022982261414192504,0.09745075675933246,32.08287849390507,-96.25519929585457,80.21211738781929
2024-09-23 22:27:23.341272,0,56.690228,0.0005471957306340564,-0.02303200030545576,0.09764974270391902,32.08287849390507,-96.25519929585457,80.21211738781929
2024-09-23 22:27:23.383630,0,56.690279,0.0004974468710863627,-0.02303200030545576,0.09764974270391902,44.11764879391193,-88.23529758782387,80.21211738781929
2024-09-23 22:27:23.396326,0,56.690279,0.0004974468710863627,-0.023181236725942318,0.09764974270391902,44.11764879391193,-88.23529758782387,80.21211738781929
2024-09-23 22:27:23.428875,0,56.690279,0.0004974468710863627,-0.023181236725942318,0.09809744588947199,40.106058693909645,-92.24360919585227,80.21211738781929
2024-09-23 22:27:23.440802,0,56.69033,0.0011441298778511575,-0.023181236725942318,0.09809744588947199,40.106058693909645,-92.24360919585227,76.200527287817
2024-09-23 22:27:23.483093,0,56.69038,0.0011441298778511575,-0.023330473146428877,0.09740101331113918,44.11764879391193,-92.24360919585227,72.1922225099802
2024-09-23 22:27:23.577575,42.03,56.69038,0.0009451553255896806,-0.022982261414192504,0.09685382322919964,44.11764879391193,-92.24360919585227,72.1922225099802
2024-09-23 22:27:23.589805,42.03,56.69038,0.0009451553255896806,-0.022982261414192504,0.09685382322919964,40.106058693909645,-92.24360919585227,76.200527287817
2024-09-23 22:27:23.622598,42.03,56.690467,0.0006466830067647949,-0.022982261414192504,0.09685382322919964,40.106058693909645,-92.24360919585227,76.200527287817
2024-09-23 22:27:23.633755,42.03,56.690467,0.0006466830067647949,-0.02293251340906919,0.09705279702197278,48.12595698684454,-92.24360919585227,76.200527287817
2024-09-23 22:27:23.676316,42.03,56.690519,0.000845657606494293,-0.022833026512682618,0.09705279702197278,48.12595698684454,-92.24360919585227,76.200527287817
2024-09-23 22:27:23.688035,42.03,56.690519,0.000845657606494293,-0.022833026512682618,0.09690356060148622,52.137550501942634,-92.24360919585227,76.200527287817
2024-09-23 22:27:23.720067,42.03,56.690519,0.000845657606494293,-0.022833026512682618,0.09690356060148622,52.137550501942634,-92.24360919585227,72.1922225099802
2024-09-23 22:27:23.731987,42.03,56.69057,0.0011938787373988514,-0.02313149783467906,0.09764974270391902,52.137550501942634,-92.24360919585227,72.1922225099802
2024-09-23 22:27:23.774108,42.03,56.69057,0.0011938787373988514,-0.02313149783467906,0.09764974270391902,52.137550501942634,-96.25519929585457,80.21211738781929
2024-09-23 22:27:23.818140,42.03,56.69062,0.0004974468710863627,-0.02313149783467906,0.09764974270391902,52.137550501942634,-96.25519929585457,80.21211738781929
2024-09-23 22:27:23.830442,42.03,56.69062,0.0004974468710863627,-0.023230986250042305,0.09720203344245934,44.11764879391193,-96.25519929585457,80.21211738781929
2024-09-23 22:27:23.873025,42.03,56.690714,0.0005471957306340564,-0.0228827638849692,0.09814718933766527,44.11764879391193,-96.25519929585457,76.200527287817
2024-09-23 22:27:23.884791,42.03,56.690714,0.0005471957306340564,-0.0228827638849692,0.09814718933766527,36.09446859390736,-96.25519929585457,76.200527287817
2024-09-23 22:27:23.916458,42.03,56.690809,0.0005471957306340564,-0.0228827638849692,0.09814718933766527,36.09446859390736,-92.24360919585227,76.200527287817
2024-09-23 22:27:23.927980,42.03,56.690809,0.001044642601720419,-0.02303200030545576,0.0976994861521123,36.09446859390736,-92.24360919585227,76.200527287817
2024-09-23 22:27:23.972345,42.03,56.69086,9.948729986474904e-05,-0.023181236725942318,0.0976994861521123,48.12595698684454,-92.24360919585227,80.21211738781929
2024-09-23 22:27:24.015574,42.03,56.69086,9.948729986474904e-05,-0.023181236725942318,0.09720203344245934,40.106058693909645,-88.23529758782387,76.200527287817
2024-09-23 22:27:24.026577,42.03,56.690911,0.00014922575204880957,-0.023181236725942318,0.09720203344245934,40.106058693909645,-88.23529758782387,76.200527287817
2024-09-23 22:27:24.060437,42.03,56.690911,0.00014922575204880957,-0.022833026512682618,0.09720203344245934,40.106058693909645,-88.23529758782387,76.200527287817
2024-09-23 22:27:24.071669,42.03,56.691004,0.00014922575204880957,-0.022833026512682618,0.09710254654607277,44.11764879391193,-92.24360919585227,76.200527287817
2024-09-23 22:27:24.114163,42.03,56.691004,0.0007461703303635545,-0.0228827638849692,0.09740101331113918,48.12595698684454,-88.23529758782387,76.200527287817
2024-09-23 22:27:24.125982,42.03,56.691004,0.0007461703303635545,-0.0228827638849692,0.09740101331113918,48.12595698684454,-88.23529758782387,76.200527287817
2024-09-23 22:27:24.158370,42.03,56.691055,0.001044642601720419,-0.0228827638849692,0.09740101331113918,48.12595698684454,-88.23529758782387,76.200527287817
2024-09-23 22:27:24.169802,42.03,56.691055,0.001044642601720419,-0.022982261414192504,0.09725178296655933,44.11764879391193,-88.23529758782387,76.200527287817
2024-09-23 22:27:24.213198,42.03,56.691106,0.0007461703303635545,-0.023181236725942318,0.09720203344245934,40.106058693909645,-88.23529758782387,80.21211738781929
2024-09-23 22:27:24.255954,42.03,56.691106,0.0007461703303635545,-0.023181236725942318,0.09720203344245934,40.106058693909645,-92.24360919585227,76.200527287817
2024-09-23 22:27:24.267054,42.03,56.691157,0.0009948937421727254,-0.022833026512682618,0.09745075675933246,40.106058693909645,-92.24360919585227,76.200527287817
2024-09-23 22:27:24.309140,42.03,56.691207,0.0005969341946851222,-0.022833026512682618,0.09745075675933246,40.106058693909645,-96.25519929585457,72.1922225099802
2024-09-23 22:27:24.321217,42.03,56.691207,0.0005969341946851222,-0.02303200030545576,0.09745075675933246,40.106058693909645,-96.25519929585457,72.1922225099802
2024-09-23 22:27:24.354955,42.03,56.691207,0.0005969341946851222,-0.02303200030545576,0.0973015264147526,40.106058693909645,-92.24360919585227,72.1922225099802
2024-09-23 22:27:24.366792,42.03,56.691258,0.0013928637326249774,-0.02303200030545576,0.0973015264147526,40.106058693909645,-92.24360919585227,72.1922225099802
2024-09-23 22:27:24.409197,42.03,56.691345,0.0013928637326249774,-0.02263404056809607,0.09750050628343246,44.11764879391193,-96.25519929585457,72.1922225099802
2024-09-23 22:27:24.451333,42.03,56.691345,0.0007959191899112484,-0.02303200030545576,0.09750050628343246,44.11764879391193,-96.25519929585457,72.1922225099802
2024-09-23 22:27:24.505180,42.03,56.691396,0.0007959191899112484,-0.02303200030545576,0.09710254654607277,40.106058693909645,-92.24360919585227,84.22370748782159
2024-09-23 22:27:24.517110,42.03,56.691396,0.0012436275969465451,-0.02303200030545576,0.09710254654607277,40.106058693909645,-92.24360919585227,84.22370748782159
2024-09-23 22:27:24.548711,42.03,56.691396,0.0012436275969465451,-0.02313149783467906,0.09745075675933246,40.106058693909645,-92.24360919585227,84.22370748782159
2024-09-23 22:27:24.559658,42.03,56.691447,0.0012436275969465451,-0.02313149783467906,0.09745075675933246,40.106058693909645,-88.23529758782387,80.21211738781929
2024-09-23 22:27:24.602586,43.45,56.691447,0.0011441298778511575,-0.022484804147609512,0.09745075675933246,44.11764879391193,-92.24360919585227,80.21211738781929
2024-09-23 22:27:24.615381,43.45,56.691447,0.0011441298778511575,-0.022484804147609512,0.09745075675933246,44.11764879391193,-92.24360919585227,72.1922225099802
2024-09-23 22:27:24.647582,43.45,56.691498,0.0005471957306340564,-0.02338022115155219,0.09745075675933246,44.11764879391193,-92.24360919585227,72.1922225099802
2024-09-23 22:27:24.659222,43.45,56.691498,0.0005471957306340564,-0.02338022115155219,0.09745075675933246,40.106058693909645,-100.26678939585686,72.1922225099802
2024-09-23 22:27:24.694189,43.45,56.691498,0.0005471957306340564,-0.02338022115155219,0.09745075675933246,40.106058693909645,-100.26678939585686,76.200527287817
2024-09-23 22:27:24.705936,43.45,56.691548,0.0009451553255896806,-0.022833026512682618,0.0973015264147526,40.106058693909645,-100.26678939585686,76.200527287817
2024-09-23 22:27:24.748362,43.45,56.69164,0.0008954064660419869,-0.022833026512682618,0.0973015264147526,40.106058693909645,-88.23529758782387,76.200527287817
2024-09-23 22:27:24.759934,43.45,56.69164,0.0008954064660419869,-0.023330473146428877,0.09750050628343246,40.106058693909645,-88.23529758782387,76.200527287817
2024-09-23 22:27:24.792087,43.45,56.69164,0.0008954064660419869,-0.023330473146428877,0.09750050628343246,40.106058693909645,-88.23529758782387,76.200527287817
2024-09-23 22:27:24.803876,43.45,56.69169,0.0010943914612681128,-0.02313149783467906,0.09750050628343246,40.106058693909645,-96.25519929585457,80.21211738781929
2024-09-23 22:27:24.847370,43.45,56.691741,0.0008954064660419869,-0.02313149783467906,0.09720203344245934,36.09446859390736,-100.26678939585686,72.1922225099802
2024-09-23 22:27:24.890268,43.45,56.691741,0.0008954064660419869,-0.02278327698858263,0.09750050628343246,36.09446859390736,-100.26678939585686,72.1922225099802
2024-09-23 22:27:24.901349,43.45,56.691832,0.0008954064660419869,-0.02278327698858263,0.09750050628343246,44.11764879391193,-96.25519929585457,76.200527287817
2024-09-23 22:27:24.943844,43.45,56.691832,0.0003979595949556242,-0.023330473146428877,0.09710254654607277,44.11764879391193,-96.25519929585457,76.200527287817
2024-09-23 22:27:25.038198,43.45,56.691884,0.0003979595949556242,-0.023330473146428877,0.09710254654607277,44.11764879391193,-92.24360919585227,76.200527287817
2024-09-23 22:27:25.049808,43.45,56.691884,0.0011441298778511575,-0.02263404056809607,0.09784872257259886,44.11764879391193,-92.24360919585227,76.200527287817
2024-09-23 22:27:25.092551,43.45,56.691935,0.0011441298778511575,-0.0228827638849692,0.09784872257259886,40.106058693909645,-92.24360919585227,72.1922225099802
2024-09-23 22:27:25.135171,43.45,56.691935,0.0011441298778511575,-0.0228827638849692,0.098047696365372,40.106058693909645,-96.25519929585457,72.1922225099802
2024-09-23 22:27:25.146642,43.45,56.691986,0.0001989745997294981,-0.0228827638849692,0.098047696365372,40.106058693909645,-96.25519929585457,72.1922225099802
2024-09-23 22:27:25.230366,43.45,56.691986,0.0001989745997294981,-0.023181236725942318,0.098047696365372,40.106058693909645,-96.25519929585457,72.1922225099802
2024-09-23 22:27:25.242268,43.45,56.692036,0.0001989745997294981,-0.023181236725942318,0.09740101331113918,44.11764879391193,-96.25519929585457,76.200527287817
2024-09-23 22:27:25.284740,43.45,56.692036,0.0010943914612681128,-0.023230986250042305,0.09745075675933246,44.11764879391193,-96.25519929585457,76.200527287817
2024-09-23 22:27:25.297298,43.45,56.692036,0.0010943914612681128,-0.023230986250042305,0.09745075675933246,44.11764879391193,-96.25519929585457,76.200527287817
2024-09-23 22:27:25.328815,43.45,56.692174,0.0007461703303635545,-0.023230986250042305,0.09745075675933246,44.11764879391193,-96.25519929585457,76.200527287817
2024-09-23 22:27:25.339984,43.45,56.692174,0.0007461703303635545,-0.022833026512682618,0.09715228999426605,48.12595698684454,-96.25519929585457,76.200527287817
2024-09-23 22:27:25.383045,43.45,56.692226,0.0005969341946851222,-0.02308174982955575,0.0973512698629459,48.12595698684454,-100.26678939585686,80.21211738781929
2024-09-23 22:27:25.426216,43.45,56.692226,0.0005969341946851222,-0.02308174982955575,0.0973512698629459,44.11764879391193,-92.24360919585227,80.21211738781929
2024-09-23 22:27:25.437200,43.45,56.692276,0.0008954064660419869,-0.023230986250042305,0.0973512698629459,44.11764879391193,-92.24360919585227,76.200527287817
2024-09-23 22:27:25.479599,43.45,56.692372,0.0008954064660419869,-0.023230986250042305,0.098047696365372,40.106058693909645,-88.23529758782387,76.200527287817
2024-09-23 22:27:25.492095,43.45,56.692372,0.0010943914612681128,-0.023230986250042305,0.098047696365372,40.106058693909645,-88.23529758782387,76.200527287817
2024-09-23 22:27:25.524385,43.45,56.692372,0.0010943914612681128,-0.023429960042815445,0.09759999317981902,44.11764879391193,-88.23529758782387,76.200527287817
2024-09-23 22:27:25.576791,43.45,56.692422,0.0006964318663124887,-0.02293251340906919,0.09759999317981902,44.11764879391193,-96.25519929585457,72.1922225099802
2024-09-23 22:27:25.588510,43.45,56.692422,0.0006964318663124887,-0.02293251340906919,0.09764974270391902,44.11764879391193,-96.25519929585457,72.1922225099802
2024-09-23 22:27:25.621575,42.38,56.692422,0.0006964318663124887,-0.02293251340906919,0.09764974270391902,40.106058693909645,-88.23529758782387,72.1922225099802
2024-09-23 22:27:25.633186,42.38,56.692515,0.000845657606494293,-0.02303200030545576,0.09764974270391902,40.106058693909645,-88.23529758782387,76.200527287817
2024-09-23 22:27:25.676537,42.38,56.692567,0.0011441298778511575,-0.02303200030545576,0.0973512698629459,40.106058693909645,-100.26678939585686,80.21211738781929
2024-09-23 22:27:25.718531,42.38,56.692567,0.0011441298778511575,-0.02303200030545576,0.09764974270391902,40.106058693909645,-100.26678939585686,80.21211738781929
2024-09-23 22:27:25.730084,42.38,56.692617,0.0011441298778511575,-0.02303200030545576,0.09764974270391902,40.106058693909645,-100.26678939585686,80.21211738781929
2024-09-23 22:27:25.773823,42.38,56.692617,9.948729986474904e-05,-0.023181236725942318,0.09755024973162574,48.12595698684454,-96.25519929585457,72.1922225099802
2024-09-23 22:27:25.816102,42.38,56.69271,0.000845657606494293,-0.023181236725942318,0.09755024973162574,48.12595698684454,-96.25519929585457,72.1922225099802
2024-09-23 22:27:25.827589,42.38,56.69271,0.000845657606494293,-0.02362894446842532,0.09750050628343246,40.106058693909645,-92.24360919585227,72.1922225099802
2024-09-23 22:27:25.871714,42.38,56.692762,0.0010943914612681128,-0.02303200030545576,0.09789846602079214,44.11764879391193,-92.24360919585227,80.21211738781929
2024-09-23 22:27:25.914162,42.38,56.692762,0.0010943914612681128,-0.02303200030545576,0.09789846602079214,44.11764879391193,-92.24360919585227,76.200527287817
2024-09-23 22:27:25.925817,42.38,56.692813,0.0013431148730772837,-0.02313149783467906,0.09715228999426605,44.11764879391193,-92.24360919585227,76.200527287817
2024-09-23 22:27:25.968115,42.38,56.692863,0.0004974468710863627,-0.0228827638849692,0.09715228999426605,36.09446859390736,-96.25519929585457,76.200527287817
2024-09-23 22:27:26.010758,42.38,56.692863,0.0004974468710863627,-0.0228827638849692,0.09740101331113918,40.106058693909645,-96.25519929585457,76.200527287817
2024-09-23 22:27:26.021876,42.38,56.692914,0.000845657606494293,-0.0228827638849692,0.09740101331113918,40.106058693909645,-92.24360919585227,76.200527287817
2024-09-23 22:27:26.064134,42.38,56.692914,0.000845657606494293,-0.02313149783467906,0.09755024973162574,36.09446859390736,-96.25519929585457,76.200527287817
2024-09-23 22:27:26.075435,42.38,56.693002,0.000845657606494293,-0.02313149783467906,0.09755024973162574,36.09446859390736,-96.25519929585457,76.200527287817
2024-09-23 22:27:26.108384,42.38,56.693002,0.0007959191899112484,-0.02293251340906919,0.09755024973162574,36.09446859390736,-96.25519929585457,76.200527287817
2024-09-23 22:27:26.119805,42.38,56.693002,0.0007959191899112484,-0.02293251340906919,0.09774922960030558,44.11764879391193,-88.23529758782387,84.22370748782159
2024-09-23 22:27:26.161746,42.38,56.693054,0.0013928637326249774,-0.022584292562972758,0.09710254654607277,40.106058693909645,-88.23529758782387,84.22370748782159
2024-09-23 22:27:26.173387,42.38,56.693054,0.0013928637326249774,-0.022584292562972758,0.09710254654607277,40.106058693909645,-92.24360919585227,84.22370748782159
2024-09-23 22:27:26.205941,42.38,56.693105,0.0013928637326249774,-0.022584292562972758,0.09710254654607277,40.106058693909645,-92.24360919585227,80.21211738781929
2024-09-23 22:27:26.217600,42.38,56.693105,0.0011938787373988514,-0.023479709566915436,0.0973512698629459,44.11764879391193,-92.24360919585227,80.21211738781929
2024-09-23 22:27:26.260659,42.38,56.693155,0.00034821073540793035,-0.02313149783467906,0.09740101331113918,44.11764879391193,-92.24360919585227,80.21211738781929
2024-09-23 22:27:26.304339,42.38,56.693155,0.00034821073540793035,-0.02313149783467906,0.09740101331113918,40.106058693909645,-92.24360919585227,80.21211738781929
2024-09-23 22:27:26.315774,42.38,56.693206,0.0004974468710863627,-0.02268379009219606,0.09740101331113918,40.106058693909645,-92.24360919585227,80.21211738781929
2024-09-23 22:27:26.359389,42.38,56.693257,0.001044642601720419,-0.02268379009219606,0.09725178296655933,44.11764879391193,-92.24360919585227,72.1922225099802
2024-09-23 22:27:26.401347,42.38,56.693257,0.001044642601720419,-0.02313149783467906,0.0973015264147526,44.11764879391193,-92.24360919585227,72.1922225099802
2024-09-23 22:27:26.412479,42.38,56.693344,0.001044642601720419,-0.02313149783467906,0.0973015264147526,36.09446859390736,-96.25519929585457,76.200527287817
2024-09-23 22:27:26.454394,42.38,56.693344,0.0015918383798224967,-0.022833026512682618,0.09829641968224512,36.09446859390736,-96.25519929585457,76.200527287817
2024-09-23 22:27:26.466644,42.38,56.693344,0.0015918383798224967,-0.022833026512682618,0.09829641968224512,36.09446859390736,-96.25519929585457,76.200527287817
2024-09-23 22:27:26.498560,42.38,56.693395,0.00044769805900669,-0.022833026512682618,0.09829641968224512,36.09446859390736,-96.25519929585457,76.200527287817
2024-09-23 22:27:26.510417,42.38,56.693395,0.00044769805900669,-0.023429960042815445,0.09779897304849887,40.106058693909645,-96.25519929585457,76.200527287817
2024-09-23 22:27:26.554328,42.38,56.693446,0.0004974468710863627,-0.022584292562972758,0.0976994861521123,32.08287849390507,-96.25519929585457,76.200527287817
2024-09-23 22:27:26.597000,42.38,56.693446,0.0004974468710863627,-0.022584292562972758,0.0976994861521123,32.08287849390507,-92.24360919585227,76.200527287817
2024-09-23 22:27:26.651146,41.98,56.693497,0.0011441298778511575,-0.023181236725942318,0.09755024973162574,32.08287849390507,-92.24360919585227,80.21211738781929
2024-09-23 22:27:26.662971,41.98,56.693497,0.0011441298778511575,-0.023181236725942318,0.09755024973162574,36.09446859390736,-92.24360919585227,80.21211738781929
2024-09-23 22:27:26.695215,41.98,56.693547,0.0011441298778511575,-0.023181236725942318,0.09755024973162574,36.09446859390736,-96.25519929585457,80.21211738781929
2024-09-23 22:27:26.706748,41.98,56.693547,0.0007959191899112484,-0.023181236725942318,0.09740101331113918,36.09446859390736,-96.25519929585457,80.21211738781929
2024-09-23 22:27:26.749814,41.98,56.693598,0.0009948937421727254,-0.023479709566915436,0.09740101331113918,40.106058693909645,-92.24360919585227,72.1922225099802
2024-09-23 22:27:26.842847,41.98,56.693598,0.0009948937421727254,-0.023479709566915436,0.0983959187304451,44.11764879391193,-92.24360919585227,72.1922225099802
2024-09-23 22:27:26.854938,41.98,56.693685,0.0009948937421727254,-0.023479709566915436,0.0983959187304451,44.11764879391193,-92.24360919585227,72.1922225099802
2024-09-23 22:27:26.888474,41.98,56.693685,0.0005471957306340564,-0.0228827638849692,0.0983959187304451,44.11764879391193,-92.24360919585227,72.1922225099802
2024-09-23 22:27:26.900007,41.98,56.693685,0.0005471957306340564,-0.0228827638849692,0.0973015264147526,44.11764879391193,-88.23529758782387,72.1922225099802
2024-09-23 22:27:26.943372,41.98,56.693736,0.0008954064660419869,-0.02303200030545576,0.0976994861521123,44.11764879391193,-88.23529758782387,76.200527287817
2024-09-23 22:27:26.956124,41.98,56.693736,0.0008954064660419869,-0.02303200030545576,0.0976994861521123,44.11764879391193,-88.23529758782387,76.200527287817
2024-09-23 22:27:26.988627,41.98,56.693832,0.001044642601720419,-0.02303200030545576,0.0976994861521123,44.11764879391193,-88.23529758782387,80.21211738781929
2024-09-23 22:27:26.999959,41.98,56.693832,0.001044642601720419,-0.023429960042815445,0.09720203344245934,44.11764879391193,-88.23529758782387,80.21211738781929
2024-09-23 22:27:27.042408,41.98,56.693883,0.0006466830067647949,-0.0224350561424862,0.09720203344245934,40.106058693909645,-96.25519929585457,80.21211738781929
2024-09-23 22:27:27.086505,41.98,56.693883,0.0006466830067647949,-0.0224350561424862,0.0973015264147526,40.106058693909645,-92.24360919585227,76.200527287817
2024-09-23 22:27:27.099979,41.98,56.693979,0.0007959191899112484,-0.0224350561424862,0.0973015264147526,40.106058693909645,-92.24360919585227,76.200527287817
2024-09-23 22:27:27.132148,41.98,56.693979,0.0007959191899112484,-0.023181236725942318,0.09779897304849887,40.106058693909645,-92.24360919585227,76.200527287817
2024-09-23 22:27:27.143703,41.98,56.69403,0.0007959191899112484,-0.023181236725942318,0.09779897304849887,44.11764879391193,-92.24360919585227,76.200527287817
2024-09-23 22:27:27.185326,41.98,56.69403,0.0006466830067647949,-0.023230986250042305,0.09710254654607277,44.11764879391193,-96.25519929585457,76.200527287817
2024-09-23 22:27:27.197091,41.98,56.69403,0.0006466830067647949,-0.023230986250042305,0.09710254654607277,44.11764879391193,-96.25519929585457,80.21211738781929
2024-09-23 22:27:27.229804,41.98,56.694124,0.0008954064660419869,-0.023230986250042305,0.09710254654607277,44.11764879391193,-96.25519929585457,80.21211738781929
2024-09-23 22:27:27.241007,41.98,56.694124,0.0008954064660419869,-0.023280723622328886,0.09764974270391902,36.09446859390736,-96.25519929585457,80.21211738781929
2024-09-23 22:27:27.283514,41.98,56.694176,0.0005471957306340564,-0.022982261414192504,0.0976994861521123,36.09446859390736,-96.25519929585457,80.21211738781929
2024-09-23 22:27:27.295563,41.98,56.694176,0.0005471957306340564,-0.022982261414192504,0.0976994861521123,40.106058693909645,-96.25519929585457,80.21211738781929
2024-09-23 22:27:27.327442,41.98,56.694176,0.0005471957306340564,-0.022982261414192504,0.0976994861521123,40.106058693909645,-92.24360919585227,88.23529758782387
2024-09-23 22:27:27.339316,41.98,56.694226,0.0007959191899112484,-0.023479709566915436,0.09715228999426605,40.106058693909645,-92.24360919585227,88.23529758782387
2024-09-23 22:27:27.382240,41.98,56.694277,0.000845657606494293,-0.023479709566915436,0.09715228999426605,44.11764879391193,-92.24360919585227,80.21211738781929
2024-09-23 22:27:27.393693,41.98,56.694277,0.000845657606494293,-0.02293251340906919,0.09715228999426605,44.11764879391193,-92.24360919585227,80.21211738781929
2024-09-23 22:27:27.425714,41.98,56.694277,0.000845657606494293,-0.02293251340906919,0.0973015264147526,44.11764879391193,-92.24360919585227,80.21211738781929
2024-09-23 22:27:27.478430,41.98,56.694328,0.0008954064660419869,-0.02293251340906919,0.0973015264147526,44.11764879391193,-92.24360919585227,80.21211738781929
2024-09-23 22:27:27.490908,41.98,56.694328,0.0008954064660419869,-0.02263404056809607,0.0973015264147526,44.11764879391193,-92.24360919585227,80.21211738781929
2024-09-23 22:27:27.575939,41.98,56.694416,0.0008954064660419869,-0.02263404056809607,0.09695331012558621,40.106058693909645,-92.24360919585227,72.1922225099802
2024-09-23 22:27:27.587624,41.98,56.694416,0.000845657606494293,-0.02263404056809607,0.09695331012558621,40.106058693909645,-92.24360919585227,72.1922225099802
2024-09-23 22:27:27.672788,41.61,56.694416,0.000845657606494293,-0.02278327698858263,0.09789846602079214,44.11764879391193,-92.24360919585227,72.1922225099802
2024-09-23 22:27:27.685643,41.61,56.694468,0.000845657606494293,-0.02278327698858263,0.09789846602079214,44.11764879391193,-92.24360919585227,76.200527287817
2024-09-23 22:27:27.717469,41.61,56.694468,0.00034821073540793035,-0.023230986250042305,0.09789846602079214,44.11764879391193,-92.24360919585227,76.200527287817
2024-09-23 22:27:27.729754,41.61,56.694468,0.00034821073540793035,-0.023230986250042305,0.09720203344245934,40.106058693909645,-96.25519929585457,84.22370748782159
2024-09-23 22:27:27.773043,41.61,56.694518,0.0012933660135295898,-0.0225345536717095,0.09759999317981902,36.09446859390736,-92.24360919585227,84.22370748782159
2024-09-23 22:27:27.815369,41.61,56.694612,0.0012933660135295898,-0.0225345536717095,0.09759999317981902,36.09446859390736,-92.24360919585227,76.200527287817
2024-09-23 22:27:27.826414,41.61,56.694612,0.0011938787373988514,-0.023230986250042305,0.09720203344245934,52.137550501942634,-92.24360919585227,76.200527287817
2024-09-23 22:27:27.869447,41.61,56.69471,0.0012436275969465451,-0.022833026512682618,0.09705279702197278,52.137550501942634,-96.25519929585457,80.21211738781929
2024-09-23 22:27:27.912011,41.61,56.69471,0.0012436275969465451,-0.022833026512682618,0.09705279702197278,48.12595698684454,-92.24360919585227,80.21211738781929
2024-09-23 22:27:27.923356,41.61,56.694808,0.00024872343554318134,-0.022982261414192504,0.09705279702197278,48.12595698684454,-92.24360919585227,76.200527287817
2024-09-23 22:27:27.965962,41.61,56.694859,0.00024872343554318134,-0.022982261414192504,0.09675432418099966,40.106058693909645,-92.24360919585227,76.200527287817
2024-09-23 22:27:27.977922,41.61,56.694859,0.0009948937421727254,-0.022982261414192504,0.09675432418099966,40.106058693909645,-92.24360919585227,76.200527287817
2024-09-23 22:27:28.010051,41.61,56.694859,0.0009948937421727254,-0.023429960042815445,0.09675432418099966,40.106058693909645,-92.24360919585227,76.200527287817
2024-09-23 22:27:28.021229,41.61,56.694953,0.0009948937421727254,-0.023429960042815445,0.0973015264147526,44.11764879391193,-92.24360919585227,72.1922225099802
2024-09-23 22:27:28.063820,41.61,56.694953,0.0007461703303635545,-0.022982261414192504,0.09750050628343246,40.106058693909645,-92.24360919585227,72.1922225099802
2024-09-23 22:27:28.075854,41.61,56.694953,0.0007461703303635545,-0.022982261414192504,0.09750050628343246,40.106058693909645,-92.24360919585227,76.200527287817
2024-09-23 22:27:28.109026,41.61,56.695004,0.0003979595949556242,-0.023230986250042305,0.09750050628343246,40.106058693909645,-92.24360919585227,76.200527287817
2024-09-23 22:27:28.120572,41.61,56.695004,0.0003979595949556242,-0.023230986250042305,0.09720203344245934,40.106058693909645,-92.24360919585227,76.200527287817
2024-09-23 22:27:28.163105,41.61,56.695055,0.00024872343554318134,-0.023429960042815445,0.0973512698629459,40.106058693909645,-92.24360919585227,80.21211738781929
2024-09-23 22:27:28.205815,41.61,56.695105,0.00024872343554318134,-0.023429960042815445,0.0973512698629459,40.106058693909645,-92.24360919585227,72.1922225099802
2024-09-23 22:27:28.217301,41.61,56.695105,0.000845657606494293,-0.0228827638849692,0.09774922960030558,40.106058693909645,-92.24360919585227,72.1922225099802
2024-09-23 22:27:28.260425,41.61,56.695156,0.0007461703303635545,-0.023181236725942318,0.09774922960030558,40.106058693909645,-96.25519929585457,72.1922225099802
2024-09-23 22:27:28.302418,41.61,56.695156,0.0007461703303635545,-0.023181236725942318,0.09750050628343246,44.11764879391193,-96.25519929585457,72.1922225099802
2024-09-23 22:27:28.314127,41.61,56.695207,0.00034821073540793035,-0.023181236725942318,0.09750050628343246,44.11764879391193,-96.25519929585457,72.1922225099802
2024-09-23 22:27:28.358036,41.61,56.695294,0.00034821073540793035,-0.0224350561424862,0.0973015264147526,40.106058693909645,-96.25519929585457,80.21211738781929
2024-09-23 22:27:28.401811,41.61,56.695294,0.000845657606494293,-0.023877669304275123,0.0976994861521123,40.106058693909645,-96.25519929585457,80.21211738781929
2024-09-23 22:27:28.413067,41.61,56.695294,0.000845657606494293,-0.023877669304275123,0.0976994861521123,36.09446859390736,-96.25519929585457,76.200527287817
2024-09-23 22:27:28.455565,41.61,56.695345,0.0008954064660419869,-0.02228583035483637,0.09710254654607277,40.106058693909645,-96.25519929585457,76.200527287817
2024-09-23 22:27:28.498718,41.61,56.695396,0.0007461703303635545,-0.02228583035483637,0.09710254654607277,40.106058693909645,-96.25519929585457,76.200527287817
2024-09-23 22:27:28.509718,41.61,56.695396,0.0007461703303635545,-0.02352945757203875,0.09745075675933246,40.106058693909645,-96.25519929585457,76.200527287817
2024-09-23 22:27:28.551719,41.61,56.695447,0.0006964318663124887,-0.022833026512682618,0.09750050628343246,40.106058693909645,-100.26678939585686,72.1922225099802
2024-09-23 22:27:28.595679,41.61,56.695447,0.0006964318663124887,-0.022833026512682618,0.09750050628343246,44.11764879391193,-100.26678939585686,76.200527287817
2024-09-23 22:27:28.608683,41.61,56.695497,0.000845657606494293,-0.023330473146428877,0.09750050628343246,44.11764879391193,-100.26678939585686,76.200527287817
2024-09-23 22:27:28.692524,41.38,56.695497,0.000845657606494293,-0.023330473146428877,0.09755024973162574,36.09446859390736,-100.26678939585686,76.200527287817
2024-09-23 22:27:28.703677,41.38,56.695548,0.0006964318663124887,-0.023330473146428877,0.09755024973162574,36.09446859390736,-96.25519929585457,72.1922225099802
2024-09-23 22:27:28.746887,41.38,56.695548,0.0006964318663124887,-0.02293251340906919,0.09764974270391902,44.11764879391193,-96.25519929585457,76.200527287817
2024-09-23 22:27:28.758613,41.38,56.695636,0.0006964318663124887,-0.02293251340906919,0.09764974270391902,44.11764879391193,-96.25519929585457,76.200527287817
2024-09-23 22:27:28.790386,41.38,56.695636,0.0007461703303635545,-0.022733528983459317,0.09764974270391902,44.11764879391193,-96.25519929585457,76.200527287817
2024-09-23 22:27:28.801583,41.38,56.695636,0.0007461703303635545,-0.022733528983459317,0.0973015264147526,36.09446859390736,-96.25519929585457,80.21211738781929
2024-09-23 22:27:28.843238,41.38,56.695687,0.000845657606494293,-0.023181236725942318,0.09759999317981902,36.09446859390736,-96.25519929585457,80.21211738781929
2024-09-23 22:27:28.855130,41.38,56.695687,0.000845657606494293,-0.023181236725942318,0.09759999317981902,36.09446859390736,-100.26678939585686,80.21211738781929
2024-09-23 22:27:28.887057,41.38,56.695738,0.000845657606494293,-0.023181236725942318,0.09759999317981902,36.09446859390736,-100.26678939585686,80.21211738781929
2024-09-23 22:27:28.898461,41.38,56.695738,0.0001989745997294981,-0.02268379009219606,0.09745075675933246,40.106058693909645,-100.26678939585686,80.21211738781929
2024-09-23 22:27:28.941364,41.38,56.695832,0.0009451553255896806,-0.0228827638849692,0.09745075675933246,40.106058693909645,-92.24360919585227,76.200527287817
2024-09-23 22:27:28.953426,41.38,56.695832,0.0009451553255896806,-0.0228827638849692,0.09690356060148622,40.106058693909645,-92.24360919585227,76.200527287817
2024-09-23 22:27:28.986465,41.38,56.695832,0.0009451553255896806,-0.0228827638849692,0.09690356060148622,36.09446859390736,-96.25519929585457,80.21211738781929
2024-09-23 22:27:28.997888,41.38,56.695882,0.001044642601720419,-0.0224350561424862,0.09690356060148622,36.09446859390736,-96.25519929585457,80.21211738781929
2024-09-23 22:27:29.040303,41.38,56.695933,0.00024872343554318134,-0.0224350561424862,0.09755024973162574,36.09446859390736,-100.26678939585686,76.200527287817
2024-09-23 22:27:29.082243,41.38,56.695933,0.00024872343554318134,-0.02308174982955575,0.09705279702197278,36.09446859390736,-100.26678939585686,76.200527287817
2024-09-23 22:27:29.093484,41.38,56.696025,0.00024872343554318134,-0.02308174982955575,0.09705279702197278,40.106058693909645,-96.25519929585457,76.200527287817
2024-09-23 22:27:29.137456,41.38,56.696025,0.00044769805900669,-0.022236080830736384,0.0973015264147526,40.106058693909645,-92.24360919585227,76.200527287817
2024-09-23 22:27:29.149349,41.38,56.696025,0.00044769805900669,-0.022236080830736384,0.0973015264147526,40.106058693909645,-92.24360919585227,80.21211738781929
2024-09-23 22:27:29.181570,41.38,56.696077,0.00034821073540793035,-0.02263404056809607,0.0973015264147526,40.106058693909645,-92.24360919585227,80.21211738781929
2024-09-23 22:27:29.192991,41.38,56.696077,0.00034821073540793035,-0.02263404056809607,0.0973015264147526,44.11764879391193,-92.24360919585227,80.21211738781929
2024-09-23 22:27:29.236240,41.38,56.696127,0.0009451553255896806,-0.02278327698858263,0.09720203344245934,48.12595698684454,-92.24360919585227,80.21211738781929
2024-09-23 22:27:29.279322,41.38,56.696178,0.0009451553255896806,-0.02278327698858263,0.09720203344245934,48.12595698684454,-96.25519929585457,76.200527287817
2024-09-23 22:27:29.291209,41.38,56.696178,0.0005969341946851222,-0.02308174982955575,0.09779897304849887,48.12595698684454,-96.25519929585457,76.200527287817
2024-09-23 22:27:29.333965,41.38,56.696229,0.0006466830067647949,-0.02308174982955575,0.09779897304849887,48.12595698684454,-92.24360919585227,76.200527287817
2024-09-23 22:27:29.378141,41.38,56.696229,0.0006466830067647949,-0.02308174982955575,0.09680407370509965,44.11764879391193,-96.25519929585457,80.21211738781929
2024-09-23 22:27:29.389955,41.38,56.696279,0.0007959191899112484,-0.02308174982955575,0.09680407370509965,44.11764879391193,-96.25519929585457,80.21211738781929
2024-09-23 22:27:29.421357,41.38,56.696279,0.0007959191899112484,-0.02313149783467906,0.09680407370509965,44.11764879391193,-96.25519929585457,80.21211738781929
2024-09-23 22:27:29.432886,41.38,56.696279,0.0007959191899112484,-0.02313149783467906,0.09740101331113918,40.106058693909645,-96.25519929585457,72.1922225099802
2024-09-23 22:27:29.475594,41.38,56.696366,0.0005969341946851222,-0.0228827638849692,0.0973015264147526,40.106058693909645,-96.25519929585457,72.1922225099802
2024-09-23 22:27:29.487763,41.38,56.696366,0.0005969341946851222,-0.0228827638849692,0.0973015264147526,44.11764879391193,-92.24360919585227,72.1922225099802
2024-09-23 22:27:29.521364,41.38,56.696418,0.0005969341946851222,-0.0228827638849692,0.0973015264147526,44.11764879391193,-92.24360919585227,76.200527287817
2024-09-23 22:27:29.532498,41.38,56.696418,0.0005969341946851222,-0.02308174982955575,0.09779897304849887,44.11764879391193,-92.24360919585227,76.200527287817
2024-09-23 22:27:29.574846,41.38,56.696469,0.0008954064660419869,-0.02308174982955575,0.09779897304849887,44.11764879391193,-96.25519929585457,76.200527287817
2024-09-23 22:27:29.587604,41.38,56.696469,0.0008954064660419869,-0.023181236725942318,0.09759999317981902,44.11764879391193,-96.25519929585457,76.200527287817
2024-09-23 22:27:29.621628,41.38,56.69652,0.0008954064660419869,-0.023181236725942318,0.09759999317981902,44.11764879391193,-96.25519929585457,72.1922225099802
2024-09-23 22:27:29.632622,41.38,56.69652,0.0006466830067647949,-0.02233556924609963,0.09759999317981902,44.11764879391193,-96.25519929585457,72.1922225099802
2024-09-23 22:27:29.716267,41.75,56.69652,0.0006466830067647949,-0.02233556924609963,0.09774922960030558,44.11764879391193,-96.25519929585457,72.1922225099802
2024-09-23 22:27:29.727592,41.75,56.69657,0.0006466830067647949,-0.02233556924609963,0.09774922960030558,44.11764879391193,-96.25519929585457,72.1922225099802
2024-09-23 22:27:29.771150,41.75,56.69657,0.0006466830067647949,-0.02303200030545576,0.09784872257259886,40.106058693909645,-100.26678939585686,76.200527287817
2024-09-23 22:27:29.782781,41.75,56.696659,0.0006466830067647949,-0.02303200030545576,0.09784872257259886,40.106058693909645,-100.26678939585686,76.200527287817
2024-09-23 22:27:29.815170,41.75,56.696659,0.0005969341946851222,-0.022833026512682618,0.09755024973162574,40.106058693909645,-100.26678939585686,76.200527287817
2024-09-23 22:27:29.826739,41.75,56.696659,0.0005969341946851222,-0.022833026512682618,0.09755024973162574,44.11764879391193,-92.24360919585227,76.200527287817
2024-09-23 22:27:29.869833,41.75,56.69671,0.0005471957306340564,-0.02352945757203875,0.09755024973162574,36.09446859390736,-92.24360919585227,76.200527287817
2024-09-23 22:27:29.912158,41.75,56.696761,0.0004974468710863627,-0.02352945757203875,0.09755024973162574,36.09446859390736,-92.24360919585227,84.22370748782159
2024-09-23 22:27:29.923145,41.75,56.696761,0.0004974468710863627,-0.0228827638849692,0.09720203344245934,44.11764879391193,-92.24360919585227,84.22370748782159
2024-09-23 22:27:29.965414,41.75,56.696855,0.0007461703303635545,-0.02238531725122294,0.09710254654607277,44.11764879391193,-92.24360919585227,76.200527287817
2024-09-23 22:27:30.061299,41.75,56.696855,0.0007461703303635545,-0.02238531725122294,0.09710254654607277,44.11764879391193,-92.24360919585227,80.21211738781929
2024-09-23 22:27:30.073271,41.75,56.696906,0.000845657606494293,-0.02308174982955575,0.09710254654607277,44.11764879391193,-92.24360919585227,80.21211738781929
2024-09-23 22:27:30.107226,41.75,56.696906,0.000845657606494293,-0.02308174982955575,0.0973512698629459,40.106058693909645,-92.24360919585227,80.21211738781929
2024-09-23 22:27:30.119159,41.75,56.696957,0.0009948937421727254,-0.02308174982955575,0.0973512698629459,40.106058693909645,-92.24360919585227,76.200527287817
2024-09-23 22:27:30.162125,41.75,56.697049,0.0009948937421727254,-0.022833026512682618,0.09755024973162574,40.106058693909645,-92.24360919585227,72.1922225099802
2024-09-23 22:27:30.204463,41.75,56.697049,0.0007959191899112484,-0.022484804147609512,0.09715228999426605,40.106058693909645,-92.24360919585227,72.1922225099802
2024-09-23 22:27:30.216578,41.75,56.697049,0.0007959191899112484,-0.022484804147609512,0.09715228999426605,36.09446859390736,-92.24360919585227,80.21211738781929
2024-09-23 22:27:30.259422,41.75,56.6971,0.0009451553255896806,-0.02263404056809607,0.09774922960030558,44.11764879391193,-100.26678939585686,80.21211738781929
2024-09-23 22:27:30.302600,41.75,56.697196,0.0014923510087557158,-0.02263404056809607,0.09774922960030558,44.11764879391193,-100.26678939585686,84.22370748782159
2024-09-23 22:27:30.314286,41.75,56.697196,0.0014923510087557158,-0.02268379009219606,0.0973015264147526,52.137550501942634,-100.26678939585686,84.22370748782159
2024-09-23 22:27:30.357956,41.75,56.697247,0.001044642601720419,-0.02293251340906919,0.09720203344245934,52.137550501942634,-96.25519929585457,84.22370748782159
2024-09-23 22:27:30.399895,41.75,56.697247,0.001044642601720419,-0.02293251340906919,0.09720203344245934,48.12595698684454,-104.27510100388527,76.200527287817
2024-09-23 22:27:30.411293,41.75,56.697298,0.001044642601720419,-0.023230986250042305,0.09720203344245934,48.12595698684454,-104.27510100388527,76.200527287817
2024-09-23 22:27:30.454297,41.75,56.697348,0.001044642601720419,-0.023230986250042305,0.0976994861521123,40.106058693909645,-104.27510100388527,76.200527287817
2024-09-23 22:27:30.466430,41.75,56.697348,0.0005471957306340564,-0.023230986250042305,0.0976994861521123,40.106058693909645,-104.27510100388527,76.200527287817
2024-09-23 22:27:30.498793,41.75,56.697348,0.0005471957306340564,-0.022484804147609512,0.09759999317981902,40.106058693909645,-104.27510100388527,76.200527287817
2024-09-23 22:27:30.510584,41.75,56.697439,0.0005471957306340564,-0.022484804147609512,0.09759999317981902,40.106058693909645,-100.26678939585686,76.200527287817
2024-09-23 22:27:30.544477,41.75,56.697439,0.001044642601720419,-0.022484804147609512,0.09759999317981902,40.106058693909645,-100.26678939585686,76.200527287817
2024-09-23 22:27:30.556274,41.75,56.697439,0.001044642601720419,-0.023230986250042305,0.09774922960030558,36.09446859390736,-92.24360919585227,72.1922225099802
2024-09-23 22:27:30.599373,41.75,56.69749,0.0011441298778511575,-0.022584292562972758,0.09784872257259886,40.106058693909645,-92.24360919585227,72.1922225099802
2024-09-23 22:27:30.744760,41.15,56.697541,0.0004974468710863627,-0.02308174982955575,0.0973015264147526,40.106058693909645,-92.24360919585227,76.200527287817
2024-09-23 22:27:30.757205,41.15,56.697541,0.0004974468710863627,-0.02308174982955575,0.0973015264147526,44.11764879391193,-92.24360919585227,76.200527287817
2024-09-23 22:27:30.789019,41.15,56.697541,0.0004974468710863627,-0.02308174982955575,0.0973015264147526,44.11764879391193,-100.26678939585686,72.1922225099802
2024-09-23 22:27:30.800848,41.15,56.697592,0.0006466830067647949,-0.023330473146428877,0.09794820946898543,44.11764879391193,-100.26678939585686,72.1922225099802
2024-09-23 22:27:30.844269,41.15,56.697642,0.0001989745997294981,-0.02293251340906919,0.09794820946898543,40.106058693909645,-92.24360919585227,80.21211738781929
2024-09-23 22:27:30.886564,41.15,56.697642,0.0001989745997294981,-0.02293251340906919,0.09710254654607277,40.106058693909645,-92.24360919585227,80.21211738781929
2024-09-23 22:27:30.897839,41.15,56.697693,0.0001989745997294981,-0.02293251340906919,0.09710254654607277,40.106058693909645,-92.24360919585227,76.200527287817
2024-09-23 22:27:30.940100,41.15,56.697693,0.0001989745997294981,-0.02303200030545576,0.09720203344245934,32.08287849390507,-92.24360919585227,76.200527287817
2024-09-23 22:27:30.952560,41.15,56.69778,0.0001989745997294981,-0.02303200030545576,0.09720203344245934,32.08287849390507,-92.24360919585227,76.200527287817
2024-09-23 22:27:30.985183,41.15,56.69778,0.0006964318663124887,-0.022982261414192504,0.09695331012558621,32.08287849390507,-92.24360919585227,76.200527287817
2024-09-23 22:27:30.996737,41.15,56.69778,0.0006964318663124887,-0.022982261414192504,0.09695331012558621,56.14914060194492,-96.25519929585457,72.1922225099802
2024-09-23 22:27:31.040297,41.15,56.697927,0.0006466830067647949,-0.022833026512682618,0.09745075675933246,48.12595698684454,-96.25519929585457,72.1922225099802
2024-09-23 22:27:31.082804,41.15,56.697978,0.0009451553255896806,-0.022833026512682618,0.09745075675933246,48.12595698684454,-96.25519929585457,76.200527287817
2024-09-23 22:27:31.094606,41.15,56.697978,0.0009451553255896806,-0.02303200030545576,0.09720203344245934,44.11764879391193,-96.25519929585457,76.200527287817
2024-09-23 22:27:31.129241,41.15,56.697978,0.0009451553255896806,-0.02303200030545576,0.09720203344245934,44.11764879391193,-88.23529758782387,76.200527287817
2024-09-23 22:27:31.140993,41.15,56.698029,0.001044642601720419,-0.022733528983459317,0.09725178296655933,44.11764879391193,-88.23529758782387,84.22370748782159
2024-09-23 22:27:31.183614,41.15,56.698079,0.0007461703303635545,-0.022733528983459317,0.09725178296655933,36.09446859390736,-88.23529758782387,80.21211738781929
2024-09-23 22:27:31.195684,41.15,56.698079,0.0007461703303635545,-0.023230986250042305,0.09725178296655933,36.09446859390736,-88.23529758782387,80.21211738781929
2024-09-23 22:27:31.228173,41.15,56.698079,0.0007461703303635545,-0.023230986250042305,0.09705279702197278,36.09446859390736,-88.23529758782387,80.21211738781929
2024-09-23 22:27:31.239793,41.15,56.69813,0.0005471957306340564,-0.023230986250042305,0.09705279702197278,36.09446859390736,-96.25519929585457,76.200527287817
2024-09-23 22:27:31.282541,41.15,56.698219,0.0005471957306340564,-0.0225345536717095,0.09715228999426605,40.106058693909645,-88.23529758782387,80.21211738781929
2024-09-23 22:27:31.324471,41.15,56.698219,0.0011441298778511575,-0.02338022115155219,0.09715228999426605,40.106058693909645,-88.23529758782387,80.21211738781929
2024-09-23 22:27:31.335922,41.15,56.698219,0.0011441298778511575,-0.02338022115155219,0.09764974270391902,48.12595698684454,-88.23529758782387,72.1922225099802
2024-09-23 22:27:31.378318,41.15,56.69827,0.0007959191899112484,-0.02268379009219606,0.0970030596496862,48.12595698684454,-88.23529758782387,72.1922225099802
2024-09-23 22:27:31.389808,41.15,56.69827,0.0007959191899112484,-0.02268379009219606,0.0970030596496862,44.11764879391193,-96.25519929585457,72.1922225099802
2024-09-23 22:27:31.422701,41.15,56.698321,0.0007959191899112484,-0.02268379009219606,0.0970030596496862,44.11764879391193,-96.25519929585457,72.1922225099802
2024-09-23 22:27:31.434411,41.15,56.698321,0.0005969341946851222,-0.023280723622328886,0.09799795899308542,32.08287849390507,-96.25519929585457,72.1922225099802
2024-09-23 22:27:31.476163,41.15,56.698372,0.0006964318663124887,-0.023429960042815445,0.09799795899308542,32.08287849390507,-88.23529758782387,72.1922225099802
2024-09-23 22:27:31.487790,41.15,56.698372,0.0006964318663124887,-0.023429960042815445,0.09799795899308542,32.08287849390507,-88.23529758782387,72.1922225099802
2024-09-23 22:27:31.520968,41.15,56.698372,0.0006964318663124887,-0.023429960042815445,0.09799795899308542,44.11764879391193,-88.23529758782387,80.21211738781929
2024-09-23 22:27:31.532819,41.15,56.698422,0.001044642601720419,-0.023230986250042305,0.09799795899308542,44.11764879391193,-88.23529758782387,80.21211738781929
2024-09-23 22:27:31.575558,41.15,56.698473,0.0007461703303635545,-0.023230986250042305,0.0973015264147526,44.11764879391193,-88.23529758782387,80.21211738781929
2024-09-23 22:27:31.618161,41.15,56.698473,0.0007461703303635545,-0.022733528983459317,0.09764974270391902,36.09446859390736,-88.23529758782387,80.21211738781929
2024-09-23 22:27:31.630112,41.15,56.698473,0.0007461703303635545,-0.022733528983459317,0.09764974270391902,36.09446859390736,-96.25519929585457,80.21211738781929
2024-09-23 22:27:31.673238,41.15,56.69856,0.0006466830067647949,-0.0228827638849692,0.09745075675933246,36.09446859390736,-96.25519929585457,72.1922225099802
2024-09-23 22:27:31.715568,41.15,56.69856,0.0006466830067647949,-0.0228827638849692,0.09745075675933246,36.09446859390736,-96.25519929585457,72.1922225099802
2024-09-23 22:27:31.768172,41.35,56.698612,0.0003979595949556242,-0.02313149783467906,0.09740101331113918,36.09446859390736,-96.25519929585457,72.1922225099802
2024-09-23 22:27:31.780640,41.35,56.698612,0.0003979595949556242,-0.02313149783467906,0.09740101331113918,44.11764879391193,-96.25519929585457,72.1922225099802
2024-09-23 22:27:31.813090,41.35,56.698612,0.0003979595949556242,-0.02313149783467906,0.09740101331113918,44.11764879391193,-92.24360919585227,76.200527287817
2024-09-23 22:27:31.824464,41.35,56.698662,0.0009451553255896806,-0.02233556924609963,0.09819693278585856,44.11764879391193,-92.24360919585227,76.200527287817
2024-09-23 22:27:31.868075,41.35,56.698713,0.0006964318663124887,-0.02268379009219606,0.09819693278585856,40.106058693909645,-92.24360919585227,76.200527287817
2024-09-23 22:27:31.910003,41.35,56.698713,0.0006964318663124887,-0.02268379009219606,0.09685382322919964,32.08287849390507,-92.24360919585227,76.200527287817
2024-09-23 22:27:31.921462,41.35,56.698764,0.000845657606494293,-0.02268379009219606,0.09685382322919964,32.08287849390507,-100.26678939585686,68.18063240997792
2024-09-23 22:27:31.963525,41.35,56.698764,0.000845657606494293,-0.02303200030545576,0.09750050628343246,40.106058693909645,-100.26678939585686,68.18063240997792
2024-09-23 22:27:32.005401,41.35,56.698764,0.000845657606494293,-0.02303200030545576,0.09750050628343246,40.106058693909645,-100.26678939585686,68.18063240997792
2024-09-23 22:27:32.017987,41.35,56.698853,0.0008954064660419869,-0.02228583035483637,0.09774922960030558,40.106058693909645,-100.26678939585686,80.21211738781929
2024-09-23 22:27:32.060544,41.35,56.698951,0.0008954064660419869,-0.02228583035483637,0.09774922960030558,36.09446859390736,-92.24360919585227,76.200527287817
2024-09-23 22:27:32.072095,41.35,56.698951,0.0009451553255896806,-0.023429960042815445,0.09774922960030558,36.09446859390736,-92.24360919585227,76.200527287817
2024-09-23 22:27:32.104794,41.35,56.698951,0.0009451553255896806,-0.023429960042815445,0.09690356060148622,48.12595698684454,-92.24360919585227,76.200527287817
2024-09-23 22:27:32.116275,41.35,56.699002,0.00014922575204880957,-0.023429960042815445,0.09690356060148622,48.12595698684454,-88.23529758782387,76.200527287817
2024-09-23 22:27:32.159258,41.35,56.699053,0.00014922575204880957,-0.0228827638849692,0.09715228999426605,40.106058693909645,-96.25519929585457,76.200527287817
2024-09-23 22:27:32.202093,41.35,56.699053,0.0004974468710863627,-0.02263404056809607,0.09715228999426605,40.106058693909645,-96.25519929585457,76.200527287817
2024-09-23 22:27:32.213427,41.35,56.699053,0.0004974468710863627,-0.02263404056809607,0.09784872257259886,44.11764879391193,-84.22370748782159,80.21211738781929
2024-09-23 22:27:32.256363,41.35,56.699146,0.0009948937421727254,-0.02303200030545576,0.09824668230995855,48.12595698684454,-84.22370748782159,80.21211738781929
2024-09-23 22:27:32.268064,41.35,56.699146,0.0009948937421727254,-0.02303200030545576,0.09824668230995855,48.12595698684454,-92.24360919585227,80.21211738781929
2024-09-23 22:27:32.301962,41.35,56.699197,0.000845657606494293,-0.02303200030545576,0.09824668230995855,48.12595698684454,-92.24360919585227,76.200527287817
2024-09-23 22:27:32.313408,41.35,56.699197,0.000845657606494293,-0.0228827638849692,0.09715228999426605,48.12595698684454,-92.24360919585227,76.200527287817
2024-09-23 22:27:32.355640,41.35,56.699248,0.0003979595949556242,-0.02303200030545576,0.0973512698629459,48.12595698684454,-88.23529758782387,76.200527287817
2024-09-23 22:27:32.397323,41.35,56.699248,0.0003979595949556242,-0.02303200030545576,0.0973512698629459,44.11764879391193,-88.23529758782387,76.200527287817
2024-09-23 22:27:32.408742,41.35,56.699298,0.000845657606494293,-0.02303200030545576,0.0973512698629459,44.11764879391193,-88.23529758782387,80.21211738781929
2024-09-23 22:27:32.451065,41.35,56.699349,0.000845657606494293,-0.02303200030545576,0.09759999317981902,36.09446859390736,-96.25519929585457,80.21211738781929
2024-09-23 22:27:32.463066,41.35,56.699349,0.0007461703303635545,-0.02303200030545576,0.09759999317981902,36.09446859390736,-96.25519929585457,80.21211738781929
2024-09-23 22:27:32.495018,41.35,56.699349,0.0007461703303635545,-0.023280723622328886,0.09764974270391902,36.09446859390736,-96.25519929585457,80.21211738781929
2024-09-23 22:27:32.506835,41.35,56.699438,0.0007461703303635545,-0.023280723622328886,0.09764974270391902,40.106058693909645,-92.24360919585227,76.200527287817
2024-09-23 22:27:32.549234,41.35,56.699438,0.0006466830067647949,-0.022833026512682618,0.09745075675933246,52.137550501942634,-88.23529758782387,84.22370748782159
2024-09-23 22:27:32.591765,41.35,56.699489,0.0009948937421727254,-0.022833026512682618,0.09745075675933246,52.137550501942634,-88.23529758782387,84.22370748782159
2024-09-23 22:27:32.603567,41.35,56.699489,0.0009948937421727254,-0.023330473146428877,0.09715228999426605,44.11764879391193,-88.23529758782387,84.22370748782159
2024-09-23 22:27:32.646054,41.35,56.69954,0.000845657606494293,-0.02303200030545576,0.0970030596496862,44.11764879391193,-88.23529758782387,80.21211738781929
2024-09-23 22:27:32.658269,41.35,56.69954,0.000845657606494293,-0.02303200030545576,0.0970030596496862,44.11764879391193,-88.23529758782387,80.21211738781929
2024-09-23 22:27:32.690193,41.35,56.69954,0.000845657606494293,-0.02303200030545576,0.0970030596496862,44.11764879391193,-100.26678939585686,72.1922225099802
2024-09-23 22:27:32.701955,41.35,56.699591,0.00044769805900669,-0.02308174982955575,0.09745075675933246,44.11764879391193,-100.26678939585686,72.1922225099802
2024-09-23 22:27:32.744140,41.35,56.699591,0.00044769805900669,-0.02308174982955575,0.09745075675933246,44.11764879391193,-96.25519929585457,72.1922225099802
2024-09-23 22:27:32.786477,41.54,56.699641,0.00044769805900669,-0.02308174982955575,0.09745075675933246,44.11764879391193,-96.25519929585457,80.21211738781929
2024-09-23 22:27:32.797751,41.54,56.699641,0.0012933660135295898,-0.023280723622328886,0.09745075675933246,40.106058693909645,-96.25519929585457,80.21211738781929
2024-09-23 22:27:32.840308,41.54,56.699692,0.00024872343554318134,-0.023280723622328886,0.09745075675933246,40.106058693909645,-92.24360919585227,80.21211738781929
2024-09-23 22:27:32.852897,41.54,56.699692,0.00024872343554318134,-0.0225345536717095,0.09715228999426605,40.106058693909645,-92.24360919585227,80.21211738781929
2024-09-23 22:27:32.885148,41.54,56.699692,0.00024872343554318134,-0.0225345536717095,0.09715228999426605,44.11764879391193,-92.24360919585227,80.21211738781929
2024-09-23 22:27:32.896643,41.54,56.699779,0.0009451553255896806,-0.02338022115155219,0.09715228999426605,44.11764879391193,-92.24360919585227,76.200527287817
2024-09-23 22:27:32.939361,41.54,56.69983,0.0010943914612681128,-0.02338022115155219,0.09819693278585856,44.11764879391193,-92.24360919585227,76.200527287817
2024-09-23 22:27:32.982156,41.54,56.69983,0.0010943914612681128,-0.02233556924609963,0.09750050628343246,44.11764879391193,-92.24360919585227,76.200527287817
2024-09-23 22:27:32.993207,41.54,56.699881,0.0010943914612681128,-0.02233556924609963,0.09750050628343246,36.09446859390736,-96.25519929585457,76.200527287817
2024-09-23 22:27:33.035861,41.54,56.699881,0.0011441298778511575,-0.023181236725942318,0.09720203344245934,32.08287849390507,-96.25519929585457,76.200527287817
2024-09-23 22:27:33.048025,41.54,56.699881,0.0011441298778511575,-0.023181236725942318,0.09720203344245934,32.08287849390507,-88.23529758782387,76.200527287817
2024-09-23 22:27:33.080845,41.54,56.699974,0.0007461703303635545,-0.023181236725942318,0.09720203344245934,32.08287849390507,-88.23529758782387,76.200527287817
2024-09-23 22:27:33.092717,41.54,56.699974,0.0007461703303635545,-0.022733528983459317,0.09745075675933246,32.08287849390507,-92.24360919585227,76.200527287817
2024-09-23 22:27:33.135283,41.54,56.700026,0.0005471957306340564,-0.02303200030545576,0.09789846602079214,40.106058693909645,-92.24360919585227,76.200527287817
2024-09-23 22:27:33.177328,41.54,56.700026,0.0005471957306340564,-0.02303200030545576,0.09789846602079214,40.106058693909645,-92.24360919585227,76.200527287817
2024-09-23 22:27:33.188896,41.54,56.700076,0.0010943914612681128,-0.02338022115155219,0.09750050628343246,40.106058693909645,-92.24360919585227,76.200527287817
2024-09-23 22:27:33.231505,41.54,56.700127,0.0009948937421727254,-0.02338022115155219,0.09750050628343246,44.11764879391193,-96.25519929585457,80.21211738781929
2024-09-23 22:27:33.243419,41.54,56.700127,0.0009948937421727254,-0.02313149783467906,0.09750050628343246,44.11764879391193,-96.25519929585457,80.21211738781929
2024-09-23 22:27:33.276605,41.54,56.700127,0.0009948937421727254,-0.02313149783467906,0.09740101331113918,44.11764879391193,-96.25519929585457,80.21211738781929
2024-09-23 22:27:33.288428,41.54,56.700127,0.0009948937421727254,-0.02313149783467906,0.09740101331113918,44.11764879391193,-96.25519929585457,76.200527287817
2024-09-23 22:27:33.331330,41.54,56.700178,0.0007461703303635545,-0.02352945757203875,0.09745075675933246,40.106058693909645,-92.24360919585227,76.200527287817
2024-09-23 22:27:33.373886,41.54,56.700266,0.0004974468710863627,-0.02352945757203875,0.09745075675933246,40.106058693909645,-92.24360919585227,72.1922225099802
2024-09-23 22:27:33.385720,41.54,56.700266,0.0004974468710863627,-0.022733528983459317,0.09764974270391902,40.106058693909645,-92.24360919585227,72.1922225099802
2024-09-23 22:27:33.427908,41.54,56.700318,0.0011441298778511575,-0.02293251340906919,0.09710254654607277,40.106058693909645,-92.24360919585227,76.200527287817
2024-09-23 22:27:33.471254,41.54,56.700318,0.0011441298778511575,-0.02293251340906919,0.09710254654607277,40.106058693909645,-92.24360919585227,80.21211738781929
2024-09-23 22:27:33.482766,41.54,56.700368,0.000845657606494293,-0.02313149783467906,0.09710254654607277,40.106058693909645,-92.24360919585227,80.21211738781929
2024-09-23 22:27:33.525365,41.54,56.700419,0.0004974468710863627,-0.02313149783467906,0.09759999317981902,36.09446859390736,-88.23529758782387,84.22370748782159
2024-09-23 22:27:33.568067,41.54,56.700419,0.0004974468710863627,-0.02268379009219606,0.098047696365372,52.137550501942634,-88.23529758782387,84.22370748782159
2024-09-23 22:27:33.579276,41.54,56.70051,0.0004974468710863627,-0.02268379009219606,0.098047696365372,52.137550501942634,-88.23529758782387,80.21211738781929
2024-09-23 22:27:33.621462,41.54,56.70051,0.0012436275969465451,-0.022833026512682618,0.09690356060148622,44.11764879391193,-92.24360919585227,80.21211738781929
2024-09-23 22:27:33.664257,41.54,56.700562,0.0007461703303635545,-0.022833026512682618,0.09690356060148622,44.11764879391193,-92.24360919585227,80.21211738781929
2024-09-23 22:27:33.675810,41.54,56.700562,0.0007461703303635545,-0.02308174982955575,0.09740101331113918,32.08287849390507,-88.23529758782387,80.21211738781929
2024-09-23 22:27:33.719023,41.54,56.700612,0.0007959191899112484,-0.023230986250042305,0.09695331012558621,32.08287849390507,-88.23529758782387,76.200527287817
2024-09-23 22:27:33.730821,41.54,56.700612,0.0007959191899112484,-0.023230986250042305,0.09695331012558621,40.106058693909645,-88.23529758782387,76.200527287817
2024-09-23 22:27:33.762338,41.54,56.700612,0.0007959191899112484,-0.023230986250042305,0.09695331012558621,40.106058693909645,-92.24360919585227,76.200527287817
2024-09-23 22:27:33.814656,41.52,56.700663,0.0005471957306340564,-0.02278327698858263,0.09755024973162574,40.106058693909645,-92.24360919585227,76.200527287817
2024-09-23 22:27:33.827790,41.52,56.700663,0.0005471957306340564,-0.02278327698858263,0.09755024973162574,40.106058693909645,-100.26678939585686,76.200527287817
2024-09-23 22:27:33.860267,41.52,56.700714,0.0005471957306340564,-0.02278327698858263,0.09755024973162574,40.106058693909645,-100.26678939585686,80.21211738781929
2024-09-23 22:27:33.913020,41.52,56.700714,0.0012436275969465451,-0.022982261414192504,0.09774922960030558,40.106058693909645,-100.26678939585686,80.21211738781929
2024-09-23 22:27:33.924234,41.52,56.700714,0.0012436275969465451,-0.022982261414192504,0.09774922960030558,40.106058693909645,-96.25519929585457,76.200527287817
2024-09-23 22:27:33.957974,41.52,56.700764,0.0007461703303635545,-0.022982261414192504,0.09774922960030558,40.106058693909645,-96.25519929585457,76.200527287817
2024-09-23 22:27:33.969686,41.52,56.700764,0.0007461703303635545,-0.0228827638849692,0.09774922960030558,56.14914060194492,-84.22370748782159,76.200527287817
2024-09-23 22:27:34.011767,41.52,56.700851,0.0008954064660419869,-0.022982261414192504,0.09725178296655933,56.14914060194492,-84.22370748782159,76.200527287817
2024-09-23 22:27:34.023439,41.52,56.700851,0.0008954064660419869,-0.022982261414192504,0.09725178296655933,44.11764879391193,-84.22370748782159,76.200527287817
2024-09-23 22:27:34.055877,41.52,56.700902,0.0008954064660419869,-0.022982261414192504,0.09725178296655933,44.11764879391193,-92.24360919585227,72.1922225099802
2024-09-23 22:27:34.068046,41.52,56.700902,9.948729986474904e-05,-0.02303200030545576,0.09755024973162574,44.11764879391193,-92.24360919585227,72.1922225099802
2024-09-23 22:27:34.110625,41.52,56.700998,0.0007959191899112484,-0.023330473146428877,0.09755024973162574,36.09446859390736,-96.25519929585457,76.200527287817
2024-09-23 22:27:34.154016,41.52,56.700998,0.0007959191899112484,-0.023330473146428877,0.09794820946898543,52.137550501942634,-100.26678939585686,76.200527287817
2024-09-23 22:27:34.165473,41.52,56.701049,0.0006964318663124887,-0.023330473146428877,0.09794820946898543,52.137550501942634,-100.26678939585686,76.200527287817
2024-09-23 22:27:34.210033,41.52,56.701144,0.0006964318663124887,-0.02313149783467906,0.09725178296655933,48.12595698684454,-88.23529758782387,80.21211738781929
2024-09-23 22:27:34.252898,41.52,56.701144,0.00044769805900669,-0.022982261414192504,0.09675432418099966,48.12595698684454,-88.23529758782387,80.21211738781929
2024-09-23 22:27:34.264382,41.52,56.701144,0.00044769805900669,-0.022982261414192504,0.09675432418099966,40.106058693909645,-88.23529758782387,72.1922225099802
2024-09-23 22:27:34.296503,41.52,56.701195,0.00044769805900669,-0.022982261414192504,0.09675432418099966,40.106058693909645,-88.23529758782387,72.1922225099802
2024-09-23 22:27:34.308135,41.52,56.701195,0.00044769805900669,-0.023579196463302005,0.0973512698629459,44.11764879391193,-92.24360919585227,72.1922225099802
2024-09-23 22:27:34.351750,41.52,56.701246,0.0007461703303635545,-0.02278327698858263,0.0973512698629459,44.11764879391193,-92.24360919585227,80.21211738781929
2024-09-23 22:27:34.363567,41.52,56.701246,0.0007461703303635545,-0.02278327698858263,0.0973512698629459,44.11764879391193,-92.24360919585227,80.21211738781929
2024-09-23 22:27:34.396848,41.52,56.701246,0.0007461703303635545,-0.02278327698858263,0.0973512698629459,44.11764879391193,-92.24360919585227,76.200527287817
2024-09-23 22:27:34.407755,41.52,56.701297,0.0007959191899112484,-0.02352945757203875,0.09725178296655933,44.11764879391193,-92.24360919585227,76.200527287817
2024-09-23 22:27:34.450225,41.52,56.701347,0.00044769805900669,-0.023181236725942318,0.09725178296655933,28.07457030097246,-92.24360919585227,72.1922225099802
2024-09-23 22:27:34.493385,41.52,56.701347,0.00044769805900669,-0.023181236725942318,0.09715228999426605,32.08287849390507,-92.24360919585227,72.1922225099802
2024-09-23 22:27:34.504694,41.52,56.701398,0.001044642601720419,-0.023181236725942318,0.09715228999426605,32.08287849390507,-92.24360919585227,72.1922225099802
2024-09-23 22:27:34.546783,41.52,56.701398,0.001044642601720419,-0.023330473146428877,0.09779897304849887,48.12595698684454,-96.25519929585457,72.1922225099802
2024-09-23 22:27:34.558482,41.52,56.701485,0.001044642601720419,-0.023330473146428877,0.09779897304849887,48.12595698684454,-96.25519929585457,80.21211738781929
2024-09-23 22:27:34.591611,41.52,56.701485,0.0012436275969465451,-0.023280723622328886,0.09779897304849887,48.12595698684454,-96.25519929585457,80.21211738781929
2024-09-23 22:27:34.603393,41.52,56.701485,0.0012436275969465451,-0.023280723622328886,0.09774922960030558,32.08287849390507,-92.24360919585227,76.200527287817
2024-09-23 22:27:34.645592,41.52,56.701537,0.0012933660135295898,-0.02313149783467906,0.098047696365372,32.08287849390507,-92.24360919585227,76.200527287817
2024-09-23 22:27:34.657320,41.52,56.701537,0.0012933660135295898,-0.02313149783467906,0.098047696365372,32.08287849390507,-92.24360919585227,76.200527287817
2024-09-23 22:27:34.690353,41.52,56.701587,0.001044642601720419,-0.02313149783467906,0.098047696365372,32.08287849390507,-92.24360919585227,76.200527287817
2024-09-23 22:27:34.702039,41.52,56.701587,0.001044642601720419,-0.0225345536717095,0.09740101331113918,32.08287849390507,-92.24360919585227,76.200527287817
2024-09-23 22:27:34.745374,41.52,56.701638,0.0005471957306340564,-0.02308174982955575,0.09755024973162574,32.08287849390507,-92.24360919585227,84.22370748782159
2024-09-23 22:27:34.787768,41.52,56.701638,0.0005471957306340564,-0.02308174982955575,0.09755024973162574,40.106058693909645,-92.24360919585227,80.21211738781929
2024-09-23 22:27:34.841932,41.41,56.701689,0.0006466830067647949,-0.023230986250042305,0.09764974270391902,44.11764879391193,-96.25519929585457,80.21211738781929
2024-09-23 22:27:34.884997,41.41,56.701739,0.0006964318663124887,-0.023230986250042305,0.09764974270391902,44.11764879391193,-96.25519929585457,68.18063240997792
2024-09-23 22:27:34.896315,41.41,56.701739,0.0006964318663124887,-0.02263404056809607,0.09755024973162574,36.09446859390736,-96.25519929585457,68.18063240997792
2024-09-23 22:27:34.939411,41.41,56.701826,0.0008954064660419869,-0.02263404056809607,0.09764974270391902,36.09446859390736,-100.26678939585686,68.18063240997792
2024-09-23 22:27:34.982133,41.41,56.701826,0.0008954064660419869,-0.02263404056809607,0.09764974270391902,40.106058693909645,-92.24360919585227,76.200527287817
2024-09-23 22:27:34.993398,41.41,56.701878,0.0007959191899112484,-0.02293251340906919,0.09764974270391902,40.106058693909645,-92.24360919585227,76.200527287817
2024-09-23 22:27:35.035701,41.41,56.701929,0.0009948937421727254,-0.02293251340906919,0.09819693278585856,52.137550501942634,-100.26678939585686,84.22370748782159
2024-09-23 22:27:35.079563,41.41,56.701929,0.0009948937421727254,-0.022982261414192504,0.09745075675933246,44.11764879391193,-100.26678939585686,84.22370748782159
2024-09-23 22:27:35.091353,41.41,56.702021,0.0009948937421727254,-0.022982261414192504,0.09745075675933246,44.11764879391193,-92.24360919585227,76.200527287817
2024-09-23 22:27:35.133666,41.41,56.702021,0.0004974468710863627,-0.023181236725942318,0.09705279702197278,48.12595698684454,-84.22370748782159,80.21211738781929
2024-09-23 22:27:35.228126,41.41,56.702073,0.0011441298778511575,-0.02338022115155219,0.09789846602079214,48.12595698684454,-84.22370748782159,80.21211738781929
2024-09-23 22:27:35.240100,41.41,56.702073,0.0011441298778511575,-0.02338022115155219,0.09789846602079214,48.12595698684454,-92.24360919585227,80.21211738781929
2024-09-23 22:27:35.272992,41.41,56.702073,0.0011441298778511575,-0.02338022115155219,0.09789846602079214,48.12595698684454,-92.24360919585227,76.200527287817
2024-09-23 22:27:35.284685,41.41,56.702124,0.0011938787373988514,-0.02293251340906919,0.09705279702197278,48.12595698684454,-92.24360919585227,76.200527287817
2024-09-23 22:27:35.327532,41.41,56.702174,0.00044769805900669,-0.02293251340906919,0.09705279702197278,48.12595698684454,-96.25519929585457,76.200527287817
2024-09-23 22:27:35.339427,41.41,56.702174,0.00044769805900669,-0.02303200030545576,0.0973512698629459,48.12595698684454,-96.25519929585457,76.200527287817
2024-09-23 22:27:35.372259,41.41,56.702174,0.00044769805900669,-0.02303200030545576,0.0973512698629459,48.12595698684454,-96.25519929585457,76.200527287817
2024-09-23 22:27:35.383917,41.41,56.702225,0.0006466830067647949,-0.022733528983459317,0.0973512698629459,48.12595698684454,-96.25519929585457,80.21211738781929
2024-09-23 22:27:35.425853,41.41,56.702276,0.0012436275969465451,-0.022733528983459317,0.09640611396773996,48.12595698684454,-96.25519929585457,80.21211738781929
2024-09-23 22:27:35.468252,41.41,56.702276,0.0012436275969465451,-0.02303200030545576,0.09789846602079214,48.12595698684454,-96.25519929585457,80.21211738781929
2024-09-23 22:27:35.480526,41.41,56.702411,0.0012436275969465451,-0.02303200030545576,0.09789846602079214,40.106058693909645,-88.23529758782387,72.1922225099802
2024-09-23 22:27:35.523962,41.41,56.702411,0.00044769805900669,-0.02303200030545576,0.0976994861521123,44.11764879391193,-92.24360919585227,76.200527287817
2024-09-23 22:27:35.566023,41.41,56.702463,0.0010943914612681128,-0.02303200030545576,0.0976994861521123,44.11764879391193,-92.24360919585227,76.200527287817
2024-09-23 22:27:35.577258,41.41,56.702463,0.0010943914612681128,-0.02278327698858263,0.09745075675933246,48.12595698684454,-100.26678939585686,76.200527287817
2024-09-23 22:27:35.620332,41.41,56.702513,0.0012933660135295898,-0.02352945757203875,0.0973015264147526,40.106058693909645,-100.26678939585686,72.1922225099802
2024-09-23 22:27:35.662877,41.41,56.702513,0.0012933660135295898,-0.02352945757203875,0.0973015264147526,40.106058693909645,-96.25519929585457,76.200527287817
2024-09-23 22:27:35.674237,41.41,56.702564,0.0008954064660419869,-0.022982261414192504,0.09685382322919964,40.106058693909645,-96.25519929585457,76.200527287817
2024-09-23 22:27:35.716398,41.41,56.702615,0.00034821073540793035,-0.022982261414192504,0.09685382322919964,40.106058693909645,-92.24360919585227,76.200527287817
2024-09-23 22:27:35.728490,41.41,56.702615,0.00034821073540793035,-0.023330473146428877,0.09685382322919964,40.106058693909645,-92.24360919585227,76.200527287817
2024-09-23 22:27:35.811750,41.41,56.702615,0.00034821073540793035,-0.023330473146428877,0.09740101331113918,44.11764879391193,-88.23529758782387,76.200527287817
2024-09-23 22:27:35.865415,41.0,56.702665,0.0009948937421727254,-0.023230986250042305,0.09705279702197278,40.106058693909645,-88.23529758782387,76.200527287817
2024-09-23 22:27:35.908871,41.0,56.702753,0.0009948937421727254,-0.023230986250042305,0.09705279702197278,40.106058693909645,-92.24360919585227,80.21211738781929
2024-09-23 22:27:35.920471,41.0,56.702753,0.0009451553255896806,-0.023280723622328886,0.09794820946898543,40.106058693909645,-92.24360919585227,80.21211738781929
2024-09-23 22:27:35.963599,41.0,56.702804,0.0006466830067647949,-0.02308174982955575,0.09794820946898543,36.09446859390736,-84.22370748782159,84.22370748782159
2024-09-23 22:27:36.005692,41.0,56.702804,0.0006466830067647949,-0.02308174982955575,0.09774922960030558,36.09446859390736,-92.24360919585227,84.22370748782159
2024-09-23 22:27:36.018105,41.0,56.702855,0.0006964318663124887,-0.02308174982955575,0.09774922960030558,36.09446859390736,-92.24360919585227,84.22370748782159
2024-09-23 22:27:36.060737,41.0,56.702949,0.0006964318663124887,-0.023230986250042305,0.09779897304849887,36.09446859390736,-96.25519929585457,72.1922225099802
2024-09-23 22:27:36.103675,41.0,56.702949,0.0007959191899112484,-0.02313149783467906,0.09784872257259886,36.09446859390736,-96.25519929585457,72.1922225099802
2024-09-23 22:27:36.115331,41.0,56.702949,0.0007959191899112484,-0.02313149783467906,0.09784872257259886,40.106058693909645,-92.24360919585227,80.21211738781929
2024-09-23 22:27:36.158109,41.0,56.703046,0.0013431148730772837,-0.02308174982955575,0.09794820946898543,44.11764879391193,-92.24360919585227,80.21211738781929
2024-09-23 22:27:36.199951,41.0,56.703097,0.0013431148730772837,-0.02308174982955575,0.09794820946898543,44.11764879391193,-92.24360919585227,84.22370748782159
2024-09-23 22:27:36.211039,41.0,56.703097,0.0004974468710863627,-0.022584292562972758,0.09705279702197278,48.12595698684454,-92.24360919585227,84.22370748782159
2024-09-23 22:27:36.253864,41.0,56.703148,0.00029846189959424716,-0.023230986250042305,0.09705279702197278,48.12595698684454,-88.23529758782387,76.200527287817
2024-09-23 22:27:36.265970,41.0,56.703148,0.00029846189959424716,-0.023230986250042305,0.09725178296655933,48.12595698684454,-88.23529758782387,76.200527287817
2024-09-23 22:27:36.297852,41.0,56.703148,0.00029846189959424716,-0.023230986250042305,0.09725178296655933,36.09446859390736,-96.25519929585457,76.200527287817
2024-09-23 22:27:36.309848,41.0,56.703198,0.0003979595949556242,-0.02308174982955575,0.09725178296655933,36.09446859390736,-96.25519929585457,76.200527287817
2024-09-23 22:27:36.353093,41.0,56.703249,0.0005969341946851222,-0.02308174982955575,0.09705279702197278,44.11764879391193,-92.24360919585227,80.21211738781929
2024-09-23 22:27:36.395075,41.0,56.703249,0.0005969341946851222,-0.023579196463302005,0.09715228999426605,44.11764879391193,-92.24360919585227,80.21211738781929
2024-09-23 22:27:36.406974,41.0,56.703338,0.0005969341946851222,-0.023579196463302005,0.09715228999426605,36.09446859390736,-96.25519929585457,76.200527287817
2024-09-23 22:27:36.449091,41.0,56.703338,0.0006466830067647949,-0.0225345536717095,0.09764974270391902,40.106058693909645,-92.24360919585227,76.200527287817
2024-09-23 22:27:36.460607,41.0,56.703338,0.0006466830067647949,-0.0225345536717095,0.09764974270391902,40.106058693909645,-92.24360919585227,76.200527287817
2024-09-23 22:27:36.492597,41.0,56.703389,0.0009451553255896806,-0.0225345536717095,0.09764974270391902,40.106058693909645,-92.24360919585227,76.200527287817
2024-09-23 22:27:36.504085,41.0,56.703389,0.0009451553255896806,-0.022982261414192504,0.09814718933766527,44.11764879391193,-92.24360919585227,76.200527287817
2024-09-23 22:27:36.546575,41.0,56.70344,0.0001989745997294981,-0.023181236725942318,0.09720203344245934,44.11764879391193,-92.24360919585227,80.21211738781929
2024-09-23 22:27:36.558243,41.0,56.70344,0.0001989745997294981,-0.023181236725942318,0.09720203344245934,36.09446859390736,-92.24360919585227,80.21211738781929
2024-09-23 22:27:36.589822,41.0,56.70344,0.0001989745997294981,-0.023181236725942318,0.09720203344245934,36.09446859390736,-100.26678939585686,68.18063240997792
2024-09-23 22:27:36.601032,41.0,56.70349,0.0008954064660419869,-0.0224350561424862,0.09774922960030558,36.09446859390736,-100.26678939585686,68.18063240997792
2024-09-23 22:27:36.644051,41.0,56.703541,0.0010943914612681128,-0.0224350561424862,0.09774922960030558,48.12595698684454,-92.24360919585227,88.23529758782387
2024-09-23 22:27:36.656115,41.0,56.703541,0.0010943914612681128,-0.022982261414192504,0.09774922960030558,48.12595698684454,-92.24360919585227,88.23529758782387
2024-09-23 22:27:36.689324,41.0,56.703541,0.0010943914612681128,-0.022982261414192504,0.09759999317981902,48.12595698684454,-96.25519929585457,88.23529758782387
2024-09-23 22:27:36.701223,41.0,56.703592,0.0009948937421727254,-0.022982261414192504,0.09759999317981902,48.12595698684454,-96.25519929585457,80.21211738781929
2024-09-23 22:27:36.734937,41.0,56.703592,0.0009948937421727254,-0.022733528983459317,0.09759999317981902,48.12595698684454,-96.25519929585457,80.21211738781929
2024-09-23 22:27:36.746653,41.0,56.703679,0.0009948937421727254,-0.022733528983459317,0.09725178296655933,44.11764879391193,-92.24360919585227,76.200527287817
2024-09-23 22:27:36.789078,41.0,56.703679,0.0006466830067647949,-0.0228827638849692,0.09755024973162574,40.106058693909645,-92.24360919585227,76.200527287817
2024-09-23 22:27:36.800899,41.0,56.703679,0.0006466830067647949,-0.0228827638849692,0.09755024973162574,40.106058693909645,-92.24360919585227,80.21211738781929
2024-09-23 22:27:36.832625,41.0,56.70373,0.0009948937421727254,-0.0228827638849692,0.09755024973162574,40.106058693909645,-92.24360919585227,80.21211738781929
2024-09-23 22:27:36.843838,41.0,56.70373,0.0009948937421727254,-0.02293251340906919,0.09774922960030558,40.106058693909645,-92.24360919585227,80.21211738781929
2024-09-23 22:27:36.885981,41.33,56.703781,0.0006964318663124887,-0.02293251340906919,0.09774922960030558,44.11764879391193,-88.23529758782387,72.1922225099802
2024-09-23 22:27:36.898523,41.33,56.703781,0.0006964318663124887,-0.023230986250042305,0.09774922960030558,44.11764879391193,-88.23529758782387,72.1922225099802
2024-09-23 22:27:36.930856,41.33,56.703781,0.0006964318663124887,-0.023230986250042305,0.09725178296655933,40.106058693909645,-88.23529758782387,72.1922225099802
2024-09-23 22:27:36.941824,41.33,56.703832,0.0003979595949556242,-0.023230986250042305,0.09725178296655933,40.106058693909645,-96.25519929585457,72.1922225099802
2024-09-23 22:27:36.983588,41.33,56.703832,0.0003979595949556242,-0.02263404056809607,0.0973015264147526,40.106058693909645,-92.24360919585227,72.1922225099802
2024-09-23 22:27:36.995117,41.33,56.703882,0.0003979595949556242,-0.02263404056809607,0.0973015264147526,40.106058693909645,-92.24360919585227,80.21211738781929
2024-09-23 22:27:37.028158,41.33,56.703882,0.0003979595949556242,-0.02263404056809607,0.0973015264147526,40.106058693909645,-92.24360919585227,80.21211738781929
2024-09-23 22:27:37.040033,41.33,56.703882,0.0003979595949556242,-0.02268379009219606,0.09774922960030558,44.11764879391193,-100.26678939585686,80.21211738781929
2024-09-23 22:27:37.082555,41.33,56.703934,0.000845657606494293,-0.02362894446842532,0.09814718933766527,36.09446859390736,-100.26678939585686,80.21211738781929
2024-09-23 22:27:37.094244,41.33,56.703934,0.000845657606494293,-0.02362894446842532,0.09814718933766527,36.09446859390736,-96.25519929585457,80.21211738781929
2024-09-23 22:27:37.127666,41.33,56.704021,0.0007959191899112484,-0.02362894446842532,0.09814718933766527,36.09446859390736,-96.25519929585457,76.200527287817
2024-09-23 22:27:37.139294,41.33,56.704021,0.0007959191899112484,-0.022733528983459317,0.09710254654607277,40.106058693909645,-96.25519929585457,76.200527287817
2024-09-23 22:27:37.182849,41.33,56.704072,0.00024872343554318134,-0.023479709566915436,0.09695331012558621,40.106058693909645,-92.24360919585227,80.21211738781929
2024-09-23 22:27:37.225288,41.33,56.704072,0.00024872343554318134,-0.023479709566915436,0.09695331012558621,44.11764879391193,-96.25519929585457,80.21211738781929
2024-09-23 22:27:37.236450,41.33,56.704123,0.0005969341946851222,-0.0228827638849692,0.09695331012558621,44.11764879391193,-96.25519929585457,80.21211738781929
2024-09-23 22:27:37.279633,41.33,56.704174,0.0007959191899112484,-0.0228827638849692,0.0976994861521123,44.11764879391193,-88.23529758782387,80.21211738781929
2024-09-23 22:27:37.321860,41.33,56.704174,0.0007959191899112484,-0.02268379009219606,0.09784872257259886,48.12595698684454,-88.23529758782387,80.21211738781929
2024-09-23 22:27:37.333055,41.33,56.704264,0.0007959191899112484,-0.02268379009219606,0.09784872257259886,48.12595698684454,-96.25519929585457,72.1922225099802
2024-09-23 22:27:37.375249,41.33,56.704264,0.0010943914612681128,-0.023280723622328886,0.09755024973162574,44.11764879391193,-96.25519929585457,80.21211738781929
2024-09-23 22:27:37.418021,41.33,56.704315,0.00044769805900669,-0.023280723622328886,0.09755024973162574,44.11764879391193,-96.25519929585457,80.21211738781929
2024-09-23 22:27:37.429788,41.33,56.704315,0.00044769805900669,-0.0228827638849692,0.0973512698629459,40.106058693909645,-88.23529758782387,80.21211738781929
2024-09-23 22:27:37.473056,41.33,56.704366,0.0008954064660419869,-0.023330473146428877,0.09764974270391902,40.106058693909645,-88.23529758782387,84.22370748782159
2024-09-23 22:27:37.484765,41.33,56.704366,0.0008954064660419869,-0.023330473146428877,0.09764974270391902,40.106058693909645,-88.23529758782387,84.22370748782159
2024-09-23 22:27:37.517710,41.33,56.704417,0.0008954064660419869,-0.023330473146428877,0.09764974270391902,40.106058693909645,-88.23529758782387,76.200527287817
2024-09-23 22:27:37.528936,41.33,56.704417,0.00044769805900669,-0.022484804147609512,0.09740101331113918,40.106058693909645,-88.23529758782387,76.200527287817
2024-09-23 22:27:37.571516,41.33,56.704467,0.0004974468710863627,-0.0228827638849692,0.09740101331113918,44.11764879391193,-92.24360919585227,68.18063240997792
2024-09-23 22:27:37.613668,41.33,56.704467,0.0004974468710863627,-0.0228827638849692,0.09740101331113918,44.11764879391193,-92.24360919585227,68.18063240997792
2024-09-23 22:27:37.625187,41.33,56.704518,0.0007959191899112484,-0.0228827638849692,0.09740101331113918,44.11764879391193,-88.23529758782387,72.1922225099802
2024-09-23 22:27:37.668873,41.33,56.704605,0.0007959191899112484,-0.023181236725942318,0.09750050628343246,40.106058693909645,-92.24360919585227,72.1922225099802
2024-09-23 22:27:37.710933,41.33,56.704605,0.0012436275969465451,-0.022982261414192504,0.09750050628343246,40.106058693909645,-92.24360919585227,72.1922225099802
2024-09-23 22:27:37.722874,41.33,56.704605,0.0012436275969465451,-0.022982261414192504,0.09755024973162574,40.106058693909645,-100.26678939585686,80.21211738781929
2024-09-23 22:27:37.765349,41.33,56.704657,0.000845657606494293,-0.023181236725942318,0.09715228999426605,44.11764879391193,-100.26678939585686,80.21211738781929
2024-09-23 22:27:37.777000,41.33,56.704657,0.000845657606494293,-0.023181236725942318,0.09715228999426605,44.11764879391193,-92.24360919585227,80.21211738781929
2024-09-23 22:27:37.809602,41.33,56.704707,0.000845657606494293,-0.023181236725942318,0.09715228999426605,44.11764879391193,-92.24360919585227,80.21211738781929
2024-09-23 22:27:37.820843,41.33,56.704707,0.000845657606494293,-0.02303200030545576,0.09755024973162574,40.106058693909645,-92.24360919585227,80.21211738781929
2024-09-23 22:27:37.863129,41.33,56.704758,0.0005969341946851222,-0.02303200030545576,0.09755024973162574,40.106058693909645,-92.24360919585227,76.200527287817
2024-09-23 22:27:37.906072,41.73,56.704758,0.0005969341946851222,-0.023230986250042305,0.09740101331113918,40.106058693909645,-92.24360919585227,76.200527287817
2024-09-23 22:27:37.918040,41.73,56.704809,0.0005969341946851222,-0.023230986250042305,0.09740101331113918,36.09446859390736,-92.24360919585227,76.200527287817
2024-09-23 22:27:37.961627,41.73,56.704809,0.0012933660135295898,-0.02268379009219606,0.0976994861521123,40.106058693909645,-96.25519929585457,76.200527287817
2024-09-23 22:27:38.004921,41.73,56.704859,0.0006466830067647949,-0.0228827638849692,0.0976994861521123,40.106058693909645,-96.25519929585457,76.200527287817
2024-09-23 22:27:38.016795,41.73,56.704859,0.0006466830067647949,-0.0228827638849692,0.09745075675933246,44.11764879391193,-100.26678939585686,76.200527287817
2024-09-23 22:27:38.060479,41.73,56.704946,0.0007461703303635545,-0.02338022115155219,0.09764974270391902,52.137550501942634,-100.26678939585686,72.1922225099802
2024-09-23 22:27:38.102725,41.73,56.704998,0.0007461703303635545,-0.02338022115155219,0.09764974270391902,52.137550501942634,-88.23529758782387,72.1922225099802
2024-09-23 22:27:38.114088,41.73,56.704998,0.0006466830067647949,-0.022733528983459317,0.09750050628343246,52.137550501942634,-88.23529758782387,72.1922225099802
2024-09-23 22:27:38.157904,41.73,56.705048,0.0003979595949556242,-0.023181236725942318,0.09750050628343246,48.12595698684454,-88.23529758782387,76.200527287817
2024-09-23 22:27:38.199680,41.73,56.705048,0.0003979595949556242,-0.023181236725942318,0.09755024973162574,40.106058693909645,-88.23529758782387,76.200527287817
2024-09-23 22:27:38.211048,41.73,56.705099,0.00034821073540793035,-0.023181236725942318,0.09755024973162574,40.106058693909645,-92.24360919585227,72.1922225099802
2024-09-23 22:27:38.254098,41.73,56.70519,0.00034821073540793035,-0.02313149783467906,0.0976994861521123,40.106058693909645,-92.24360919585227,68.18063240997792
2024-09-23 22:27:38.297982,41.73,56.70519,0.0010943914612681128,-0.0228827638849692,0.0976994861521123,40.106058693909645,-92.24360919585227,68.18063240997792
2024-09-23 22:27:38.309716,41.73,56.70519,0.0010943914612681128,-0.0228827638849692,0.09715228999426605,40.106058693909645,-84.22370748782159,80.21211738781929
2024-09-23 22:27:38.352435,41.73,56.705242,0.0005471957306340564,-0.022733528983459317,0.0973512698629459,48.12595698684454,-88.23529758782387,80.21211738781929
2024-09-23 22:27:38.395489,41.73,56.705292,0.0009451553255896806,-0.022733528983459317,0.0973512698629459,48.12595698684454,-88.23529758782387,76.200527287817
2024-09-23 22:27:38.407565,41.73,56.705292,0.0009451553255896806,-0.022833026512682618,0.0973512698629459,44.11764879391193,-88.23529758782387,76.200527287817
2024-09-23 22:27:38.445787,41.73,56.705343,0.0008954064660419869,-0.022833026512682618,0.0973512698629459,44.11764879391193,-96.25519929585457,76.200527287817
2024-09-23 22:27:38.457449,41.73,56.705343,0.0008954064660419869,-0.02308174982955575,0.09740101331113918,44.11764879391193,-96.25519929585457,76.200527287817
2024-09-23 22:27:38.490417,41.73,56.705343,0.0008954064660419869,-0.02308174982955575,0.09740101331113918,44.11764879391193,-96.25519929585457,76.200527287817
2024-09-23 22:27:38.502364,41.73,56.705394,9.948729986474904e-05,-0.02268379009219606,0.09740101331113918,44.11764879391193,-96.25519929585457,80.21211738781929
2024-09-23 22:27:38.546550,41.73,56.705444,0.0003979595949556242,-0.02268379009219606,0.0976994861521123,40.106058693909645,-92.24360919585227,80.21211738781929
2024-09-23 22:27:38.590060,41.73,56.705444,0.0003979595949556242,-0.02313149783467906,0.0973512698629459,44.11764879391193,-92.24360919585227,80.21211738781929
2024-09-23 22:27:38.601379,41.73,56.705531,0.0003979595949556242,-0.02313149783467906,0.0973512698629459,44.11764879391193,-88.23529758782387,72.1922225099802
2024-09-23 22:27:38.644200,41.73,56.705531,0.00044769805900669,-0.02293251340906919,0.09680407370509965,44.11764879391193,-96.25519929585457,76.200527287817
2024-09-23 22:27:38.687518,41.73,56.705583,0.0005969341946851222,-0.023181236725942318,0.09680407370509965,44.11764879391193,-96.25519929585457,76.200527287817
2024-09-23 22:27:38.698888,41.73,56.705583,0.0005969341946851222,-0.023181236725942318,0.09675432418099966,44.11764879391193,-104.27510100388527,76.200527287817
2024-09-23 22:27:38.741341,41.73,56.705634,0.0007959191899112484,-0.02303200030545576,0.0970030596496862,48.12595698684454,-104.27510100388527,76.200527287817
2024-09-23 22:27:38.784643,41.73,56.705684,0.0007959191899112484,-0.02303200030545576,0.0970030596496862,48.12595698684454,-96.25519929585457,76.200527287817
2024-09-23 22:27:38.796436,41.73,56.705684,0.0005969341946851222,-0.023280723622328886,0.09750050628343246,48.12595698684454,-96.25519929585457,76.200527287817
2024-09-23 22:27:38.839136,41.73,56.705735,0.000845657606494293,-0.02278327698858263,0.09750050628343246,44.11764879391193,-100.26678939585686,80.21211738781929
2024-09-23 22:27:38.881989,41.73,56.705735,0.000845657606494293,-0.02278327698858263,0.09779897304849887,52.137550501942634,-100.26678939585686,80.21211738781929
2024-09-23 22:27:38.893207,41.73,56.705786,0.000845657606494293,-0.02278327698858263,0.09779897304849887,52.137550501942634,-100.26678939585686,76.200527287817
2024-09-23 22:27:38.937163,41.69,56.705786,0.0005969341946851222,-0.02293251340906919,0.09705279702197278,40.106058693909645,-96.25519929585457,76.200527287817
2024-09-23 22:27:38.980093,41.69,56.705873,0.0007959191899112484,-0.023479709566915436,0.09705279702197278,40.106058693909645,-96.25519929585457,76.200527287817
2024-09-23 22:27:38.991831,41.69,56.705873,0.0007959191899112484,-0.023479709566915436,0.09750050628343246,36.09446859390736,-100.26678939585686,76.200527287817
2024-09-23 22:27:39.034596,41.69,56.705924,0.0009948937421727254,-0.02268379009219606,0.09720203344245934,48.12595698684454,-100.26678939585686,80.21211738781929
2024-09-23 22:27:39.078225,41.69,56.705975,0.0009948937421727254,-0.02268379009219606,0.09720203344245934,48.12595698684454,-92.24360919585227,76.200527287817
2024-09-23 22:27:39.090136,41.69,56.705975,0.0008954064660419869,-0.02313149783467906,0.09750050628343246,48.12595698684454,-92.24360919585227,76.200527287817
2024-09-23 22:27:39.122221,41.69,56.705975,0.0008954064660419869,-0.02313149783467906,0.09750050628343246,44.11764879391193,-92.24360919585227,76.200527287817
2024-09-23 22:27:39.133759,41.69,56.706025,0.0005969341946851222,-0.02278327698858263,0.09750050628343246,44.11764879391193,-96.25519929585457,68.18063240997792
2024-09-23 22:27:39.176835,41.69,56.706025,0.0005969341946851222,-0.02278327698858263,0.09740101331113918,40.106058693909645,-92.24360919585227,72.1922225099802
2024-09-23 22:27:39.188989,41.69,56.706076,0.0008954064660419869,-0.02278327698858263,0.09740101331113918,40.106058693909645,-92.24360919585227,72.1922225099802
2024-09-23 22:27:39.222062,41.69,56.706076,0.0008954064660419869,-0.02293251340906919,0.09774922960030558,40.106058693909645,-92.24360919585227,72.1922225099802
2024-09-23 22:27:39.233457,41.69,56.706165,0.0008954064660419869,-0.02293251340906919,0.09774922960030558,44.11764879391193,-92.24360919585227,80.21211738781929
2024-09-23 22:27:39.276521,41.69,56.706165,0.0005969341946851222,-0.0224350561424862,0.09720203344245934,48.12595698684454,-96.25519929585457,76.200527287817
2024-09-23 22:27:39.320890,41.69,56.706217,0.0008954064660419869,-0.0224350561424862,0.09720203344245934,48.12595698684454,-96.25519929585457,76.200527287817
2024-09-23 22:27:39.332541,41.69,56.706217,0.0008954064660419869,-0.022584292562972758,0.09789846602079214,48.12595698684454,-100.26678939585686,76.200527287817
2024-09-23 22:27:39.375405,41.69,56.706267,0.0009948937421727254,-0.023181236725942318,0.09750050628343246,36.09446859390736,-100.26678939585686,72.1922225099802
2024-09-23 22:27:39.418596,41.69,56.706318,0.0009948937421727254,-0.023181236725942318,0.09750050628343246,36.09446859390736,-96.25519929585457,72.1922225099802
2024-09-23 22:27:39.429999,41.69,56.706318,0.0009948937421727254,-0.022982261414192504,0.09725178296655933,36.09446859390736,-96.25519929585457,72.1922225099802
2024-09-23 22:27:39.473212,41.69,56.706369,0.000845657606494293,-0.02303200030545576,0.09725178296655933,40.106058693909645,-96.25519929585457,76.200527287817
2024-09-23 22:27:39.514810,41.69,56.706369,0.000845657606494293,-0.02303200030545576,0.09774922960030558,44.11764879391193,-96.25519929585457,76.200527287817
2024-09-23 22:27:39.526091,41.69,56.706419,0.0011938787373988514,-0.02303200030545576,0.09774922960030558,44.11764879391193,-104.27510100388527,72.1922225099802
2024-09-23 22:27:39.567805,41.69,56.706419,0.0011938787373988514,-0.02293251340906919,0.09829641968224512,44.11764879391193,-96.25519929585457,68.18063240997792
2024-09-23 22:27:39.579815,41.69,56.706506,0.0011938787373988514,-0.02293251340906919,0.09829641968224512,44.11764879391193,-96.25519929585457,68.18063240997792
2024-09-23 22:27:39.612193,41.69,56.706506,0.0007461703303635545,-0.022982261414192504,0.09829641968224512,44.11764879391193,-96.25519929585457,68.18063240997792
2024-09-23 22:27:39.623554,41.69,56.706506,0.0007461703303635545,-0.022982261414192504,0.09725178296655933,36.09446859390736,-100.26678939585686,76.200527287817
2024-09-23 22:27:39.665243,41.69,56.706558,0.0007959191899112484,-0.023330473146428877,0.09755024973162574,40.106058693909645,-100.26678939585686,76.200527287817
2024-09-23 22:27:39.676829,41.69,56.706558,0.0007959191899112484,-0.023330473146428877,0.09755024973162574,40.106058693909645,-96.25519929585457,76.200527287817
2024-09-23 22:27:39.709195,41.69,56.706608,0.0007959191899112484,-0.023330473146428877,0.09755024973162574,40.106058693909645,-96.25519929585457,80.21211738781929
2024-09-23 22:27:39.720654,41.69,56.706608,0.0009451553255896806,-0.02308174982955575,0.09764974270391902,44.11764879391193,-96.25519929585457,80.21211738781929
2024-09-23 22:27:39.762717,41.69,56.706659,0.0004974468710863627,-0.023330473146428877,0.09764974270391902,44.11764879391193,-92.24360919585227,76.200527287817
2024-09-23 22:27:39.774420,41.69,56.706659,0.0004974468710863627,-0.023330473146428877,0.09710254654607277,44.11764879391193,-92.24360919585227,76.200527287817
2024-09-23 22:27:39.806767,41.69,56.706659,0.0004974468710863627,-0.023330473146428877,0.09710254654607277,48.12595698684454,-92.24360919585227,76.200527287817
2024-09-23 22:27:39.818341,41.69,56.70671,0.0011441298778511575,-0.023230986250042305,0.09710254654607277,48.12595698684454,-92.24360919585227,76.200527287817
2024-09-23 22:27:39.861614,41.69,56.70676,0.0009948937421727254,-0.023230986250042305,0.09764974270391902,44.11764879391193,-100.26678939585686,72.1922225099802
2024-09-23 22:27:39.903993,41.69,56.70676,0.0009948937421727254,-0.022733528983459317,0.09764974270391902,44.11764879391193,-100.26678939585686,72.1922225099802
2024-09-23 22:27:39.915643,41.69,56.706848,0.0009948937421727254,-0.022733528983459317,0.09655535038822652,40.106058693909645,-92.24360919585227,76.200527287817
2024-09-23 22:27:39.958391,41.6,56.706848,0.0010943914612681128,-0.023230986250042305,0.0976994861521123,44.11764879391193,-88.23529758782387,76.200527287817
2024-09-23 22:27:39.970350,41.6,56.706848,0.0010943914612681128,-0.023230986250042305,0.0976994861521123,44.11764879391193,-88.23529758782387,84.22370748782159
2024-09-23 22:27:40.002324,41.6,56.706899,0.0003979595949556242,-0.023230986250042305,0.0976994861521123,44.11764879391193,-88.23529758782387,84.22370748782159
2024-09-23 22:27:40.014246,41.6,56.706899,0.0003979595949556242,-0.02268379009219606,0.09759999317981902,40.106058693909645,-88.23529758782387,84.22370748782159
2024-09-23 22:27:40.056158,41.6,56.70695,0.0010943914612681128,-0.023181236725942318,0.09784872257259886,40.106058693909645,-88.23529758782387,76.200527287817
2024-09-23 22:27:40.068546,41.6,56.70695,0.0010943914612681128,-0.023181236725942318,0.09784872257259886,40.106058693909645,-88.23529758782387,76.200527287817
2024-09-23 22:27:40.100927,41.6,56.707,0.0010943914612681128,-0.023181236725942318,0.09784872257259886,40.106058693909645,-92.24360919585227,80.21211738781929
2024-09-23 22:27:40.112733,41.6,56.707,0.0009451553255896806,-0.02338022115155219,0.0976994861521123,40.106058693909645,-92.24360919585227,80.21211738781929
2024-09-23 22:27:40.155308,41.6,56.707051,0.00014922575204880957,-0.022833026512682618,0.0976994861521123,48.12595698684454,-88.23529758782387,84.22370748782159
2024-09-23 22:27:40.197000,41.6,56.707051,0.00014922575204880957,-0.022833026512682618,0.09720203344245934,44.11764879391193,-88.23529758782387,84.22370748782159
2024-09-23 22:27:40.209289,41.6,56.707102,0.0003979595949556242,-0.022833026512682618,0.09720203344245934,44.11764879391193,-92.24360919585227,80.21211738781929
2024-09-23 22:27:40.253104,41.6,56.707189,0.0003979595949556242,-0.02308174982955575,0.09745075675933246,40.106058693909645,-88.23529758782387,80.21211738781929
2024-09-23 22:27:40.295186,41.6,56.707189,0.00024872343554318134,-0.023330473146428877,0.09745075675933246,40.106058693909645,-88.23529758782387,80.21211738781929
2024-09-23 22:27:40.306913,41.6,56.707189,0.00024872343554318134,-0.023330473146428877,0.09745075675933246,44.11764879391193,-88.23529758782387,76.200527287817
2024-09-23 22:27:40.349332,41.6,56.70724,0.0004974468710863627,-0.022584292562972758,0.09774922960030558,44.11764879391193,-92.24360919585227,76.200527287817
2024-09-23 22:27:40.391752,41.6,56.707291,0.0004974468710863627,-0.022584292562972758,0.09774922960030558,44.11764879391193,-92.24360919585227,76.200527287817
2024-09-23 22:27:40.403675,41.6,56.707291,0.0008954064660419869,-0.02303200030545576,0.09789846602079214,44.11764879391193,-92.24360919585227,76.200527287817
2024-09-23 22:27:40.445386,41.6,56.707342,4.973845218406054e-05,-0.02303200030545576,0.09789846602079214,44.11764879391193,-88.23529758782387,76.200527287817
2024-09-23 22:27:40.457457,41.6,56.707342,4.973845218406054e-05,-0.02303200030545576,0.0973512698629459,44.11764879391193,-88.23529758782387,76.200527287817
2024-09-23 22:27:40.489384,41.6,56.707342,4.973845218406054e-05,-0.02303200030545576,0.0973512698629459,40.106058693909645,-92.24360919585227,76.200527287817
2024-09-23 22:27:40.501055,41.6,56.707392,0.0006964318663124887,-0.02268379009219606,0.0973512698629459,40.106058693909645,-92.24360919585227,80.21211738781929
2024-09-23 22:27:40.544402,41.6,56.707443,0.0006466830067647949,-0.02268379009219606,0.09720203344245934,56.14914060194492,-96.25519929585457,76.200527287817
2024-09-23 22:27:40.639853,41.6,56.707443,0.0006466830067647949,-0.022982261414192504,0.09824668230995855,44.11764879391193,-96.25519929585457,76.200527287817
2024-09-23 22:27:40.651677,41.6,56.70753,0.0006466830067647949,-0.022982261414192504,0.09824668230995855,44.11764879391193,-92.24360919585227,80.21211738781929
2024-09-23 22:27:40.684420,41.6,56.70753,0.0006964318663124887,-0.023579196463302005,0.09824668230995855,44.11764879391193,-92.24360919585227,80.21211738781929
2024-09-23 22:27:40.695743,41.6,56.70753,0.0006964318663124887,-0.023579196463302005,0.09695331012558621,36.09446859390736,-92.24360919585227,76.200527287817
2024-09-23 22:27:40.737432,41.6,56.707582,0.0013928637326249774,-0.022833026512682618,0.09774922960030558,40.106058693909645,-92.24360919585227,76.200527287817
2024-09-23 22:27:40.749420,41.6,56.707582,0.0013928637326249774,-0.022833026512682618,0.09774922960030558,40.106058693909645,-88.23529758782387,76.200527287817
2024-09-23 22:27:40.783065,41.6,56.707632,0.0013928637326249774,-0.022833026512682618,0.09774922960030558,40.106058693909645,-88.23529758782387,72.1922225099802
2024-09-23 22:27:40.794318,41.6,56.707632,0.0013928637326249774,-0.022833026512682618,0.09759999317981902,44.11764879391193,-88.23529758782387,72.1922225099802
2024-09-23 22:27:40.877346,41.6,56.707632,0.0013928637326249774,-0.022833026512682618,0.09759999317981902,44.11764879391193,-88.23529758782387,72.1922225099802
2024-09-23 22:27:40.888798,41.6,56.707683,0.00044769805900669,-0.0225345536717095,0.09755024973162574,44.11764879391193,-88.23529758782387,76.200527287817
2024-09-23 22:27:40.932215,41.6,56.707776,0.00044769805900669,-0.0225345536717095,0.09755024973162574,48.12595698684454,-104.27510100388527,64.16903547978401
2024-09-23 22:27:40.943424,41.6,56.707776,0.001044642601720419,-0.022733528983459317,0.09755024973162574,48.12595698684454,-104.27510100388527,64.16903547978401
2024-09-23 22:27:40.974904,41.94,56.707776,0.001044642601720419,-0.022733528983459317,0.0970030596496862,48.12595698684454,-104.27510100388527,64.16903547978401
2024-09-23 22:27:40.986921,41.94,56.707827,0.0007461703303635545,-0.022733528983459317,0.0970030596496862,48.12595698684454,-96.25519929585457,72.1922225099802
2024-09-23 22:27:41.030384,41.94,56.707827,0.0007461703303635545,-0.022982261414192504,0.09725178296655933,48.12595698684454,-88.23529758782387,84.22370748782159
2024-09-23 22:27:41.042573,41.94,56.70792,0.0007461703303635545,-0.022982261414192504,0.09725178296655933,48.12595698684454,-88.23529758782387,84.22370748782159
2024-09-23 22:27:41.075127,41.94,56.70792,0.0001989745997294981,-0.0228827638849692,0.09725178296655933,48.12595698684454,-88.23529758782387,84.22370748782159
2024-09-23 22:27:41.086259,41.94,56.70792,0.0001989745997294981,-0.0228827638849692,0.09759999317981902,36.09446859390736,-92.24360919585227,76.200527287817
2024-09-23 22:27:41.128605,41.94,56.708018,0.0012436275969465451,-0.023429960042815445,0.0973512698629459,40.106058693909645,-92.24360919585227,76.200527287817
2024-09-23 22:27:41.141551,41.94,56.708018,0.0012436275969465451,-0.023429960042815445,0.0973512698629459,40.106058693909645,-88.23529758782387,76.200527287817
2024-09-23 22:27:41.173907,41.94,56.70807,0.0009948937421727254,-0.023429960042815445,0.0973512698629459,40.106058693909645,-88.23529758782387,80.21211738781929
2024-09-23 22:27:41.185421,41.94,56.70807,0.0009948937421727254,-0.02303200030545576,0.09819693278585856,44.11764879391193,-88.23529758782387,80.21211738781929
2024-09-23 22:27:41.227875,41.94,56.70812,0.0007461703303635545,-0.022982261414192504,0.09740101331113918,44.11764879391193,-88.23529758782387,80.21211738781929
2024-09-23 22:27:41.270896,41.94,56.70812,0.0007461703303635545,-0.022982261414192504,0.09740101331113918,48.12595698684454,-96.25519929585457,80.21211738781929
2024-09-23 22:27:41.325438,41.94,56.708171,0.0005969341946851222,-0.023230986250042305,0.09715228999426605,48.12595698684454,-96.25519929585457,80.21211738781929
2024-09-23 22:27:41.369001,41.94,56.708222,0.0008954064660419869,-0.023230986250042305,0.09715228999426605,48.12595698684454,-96.25519929585457,72.1922225099802
2024-09-23 22:27:41.380253,41.94,56.708222,0.0008954064660419869,-0.02218633282561307,0.09784872257259886,32.08287849390507,-96.25519929585457,72.1922225099802
2024-09-23 22:27:41.423436,41.94,56.70831,0.0007959191899112484,-0.02303200030545576,0.09789846602079214,32.08287849390507,-92.24360919585227,80.21211738781929
2024-09-23 22:27:41.466222,41.94,56.70831,0.0007959191899112484,-0.02303200030545576,0.09789846602079214,52.137550501942634,-92.24360919585227,76.200527287817
2024-09-23 22:27:41.477398,41.94,56.708362,0.0011441298778511575,-0.02303200030545576,0.09789846602079214,52.137550501942634,-92.24360919585227,76.200527287817
2024-09-23 22:27:41.519347,41.94,56.708412,0.0009451553255896806,-0.02303200030545576,0.09750050628343246,48.12595698684454,-92.24360919585227,72.1922225099802
2024-09-23 22:27:41.562420,41.94,56.708412,0.0009451553255896806,-0.023230986250042305,0.0973512698629459,48.12595698684454,-92.24360919585227,72.1922225099802
2024-09-23 22:27:41.574430,41.94,56.708505,0.0009451553255896806,-0.023230986250042305,0.0973512698629459,48.12595698684454,-92.24360919585227,76.200527287817
2024-09-23 22:27:41.617463,41.94,56.708505,0.000845657606494293,-0.022733528983459317,0.09740101331113918,36.09446859390736,-96.25519929585457,76.200527287817
2024-09-23 22:27:41.628806,41.94,56.708505,0.000845657606494293,-0.022733528983459317,0.09740101331113918,36.09446859390736,-96.25519929585457,72.1922225099802
2024-09-23 22:27:41.660747,41.94,56.708557,0.0,-0.02338022115155219,0.09740101331113918,36.09446859390736,-96.25519929585457,72.1922225099802
2024-09-23 22:27:41.671754,41.94,56.708557,0.0,-0.02338022115155219,0.09710254654607277,40.106058693909645,-96.25519929585457,72.1922225099802
2024-09-23 22:27:41.714309,41.94,56.708607,0.000845657606494293,-0.022982261414192504,0.09740101331113918,44.11764879391193,-96.25519929585457,76.200527287817
2024-09-23 22:27:41.756911,41.94,56.708607,0.000845657606494293,-0.022982261414192504,0.09740101331113918,44.11764879391193,-92.24360919585227,76.200527287817
2024-09-23 22:27:41.769314,41.94,56.708658,0.0011441298778511575,-0.023230986250042305,0.09774922960030558,44.11764879391193,-92.24360919585227,76.200527287817
2024-09-23 22:27:41.812502,41.94,56.708709,0.0006964318663124887,-0.02293251340906919,0.09774922960030558,48.12595698684454,-96.25519929585457,76.200527287817
2024-09-23 22:27:41.906635,41.94,56.708709,0.0006964318663124887,-0.02293251340906919,0.09755024973162574,48.12595698684454,-96.25519929585457,76.200527287817
2024-09-23 22:27:41.918179,41.94,56.708759,0.0007461703303635545,-0.02293251340906919,0.09755024973162574,48.12595698684454,-96.25519929585457,76.200527287817
2024-09-23 22:27:41.961216,41.94,56.708846,0.0007461703303635545,-0.022982261414192504,0.09784872257259886,44.11764879391193,-92.24360919585227,80.21211738781929
2024-09-23 22:27:42.004523,41.52,56.708846,0.0009948937421727254,-0.02293251340906919,0.0973512698629459,40.106058693909645,-92.24360919585227,80.21211738781929
2024-09-23 22:27:42.016726,41.52,56.708846,0.0009948937421727254,-0.02293251340906919,0.0973512698629459,40.106058693909645,-92.24360919585227,72.1922225099802
2024-09-23 22:27:42.049698,41.52,56.708898,0.0007461703303635545,-0.02293251340906919,0.0973512698629459,40.106058693909645,-92.24360919585227,72.1922225099802
2024-09-23 22:27:42.061031,41.52,56.708898,0.0007461703303635545,-0.0225345536717095,0.09705279702197278,40.106058693909645,-96.25519929585457,72.1922225099802
2024-09-23 22:27:42.103868,41.52,56.708949,0.0006466830067647949,-0.02352945757203875,0.09829641968224512,40.106058693909645,-96.25519929585457,72.1922225099802
2024-09-23 22:27:42.115469,41.52,56.708949,0.0006466830067647949,-0.02352945757203875,0.09829641968224512,36.09446859390736,-96.25519929585457,72.1922225099802
2024-09-23 22:27:42.147651,41.52,56.708949,0.0006466830067647949,-0.02352945757203875,0.09829641968224512,36.09446859390736,-92.24360919585227,84.22370748782159
2024-09-23 22:27:42.159306,41.52,56.709043,0.0006466830067647949,-0.022733528983459317,0.09720203344245934,36.09446859390736,-92.24360919585227,84.22370748782159
2024-09-23 22:27:42.203245,41.52,56.709094,0.0001989745997294981,-0.0225345536717095,0.09720203344245934,40.106058693909645,-96.25519929585457,76.200527287817
2024-09-23 22:27:42.245365,41.52,56.709094,0.0001989745997294981,-0.0225345536717095,0.09745075675933246,36.09446859390736,-96.25519929585457,76.200527287817
2024-09-23 22:27:42.256429,41.52,56.709144,0.0007959191899112484,-0.0225345536717095,0.09745075675933246,36.09446859390736,-96.25519929585457,76.200527287817
2024-09-23 22:27:42.299247,41.52,56.709236,0.0007959191899112484,-0.022584292562972758,0.09819693278585856,36.09446859390736,-100.26678939585686,80.21211738781929
2024-09-23 22:27:42.342612,41.52,56.709236,0.0006964318663124887,-0.02313149783467906,0.09819693278585856,36.09446859390736,-100.26678939585686,80.21211738781929
2024-09-23 22:27:42.354347,41.52,56.709236,0.0006964318663124887,-0.02313149783467906,0.09740101331113918,40.106058693909645,-96.25519929585457,76.200527287817
2024-09-23 22:27:42.396975,41.52,56.709288,0.001044642601720419,-0.022584292562972758,0.09745075675933246,40.106058693909645,-96.25519929585457,76.200527287817
2024-09-23 22:27:42.409160,41.52,56.709288,0.001044642601720419,-0.022584292562972758,0.09745075675933246,40.106058693909645,-88.23529758782387,76.200527287817
2024-09-23 22:27:42.442507,41.52,56.709339,0.001044642601720419,-0.022584292562972758,0.09745075675933246,40.106058693909645,-88.23529758782387,76.200527287817
2024-09-23 22:27:42.453637,41.52,56.709339,0.001044642601720419,-0.022733528983459317,0.0976994861521123,44.11764879391193,-88.23529758782387,76.200527287817
2024-09-23 22:27:42.496150,41.52,56.709389,0.00034821073540793035,-0.022833026512682618,0.09750050628343246,44.11764879391193,-88.23529758782387,80.21211738781929
2024-09-23 22:27:42.538679,41.52,56.709389,0.00034821073540793035,-0.022833026512682618,0.09750050628343246,48.12595698684454,-88.23529758782387,80.21211738781929
2024-09-23 22:27:42.592637,41.52,56.70944,0.0012436275969465451,-0.02308174982955575,0.09809744588947199,48.12595698684454,-92.24360919585227,72.1922225099802
2024-09-23 22:27:42.636442,41.52,56.70944,0.0012436275969465451,-0.02308174982955575,0.09809744588947199,48.12595698684454,-96.25519929585457,76.200527287817
2024-09-23 22:27:42.648389,41.52,56.709491,0.00034821073540793035,-0.02293251340906919,0.09809744588947199,48.12595698684454,-96.25519929585457,76.200527287817
2024-09-23 22:27:42.680998,41.52,56.709491,0.00034821073540793035,-0.02293251340906919,0.09759999317981902,48.12595698684454,-96.25519929585457,76.200527287817
2024-09-23 22:27:42.692401,41.52,56.709578,0.0010943914612681128,-0.02293251340906919,0.09759999317981902,48.12595698684454,-92.24360919585227,72.1922225099802
2024-09-23 22:27:42.735452,41.52,56.709578,0.0010943914612681128,-0.023181236725942318,0.09720203344245934,44.11764879391193,-100.26678939585686,72.1922225099802
2024-09-23 22:27:42.748278,41.52,56.709629,0.0010943914612681128,-0.023181236725942318,0.09720203344245934,44.11764879391193,-100.26678939585686,76.200527287817
2024-09-23 22:27:42.780855,41.52,56.709629,0.0009451553255896806,-0.02293251340906919,0.09720203344245934,44.11764879391193,-100.26678939585686,76.200527287817
2024-09-23 22:27:42.792501,41.52,56.709629,0.0009451553255896806,-0.02293251340906919,0.09705279702197278,44.11764879391193,-88.23529758782387,76.200527287817
2024-09-23 22:27:42.835639,41.52,56.709724,0.0011938787373988514,-0.02263404056809607,0.09779897304849887,44.11764879391193,-96.25519929585457,76.200527287817
2024-09-23 22:27:42.930491,41.52,56.709776,0.0007959191899112484,-0.02303200030545576,0.09779897304849887,44.11764879391193,-96.25519929585457,72.1922225099802
2024-09-23 22:27:42.942595,41.52,56.709776,0.0007959191899112484,-0.02303200030545576,0.0973015264147526,40.106058693909645,-96.25519929585457,72.1922225099802
2024-09-23 22:27:42.975053,41.52,56.709776,0.0007959191899112484,-0.02303200030545576,0.0973015264147526,40.106058693909645,-92.24360919585227,72.1922225099802
2024-09-23 22:27:42.986796,41.52,56.709826,0.0009451553255896806,-0.02308174982955575,0.09759999317981902,40.106058693909645,-92.24360919585227,76.200527287817
2024-09-23 22:27:43.029695,41.3,56.709877,0.0011441298778511575,-0.02308174982955575,0.09759999317981902,48.12595698684454,-92.24360919585227,72.1922225099802
2024-09-23 22:27:43.041834,41.3,56.709877,0.0011441298778511575,-0.022584292562972758,0.09759999317981902,48.12595698684454,-92.24360919585227,72.1922225099802
2024-09-23 22:27:43.075136,41.3,56.709877,0.0011441298778511575,-0.022584292562972758,0.0976994861521123,44.11764879391193,-92.24360919585227,72.1922225099802
2024-09-23 22:27:43.086326,41.3,56.709928,0.0009451553255896806,-0.022584292562972758,0.0976994861521123,44.11764879391193,-92.24360919585227,72.1922225099802
2024-09-23 22:27:43.129045,41.3,56.709928,0.0009451553255896806,-0.022982261414192504,0.09750050628343246,40.106058693909645,-96.25519929585457,80.21211738781929
2024-09-23 22:27:43.140883,41.3,56.710016,0.0009451553255896806,-0.022982261414192504,0.09750050628343246,40.106058693909645,-96.25519929585457,80.21211738781929
2024-09-23 22:27:43.172443,41.3,56.710016,0.0004974468710863627,-0.023280723622328886,0.09750050628343246,40.106058693909645,-96.25519929585457,80.21211738781929
2024-09-23 22:27:43.227257,41.3,56.710114,0.0004974468710863627,-0.023280723622328886,0.09705279702197278,36.09446859390736,-92.24360919585227,72.1922225099802
2024-09-23 22:27:43.238850,41.3,56.710114,0.0005471957306340564,-0.023280723622328886,0.09705279702197278,36.09446859390736,-92.24360919585227,72.1922225099802
2024-09-23 22:27:43.271552,41.3,56.710114,0.0005471957306340564,-0.02278327698858263,0.09745075675933246,44.11764879391193,-92.24360919585227,72.1922225099802
2024-09-23 22:27:43.283324,41.3,56.710166,0.0005471957306340564,-0.02278327698858263,0.09745075675933246,44.11764879391193,-92.24360919585227,76.200527287817
2024-09-23 22:27:43.316328,41.3,56.710166,0.0011938787373988514,-0.02278327698858263,0.09745075675933246,44.11764879391193,-92.24360919585227,76.200527287817
2024-09-23 22:27:43.328335,41.3,56.710166,0.0011938787373988514,-0.02308174982955575,0.09720203344245934,48.12595698684454,-92.24360919585227,76.200527287817
2024-09-23 22:27:43.370353,41.3,56.710216,0.00014922575204880957,-0.02338022115155219,0.09740101331113918,48.12595698684454,-92.24360919585227,76.200527287817
2024-09-23 22:27:43.382201,41.3,56.710216,0.00014922575204880957,-0.02338022115155219,0.09740101331113918,48.12595698684454,-92.24360919585227,76.200527287817
2024-09-23 22:27:43.415922,41.3,56.710267,0.00014922575204880957,-0.02338022115155219,0.09740101331113918,48.12595698684454,-92.24360919585227,76.200527287817
2024-09-23 22:27:43.427537,41.3,56.710267,0.0001989745997294981,-0.023230986250042305,0.09740101331113918,40.106058693909645,-92.24360919585227,76.200527287817
2024-09-23 22:27:43.470112,41.3,56.710359,0.0007959191899112484,-0.022982261414192504,0.09710254654607277,40.106058693909645,-96.25519929585457,76.200527287817
2024-09-23 22:27:43.514124,41.3,56.710359,0.0007959191899112484,-0.022982261414192504,0.09710254654607277,44.11764879391193,-96.25519929585457,76.200527287817
2024-09-23 22:27:43.525831,41.3,56.71041,0.0012436275969465451,-0.023330473146428877,0.09710254654607277,44.11764879391193,-96.25519929585457,76.200527287817
2024-09-23 22:27:43.559172,41.3,56.71041,0.0012436275969465451,-0.023330473146428877,0.0973512698629459,44.11764879391193,-96.25519929585457,76.200527287817
2024-09-23 22:27:43.571024,41.3,56.710461,0.0007959191899112484,-0.023330473146428877,0.0973512698629459,36.09446859390736,-96.25519929585457,72.1922225099802
2024-09-23 22:27:43.613740,41.3,56.710461,0.0007959191899112484,-0.022982261414192504,0.09764974270391902,48.12595698684454,-96.25519929585457,76.200527287817
2024-09-23 22:27:43.625635,41.3,56.710553,0.0007959191899112484,-0.022982261414192504,0.09764974270391902,48.12595698684454,-96.25519929585457,76.200527287817
2024-09-23 22:27:43.657478,41.3,56.710553,0.0007461703303635545,-0.022982261414192504,0.09764974270391902,48.12595698684454,-96.25519929585457,76.200527287817
2024-09-23 22:27:43.669738,41.3,56.710553,0.0007461703303635545,-0.02303200030545576,0.09680407370509965,44.11764879391193,-100.26678939585686,76.200527287817
2024-09-23 22:27:43.713245,41.3,56.710604,0.0005471957306340564,-0.023181236725942318,0.0973512698629459,40.106058693909645,-96.25519929585457,76.200527287817
2024-09-23 22:27:43.755441,41.3,56.710655,0.0005471957306340564,-0.023181236725942318,0.0973512698629459,40.106058693909645,-96.25519929585457,76.200527287817
2024-09-23 22:27:43.766518,41.3,56.710655,0.0014923510087557158,-0.0228827638849692,0.09715228999426605,48.12595698684454,-96.25519929585457,76.200527287817
2024-09-23 22:27:43.809881,41.3,56.710705,0.000845657606494293,-0.023280723622328886,0.09715228999426605,48.12595698684454,-88.23529758782387,72.1922225099802
2024-09-23 22:27:43.852094,41.3,56.710705,0.000845657606494293,-0.023280723622328886,0.09799795899308542,48.12595698684454,-88.23529758782387,72.1922225099802
2024-09-23 22:27:43.863283,41.3,56.710756,0.0005471957306340564,-0.023280723622328886,0.09799795899308542,40.106058693909645,-92.24360919585227,72.1922225099802
2024-09-23 22:27:43.958007,41.3,56.710807,0.0005471957306340564,-0.022584292562972758,0.09725178296655933,44.11764879391193,-96.25519929585457,80.21211738781929
2024-09-23 22:27:44.000875,41.3,56.710807,0.0003979595949556242,-0.023479709566915436,0.0976994861521123,44.11764879391193,-96.25519929585457,80.21211738781929
2024-09-23 22:27:44.053843,41.22,56.710894,0.0009451553255896806,-0.023479709566915436,0.0976994861521123,40.106058693909645,-96.25519929585457,76.200527287817
2024-09-23 22:27:44.065557,41.22,56.710894,0.0009451553255896806,-0.0228827638849692,0.0976994861521123,40.106058693909645,-96.25519929585457,76.200527287817
2024-09-23 22:27:44.098997,41.22,56.710894,0.0009451553255896806,-0.0228827638849692,0.0973015264147526,40.106058693909645,-100.26678939585686,76.200527287817
2024-09-23 22:27:44.110555,41.22,56.710945,0.0012436275969465451,-0.0228827638849692,0.0973015264147526,40.106058693909645,-100.26678939585686,76.200527287817
2024-09-23 22:27:44.152864,41.22,56.710996,0.0012436275969465451,-0.023280723622328886,0.09774922960030558,40.106058693909645,-92.24360919585227,72.1922225099802
2024-09-23 22:27:44.196330,41.22,56.710996,0.0007959191899112484,-0.022982261414192504,0.09764974270391902,40.106058693909645,-92.24360919585227,72.1922225099802
2024-09-23 22:27:44.207715,41.22,56.710996,0.0007959191899112484,-0.022982261414192504,0.09764974270391902,44.11764879391193,-100.26678939585686,68.18063240997792
2024-09-23 22:27:44.250252,41.22,56.711091,0.00044769805900669,-0.02338022115155219,0.0973512698629459,32.08287849390507,-100.26678939585686,68.18063240997792
2024-09-23 22:27:44.293017,41.22,56.711187,0.0004974468710863627,-0.02338022115155219,0.0973512698629459,32.08287849390507,-100.26678939585686,76.200527287817
2024-09-23 22:27:44.304099,41.22,56.711187,0.0004974468710863627,-0.02268379009219606,0.09755024973162574,40.106058693909645,-100.26678939585686,76.200527287817
2024-09-23 22:27:44.347001,41.22,56.711239,0.0007461703303635545,-0.02278327698858263,0.09720203344245934,40.106058693909645,-96.25519929585457,76.200527287817
2024-09-23 22:27:44.389976,41.22,56.711239,0.0007461703303635545,-0.02278327698858263,0.09720203344245934,36.09446859390736,-100.26678939585686,76.200527287817
2024-09-23 22:27:44.401145,41.22,56.711289,0.0007461703303635545,-0.023330473146428877,0.09720203344245934,36.09446859390736,-100.26678939585686,80.21211738781929
2024-09-23 22:27:44.484817,41.22,56.711289,0.0007461703303635545,-0.023330473146428877,0.09725178296655933,36.09446859390736,-100.26678939585686,80.21211738781929
2024-09-23 22:27:44.496428,41.22,56.71134,0.0008954064660419869,-0.023330473146428877,0.09725178296655933,36.09446859390736,-100.26678939585686,76.200527287817
2024-09-23 22:27:44.539508,41.22,56.71134,0.0008954064660419869,-0.02278327698858263,0.09774922960030558,40.106058693909645,-92.24360919585227,76.200527287817
2024-09-23 22:27:44.551047,41.22,56.71143,0.0008954064660419869,-0.02278327698858263,0.09774922960030558,40.106058693909645,-92.24360919585227,76.200527287817
2024-09-23 22:27:44.583861,41.22,56.71143,0.0011938787373988514,-0.02278327698858263,0.09774922960030558,40.106058693909645,-92.24360919585227,76.200527287817
2024-09-23 22:27:44.595413,41.22,56.71143,0.0011938787373988514,-0.02308174982955575,0.09755024973162574,44.11764879391193,-92.24360919585227,76.200527287817
2024-09-23 22:27:44.639313,41.22,56.711482,0.0009948937421727254,-0.023280723622328886,0.09755024973162574,48.12595698684454,-100.26678939585686,76.200527287817
2024-09-23 22:27:44.682171,41.22,56.711532,0.0009948937421727254,-0.023280723622328886,0.09755024973162574,48.12595698684454,-100.26678939585686,76.200527287817
2024-09-23 22:27:44.693236,41.22,56.711532,0.0007461703303635545,-0.02303200030545576,0.09725178296655933,36.09446859390736,-100.26678939585686,76.200527287817
2024-09-23 22:27:44.735543,41.22,56.711627,0.0008954064660419869,-0.0228827638849692,0.09725178296655933,36.09446859390736,-100.26678939585686,80.21211738781929
2024-09-23 22:27:44.748104,41.22,56.711627,0.0008954064660419869,-0.0228827638849692,0.09740101331113918,36.09446859390736,-100.26678939585686,80.21211738781929
2024-09-23 22:27:44.780565,41.22,56.711627,0.0008954064660419869,-0.0228827638849692,0.09740101331113918,44.11764879391193,-96.25519929585457,80.21211738781929
