Ayaan's Suite
Timestamp,Sample Rate (Hz),Time,Ax,Ay,Az,Gx,Gy,Gz
2024-09-23 14:10:16.304046,0,26.862548,-0.0031836870127375577,-0.023280723622328886,0.09725178296655933,40.106058693909645,-100.26678939585686,80.21211738781929
2024-09-23 14:10:16.336356,0,26.862548,-0.0031836870127375577,-0.02367869399252531,0.09725178296655933,40.106058693909645,-100.26678939585686,80.21211738781929
2024-09-23 14:10:16.347819,0,26.862637,-0.0031836870127375577,-0.02367869399252531,0.09670458680871308,40.106058693909645,-100.26678939585686,76.200527287817
2024-09-23 14:10:16.390572,0,26.862637,-0.0033329230534799477,-0.023429960042815445,0.09720203344245934,40.106058693909645,-100.26678939585686,76.200527287817
2024-09-23 14:10:16.402116,0,26.862637,-0.0033329230534799477,-0.023429960042815445,0.09720203344245934,32.08287849390507,-96.25519929585457,76.200527287817
2024-09-23 14:10:16.433993,0,26.862688,-0.0033329230534799477,-0.023429960042815445,0.09720203344245934,32.08287849390507,-96.25519929585457,76.200527287817
2024-09-23 14:10:16.445884,0,26.862688,-0.0036811340262279837,-0.023429960042815445,0.09690356060148622,20.05138839341998,-96.25519929585457,76.200527287817
2024-09-23 14:10:16.488970,0,26.862739,-0.0031339382481259063,-0.023429960042815445,0.09690356060148622,20.05138839341998,-100.26678939585686,84.22370748782159
2024-09-23 14:10:16.500505,0,26.862739,-0.0031339382481259063,-0.022982261414192504,0.0973015264147526,20.05138839341998,-100.26678939585686,84.22370748782159
2024-09-23 14:10:16.533046,0,26.862739,-0.0031339382481259063,-0.022982261414192504,0.0973015264147526,36.09446859390736,-100.26678939585686,84.22370748782159
2024-09-23 14:10:16.544259,0,26.86279,-0.0038303700669703737,-0.0228827638849692,0.0973015264147526,36.09446859390736,-92.24360919585227,80.21211738781929
2024-09-23 14:10:16.587363,0,26.86279,-0.0038303700669703737,-0.0228827638849692,0.09695331012558621,40.106058693909645,-92.24360919585227,84.22370748782159
2024-09-23 14:10:16.600425,0,26.86284,-0.0031836870127375577,-0.0228827638849692,0.09695331012558621,40.106058693909645,-92.24360919585227,84.22370748782159
2024-09-23 14:10:16.684586,0,26.86284,-0.0031836870127375577,-0.023429960042815445,0.09695331012558621,36.09446859390736,-96.25519929585457,84.22370748782159
2024-09-23 14:10:16.696425,0,26.862891,-0.0031836870127375577,-0.023429960042815445,0.09695331012558621,36.09446859390736,-96.25519929585457,84.22370748782159
2024-09-23 14:10:16.729438,0,26.862891,-0.0034324103296106863,-0.02338022115155219,0.09695331012558621,36.09446859390736,-96.25519929585457,84.22370748782159
2024-09-23 14:10:16.740903,0,26.862891,-0.0034324103296106863,-0.02338022115155219,0.09675432418099966,32.08287849390507,-104.27510100388527,84.22370748782159
2024-09-23 14:10:16.782646,0,26.862979,-0.0031836870127375577,-0.023330473146428877,0.09705279702197278,32.08287849390507,-104.27510100388527,84.22370748782159
2024-09-23 14:10:16.793910,0,26.862979,-0.0031836870127375577,-0.023330473146428877,0.09705279702197278,40.106058693909645,-100.26678939585686,84.22370748782159
2024-09-23 14:10:16.826353,0,26.86303,-0.0031836870127375577,-0.023330473146428877,0.09705279702197278,40.106058693909645,-100.26678939585686,80.21211738781929
2024-09-23 14:10:16.837845,0,26.86303,-0.0028354659767690416,-0.023230986250042305,0.0973512698629459,48.12595698684454,-100.26678939585686,80.21211738781929
2024-09-23 14:10:16.880420,0,26.863081,-0.0031836870127375577,-0.023230986250042305,0.0973512698629459,48.12595698684454,-92.24360919585227,76.200527287817
2024-09-23 14:10:16.922939,0,26.863081,-0.0031836870127375577,-0.023230986250042305,0.09740101331113918,48.12595698684454,-92.24360919585227,76.200527287817
2024-09-23 14:10:16.934537,0,26.863175,-0.003233425524256645,-0.023230986250042305,0.09740101331113918,28.07457030097246,-96.25519929585457,92.24360919585227
2024-09-23 14:10:16.977311,0,26.863175,-0.003233425524256645,-0.02303200030545576,0.09725178296655933,44.11764879391193,-100.26678939585686,92.24360919585227
2024-09-23 14:10:16.989135,0,26.863226,-0.003233425524256645,-0.02303200030545576,0.09725178296655933,44.11764879391193,-100.26678939585686,84.22370748782159
2024-09-23 14:10:17.020659,0,26.863226,-0.003482159473966507,-0.023579196463302005,0.09725178296655933,44.11764879391193,-100.26678939585686,84.22370748782159
2024-09-23 14:10:17.032454,0,26.863226,-0.003482159473966507,-0.023579196463302005,0.09715228999426605,20.05138839341998,-100.26678939585686,84.22370748782159
2024-09-23 14:10:17.074551,0,26.863319,-0.003482159473966507,-0.022982261414192504,0.09665483728461309,20.05138839341998,-100.26678939585686,84.22370748782159
2024-09-23 14:10:17.086483,0,26.863319,-0.003482159473966507,-0.022982261414192504,0.09665483728461309,20.05138839341998,-100.26678939585686,84.22370748782159
2024-09-23 14:10:17.119297,0,26.863371,-0.003482159473966507,-0.022982261414192504,0.09665483728461309,20.05138839341998,-100.26678939585686,72.1922225099802
2024-09-23 14:10:17.130314,0,26.863371,-0.0028354659767690416,-0.023181236725942318,0.09670458680871308,24.06297849342227,-100.26678939585686,72.1922225099802
2024-09-23 14:10:17.172144,0,26.863422,-0.0029349636958644295,-0.02308174982955575,0.09670458680871308,24.06297849342227,-96.25519929585457,76.200527287817
2024-09-23 14:10:17.183755,0,26.863422,-0.0029349636958644295,-0.02308174982955575,0.09725178296655933,24.06297849342227,-96.25519929585457,76.200527287817
2024-09-23 14:10:17.216841,0,26.863422,-0.0029349636958644295,-0.02308174982955575,0.09725178296655933,40.106058693909645,-96.25519929585457,76.200527287817
2024-09-23 14:10:17.228114,0,26.863472,-0.0035816467500972456,-0.023181236725942318,0.09725178296655933,40.106058693909645,-96.25519929585457,72.1922225099802
2024-09-23 14:10:17.270743,0,26.863523,-0.0035816467500972456,-0.023181236725942318,0.09705279702197278,36.09446859390736,-100.26678939585686,80.21211738781929
2024-09-23 14:10:17.282444,0,26.863523,-0.0035318979854855937,-0.023181236725942318,0.09705279702197278,36.09446859390736,-100.26678939585686,80.21211738781929
2024-09-23 14:10:17.315615,45.94,26.863523,-0.0035318979854855937,-0.023330473146428877,0.0976994861521123,48.12595698684454,-100.26678939585686,80.21211738781929
2024-09-23 14:10:17.327345,45.94,26.863612,-0.0035318979854855937,-0.023330473146428877,0.0976994861521123,48.12595698684454,-96.25519929585457,80.21211738781929
2024-09-23 14:10:17.369935,45.94,26.863612,-0.0036811340262279837,-0.023181236725942318,0.09759999317981902,40.106058693909645,-104.27510100388527,84.22370748782159
2024-09-23 14:10:17.411588,45.94,26.863664,-0.0030841997366068195,-0.023181236725942318,0.09759999317981902,40.106058693909645,-104.27510100388527,84.22370748782159
2024-09-23 14:10:17.422927,45.94,26.863664,-0.0030841997366068195,-0.023579196463302005,0.09695331012558621,44.11764879391193,-96.25519929585457,84.22370748782159
2024-09-23 14:10:17.465450,45.94,26.863714,-0.003382661564999035,-0.023429960042815445,0.09745075675933246,44.11764879391193,-96.25519929585457,80.21211738781929
2024-09-23 14:10:17.508578,45.94,26.863714,-0.003382661564999035,-0.023429960042815445,0.09745075675933246,48.12595698684454,-96.25519929585457,80.21211738781929
2024-09-23 14:10:17.520427,45.94,26.863714,-0.003382661564999035,-0.023429960042815445,0.09745075675933246,48.12595698684454,-96.25519929585457,80.21211738781929
2024-09-23 14:10:17.562816,45.94,26.863765,-0.003233425524256645,-0.023181236725942318,0.09725178296655933,48.12595698684454,-96.25519929585457,80.21211738781929
2024-09-23 14:10:17.575752,45.94,26.863765,-0.003233425524256645,-0.023181236725942318,0.09725178296655933,48.12595698684454,-96.25519929585457,80.21211738781929
2024-09-23 14:10:17.608180,45.94,26.863816,-0.0031836870127375577,-0.023181236725942318,0.09725178296655933,48.12595698684454,-96.25519929585457,80.21211738781929
2024-09-23 14:10:17.619626,45.94,26.863816,-0.0031836870127375577,-0.02367869399252531,0.09720203344245934,40.106058693909645,-96.25519929585457,80.21211738781929
2024-09-23 14:10:17.662279,45.94,26.863866,-0.003482159473966507,-0.023230986250042305,0.0976994861521123,40.106058693909645,-96.25519929585457,76.200527287817
2024-09-23 14:10:17.706056,45.94,26.863866,-0.003482159473966507,-0.023230986250042305,0.0976994861521123,36.09446859390736,-96.25519929585457,80.21211738781929
2024-09-23 14:10:17.718180,45.94,26.863953,-0.003382661564999035,-0.023230986250042305,0.0976994861521123,36.09446859390736,-96.25519929585457,80.21211738781929
2024-09-23 14:10:17.751852,45.94,26.863953,-0.003382661564999035,-0.023230986250042305,0.09695331012558621,36.09446859390736,-96.25519929585457,80.21211738781929
2024-09-23 14:10:17.763822,45.94,26.864004,-0.002586742470023829,-0.023230986250042305,0.09695331012558621,52.137550501942634,-96.25519929585457,80.21211738781929
2024-09-23 14:10:17.805944,45.94,26.864004,-0.002586742470023829,-0.023330473146428877,0.0970030596496862,24.06297849342227,-96.25519929585457,76.200527287817
2024-09-23 14:10:17.817467,45.94,26.864099,-0.002586742470023829,-0.023330473146428877,0.0970030596496862,24.06297849342227,-96.25519929585457,76.200527287817
2024-09-23 14:10:17.850605,45.94,26.864099,-0.0030841997366068195,-0.022982261414192504,0.0970030596496862,24.06297849342227,-96.25519929585457,76.200527287817
2024-09-23 14:10:17.862209,45.94,26.864099,-0.0030841997366068195,-0.022982261414192504,0.0973512698629459,32.08287849390507,-96.25519929585457,76.200527287817
2024-09-23 14:10:17.905018,45.94,26.864151,-0.003382661564999035,-0.02278327698858263,0.098047696365372,32.08287849390507,-96.25519929585457,76.200527287817
2024-09-23 14:10:17.947794,45.94,26.864202,-0.003382661564999035,-0.02278327698858263,0.098047696365372,32.08287849390507,-96.25519929585457,80.21211738781929
2024-09-23 14:10:17.959173,45.94,26.864202,-0.0031836870127375577,-0.023429960042815445,0.0970030596496862,36.09446859390736,-96.25519929585457,80.21211738781929
2024-09-23 14:10:18.001810,45.94,26.864253,-0.0032831742888682963,-0.023280723622328886,0.0970030596496862,36.09446859390736,-92.24360919585227,84.22370748782159
2024-09-23 14:10:18.013819,45.94,26.864253,-0.0032831742888682963,-0.023280723622328886,0.09635636444363997,36.09446859390736,-92.24360919585227,84.22370748782159
2024-09-23 14:10:18.046529,45.94,26.864253,-0.0032831742888682963,-0.023280723622328886,0.09635636444363997,36.09446859390736,-100.26678939585686,80.21211738781929
2024-09-23 14:10:18.057567,45.94,26.864304,-0.0031339382481259063,-0.02278327698858263,0.09635636444363997,36.09446859390736,-100.26678939585686,80.21211738781929
2024-09-23 14:10:18.101018,45.94,26.864354,-0.0029847020175114316,-0.02278327698858263,0.09645586349183995,32.08287849390507,-96.25519929585457,76.200527287817
2024-09-23 14:10:18.144868,45.94,26.864354,-0.0029847020175114316,-0.0228827638849692,0.09759999317981902,32.08287849390507,-96.25519929585457,76.200527287817
2024-09-23 14:10:18.157820,45.94,26.864354,-0.0029847020175114316,-0.0228827638849692,0.09759999317981902,32.08287849390507,-92.24360919585227,80.21211738781929
2024-09-23 14:10:18.191497,45.94,26.864441,-0.0033329230534799477,-0.0228827638849692,0.09759999317981902,32.08287849390507,-92.24360919585227,80.21211738781929
2024-09-23 14:10:18.202751,45.94,26.864441,-0.0033329230534799477,-0.02338022115155219,0.09725178296655933,44.11764879391193,-92.24360919585227,80.21211738781929
2024-09-23 14:10:18.244637,45.94,26.864492,-0.0029847020175114316,-0.02308174982955575,0.09710254654607277,44.11764879391193,-92.24360919585227,80.21211738781929
2024-09-23 14:10:18.256337,45.94,26.864492,-0.0029847020175114316,-0.02308174982955575,0.09710254654607277,36.09446859390736,-92.24360919585227,80.21211738781929
2024-09-23 14:10:18.288473,45.94,26.864492,-0.0029847020175114316,-0.02308174982955575,0.09710254654607277,36.09446859390736,-100.26678939585686,76.200527287817
2024-09-23 14:10:18.300556,45.94,26.864543,-0.003631395514708897,-0.023479709566915436,0.09635636444363997,36.09446859390736,-100.26678939585686,76.200527287817
2024-09-23 14:10:18.343435,45.35,26.864594,-0.0031339382481259063,-0.023181236725942318,0.09635636444363997,28.07457030097246,-104.27510100388527,76.200527287817
2024-09-23 14:10:18.386676,45.35,26.864594,-0.0031339382481259063,-0.023181236725942318,0.09725178296655933,36.09446859390736,-104.27510100388527,76.200527287817
2024-09-23 14:10:18.398102,45.35,26.864644,-0.0037308827908396356,-0.023181236725942318,0.09725178296655933,36.09446859390736,-100.26678939585686,72.1922225099802
2024-09-23 14:10:18.440484,45.35,26.864644,-0.0037308827908396356,-0.02313149783467906,0.09710254654607277,16.039798293417693,-104.27510100388527,84.22370748782159
2024-09-23 14:10:18.453062,45.35,26.864733,-0.0037308827908396356,-0.02313149783467906,0.09710254654607277,16.039798293417693,-104.27510100388527,84.22370748782159
2024-09-23 14:10:18.485256,45.35,26.864733,-0.003482159473966507,-0.0228827638849692,0.09710254654607277,16.039798293417693,-104.27510100388527,84.22370748782159
2024-09-23 14:10:18.497738,45.35,26.864733,-0.003482159473966507,-0.0228827638849692,0.09710254654607277,28.07457030097246,-100.26678939585686,80.21211738781929
2024-09-23 14:10:18.539876,45.35,26.864785,-0.0034324103296106863,-0.023181236725942318,0.09635636444363997,40.106058693909645,-100.26678939585686,80.21211738781929
2024-09-23 14:10:18.582693,45.35,26.864835,-0.0034324103296106863,-0.023181236725942318,0.09635636444363997,40.106058693909645,-100.26678939585686,72.1922225099802
2024-09-23 14:10:18.593903,45.35,26.864835,-0.0034324103296106863,-0.023330473146428877,0.09690356060148622,40.106058693909645,-100.26678939585686,72.1922225099802
2024-09-23 14:10:18.636154,45.35,26.864886,-0.0031339382481259063,-0.02308174982955575,0.09630662707135339,40.106058693909645,-108.28669110388756,76.200527287817
2024-09-23 14:10:18.678585,45.35,26.864886,-0.0031339382481259063,-0.02308174982955575,0.09630662707135339,40.106058693909645,-100.26678939585686,76.200527287817
2024-09-23 14:10:18.690227,45.35,26.864937,-0.0037308827908396356,-0.02303200030545576,0.09630662707135339,40.106058693909645,-100.26678939585686,76.200527287817
2024-09-23 14:10:18.732102,45.35,26.864987,-0.0037308827908396356,-0.02303200030545576,0.0973015264147526,36.09446859390736,-104.27510100388527,80.21211738781929
2024-09-23 14:10:18.743814,45.35,26.864987,-0.0031339382481259063,-0.02303200030545576,0.0973015264147526,36.09446859390736,-104.27510100388527,80.21211738781929
2024-09-23 14:10:18.776776,45.35,26.864987,-0.0031339382481259063,-0.023429960042815445,0.09710254654607277,36.09446859390736,-104.27510100388527,80.21211738781929
2024-09-23 14:10:18.788050,45.35,26.865075,-0.0031339382481259063,-0.023429960042815445,0.09710254654607277,36.09446859390736,-100.26678939585686,80.21211738781929
2024-09-23 14:10:18.832568,45.35,26.865075,-0.0031339382481259063,-0.023429960042815445,0.09695331012558621,32.08287849390507,-96.25519929585457,76.200527287817
2024-09-23 14:10:18.874941,45.35,26.865126,-0.003482159473966507,-0.02303200030545576,0.09695331012558621,32.08287849390507,-96.25519929585457,76.200527287817
2024-09-23 14:10:18.886073,45.35,26.865126,-0.003482159473966507,-0.02303200030545576,0.09745075675933246,40.106058693909645,-100.26678939585686,76.200527287817
2024-09-23 14:10:18.928209,45.35,26.865177,-0.0028852147413806935,-0.02313149783467906,0.09655535038822652,40.106058693909645,-100.26678939585686,76.200527287817
2024-09-23 14:10:18.941001,45.35,26.865177,-0.0028852147413806935,-0.02313149783467906,0.09655535038822652,40.106058693909645,-100.26678939585686,76.200527287817
2024-09-23 14:10:18.973303,45.35,26.865227,-0.0028852147413806935,-0.02313149783467906,0.09655535038822652,40.106058693909645,-92.24360919585227,80.21211738781929
2024-09-23 14:10:18.984399,45.35,26.865227,-0.0031836870127375577,-0.023230986250042305,0.09710254654607277,40.106058693909645,-92.24360919585227,80.21211738781929
2024-09-23 14:10:19.027291,45.35,26.865278,-0.003233425524256645,-0.022833026512682618,0.09710254654607277,32.08287849390507,-96.25519929585457,80.21211738781929
2024-09-23 14:10:19.069055,45.35,26.865278,-0.003233425524256645,-0.022833026512682618,0.09740101331113918,32.08287849390507,-96.25519929585457,80.21211738781929
2024-09-23 14:10:19.081754,45.35,26.865329,-0.003382661564999035,-0.022833026512682618,0.09740101331113918,32.08287849390507,-92.24360919585227,80.21211738781929
2024-09-23 14:10:19.124840,45.35,26.865416,-0.003382661564999035,-0.02352945757203875,0.09675432418099966,44.11764879391193,-92.24360919585227,80.21211738781929
2024-09-23 14:10:19.167658,45.35,26.865416,-0.0035816467500972456,-0.023230986250042305,0.09675432418099966,44.11764879391193,-92.24360919585227,80.21211738781929
2024-09-23 14:10:19.179230,45.35,26.865416,-0.0035816467500972456,-0.023230986250042305,0.09705279702197278,44.11764879391193,-96.25519929585457,80.21211738781929
2024-09-23 14:10:19.222506,45.35,26.865467,-0.0028354659767690416,-0.023579196463302005,0.09685382322919964,48.12595698684454,-96.25519929585457,80.21211738781929
2024-09-23 14:10:19.264296,45.35,26.865518,-0.0028354659767690416,-0.023579196463302005,0.09685382322919964,48.12595698684454,-96.25519929585457,84.22370748782159
2024-09-23 14:10:19.276203,45.35,26.865518,-0.003929857343101113,-0.02338022115155219,0.09725178296655933,32.08287849390507,-96.25519929585457,84.22370748782159
2024-09-23 14:10:19.318679,45.35,26.865569,-0.0028354659767690416,-0.023330473146428877,0.09725178296655933,32.08287849390507,-88.23529758782387,88.23529758782387
2024-09-23 14:10:19.362976,43.96,26.865569,-0.0028354659767690416,-0.023330473146428877,0.09725178296655933,36.09446859390736,-96.25519929585457,88.23529758782387
2024-09-23 14:10:19.374194,43.96,26.865619,-0.002785727465249955,-0.02313149783467906,0.09725178296655933,36.09446859390736,-96.25519929585457,88.23529758782387
2024-09-23 14:10:19.417262,43.96,26.86567,-0.0029349636958644295,-0.02313149783467906,0.09715228999426605,40.106058693909645,-100.26678939585686,80.21211738781929
2024-09-23 14:10:19.459048,43.96,26.86567,-0.0029349636958644295,-0.02367869399252531,0.09750050628343246,40.106058693909645,-100.26678939585686,80.21211738781929
2024-09-23 14:10:19.471421,43.96,26.865757,-0.0029349636958644295,-0.02367869399252531,0.09750050628343246,32.08287849390507,-96.25519929585457,84.22370748782159
2024-09-23 14:10:19.514530,43.96,26.865757,-0.0034324103296106863,-0.0228827638849692,0.0973015264147526,32.08287849390507,-104.27510100388527,84.22370748782159
2024-09-23 14:10:19.556629,43.96,26.865809,-0.0034324103296106863,-0.0228827638849692,0.0973015264147526,32.08287849390507,-104.27510100388527,84.22370748782159
2024-09-23 14:10:19.568396,43.96,26.865809,-0.0034324103296106863,-0.02362894446842532,0.09784872257259886,44.11764879391193,-104.27510100388527,84.22370748782159
2024-09-23 14:10:19.611674,43.96,26.86586,-0.0038801188315820256,-0.0224350561424862,0.09755024973162574,52.137550501942634,-104.27510100388527,76.200527287817
2024-09-23 14:10:19.653763,43.96,26.86586,-0.0038801188315820256,-0.0224350561424862,0.09755024973162574,52.137550501942634,-104.27510100388527,84.22370748782159
2024-09-23 14:10:19.665199,43.96,26.86591,-0.0028852147413806935,-0.02268379009219606,0.09690356060148622,52.137550501942634,-104.27510100388527,84.22370748782159
2024-09-23 14:10:19.707195,43.96,26.865961,-0.0036811340262279837,-0.02268379009219606,0.09690356060148622,24.06297849342227,-96.25519929585457,84.22370748782159
2024-09-23 14:10:19.719029,43.96,26.865961,-0.0036811340262279837,-0.02352945757203875,0.09690356060148622,24.06297849342227,-96.25519929585457,84.22370748782159
2024-09-23 14:10:19.751177,43.96,26.865961,-0.0036811340262279837,-0.02352945757203875,0.09715228999426605,36.09446859390736,-96.25519929585457,84.22370748782159
2024-09-23 14:10:19.762574,43.96,26.866012,-0.003233425524256645,-0.02352945757203875,0.09715228999426605,36.09446859390736,-104.27510100388527,76.200527287817
2024-09-23 14:10:19.805169,43.96,26.866012,-0.003233425524256645,-0.023181236725942318,0.0970030596496862,32.08287849390507,-100.26678939585686,80.21211738781929
2024-09-23 14:10:19.817346,43.96,26.866098,-0.003233425524256645,-0.023181236725942318,0.0970030596496862,32.08287849390507,-100.26678939585686,80.21211738781929
2024-09-23 14:10:19.851165,43.96,26.866098,-0.0029349636958644295,-0.02303200030545576,0.09695331012558621,32.08287849390507,-100.26678939585686,80.21211738781929
2024-09-23 14:10:19.862559,43.96,26.866098,-0.0029349636958644295,-0.02303200030545576,0.09695331012558621,44.11764879391193,-104.27510100388527,76.200527287817
2024-09-23 14:10:19.904812,43.96,26.86615,-0.0026862297461545674,-0.023230986250042305,0.09755024973162574,44.11764879391193,-100.26678939585686,76.200527287817
2024-09-23 14:10:19.947610,43.96,26.8662,-0.0033329230534799477,-0.023230986250042305,0.09755024973162574,44.11764879391193,-100.26678939585686,84.22370748782159
2024-09-23 14:10:19.958801,43.96,26.8662,-0.0033329230534799477,-0.02293251340906919,0.09685382322919964,32.08287849390507,-100.26678939585686,84.22370748782159
2024-09-23 14:10:20.001122,43.96,26.866251,-0.0034324103296106863,-0.02352945757203875,0.09794820946898543,32.08287849390507,-96.25519929585457,80.21211738781929
2024-09-23 14:10:20.043830,43.96,26.866251,-0.0034324103296106863,-0.02352945757203875,0.09794820946898543,32.08287849390507,-100.26678939585686,80.21211738781929
2024-09-23 14:10:20.055274,43.96,26.866302,-0.0030344509719951677,-0.02338022115155219,0.09794820946898543,32.08287849390507,-100.26678939585686,92.24360919585227
2024-09-23 14:10:20.099629,43.96,26.866352,-0.003233425524256645,-0.02338022115155219,0.09720203344245934,40.106058693909645,-96.25519929585457,84.22370748782159
2024-09-23 14:10:20.142878,43.96,26.866352,-0.003233425524256645,-0.023429960042815445,0.09645586349183995,28.07457030097246,-96.25519929585457,84.22370748782159
2024-09-23 14:10:20.154644,43.96,26.86644,-0.003233425524256645,-0.023429960042815445,0.09645586349183995,28.07457030097246,-108.28669110388756,84.22370748782159
2024-09-23 14:10:20.197351,43.96,26.86644,-0.0033329230534799477,-0.023330473146428877,0.09715228999426605,32.08287849390507,-88.23529758782387,88.23529758782387
2024-09-23 14:10:20.240542,43.96,26.866491,-0.0035816467500972456,-0.02308174982955575,0.09715228999426605,32.08287849390507,-88.23529758782387,88.23529758782387
2024-09-23 14:10:20.252196,43.96,26.866491,-0.0035816467500972456,-0.02308174982955575,0.09715228999426605,36.09446859390736,-88.23529758782387,88.23529758782387
2024-09-23 14:10:20.294889,43.96,26.866542,-0.003233425524256645,-0.023579196463302005,0.0973512698629459,40.106058693909645,-88.23529758782387,84.22370748782159
2024-09-23 14:10:20.338210,43.96,26.866592,-0.003233425524256645,-0.023579196463302005,0.0973512698629459,40.106058693909645,-92.24360919585227,84.22370748782159
2024-09-23 14:10:20.349827,43.96,26.866592,-0.0030344509719951677,-0.0228827638849692,0.0973512698629459,40.106058693909645,-92.24360919585227,84.22370748782159
2024-09-23 14:10:20.393034,43.17,26.866643,-0.003482159473966507,-0.02293251340906919,0.0973512698629459,40.106058693909645,-96.25519929585457,76.200527287817
2024-09-23 14:10:20.435246,43.17,26.866643,-0.003482159473966507,-0.02293251340906919,0.09690356060148622,40.106058693909645,-92.24360919585227,76.200527287817
2024-09-23 14:10:20.447069,43.17,26.866694,-0.0035318979854855937,-0.02293251340906919,0.09690356060148622,40.106058693909645,-92.24360919585227,84.22370748782159
2024-09-23 14:10:20.489974,43.17,26.866781,-0.0035318979854855937,-0.023479709566915436,0.09759999317981902,32.08287849390507,-100.26678939585686,76.200527287817
2024-09-23 14:10:20.531850,43.17,26.866781,-0.0030841997366068195,-0.023579196463302005,0.09759999317981902,32.08287849390507,-100.26678939585686,76.200527287817
2024-09-23 14:10:20.543399,43.17,26.866781,-0.0030841997366068195,-0.023579196463302005,0.09715228999426605,24.06297849342227,-100.26678939585686,80.21211738781929
2024-09-23 14:10:20.586519,43.17,26.866832,-0.0028852147413806935,-0.023579196463302005,0.09715228999426605,24.06297849342227,-100.26678939585686,80.21211738781929
2024-09-23 14:10:20.629013,43.17,26.866832,-0.0028852147413806935,-0.02308174982955575,0.09764974270391902,24.06297849342227,-100.26678939585686,80.21211738781929
2024-09-23 14:10:20.641393,43.17,26.866883,-0.0028852147413806935,-0.02308174982955575,0.09764974270391902,36.09446859390736,-88.23529758782387,84.22370748782159
2024-09-23 14:10:20.684500,43.17,26.866883,-0.0038303700669703737,-0.023230986250042305,0.09745075675933246,44.11764879391193,-100.26678939585686,80.21211738781929
2024-09-23 14:10:20.726604,43.17,26.866934,-0.0029847020175114316,-0.023230986250042305,0.09745075675933246,44.11764879391193,-100.26678939585686,80.21211738781929
2024-09-23 14:10:20.738923,43.17,26.866934,-0.0029847020175114316,-0.023181236725942318,0.09670458680871308,48.12595698684454,-100.26678939585686,80.21211738781929
2024-09-23 14:10:20.781802,43.17,26.866984,-0.0036811340262279837,-0.02308174982955575,0.09655535038822652,40.106058693909645,-100.26678939585686,80.21211738781929
2024-09-23 14:10:20.823835,43.17,26.866984,-0.0036811340262279837,-0.02308174982955575,0.09655535038822652,40.106058693909645,-92.24360919585227,84.22370748782159
2024-09-23 14:10:20.835743,43.17,26.867035,-0.0034324103296106863,-0.023429960042815445,0.09710254654607277,40.106058693909645,-92.24360919585227,84.22370748782159
2024-09-23 14:10:20.879673,43.17,26.867124,-0.0031836870127375577,-0.023579196463302005,0.09710254654607277,40.106058693909645,-84.22370748782159,88.23529758782387
2024-09-23 14:10:20.922531,43.17,26.867124,-0.0031836870127375577,-0.023579196463302005,0.09725178296655933,28.07457030097246,-92.24360919585227,88.23529758782387
2024-09-23 14:10:20.934357,43.17,26.867175,-0.003233425524256645,-0.023579196463302005,0.09725178296655933,28.07457030097246,-92.24360919585227,88.23529758782387
2024-09-23 14:10:20.977281,43.17,26.867268,-0.003233425524256645,-0.02303200030545576,0.09680407370509965,40.106058693909645,-96.25519929585457,80.21211738781929
2024-09-23 14:10:21.019801,43.17,26.867268,-0.003382661564999035,-0.02338022115155219,0.0970030596496862,40.106058693909645,-96.25519929585457,80.21211738781929
2024-09-23 14:10:21.030779,43.17,26.867268,-0.003382661564999035,-0.02338022115155219,0.0970030596496862,36.09446859390736,-108.28669110388756,80.21211738781929
2024-09-23 14:10:21.073699,43.17,26.86732,-0.0034324103296106863,-0.023230986250042305,0.09720203344245934,24.06297849342227,-92.24360919585227,80.21211738781929
2024-09-23 14:10:21.116461,43.17,26.86737,-0.0034324103296106863,-0.023230986250042305,0.09720203344245934,24.06297849342227,-92.24360919585227,84.22370748782159
2024-09-23 14:10:21.127793,43.17,26.86737,-0.0030344509719951677,-0.023230986250042305,0.09670458680871308,32.08287849390507,-92.24360919585227,84.22370748782159
2024-09-23 14:10:21.170438,43.17,26.867421,-0.0031836870127375577,-0.02352945757203875,0.09670458680871308,32.08287849390507,-96.25519929585457,80.21211738781929
2024-09-23 14:10:21.182272,43.17,26.867421,-0.0031836870127375577,-0.02352945757203875,0.0973015264147526,32.08287849390507,-96.25519929585457,80.21211738781929
2024-09-23 14:10:21.213921,43.17,26.867421,-0.0031836870127375577,-0.02352945757203875,0.0973015264147526,28.07457030097246,-100.26678939585686,80.21211738781929
2024-09-23 14:10:21.225303,43.17,26.867472,-0.0028852147413806935,-0.02352945757203875,0.0973015264147526,28.07457030097246,-100.26678939585686,80.21211738781929
2024-09-23 14:10:21.269391,43.17,26.867522,-0.0028852147413806935,-0.022982261414192504,0.0966050877605131,28.07457030097246,-96.25519929585457,80.21211738781929
2024-09-23 14:10:21.311978,43.17,26.867522,-0.0032831742888682963,-0.022982261414192504,0.0966050877605131,28.07457030097246,-96.25519929585457,80.21211738781929
2024-09-23 14:10:21.323777,43.17,26.867522,-0.0032831742888682963,-0.022982261414192504,0.09725178296655933,32.08287849390507,-96.25519929585457,84.22370748782159
2024-09-23 14:10:21.366302,43.17,26.867609,-0.003631395514708897,-0.023230986250042305,0.09740101331113918,24.06297849342227,-96.25519929585457,84.22370748782159
2024-09-23 14:10:21.410594,42.39,26.867661,-0.0033329230534799477,-0.023230986250042305,0.09740101331113918,24.06297849342227,-96.25519929585457,84.22370748782159
2024-09-23 14:10:21.422099,42.39,26.867661,-0.0033329230534799477,-0.023280723622328886,0.09685382322919964,36.09446859390736,-96.25519929585457,84.22370748782159
2024-09-23 14:10:21.465131,42.39,26.867661,-0.0033329230534799477,-0.023280723622328886,0.09685382322919964,36.09446859390736,-96.25519929585457,84.22370748782159
2024-09-23 14:10:21.507377,42.39,26.867712,-0.0036811340262279837,-0.023280723622328886,0.09685382322919964,36.09446859390736,-96.25519929585457,72.1922225099802
2024-09-23 14:10:21.518821,42.39,26.867712,-0.0036811340262279837,-0.023429960042815445,0.0973512698629459,40.106058693909645,-96.25519929585457,72.1922225099802
2024-09-23 14:10:21.562035,42.39,26.867762,-0.0032831742888682963,-0.023280723622328886,0.0973015264147526,40.106058693909645,-96.25519929585457,76.200527287817
2024-09-23 14:10:21.605570,42.39,26.867762,-0.0032831742888682963,-0.023280723622328886,0.0973015264147526,32.08287849390507,-96.25519929585457,76.200527287817
2024-09-23 14:10:21.617180,42.39,26.867813,-0.0029847020175114316,-0.02308174982955575,0.0973015264147526,32.08287849390507,-96.25519929585457,76.200527287817
2024-09-23 14:10:21.660613,42.39,26.867902,-0.003382661564999035,-0.02308174982955575,0.09705279702197278,36.09446859390736,-100.26678939585686,80.21211738781929
2024-09-23 14:10:21.702423,42.39,26.867902,-0.003382661564999035,-0.023181236725942318,0.09655535038822652,32.08287849390507,-100.26678939585686,80.21211738781929
2024-09-23 14:10:21.713740,42.39,26.867953,-0.003382661564999035,-0.023181236725942318,0.09655535038822652,32.08287849390507,-104.27510100388527,80.21211738781929
2024-09-23 14:10:21.755717,42.39,26.867953,-0.0035318979854855937,-0.023579196463302005,0.09710254654607277,44.11764879391193,-100.26678939585686,80.21211738781929
2024-09-23 14:10:21.767636,42.39,26.867953,-0.0035318979854855937,-0.023579196463302005,0.09710254654607277,44.11764879391193,-100.26678939585686,80.21211738781929
2024-09-23 14:10:21.800696,42.39,26.868049,-0.0034324103296106863,-0.02303200030545576,0.09710254654607277,44.11764879391193,-100.26678939585686,80.21211738781929
2024-09-23 14:10:21.812240,42.39,26.868049,-0.0034324103296106863,-0.02303200030545576,0.09715228999426605,44.11764879391193,-100.26678939585686,80.21211738781929
2024-09-23 14:10:21.854969,42.39,26.8681,-0.0037308827908396356,-0.023181236725942318,0.09695331012558621,16.039798293417693,-100.26678939585686,84.22370748782159
2024-09-23 14:10:21.948178,42.39,26.868151,-0.0037308827908396356,-0.023181236725942318,0.09695331012558621,16.039798293417693,-96.25519929585457,88.23529758782387
2024-09-23 14:10:21.959721,42.39,26.868151,-0.0031339382481259063,-0.023479709566915436,0.0973512698629459,16.039798293417693,-96.25519929585457,88.23529758782387
2024-09-23 14:10:21.991686,42.39,26.868151,-0.0031339382481259063,-0.023479709566915436,0.0973512698629459,40.106058693909645,-96.25519929585457,88.23529758782387
2024-09-23 14:10:22.003925,42.39,26.868202,-0.0031339382481259063,-0.02303200030545576,0.0973512698629459,40.106058693909645,-92.24360919585227,84.22370748782159
2024-09-23 14:10:22.046802,42.39,26.868252,-0.0031339382481259063,-0.02303200030545576,0.09710254654607277,56.14914060194492,-88.23529758782387,80.21211738781929
2024-09-23 14:10:22.058932,42.39,26.868252,-0.003382661564999035,-0.02303200030545576,0.09710254654607277,56.14914060194492,-88.23529758782387,80.21211738781929
2024-09-23 14:10:22.090706,42.39,26.868252,-0.003382661564999035,-0.023330473146428877,0.09680407370509965,56.14914060194492,-88.23529758782387,80.21211738781929
2024-09-23 14:10:22.102641,42.39,26.868341,-0.003382661564999035,-0.023330473146428877,0.09680407370509965,40.106058693909645,-100.26678939585686,76.200527287817
2024-09-23 14:10:22.145665,42.39,26.868341,-0.0033329230534799477,-0.023230986250042305,0.09675432418099966,36.09446859390736,-96.25519929585457,76.200527287817
2024-09-23 14:10:22.188429,42.39,26.868439,-0.0028852147413806935,-0.023230986250042305,0.09675432418099966,36.09446859390736,-96.25519929585457,76.200527287817
2024-09-23 14:10:22.200072,42.39,26.868439,-0.0028852147413806935,-0.023280723622328886,0.0970030596496862,32.08287849390507,-96.25519929585457,76.200527287817
2024-09-23 14:10:22.242649,42.39,26.86849,-0.0034324103296106863,-0.023230986250042305,0.09715228999426605,32.08287849390507,-96.25519929585457,84.22370748782159
2024-09-23 14:10:22.254298,42.39,26.86849,-0.0034324103296106863,-0.023230986250042305,0.09715228999426605,40.106058693909645,-96.25519929585457,84.22370748782159
2024-09-23 14:10:22.286892,42.39,26.86849,-0.0034324103296106863,-0.023230986250042305,0.09715228999426605,40.106058693909645,-88.23529758782387,80.21211738781929
2024-09-23 14:10:22.298622,42.39,26.868541,-0.0029349636958644295,-0.023181236725942318,0.09725178296655933,40.106058693909645,-88.23529758782387,80.21211738781929
2024-09-23 14:10:22.342504,42.39,26.868592,-0.003382661564999035,-0.02303200030545576,0.09725178296655933,40.106058693909645,-96.25519929585457,80.21211738781929
2024-09-23 14:10:22.385239,42.39,26.868592,-0.003382661564999035,-0.02303200030545576,0.09740101331113918,36.09446859390736,-96.25519929585457,80.21211738781929
2024-09-23 14:10:22.397087,42.39,26.868642,-0.003482159473966507,-0.02303200030545576,0.09740101331113918,36.09446859390736,-96.25519929585457,80.21211738781929
2024-09-23 14:10:22.439760,41.97,26.868642,-0.003482159473966507,-0.023330473146428877,0.09715228999426605,40.106058693909645,-92.24360919585227,80.21211738781929
2024-09-23 14:10:22.483178,41.97,26.868731,-0.0029349636958644295,-0.023330473146428877,0.09715228999426605,40.106058693909645,-92.24360919585227,84.22370748782159
2024-09-23 14:10:22.494828,41.97,26.868731,-0.0029349636958644295,-0.023330473146428877,0.09740101331113918,44.11764879391193,-92.24360919585227,84.22370748782159
2024-09-23 14:10:22.537249,41.97,26.868782,-0.0026862297461545674,-0.023479709566915436,0.09745075675933246,44.11764879391193,-100.26678939585686,80.21211738781929
2024-09-23 14:10:22.580846,41.97,26.868782,-0.0026862297461545674,-0.023479709566915436,0.09745075675933246,36.09446859390736,-100.26678939585686,76.200527287817
2024-09-23 14:10:22.592519,41.97,26.868833,-0.0031836870127375577,-0.023280723622328886,0.09745075675933246,36.09446859390736,-100.26678939585686,76.200527287817
2024-09-23 14:10:22.635876,41.97,26.868884,-0.0031836870127375577,-0.023280723622328886,0.09725178296655933,48.12595698684454,-96.25519929585457,80.21211738781929
2024-09-23 14:10:22.678115,41.97,26.868884,-0.0031836870127375577,-0.02367869399252531,0.09705279702197278,40.106058693909645,-96.25519929585457,80.21211738781929
2024-09-23 14:10:22.689701,41.97,26.868934,-0.0031836870127375577,-0.02367869399252531,0.09705279702197278,40.106058693909645,-88.23529758782387,80.21211738781929
2024-09-23 14:10:22.733275,41.97,26.868934,-0.0030344509719951677,-0.02313149783467906,0.09720203344245934,36.09446859390736,-100.26678939585686,76.200527287817
2024-09-23 14:10:22.775474,41.97,26.869024,-0.0038303700669703737,-0.023181236725942318,0.09720203344245934,36.09446859390736,-100.26678939585686,76.200527287817
2024-09-23 14:10:22.787918,41.97,26.869024,-0.0038303700669703737,-0.023181236725942318,0.09685382322919964,28.07457030097246,-100.26678939585686,76.200527287817
2024-09-23 14:10:22.831005,41.97,26.869075,-0.0033329230534799477,-0.02313149783467906,0.09715228999426605,28.07457030097246,-100.26678939585686,76.200527287817
2024-09-23 14:10:22.874558,41.97,26.869126,-0.0032831742888682963,-0.02313149783467906,0.09715228999426605,28.07457030097246,-96.25519929585457,76.200527287817
2024-09-23 14:10:22.886421,41.97,26.869126,-0.0032831742888682963,-0.02338022115155219,0.09705279702197278,28.07457030097246,-96.25519929585457,76.200527287817
2024-09-23 14:10:22.918099,41.97,26.869126,-0.0032831742888682963,-0.02338022115155219,0.09705279702197278,32.08287849390507,-96.25519929585457,76.200527287817
2024-09-23 14:10:22.929470,41.97,26.869177,-0.0034324103296106863,-0.02352945757203875,0.09705279702197278,32.08287849390507,-100.26678939585686,80.21211738781929
2024-09-23 14:10:22.972186,41.97,26.869177,-0.0034324103296106863,-0.02352945757203875,0.09670458680871308,44.11764879391193,-92.24360919585227,80.21211738781929
2024-09-23 14:10:22.983999,41.97,26.869227,-0.0035816467500972456,-0.02352945757203875,0.09670458680871308,44.11764879391193,-92.24360919585227,80.21211738781929
2024-09-23 14:10:23.017117,41.97,26.869227,-0.0035816467500972456,-0.02293251340906919,0.09685382322919964,44.11764879391193,-92.24360919585227,80.21211738781929
2024-09-23 14:10:23.028703,41.97,26.869316,-0.0035816467500972456,-0.02293251340906919,0.09685382322919964,44.11764879391193,-96.25519929585457,84.22370748782159
2024-09-23 14:10:23.070772,41.97,26.869316,-0.0034324103296106863,-0.0228827638849692,0.09680407370509965,40.106058693909645,-96.25519929585457,84.22370748782159
2024-09-23 14:10:23.082447,41.97,26.869316,-0.0034324103296106863,-0.0228827638849692,0.09680407370509965,40.106058693909645,-96.25519929585457,80.21211738781929
2024-09-23 14:10:23.114978,41.97,26.869367,-0.0030841997366068195,-0.0228827638849692,0.09680407370509965,40.106058693909645,-96.25519929585457,80.21211738781929
2024-09-23 14:10:23.126511,41.97,26.869367,-0.0030841997366068195,-0.023181236725942318,0.09759999317981902,32.08287849390507,-100.26678939585686,80.21211738781929
2024-09-23 14:10:23.170656,41.97,26.869418,-0.003233425524256645,-0.023280723622328886,0.098047696365372,32.08287849390507,-100.26678939585686,84.22370748782159
2024-09-23 14:10:23.182042,41.97,26.869418,-0.003233425524256645,-0.023280723622328886,0.098047696365372,44.11764879391193,-100.26678939585686,84.22370748782159
2024-09-23 14:10:23.213730,41.97,26.869469,-0.003233425524256645,-0.023280723622328886,0.098047696365372,44.11764879391193,-96.25519929585457,80.21211738781929
2024-09-23 14:10:23.225036,41.97,26.869469,-0.0035318979854855937,-0.023330473146428877,0.09715228999426605,44.11764879391193,-96.25519929585457,80.21211738781929
2024-09-23 14:10:23.267337,41.97,26.86952,-0.0033329230534799477,-0.022982261414192504,0.09715228999426605,40.106058693909645,-88.23529758782387,80.21211738781929
2024-09-23 14:10:23.309911,41.97,26.86952,-0.0033329230534799477,-0.022982261414192504,0.09690356060148622,44.11764879391193,-88.23529758782387,80.21211738781929
2024-09-23 14:10:23.321653,41.97,26.86957,-0.0034324103296106863,-0.022982261414192504,0.09690356060148622,44.11764879391193,-96.25519929585457,84.22370748782159
2024-09-23 14:10:23.364575,41.97,26.869657,-0.0034324103296106863,-0.02352945757203875,0.09685382322919964,36.09446859390736,-88.23529758782387,88.23529758782387
2024-09-23 14:10:23.407493,41.97,26.869657,-0.003382661564999035,-0.02268379009219606,0.09685382322919964,36.09446859390736,-88.23529758782387,88.23529758782387
2024-09-23 14:10:23.418699,41.97,26.869657,-0.003382661564999035,-0.02268379009219606,0.09755024973162574,40.106058693909645,-104.27510100388527,80.21211738781929
2024-09-23 14:10:23.461394,41.99,26.869709,-0.0035816467500972456,-0.023827930413011865,0.0970030596496862,32.08287849390507,-104.27510100388527,80.21211738781929
2024-09-23 14:10:23.473702,41.99,26.869709,-0.0035816467500972456,-0.023827930413011865,0.0970030596496862,32.08287849390507,-104.27510100388527,80.21211738781929
2024-09-23 14:10:23.558029,41.99,26.869759,-0.0025369937054121774,-0.02352945757203875,0.09680407370509965,32.08287849390507,-104.27510100388527,80.21211738781929
2024-09-23 14:10:23.569818,41.99,26.869759,-0.0025369937054121774,-0.02352945757203875,0.09680407370509965,36.09446859390736,-104.27510100388527,80.21211738781929
2024-09-23 14:10:23.602302,41.99,26.869759,-0.0025369937054121774,-0.02352945757203875,0.09680407370509965,36.09446859390736,-92.24360919585227,80.21211738781929
2024-09-23 14:10:23.654793,41.99,26.86981,-0.003780631555451287,-0.02308174982955575,0.09740101331113918,36.09446859390736,-92.24360919585227,80.21211738781929
2024-09-23 14:10:23.666516,41.99,26.86981,-0.003780631555451287,-0.02308174982955575,0.09740101331113918,44.11764879391193,-92.24360919585227,80.21211738781929
2024-09-23 14:10:23.699237,41.99,26.86981,-0.003780631555451287,-0.02308174982955575,0.09740101331113918,44.11764879391193,-92.24360919585227,80.21211738781929
2024-09-23 14:10:23.711473,41.99,26.869861,-0.0032831742888682963,-0.02268379009219606,0.09720203344245934,36.09446859390736,-92.24360919585227,80.21211738781929
2024-09-23 14:10:23.754246,41.99,26.869911,-0.0029349636958644295,-0.02313149783467906,0.09720203344245934,36.09446859390736,-92.24360919585227,84.22370748782159
2024-09-23 14:10:23.766160,41.99,26.869911,-0.0029349636958644295,-0.02313149783467906,0.0970030596496862,36.09446859390736,-92.24360919585227,84.22370748782159
2024-09-23 14:10:23.797858,41.99,26.869911,-0.0029349636958644295,-0.02313149783467906,0.0970030596496862,36.09446859390736,-96.25519929585457,84.22370748782159
2024-09-23 14:10:23.809198,41.99,26.869998,-0.0030344509719951677,-0.02308174982955575,0.0970030596496862,36.09446859390736,-96.25519929585457,80.21211738781929
2024-09-23 14:10:23.853451,41.99,26.870096,-0.0033329230534799477,-0.02308174982955575,0.09690356060148622,36.09446859390736,-92.24360919585227,80.21211738781929
2024-09-23 14:10:23.895999,41.99,26.870096,-0.0033329230534799477,-0.02338022115155219,0.0970030596496862,44.11764879391193,-92.24360919585227,80.21211738781929
2024-09-23 14:10:23.906968,41.99,26.870193,-0.0033329230534799477,-0.02338022115155219,0.0970030596496862,44.11764879391193,-96.25519929585457,76.200527287817
2024-09-23 14:10:23.949889,41.99,26.870193,-0.0035816467500972456,-0.023877669304275123,0.09740101331113918,40.106058693909645,-96.25519929585457,80.21211738781929
2024-09-23 14:10:23.992811,41.99,26.870245,-0.003382661564999035,-0.023877669304275123,0.09740101331113918,40.106058693909645,-96.25519929585457,80.21211738781929
2024-09-23 14:10:24.004470,41.99,26.870245,-0.003382661564999035,-0.02338022115155219,0.09764974270391902,44.11764879391193,-108.28669110388756,80.21211738781929
2024-09-23 14:10:24.046591,41.99,26.870295,-0.0032831742888682963,-0.023579196463302005,0.09705279702197278,44.11764879391193,-108.28669110388756,80.21211738781929
2024-09-23 14:10:24.058272,41.99,26.870295,-0.0032831742888682963,-0.023579196463302005,0.09705279702197278,28.07457030097246,-108.28669110388756,80.21211738781929
2024-09-23 14:10:24.091848,41.99,26.870346,-0.0032831742888682963,-0.023579196463302005,0.09705279702197278,28.07457030097246,-96.25519929585457,80.21211738781929
2024-09-23 14:10:24.103404,41.99,26.870346,-0.0027359787006383035,-0.023280723622328886,0.09670458680871308,28.07457030097246,-96.25519929585457,80.21211738781929
2024-09-23 14:10:24.146161,41.99,26.870397,-0.0035318979854855937,-0.022982261414192504,0.09670458680871308,40.106058693909645,-92.24360919585227,72.1922225099802
2024-09-23 14:10:24.188308,41.99,26.870397,-0.0035318979854855937,-0.022982261414192504,0.09774922960030558,40.106058693909645,-92.24360919585227,72.1922225099802
2024-09-23 14:10:24.201917,41.99,26.870447,-0.0035816467500972456,-0.022982261414192504,0.09774922960030558,40.106058693909645,-92.24360919585227,76.200527287817
2024-09-23 14:10:24.233901,41.99,26.870447,-0.0035816467500972456,-0.02293251340906919,0.09774922960030558,40.106058693909645,-92.24360919585227,76.200527287817
2024-09-23 14:10:24.245045,41.99,26.870447,-0.0035816467500972456,-0.02293251340906919,0.0970030596496862,52.137550501942634,-92.24360919585227,76.200527287817
2024-09-23 14:10:24.339265,41.99,26.870535,-0.0030841997366068195,-0.02367869399252531,0.0970030596496862,52.137550501942634,-92.24360919585227,76.200527287817
2024-09-23 14:10:24.382610,41.99,26.870535,-0.0030841997366068195,-0.02367869399252531,0.0970030596496862,40.106058693909645,-92.24360919585227,76.200527287817
2024-09-23 14:10:24.393876,41.99,26.870587,-0.0029349636958644295,-0.02367869399252531,0.0970030596496862,40.106058693909645,-92.24360919585227,76.200527287817
2024-09-23 14:10:24.436406,41.99,26.870587,-0.0029349636958644295,-0.02352945757203875,0.0973512698629459,52.137550501942634,-92.24360919585227,80.21211738781929
2024-09-23 14:10:24.448435,41.99,26.870637,-0.0029349636958644295,-0.02352945757203875,0.0973512698629459,52.137550501942634,-92.24360919585227,80.21211738781929
2024-09-23 14:10:24.482029,41.88,26.870637,-0.003482159473966507,-0.02352945757203875,0.09774922960030558,52.137550501942634,-92.24360919585227,80.21211738781929
2024-09-23 14:10:24.493781,41.88,26.870637,-0.003482159473966507,-0.02352945757203875,0.09774922960030558,32.08287849390507,-96.25519929585457,80.21211738781929
2024-09-23 14:10:24.577129,41.88,26.870688,-0.0034324103296106863,-0.02352945757203875,0.09774922960030558,32.08287849390507,-96.25519929585457,80.21211738781929
2024-09-23 14:10:24.588837,41.88,26.870688,-0.0034324103296106863,-0.023181236725942318,0.09670458680871308,44.11764879391193,-100.26678939585686,80.21211738781929
2024-09-23 14:10:24.631575,41.88,26.870739,-0.0030841997366068195,-0.023230986250042305,0.09690356060148622,44.11764879391193,-100.26678939585686,84.22370748782159
2024-09-23 14:10:24.644377,41.88,26.870739,-0.0030841997366068195,-0.023230986250042305,0.09690356060148622,24.06297849342227,-100.26678939585686,84.22370748782159
2024-09-23 14:10:24.676486,41.88,26.870878,-0.0030841997366068195,-0.023230986250042305,0.09690356060148622,24.06297849342227,-96.25519929585457,80.21211738781929
2024-09-23 14:10:24.688122,41.88,26.870878,-0.0034324103296106863,-0.02313149783467906,0.09745075675933246,24.06297849342227,-96.25519929585457,80.21211738781929
2024-09-23 14:10:24.731874,41.88,26.870928,-0.003233425524256645,-0.023479709566915436,0.09745075675933246,40.106058693909645,-104.27510100388527,80.21211738781929
2024-09-23 14:10:24.774726,41.88,26.870928,-0.003233425524256645,-0.023479709566915436,0.09715228999426605,24.06297849342227,-100.26678939585686,80.21211738781929
2024-09-23 14:10:24.786540,41.88,26.870979,-0.003780631555451287,-0.023479709566915436,0.09715228999426605,24.06297849342227,-100.26678939585686,80.21211738781929
2024-09-23 14:10:24.829269,41.88,26.87112,-0.003780631555451287,-0.023579196463302005,0.09685382322919964,32.08287849390507,-92.24360919585227,80.21211738781929
2024-09-23 14:10:24.872779,41.88,26.87112,-0.003233425524256645,-0.0228827638849692,0.09675432418099966,32.08287849390507,-92.24360919585227,80.21211738781929
2024-09-23 14:10:24.883827,41.88,26.87112,-0.003233425524256645,-0.0228827638849692,0.09675432418099966,32.08287849390507,-96.25519929585457,76.200527287817
2024-09-23 14:10:24.925935,41.88,26.871171,-0.0029349636958644295,-0.02303200030545576,0.09685382322919964,36.09446859390736,-92.24360919585227,76.200527287817
2024-09-23 14:10:24.968528,41.88,26.871222,-0.003631395514708897,-0.02303200030545576,0.09685382322919964,36.09446859390736,-92.24360919585227,84.22370748782159
2024-09-23 14:10:24.980182,41.88,26.871222,-0.003631395514708897,-0.022982261414192504,0.09720203344245934,36.09446859390736,-92.24360919585227,84.22370748782159
2024-09-23 14:10:25.023262,41.88,26.871272,-0.0030344509719951677,-0.02303200030545576,0.09720203344245934,36.09446859390736,-108.28669110388756,76.200527287817
2024-09-23 14:10:25.065400,41.88,26.871272,-0.0030344509719951677,-0.02303200030545576,0.09725178296655933,40.106058693909645,-108.28669110388756,76.200527287817
2024-09-23 14:10:25.076511,41.88,26.871323,-0.0033329230534799477,-0.02303200030545576,0.09725178296655933,40.106058693909645,-104.27510100388527,76.200527287817
2024-09-23 14:10:25.119760,41.88,26.871374,-0.0033329230534799477,-0.023479709566915436,0.09774922960030558,36.09446859390736,-96.25519929585457,76.200527287817
2024-09-23 14:10:25.162791,41.88,26.871374,-0.0028852147413806935,-0.023280723622328886,0.09774922960030558,36.09446859390736,-96.25519929585457,76.200527287817
2024-09-23 14:10:25.173804,41.88,26.871374,-0.0028852147413806935,-0.023280723622328886,0.09764974270391902,36.09446859390736,-100.26678939585686,76.200527287817
2024-09-23 14:10:25.215833,41.88,26.871461,-0.0028354659767690416,-0.023230986250042305,0.09725178296655933,36.09446859390736,-100.26678939585686,76.200527287817
2024-09-23 14:10:25.228268,41.88,26.871461,-0.0028354659767690416,-0.023230986250042305,0.09725178296655933,36.09446859390736,-96.25519929585457,76.200527287817
2024-09-23 14:10:25.260135,41.88,26.871513,-0.0028354659767690416,-0.023230986250042305,0.09725178296655933,36.09446859390736,-96.25519929585457,76.200527287817
2024-09-23 14:10:25.271495,41.88,26.871513,-0.0033329230534799477,-0.02308174982955575,0.0970030596496862,40.106058693909645,-96.25519929585457,76.200527287817
2024-09-23 14:10:25.313909,41.88,26.871563,-0.0028852147413806935,-0.02367869399252531,0.0970030596496862,40.106058693909645,-96.25519929585457,80.21211738781929
2024-09-23 14:10:25.325990,41.88,26.871563,-0.0028852147413806935,-0.02367869399252531,0.09715228999426605,40.106058693909645,-96.25519929585457,80.21211738781929
2024-09-23 14:10:25.359404,41.88,26.871563,-0.0028852147413806935,-0.02367869399252531,0.09715228999426605,36.09446859390736,-96.25519929585457,80.21211738781929
2024-09-23 14:10:25.370635,41.88,26.871614,-0.0029847020175114316,-0.02293251340906919,0.09715228999426605,36.09446859390736,-96.25519929585457,80.21211738781929
2024-09-23 14:10:25.413447,41.88,26.871665,-0.003382661564999035,-0.02293251340906919,0.09720203344245934,40.106058693909645,-100.26678939585686,76.200527287817
2024-09-23 14:10:25.455325,41.88,26.871665,-0.003382661564999035,-0.02338022115155219,0.09725178296655933,40.106058693909645,-100.26678939585686,76.200527287817
2024-09-23 14:10:25.467404,41.88,26.871753,-0.003382661564999035,-0.02338022115155219,0.09725178296655933,40.106058693909645,-100.26678939585686,76.200527287817
2024-09-23 14:10:25.510723,41.76,26.871753,-0.003780631555451287,-0.02362894446842532,0.09715228999426605,40.106058693909645,-100.26678939585686,76.200527287817
2024-09-23 14:10:25.604795,41.76,26.871805,-0.0036811340262279837,-0.023181236725942318,0.0973512698629459,40.106058693909645,-100.26678939585686,76.200527287817
2024-09-23 14:10:25.616848,41.76,26.871805,-0.0036811340262279837,-0.023181236725942318,0.0973512698629459,44.11764879391193,-100.26678939585686,76.200527287817
2024-09-23 14:10:25.650180,41.76,26.871855,-0.0036811340262279837,-0.023181236725942318,0.0973512698629459,44.11764879391193,-100.26678939585686,76.200527287817
2024-09-23 14:10:25.661171,41.76,26.871855,-0.003482159473966507,-0.023230986250042305,0.09675432418099966,32.08287849390507,-100.26678939585686,76.200527287817
2024-09-23 14:10:25.703916,41.76,26.871906,-0.003482159473966507,-0.023877669304275123,0.09675432418099966,32.08287849390507,-100.26678939585686,76.200527287817
2024-09-23 14:10:25.716056,41.76,26.871906,-0.003482159473966507,-0.023877669304275123,0.09750050628343246,32.08287849390507,-100.26678939585686,76.200527287817
2024-09-23 14:10:25.749426,41.76,26.871906,-0.003482159473966507,-0.023877669304275123,0.09750050628343246,32.08287849390507,-100.26678939585686,80.21211738781929
2024-09-23 14:10:25.760935,41.76,26.871957,-0.0031339382481259063,-0.02308174982955575,0.09750050628343246,32.08287849390507,-100.26678939585686,80.21211738781929
2024-09-23 14:10:25.803649,41.76,26.872007,-0.003382661564999035,-0.02308174982955575,0.09690356060148622,44.11764879391193,-100.26678939585686,80.21211738781929
2024-09-23 14:10:25.845575,41.76,26.872007,-0.003382661564999035,-0.023181236725942318,0.09725178296655933,44.11764879391193,-100.26678939585686,80.21211738781929
2024-09-23 14:10:25.857160,41.76,26.872143,-0.003382661564999035,-0.023181236725942318,0.09725178296655933,32.08287849390507,-96.25519929585457,80.21211738781929
2024-09-23 14:10:25.900813,41.76,26.872143,-0.0037308827908396356,-0.0228827638849692,0.0970030596496862,44.11764879391193,-92.24360919585227,88.23529758782387
2024-09-23 14:10:25.943972,41.76,26.872195,-0.0032831742888682963,-0.023181236725942318,0.0970030596496862,44.11764879391193,-92.24360919585227,88.23529758782387
2024-09-23 14:10:25.955221,41.76,26.872195,-0.0032831742888682963,-0.023181236725942318,0.09685382322919964,40.106058693909645,-92.24360919585227,88.23529758782387
2024-09-23 14:10:25.998134,41.76,26.872246,-0.0032831742888682963,-0.02293251340906919,0.09720203344245934,32.08287849390507,-92.24360919585227,84.22370748782159
2024-09-23 14:10:26.039776,41.76,26.872246,-0.0032831742888682963,-0.02293251340906919,0.09720203344245934,32.08287849390507,-96.25519929585457,80.21211738781929
2024-09-23 14:10:26.050708,41.76,26.872296,-0.0029349636958644295,-0.02238531725122294,0.09705279702197278,32.08287849390507,-96.25519929585457,80.21211738781929
2024-09-23 14:10:26.093175,41.76,26.872347,-0.003382661564999035,-0.02238531725122294,0.09705279702197278,36.09446859390736,-96.25519929585457,76.200527287817
2024-09-23 14:10:26.105288,41.76,26.872347,-0.003382661564999035,-0.023429960042815445,0.09705279702197278,36.09446859390736,-96.25519929585457,76.200527287817
2024-09-23 14:10:26.137881,41.76,26.872347,-0.003382661564999035,-0.023429960042815445,0.0973015264147526,40.106058693909645,-96.25519929585457,76.200527287817
2024-09-23 14:10:26.149823,41.76,26.872398,-0.003382661564999035,-0.023429960042815445,0.0973015264147526,40.106058693909645,-104.27510100388527,80.21211738781929
2024-09-23 14:10:26.192360,41.76,26.872485,-0.003382661564999035,-0.023280723622328886,0.09755024973162574,44.11764879391193,-100.26678939585686,80.21211738781929
2024-09-23 14:10:26.234752,41.76,26.872485,-0.003382661564999035,-0.02352945757203875,0.09755024973162574,44.11764879391193,-100.26678939585686,80.21211738781929
2024-09-23 14:10:26.246145,41.76,26.872485,-0.003382661564999035,-0.02352945757203875,0.09690356060148622,44.11764879391193,-104.27510100388527,80.21211738781929
2024-09-23 14:10:26.288107,41.76,26.872536,-0.0029349636958644295,-0.02308174982955575,0.09715228999426605,44.11764879391193,-104.27510100388527,80.21211738781929
2024-09-23 14:10:26.299447,41.76,26.872536,-0.0029349636958644295,-0.02308174982955575,0.09715228999426605,28.07457030097246,-96.25519929585457,80.21211738781929
2024-09-23 14:10:26.330832,41.76,26.872536,-0.0029349636958644295,-0.02308174982955575,0.09715228999426605,28.07457030097246,-96.25519929585457,76.200527287817
2024-09-23 14:10:26.342767,41.76,26.872587,-0.0030344509719951677,-0.023280723622328886,0.0970030596496862,32.08287849390507,-96.25519929585457,76.200527287817
2024-09-23 14:10:26.386349,41.76,26.872637,-0.0038801188315820256,-0.023280723622328886,0.0970030596496862,32.08287849390507,-100.26678939585686,84.22370748782159
2024-09-23 14:10:26.398015,41.76,26.872637,-0.0038801188315820256,-0.022982261414192504,0.09670458680871308,32.08287849390507,-100.26678939585686,84.22370748782159
2024-09-23 14:10:26.430128,41.76,26.872637,-0.0038801188315820256,-0.022982261414192504,0.09670458680871308,52.137550501942634,-96.25519929585457,84.22370748782159
2024-09-23 14:10:26.441316,41.76,26.872688,-0.0032831742888682963,-0.022982261414192504,0.09670458680871308,52.137550501942634,-96.25519929585457,80.21211738781929
2024-09-23 14:10:26.484514,41.76,26.872739,-0.0027359787006383035,-0.022982261414192504,0.09695331012558621,32.08287849390507,-104.27510100388527,76.200527287817
2024-09-23 14:10:26.528588,41.71,26.872739,-0.0027359787006383035,-0.02338022115155219,0.09715228999426605,32.08287849390507,-104.27510100388527,76.200527287817
2024-09-23 14:10:26.540133,41.71,26.872826,-0.0027359787006383035,-0.02338022115155219,0.09715228999426605,36.09446859390736,-104.27510100388527,76.200527287817
2024-09-23 14:10:26.584027,41.71,26.872826,-0.0032831742888682963,-0.02338022115155219,0.09715228999426605,36.09446859390736,-104.27510100388527,76.200527287817
2024-09-23 14:10:26.626688,41.71,26.872826,-0.0032831742888682963,-0.0228827638849692,0.09725178296655933,52.137550501942634,-104.27510100388527,76.200527287817
2024-09-23 14:10:26.638247,41.71,26.872877,-0.0032831742888682963,-0.0228827638849692,0.09725178296655933,52.137550501942634,-100.26678939585686,76.200527287817
2024-09-23 14:10:26.722502,41.71,26.872877,-0.003631395514708897,-0.02313149783467906,0.09725178296655933,52.137550501942634,-100.26678939585686,76.200527287817
2024-09-23 14:10:26.734667,41.71,26.872877,-0.003631395514708897,-0.02313149783467906,0.09720203344245934,32.08287849390507,-104.27510100388527,68.18063240997792
2024-09-23 14:10:26.778954,41.71,26.872928,-0.0032831742888682963,-0.02293251340906919,0.09725178296655933,32.08287849390507,-108.28669110388756,68.18063240997792
2024-09-23 14:10:26.821806,41.71,26.872979,-0.0036811340262279837,-0.02293251340906919,0.09725178296655933,32.08287849390507,-108.28669110388756,80.21211738781929
2024-09-23 14:10:26.833413,41.71,26.872979,-0.0036811340262279837,-0.02303200030545576,0.09675432418099966,32.08287849390507,-108.28669110388756,80.21211738781929
2024-09-23 14:10:26.875885,41.71,26.872979,-0.0036811340262279837,-0.02303200030545576,0.09675432418099966,32.08287849390507,-100.26678939585686,76.200527287817
2024-09-23 14:10:26.919875,41.71,26.873029,-0.002387757474797703,-0.02362894446842532,0.09675432418099966,32.08287849390507,-100.26678939585686,76.200527287817
2024-09-23 14:10:26.931425,41.71,26.873029,-0.002387757474797703,-0.02362894446842532,0.09710254654607277,44.11764879391193,-96.25519929585457,76.200527287817
2024-09-23 14:10:26.973981,41.71,26.873121,-0.0031836870127375577,-0.023479709566915436,0.09720203344245934,44.11764879391193,-96.25519929585457,80.21211738781929
2024-09-23 14:10:27.016017,41.71,26.873121,-0.0031836870127375577,-0.023479709566915436,0.09720203344245934,44.11764879391193,-104.27510100388527,72.1922225099802
2024-09-23 14:10:27.029981,41.71,26.873219,-0.0036811340262279837,-0.022982261414192504,0.0966050877605131,44.11764879391193,-104.27510100388527,72.1922225099802
2024-09-23 14:10:27.064988,41.71,26.873219,-0.0036811340262279837,-0.022982261414192504,0.0966050877605131,44.11764879391193,-100.26678939585686,72.1922225099802
2024-09-23 14:10:27.076557,41.71,26.873313,-0.0038801188315820256,-0.02313149783467906,0.0966050877605131,44.11764879391193,-100.26678939585686,84.22370748782159
2024-09-23 14:10:27.118618,41.71,26.873364,-0.003482159473966507,-0.02313149783467906,0.09755024973162574,32.08287849390507,-96.25519929585457,80.21211738781929
2024-09-23 14:10:27.161575,41.71,26.873364,-0.003482159473966507,-0.023230986250042305,0.09645586349183995,32.08287849390507,-96.25519929585457,80.21211738781929
2024-09-23 14:10:27.172555,41.71,26.87346,-0.003482159473966507,-0.023230986250042305,0.09645586349183995,32.08287849390507,-100.26678939585686,84.22370748782159
2024-09-23 14:10:27.214884,41.71,26.87346,-0.0032831742888682963,-0.023728432883788564,0.0973015264147526,40.106058693909645,-100.26678939585686,84.22370748782159
2024-09-23 14:10:27.226833,41.71,26.87346,-0.0032831742888682963,-0.023728432883788564,0.0973015264147526,40.106058693909645,-100.26678939585686,76.200527287817
2024-09-23 14:10:27.259564,41.71,26.873511,-0.0033329230534799477,-0.023728432883788564,0.0973015264147526,40.106058693909645,-100.26678939585686,76.200527287817
2024-09-23 14:10:27.271165,41.71,26.873511,-0.0033329230534799477,-0.023728432883788564,0.09740101331113918,28.07457030097246,-96.25519929585457,76.200527287817
2024-09-23 14:10:27.313149,41.71,26.873562,-0.0035816467500972456,-0.02338022115155219,0.09784872257259886,36.09446859390736,-96.25519929585457,76.200527287817
2024-09-23 14:10:27.356187,41.71,26.873562,-0.0035816467500972456,-0.02338022115155219,0.09784872257259886,36.09446859390736,-100.26678939585686,80.21211738781929
2024-09-23 14:10:27.368436,41.71,26.873612,-0.003233425524256645,-0.02308174982955575,0.09675432418099966,36.09446859390736,-100.26678939585686,80.21211738781929
2024-09-23 14:10:27.410723,41.71,26.873663,-0.0037308827908396356,-0.02308174982955575,0.09675432418099966,44.11764879391193,-96.25519929585457,72.1922225099802
2024-09-23 14:10:27.422746,41.71,26.873663,-0.0037308827908396356,-0.023479709566915436,0.09675432418099966,44.11764879391193,-96.25519929585457,72.1922225099802
2024-09-23 14:10:27.455600,41.71,26.873663,-0.0037308827908396356,-0.023479709566915436,0.0970030596496862,32.08287849390507,-100.26678939585686,72.1922225099802
2024-09-23 14:10:27.466951,41.71,26.873714,-0.003482159473966507,-0.023479709566915436,0.0970030596496862,32.08287849390507,-100.26678939585686,72.1922225099802
2024-09-23 14:10:27.510233,41.71,26.873714,-0.003482159473966507,-0.023479709566915436,0.09715228999426605,36.09446859390736,-96.25519929585457,72.1922225099802
2024-09-23 14:10:27.553025,41.12,26.873801,-0.0027359787006383035,-0.023479709566915436,0.09715228999426605,36.09446859390736,-96.25519929585457,80.21211738781929
2024-09-23 14:10:27.564510,41.12,26.873801,-0.0027359787006383035,-0.023181236725942318,0.0973015264147526,40.106058693909645,-96.25519929585457,80.21211738781929
2024-09-23 14:10:27.607794,41.12,26.873801,-0.0027359787006383035,-0.023181236725942318,0.0973015264147526,40.106058693909645,-108.28669110388756,80.21211738781929
2024-09-23 14:10:27.650544,41.12,26.873852,-0.0031339382481259063,-0.023181236725942318,0.0973015264147526,40.106058693909645,-108.28669110388756,76.200527287817
2024-09-23 14:10:27.662161,41.12,26.873852,-0.0031339382481259063,-0.023429960042815445,0.09685382322919964,36.09446859390736,-108.28669110388756,76.200527287817
2024-09-23 14:10:27.705461,41.12,26.873903,-0.003482159473966507,-0.023230986250042305,0.09685382322919964,36.09446859390736,-100.26678939585686,80.21211738781929
2024-09-23 14:10:27.748109,41.12,26.873903,-0.003482159473966507,-0.023230986250042305,0.09685382322919964,40.106058693909645,-96.25519929585457,84.22370748782159
2024-09-23 14:10:27.759866,41.12,26.873954,-0.0034324103296106863,-0.023280723622328886,0.09685382322919964,40.106058693909645,-96.25519929585457,84.22370748782159
2024-09-23 14:10:27.794729,41.12,26.873954,-0.0034324103296106863,-0.023280723622328886,0.09680407370509965,28.07457030097246,-96.25519929585457,84.22370748782159
2024-09-23 14:10:27.806087,41.12,26.874045,-0.003382661564999035,-0.023280723622328886,0.09680407370509965,28.07457030097246,-96.25519929585457,76.200527287817
2024-09-23 14:10:27.848078,41.12,26.874045,-0.003382661564999035,-0.022982261414192504,0.09745075675933246,32.08287849390507,-96.25519929585457,84.22370748782159
2024-09-23 14:10:27.859696,41.12,26.874095,-0.003382661564999035,-0.022982261414192504,0.09745075675933246,32.08287849390507,-96.25519929585457,84.22370748782159
2024-09-23 14:10:27.893999,41.12,26.874095,-0.003482159473966507,-0.02303200030545576,0.09745075675933246,32.08287849390507,-96.25519929585457,84.22370748782159
2024-09-23 14:10:27.905850,41.12,26.874095,-0.003482159473966507,-0.02303200030545576,0.09755024973162574,40.106058693909645,-100.26678939585686,80.21211738781929
2024-09-23 14:10:27.948304,41.12,26.874191,-0.0029847020175114316,-0.02313149783467906,0.0973512698629459,40.106058693909645,-92.24360919585227,80.21211738781929
2024-09-23 14:10:27.990336,41.12,26.874243,-0.0029847020175114316,-0.02313149783467906,0.0973512698629459,40.106058693909645,-92.24360919585227,76.200527287817
2024-09-23 14:10:28.002354,41.12,26.874243,-0.0035318979854855937,-0.02303200030545576,0.0973512698629459,48.12595698684454,-92.24360919585227,76.200527287817
2024-09-23 14:10:28.045860,41.12,26.874293,-0.0033329230534799477,-0.023827930413011865,0.0970030596496862,48.12595698684454,-96.25519929585457,80.21211738781929
2024-09-23 14:10:28.088886,41.12,26.874293,-0.0033329230534799477,-0.023827930413011865,0.0970030596496862,40.106058693909645,-100.26678939585686,80.21211738781929
2024-09-23 14:10:28.099893,41.12,26.874344,-0.0035318979854855937,-0.02308174982955575,0.0970030596496862,40.106058693909645,-100.26678939585686,80.21211738781929
2024-09-23 14:10:28.143817,41.12,26.874395,-0.0033329230534799477,-0.02308174982955575,0.09755024973162574,36.09446859390736,-100.26678939585686,84.22370748782159
2024-09-23 14:10:28.186132,41.12,26.874395,-0.0033329230534799477,-0.023230986250042305,0.09690356060148622,32.08287849390507,-100.26678939585686,84.22370748782159
2024-09-23 14:10:28.197356,41.12,26.874483,-0.0033329230534799477,-0.023230986250042305,0.09690356060148622,32.08287849390507,-104.27510100388527,72.1922225099802
2024-09-23 14:10:28.239746,41.12,26.874483,-0.003382661564999035,-0.023429960042815445,0.09745075675933246,32.08287849390507,-104.27510100388527,84.22370748782159
2024-09-23 14:10:28.282618,41.12,26.874535,-0.0030841997366068195,-0.023429960042815445,0.09745075675933246,32.08287849390507,-104.27510100388527,84.22370748782159
2024-09-23 14:10:28.293961,41.12,26.874535,-0.0030841997366068195,-0.022733528983459317,0.09725178296655933,32.08287849390507,-104.27510100388527,84.22370748782159
2024-09-23 14:10:28.335727,41.12,26.874586,-0.0034324103296106863,-0.022833026512682618,0.09705279702197278,32.08287849390507,-104.27510100388527,72.1922225099802
2024-09-23 14:10:28.347342,41.12,26.874586,-0.0034324103296106863,-0.022833026512682618,0.09705279702197278,40.106058693909645,-104.27510100388527,72.1922225099802
2024-09-23 14:10:28.380286,41.12,26.874586,-0.0034324103296106863,-0.022833026512682618,0.09705279702197278,40.106058693909645,-100.26678939585686,76.200527287817
2024-09-23 14:10:28.392107,41.12,26.874636,-0.0034324103296106863,-0.023429960042815445,0.09740101331113918,40.106058693909645,-100.26678939585686,76.200527287817
2024-09-23 14:10:28.434629,41.12,26.874687,-0.0033329230534799477,-0.0228827638849692,0.09740101331113918,40.106058693909645,-104.27510100388527,76.200527287817
2024-09-23 14:10:28.477162,41.12,26.874687,-0.0033329230534799477,-0.0228827638849692,0.09655535038822652,44.11764879391193,-104.27510100388527,76.200527287817
2024-09-23 14:10:28.489187,41.12,26.874738,-0.003780631555451287,-0.0228827638849692,0.09655535038822652,44.11764879391193,-92.24360919585227,80.21211738781929
2024-09-23 14:10:28.531460,41.12,26.874738,-0.003780631555451287,-0.023479709566915436,0.09670458680871308,36.09446859390736,-96.25519929585457,80.21211738781929
2024-09-23 14:10:28.543337,41.12,26.874825,-0.003780631555451287,-0.023479709566915436,0.09670458680871308,36.09446859390736,-96.25519929585457,80.21211738781929
2024-09-23 14:10:28.575203,40.85,26.874825,-0.0032831742888682963,-0.02293251340906919,0.09670458680871308,36.09446859390736,-96.25519929585457,80.21211738781929
2024-09-23 14:10:28.586244,40.85,26.874825,-0.0032831742888682963,-0.02293251340906919,0.09725178296655933,20.05138839341998,-96.25519929585457,84.22370748782159
2024-09-23 14:10:28.629543,40.85,26.874876,-0.0033329230534799477,-0.02293251340906919,0.09725178296655933,20.05138839341998,-96.25519929585457,84.22370748782159
2024-09-23 14:10:28.671838,40.85,26.874876,-0.0033329230534799477,-0.02352945757203875,0.09725178296655933,20.05138839341998,-96.25519929585457,84.22370748782159
2024-09-23 14:10:28.683591,40.85,26.874927,-0.0033329230534799477,-0.02352945757203875,0.0973512698629459,32.08287849390507,-100.26678939585686,80.21211738781929
2024-09-23 14:10:28.726418,40.85,26.874927,-0.003382661564999035,-0.02293251340906919,0.0973512698629459,28.07457030097246,-96.25519929585457,80.21211738781929
2024-09-23 14:10:28.738609,40.85,26.874927,-0.003382661564999035,-0.02293251340906919,0.0973512698629459,28.07457030097246,-96.25519929585457,80.21211738781929
2024-09-23 14:10:28.770869,40.85,26.874978,-0.0037308827908396356,-0.02293251340906919,0.0973512698629459,28.07457030097246,-96.25519929585457,80.21211738781929
2024-09-23 14:10:28.782673,40.85,26.874978,-0.0037308827908396356,-0.023479709566915436,0.09705279702197278,32.08287849390507,-92.24360919585227,80.21211738781929
2024-09-23 14:10:28.825858,40.85,26.875028,-0.0030841997366068195,-0.022982261414192504,0.09710254654607277,48.12595698684454,-92.24360919585227,80.21211738781929
2024-09-23 14:10:28.867948,40.85,26.875028,-0.0030841997366068195,-0.022982261414192504,0.09710254654607277,48.12595698684454,-96.25519929585457,76.200527287817
2024-09-23 14:10:28.880174,40.85,26.875079,-0.003929857343101113,-0.02362894446842532,0.09755024973162574,48.12595698684454,-96.25519929585457,76.200527287817
2024-09-23 14:10:28.923515,40.85,26.875168,-0.0032831742888682963,-0.02303200030545576,0.09755024973162574,28.07457030097246,-100.26678939585686,84.22370748782159
2024-09-23 14:10:28.966597,40.85,26.875168,-0.0032831742888682963,-0.02303200030545576,0.0973015264147526,44.11764879391193,-104.27510100388527,84.22370748782159
2024-09-23 14:10:28.978228,40.85,26.875219,-0.0029349636958644295,-0.02303200030545576,0.0973015264147526,44.11764879391193,-104.27510100388527,80.21211738781929
2024-09-23 14:10:29.021884,40.85,26.875312,-0.0029349636958644295,-0.02293251340906919,0.09755024973162574,20.05138839341998,-104.27510100388527,80.21211738781929
2024-09-23 14:10:29.063655,40.85,26.875312,-0.0031339382481259063,-0.022982261414192504,0.09670458680871308,20.05138839341998,-104.27510100388527,80.21211738781929
2024-09-23 14:10:29.074674,40.85,26.875312,-0.0031339382481259063,-0.022982261414192504,0.09670458680871308,52.137550501942634,-96.25519929585457,72.1922225099802
2024-09-23 14:10:29.116666,40.85,26.875364,-0.0034324103296106863,-0.023479709566915436,0.09680407370509965,44.11764879391193,-96.25519929585457,72.1922225099802
2024-09-23 14:10:29.128888,40.85,26.875364,-0.0034324103296106863,-0.023479709566915436,0.09680407370509965,44.11764879391193,-92.24360919585227,72.1922225099802
2024-09-23 14:10:29.161721,40.85,26.875414,-0.003382661564999035,-0.023479709566915436,0.09680407370509965,44.11764879391193,-92.24360919585227,72.1922225099802
2024-09-23 14:10:29.172895,40.85,26.875414,-0.003382661564999035,-0.02303200030545576,0.09715228999426605,32.08287849390507,-92.24360919585227,72.1922225099802
2024-09-23 14:10:29.215774,40.85,26.875465,-0.0029349636958644295,-0.02352945757203875,0.09715228999426605,32.08287849390507,-104.27510100388527,76.200527287817
2024-09-23 14:10:29.259674,40.85,26.875465,-0.0029349636958644295,-0.02352945757203875,0.09715228999426605,32.08287849390507,-100.26678939585686,72.1922225099802
2024-09-23 14:10:29.273905,40.85,26.875516,-0.0032831742888682963,-0.02293251340906919,0.09715228999426605,32.08287849390507,-100.26678939585686,72.1922225099802
2024-09-23 14:10:29.306338,40.85,26.875516,-0.0032831742888682963,-0.02293251340906919,0.09680407370509965,36.09446859390736,-100.26678939585686,72.1922225099802
2024-09-23 14:10:29.317471,40.85,26.875566,-0.0032831742888682963,-0.02293251340906919,0.09680407370509965,36.09446859390736,-92.24360919585227,80.21211738781929
2024-09-23 14:10:29.360640,40.85,26.875566,-0.0032831742888682963,-0.02352945757203875,0.09705279702197278,36.09446859390736,-96.25519929585457,80.21211738781929
2024-09-23 14:10:29.372158,40.85,26.875653,-0.0032831742888682963,-0.02352945757203875,0.09705279702197278,36.09446859390736,-96.25519929585457,80.21211738781929
2024-09-23 14:10:29.404369,40.85,26.875653,-0.0030841997366068195,-0.02352945757203875,0.09705279702197278,36.09446859390736,-96.25519929585457,80.21211738781929
2024-09-23 14:10:29.458037,40.85,26.875653,-0.0030841997366068195,-0.023230986250042305,0.09670458680871308,28.07457030097246,-96.25519929585457,84.22370748782159
2024-09-23 14:10:29.470016,40.85,26.875705,-0.0030841997366068195,-0.023230986250042305,0.09670458680871308,28.07457030097246,-96.25519929585457,84.22370748782159
2024-09-23 14:10:29.504481,40.85,26.875705,-0.0028852147413806935,-0.023181236725942318,0.09740101331113918,28.07457030097246,-96.25519929585457,84.22370748782159
2024-09-23 14:10:29.516115,40.85,26.875705,-0.0028852147413806935,-0.023181236725942318,0.09740101331113918,28.07457030097246,-96.25519929585457,80.21211738781929
2024-09-23 14:10:29.549175,40.85,26.875756,-0.0028852147413806935,-0.023181236725942318,0.09740101331113918,28.07457030097246,-96.25519929585457,80.21211738781929
2024-09-23 14:10:29.560754,40.85,26.875756,-0.003631395514708897,-0.02278327698858263,0.09715228999426605,32.08287849390507,-96.25519929585457,80.21211738781929
2024-09-23 14:10:29.604282,41.01,26.875806,-0.003233425524256645,-0.02338022115155219,0.09745075675933246,32.08287849390507,-96.25519929585457,84.22370748782159
2024-09-23 14:10:29.616414,41.01,26.875806,-0.003233425524256645,-0.02338022115155219,0.09745075675933246,24.06297849342227,-96.25519929585457,84.22370748782159
2024-09-23 14:10:29.649151,41.01,26.875806,-0.003233425524256645,-0.02338022115155219,0.09745075675933246,24.06297849342227,-92.24360919585227,84.22370748782159
2024-09-23 14:10:29.702465,41.01,26.875857,-0.004029355252068585,-0.023230986250042305,0.09740101331113918,32.08287849390507,-92.24360919585227,84.22370748782159
2024-09-23 14:10:29.745125,41.01,26.875857,-0.004029355252068585,-0.023230986250042305,0.09740101331113918,32.08287849390507,-104.27510100388527,84.22370748782159
2024-09-23 14:10:29.757363,41.01,26.875948,-0.003233425524256645,-0.02263404056809607,0.098047696365372,32.08287849390507,-104.27510100388527,84.22370748782159
2024-09-23 14:10:29.801020,41.01,26.875999,-0.0031836870127375577,-0.02303200030545576,0.098047696365372,36.09446859390736,-96.25519929585457,80.21211738781929
2024-09-23 14:10:29.844611,41.01,26.875999,-0.0031836870127375577,-0.02303200030545576,0.09740101331113918,32.08287849390507,-100.26678939585686,80.21211738781929
2024-09-23 14:10:29.856150,41.01,26.876092,-0.003482159473966507,-0.02303200030545576,0.09740101331113918,32.08287849390507,-100.26678939585686,88.23529758782387
2024-09-23 14:10:29.899149,41.01,26.876143,-0.003482159473966507,-0.022982261414192504,0.09789846602079214,28.07457030097246,-96.25519929585457,88.23529758782387
2024-09-23 14:10:29.942901,41.01,26.876143,-0.0029349636958644295,-0.02293251340906919,0.09715228999426605,28.07457030097246,-96.25519929585457,88.23529758782387
2024-09-23 14:10:29.954821,41.01,26.876143,-0.0029349636958644295,-0.02293251340906919,0.09715228999426605,28.07457030097246,-96.25519929585457,92.24360919585227
2024-09-23 14:10:29.986972,41.01,26.876239,-0.0029349636958644295,-0.02293251340906919,0.09715228999426605,28.07457030097246,-96.25519929585457,92.24360919585227
2024-09-23 14:10:29.998540,41.01,26.876239,-0.0035318979854855937,-0.023728432883788564,0.0970030596496862,24.06297849342227,-100.26678939585686,92.24360919585227
2024-09-23 14:10:30.040963,41.01,26.876291,-0.003382661564999035,-0.023728432883788564,0.0970030596496862,24.06297849342227,-100.26678939585686,76.200527287817
2024-09-23 14:10:30.094277,41.01,26.876342,-0.003382661564999035,-0.022982261414192504,0.09695331012558621,32.08287849390507,-100.26678939585686,84.22370748782159
2024-09-23 14:10:30.138087,41.01,26.876342,-0.003780631555451287,-0.022833026512682618,0.0976994861521123,40.106058693909645,-100.26678939585686,84.22370748782159
2024-09-23 14:10:30.150013,41.01,26.876342,-0.003780631555451287,-0.022833026512682618,0.0976994861521123,40.106058693909645,-92.24360919585227,88.23529758782387
2024-09-23 14:10:30.182060,41.01,26.876392,-0.003780631555451287,-0.022833026512682618,0.0976994861521123,40.106058693909645,-92.24360919585227,88.23529758782387
2024-09-23 14:10:30.193297,41.01,26.876392,-0.0031836870127375577,-0.022733528983459317,0.09685382322919964,36.09446859390736,-92.24360919585227,88.23529758782387
2024-09-23 14:10:30.236003,41.01,26.876443,-0.0029349636958644295,-0.023181236725942318,0.09685382322919964,36.09446859390736,-92.24360919585227,84.22370748782159
2024-09-23 14:10:30.247991,41.01,26.876443,-0.0029349636958644295,-0.023181236725942318,0.09789846602079214,44.11764879391193,-92.24360919585227,84.22370748782159
2024-09-23 14:10:30.281291,41.01,26.876443,-0.0029349636958644295,-0.023181236725942318,0.09789846602079214,44.11764879391193,-100.26678939585686,80.21211738781929
2024-09-23 14:10:30.292491,41.01,26.876531,-0.0033329230534799477,-0.023877669304275123,0.0973512698629459,44.11764879391193,-100.26678939585686,80.21211738781929
2024-09-23 14:10:30.334580,41.01,26.876583,-0.0037308827908396356,-0.023877669304275123,0.0973512698629459,32.08287849390507,-96.25519929585457,84.22370748782159
2024-09-23 14:10:30.346200,41.01,26.876583,-0.0037308827908396356,-0.02313149783467906,0.0973512698629459,32.08287849390507,-96.25519929585457,84.22370748782159
2024-09-23 14:10:30.378093,41.01,26.876583,-0.0037308827908396356,-0.02313149783467906,0.09725178296655933,36.09446859390736,-96.25519929585457,84.22370748782159
2024-09-23 14:10:30.389271,41.01,26.876633,-0.0028354659767690416,-0.02313149783467906,0.09725178296655933,36.09446859390736,-100.26678939585686,76.200527287817
2024-09-23 14:10:30.432443,41.01,26.876633,-0.0028354659767690416,-0.02338022115155219,0.0973015264147526,32.08287849390507,-96.25519929585457,80.21211738781929
2024-09-23 14:10:30.444300,41.01,26.876726,-0.0028354659767690416,-0.02338022115155219,0.0973015264147526,32.08287849390507,-96.25519929585457,80.21211738781929
2024-09-23 14:10:30.476683,41.01,26.876726,-0.0034324103296106863,-0.023579196463302005,0.0973015264147526,32.08287849390507,-96.25519929585457,80.21211738781929
2024-09-23 14:10:30.488306,41.01,26.876726,-0.0034324103296106863,-0.023579196463302005,0.09685382322919964,28.07457030097246,-100.26678939585686,76.200527287817
2024-09-23 14:10:30.530649,41.01,26.876778,-0.0029847020175114316,-0.02303200030545576,0.09710254654607277,48.12595698684454,-100.26678939585686,76.200527287817
2024-09-23 14:10:30.542312,41.01,26.876778,-0.0029847020175114316,-0.02303200030545576,0.09710254654607277,48.12595698684454,-104.27510100388527,76.200527287817
2024-09-23 14:10:30.574263,41.01,26.876828,-0.0029847020175114316,-0.02303200030545576,0.09710254654607277,48.12595698684454,-104.27510100388527,84.22370748782159
2024-09-23 14:10:30.585589,41.01,26.876828,-0.003233425524256645,-0.02303200030545576,0.09710254654607277,48.12595698684454,-104.27510100388527,84.22370748782159
2024-09-23 14:10:30.630146,41.32,26.876879,-0.0028354659767690416,-0.022833026512682618,0.09685382322919964,48.12595698684454,-104.27510100388527,80.21211738781929
2024-09-23 14:10:30.672912,41.32,26.876879,-0.0028354659767690416,-0.022833026512682618,0.09685382322919964,24.06297849342227,-104.27510100388527,80.21211738781929
2024-09-23 14:10:30.725867,41.32,26.876879,-0.0028354659767690416,-0.022833026512682618,0.09685382322919964,24.06297849342227,-104.27510100388527,84.22370748782159
2024-09-23 14:10:30.769058,41.32,26.876929,-0.003233425524256645,-0.022833026512682618,0.09685382322919964,24.06297849342227,-104.27510100388527,84.22370748782159
2024-09-23 14:10:30.781050,41.32,26.876929,-0.003233425524256645,-0.023330473146428877,0.09705279702197278,44.11764879391193,-108.28669110388756,84.22370748782159
2024-09-23 14:10:30.823308,41.32,26.87698,-0.0029349636958644295,-0.023479709566915436,0.09695331012558621,44.11764879391193,-108.28669110388756,72.1922225099802
2024-09-23 14:10:30.835240,41.32,26.87698,-0.0029349636958644295,-0.023479709566915436,0.09695331012558621,40.106058693909645,-108.28669110388756,72.1922225099802
2024-09-23 14:10:30.867957,41.32,26.877067,-0.0029349636958644295,-0.023479709566915436,0.09695331012558621,40.106058693909645,-96.25519929585457,76.200527287817
2024-09-23 14:10:30.879421,41.32,26.877067,-0.003382661564999035,-0.023728432883788564,0.09750050628343246,40.106058693909645,-96.25519929585457,76.200527287817
2024-09-23 14:10:30.921125,41.32,26.877119,-0.0028354659767690416,-0.02352945757203875,0.09750050628343246,40.106058693909645,-88.23529758782387,80.21211738781929
2024-09-23 14:10:30.963463,41.32,26.877119,-0.0028354659767690416,-0.02352945757203875,0.09710254654607277,40.106058693909645,-88.23529758782387,80.21211738781929
2024-09-23 14:10:30.975501,41.32,26.877169,-0.0031836870127375577,-0.02352945757203875,0.09710254654607277,40.106058693909645,-96.25519929585457,80.21211738781929
2024-09-23 14:10:31.018848,41.32,26.877311,-0.0031836870127375577,-0.02313149783467906,0.09715228999426605,44.11764879391193,-96.25519929585457,80.21211738781929
2024-09-23 14:10:31.061339,41.32,26.877311,-0.0035816467500972456,-0.0228827638849692,0.09715228999426605,44.11764879391193,-96.25519929585457,80.21211738781929
2024-09-23 14:10:31.073147,41.32,26.877311,-0.0035816467500972456,-0.0228827638849692,0.09690356060148622,32.08287849390507,-100.26678939585686,80.21211738781929
2024-09-23 14:10:31.115907,41.32,26.877363,-0.0032831742888682963,-0.023479709566915436,0.09705279702197278,36.09446859390736,-104.27510100388527,80.21211738781929
2024-09-23 14:10:31.158586,41.32,26.877413,-0.0032831742888682963,-0.023479709566915436,0.09705279702197278,36.09446859390736,-104.27510100388527,84.22370748782159
2024-09-23 14:10:31.169800,41.32,26.877413,-0.0035318979854855937,-0.02352945757203875,0.09745075675933246,40.106058693909645,-104.27510100388527,84.22370748782159
2024-09-23 14:10:31.211954,41.32,26.877464,-0.0030344509719951677,-0.02362894446842532,0.09745075675933246,40.106058693909645,-104.27510100388527,80.21211738781929
2024-09-23 14:10:31.223972,41.32,26.877464,-0.0030344509719951677,-0.02362894446842532,0.09690356060148622,40.106058693909645,-104.27510100388527,80.21211738781929
2024-09-23 14:10:31.256152,41.32,26.877464,-0.0030344509719951677,-0.02362894446842532,0.09690356060148622,16.039798293417693,-100.26678939585686,80.21211738781929
2024-09-23 14:10:31.267647,41.32,26.877515,-0.0031836870127375577,-0.022833026512682618,0.09690356060148622,16.039798293417693,-100.26678939585686,80.21211738781929
2024-09-23 14:10:31.310365,41.32,26.877565,-0.0031836870127375577,-0.022833026512682618,0.09745075675933246,36.09446859390736,-100.26678939585686,80.21211738781929
2024-09-23 14:10:31.322344,41.32,26.877565,-0.003929857343101113,-0.022833026512682618,0.09745075675933246,36.09446859390736,-100.26678939585686,80.21211738781929
2024-09-23 14:10:31.355474,41.32,26.877565,-0.003929857343101113,-0.02352945757203875,0.09740101331113918,36.09446859390736,-100.26678939585686,80.21211738781929
2024-09-23 14:10:31.407671,41.32,26.877652,-0.0033329230534799477,-0.023280723622328886,0.09740101331113918,36.09446859390736,-96.25519929585457,80.21211738781929
2024-09-23 14:10:31.419690,41.32,26.877652,-0.0033329230534799477,-0.023280723622328886,0.09705279702197278,36.09446859390736,-96.25519929585457,80.21211738781929
2024-09-23 14:10:31.451535,41.32,26.877652,-0.0033329230534799477,-0.023280723622328886,0.09705279702197278,28.07457030097246,-92.24360919585227,80.21211738781929
2024-09-23 14:10:31.463645,41.32,26.877704,-0.0032831742888682963,-0.02352945757203875,0.09705279702197278,28.07457030097246,-92.24360919585227,88.23529758782387
2024-09-23 14:10:31.506862,41.32,26.877755,-0.0037308827908396356,-0.02352945757203875,0.0976994861521123,36.09446859390736,-96.25519929585457,88.23529758782387
2024-09-23 14:10:31.548828,41.32,26.877755,-0.0037308827908396356,-0.02313149783467906,0.09705279702197278,36.09446859390736,-96.25519929585457,88.23529758782387
2024-09-23 14:10:31.559977,41.32,26.877805,-0.0037308827908396356,-0.02313149783467906,0.09705279702197278,40.106058693909645,-96.25519929585457,80.21211738781929
2024-09-23 14:10:31.645771,41.33,26.877805,-0.003233425524256645,-0.02313149783467906,0.09705279702197278,40.106058693909645,-96.25519929585457,80.21211738781929
2024-09-23 14:10:31.657378,41.33,26.877805,-0.003233425524256645,-0.022833026512682618,0.09715228999426605,32.08287849390507,-88.23529758782387,88.23529758782387
2024-09-23 14:10:31.699473,41.33,26.877896,-0.0030841997366068195,-0.022833026512682618,0.09715228999426605,32.08287849390507,-88.23529758782387,88.23529758782387
2024-09-23 14:10:31.743145,41.33,26.877896,-0.0030841997366068195,-0.02352945757203875,0.09715228999426605,32.08287849390507,-88.23529758782387,88.23529758782387
2024-09-23 14:10:31.754160,41.33,26.877948,-0.0030841997366068195,-0.02352945757203875,0.09759999317981902,28.07457030097246,-96.25519929585457,84.22370748782159
2024-09-23 14:10:31.797699,41.33,26.877948,-0.0035816467500972456,-0.02278327698858263,0.0970030596496862,36.09446859390736,-100.26678939585686,84.22370748782159
2024-09-23 14:10:31.809852,41.33,26.877948,-0.0035816467500972456,-0.02278327698858263,0.0970030596496862,36.09446859390736,-100.26678939585686,80.21211738781929
2024-09-23 14:10:31.843687,41.33,26.877999,-0.0035816467500972456,-0.02263404056809607,0.0970030596496862,36.09446859390736,-100.26678939585686,80.21211738781929
2024-09-23 14:10:31.854839,41.33,26.877999,-0.0035816467500972456,-0.02263404056809607,0.0973512698629459,40.106058693909645,-108.28669110388756,80.21211738781929
2024-09-23 14:10:31.897216,41.33,26.87805,-0.0031339382481259063,-0.023230986250042305,0.09710254654607277,44.11764879391193,-108.28669110388756,76.200527287817
2024-09-23 14:10:31.940172,41.33,26.878142,-0.0031339382481259063,-0.023230986250042305,0.09710254654607277,44.11764879391193,-96.25519929585457,76.200527287817
2024-09-23 14:10:31.953159,41.33,26.878142,-0.003631395514708897,-0.02303200030545576,0.09725178296655933,44.11764879391193,-96.25519929585457,76.200527287817
2024-09-23 14:10:31.984954,41.33,26.878142,-0.003631395514708897,-0.02303200030545576,0.09725178296655933,52.137550501942634,-96.25519929585457,76.200527287817
2024-09-23 14:10:31.995896,41.33,26.878239,-0.003631395514708897,-0.02303200030545576,0.09725178296655933,52.137550501942634,-100.26678939585686,76.200527287817
2024-09-23 14:10:32.038105,41.33,26.878239,-0.003631395514708897,-0.023579196463302005,0.09695331012558621,32.08287849390507,-100.26678939585686,76.200527287817
2024-09-23 14:10:32.049728,41.33,26.87829,-0.003631395514708897,-0.023579196463302005,0.09695331012558621,32.08287849390507,-100.26678939585686,80.21211738781929
2024-09-23 14:10:32.092931,41.33,26.87829,-0.0032831742888682963,-0.022982261414192504,0.09779897304849887,32.08287849390507,-100.26678939585686,80.21211738781929
2024-09-23 14:10:32.135366,41.33,26.878383,-0.0031836870127375577,-0.022982261414192504,0.09779897304849887,32.08287849390507,-100.26678939585686,80.21211738781929
2024-09-23 14:10:32.146310,41.33,26.878383,-0.0031836870127375577,-0.02308174982955575,0.09725178296655933,36.09446859390736,-100.26678939585686,80.21211738781929
2024-09-23 14:10:32.188630,41.33,26.878435,-0.0035318979854855937,-0.0228827638849692,0.0973512698629459,36.09446859390736,-100.26678939585686,76.200527287817
2024-09-23 14:10:32.232385,41.33,26.878486,-0.0035318979854855937,-0.0228827638849692,0.0973512698629459,36.09446859390736,-88.23529758782387,80.21211738781929
2024-09-23 14:10:32.243496,41.33,26.878486,-0.003382661564999035,-0.023181236725942318,0.09670458680871308,36.09446859390736,-88.23529758782387,80.21211738781929
2024-09-23 14:10:32.285932,41.33,26.878536,-0.0035318979854855937,-0.023479709566915436,0.09670458680871308,32.08287849390507,-96.25519929585457,84.22370748782159
2024-09-23 14:10:32.328871,41.33,26.878536,-0.0035318979854855937,-0.023479709566915436,0.09750050628343246,24.06297849342227,-96.25519929585457,84.22370748782159
2024-09-23 14:10:32.340071,41.33,26.878587,-0.0035318979854855937,-0.023479709566915436,0.09750050628343246,24.06297849342227,-92.24360919585227,88.23529758782387
2024-09-23 14:10:32.383497,41.33,26.878676,-0.0035318979854855937,-0.0228827638849692,0.09755024973162574,24.06297849342227,-100.26678939585686,84.22370748782159
2024-09-23 14:10:32.426223,41.33,26.878676,-0.0033329230534799477,-0.02352945757203875,0.09755024973162574,24.06297849342227,-100.26678939585686,84.22370748782159
2024-09-23 14:10:32.438411,41.33,26.878676,-0.0033329230534799477,-0.02352945757203875,0.0966050877605131,32.08287849390507,-100.26678939585686,84.22370748782159
2024-09-23 14:10:32.482203,41.33,26.878727,-0.0031836870127375577,-0.023280723622328886,0.0970030596496862,36.09446859390736,-96.25519929585457,84.22370748782159
2024-09-23 14:10:32.576903,41.33,26.878778,-0.003233425524256645,-0.02313149783467906,0.09789846602079214,36.09446859390736,-96.25519929585457,84.22370748782159
2024-09-23 14:10:32.589010,41.33,26.878778,-0.003233425524256645,-0.02313149783467906,0.09789846602079214,44.11764879391193,-96.25519929585457,84.22370748782159
2024-09-23 14:10:32.621593,41.33,26.878778,-0.003233425524256645,-0.02313149783467906,0.09789846602079214,44.11764879391193,-96.25519929585457,76.200527287817
2024-09-23 14:10:32.632718,41.33,26.878829,-0.0033329230534799477,-0.02278327698858263,0.09690356060148622,44.11764879391193,-96.25519929585457,76.200527287817
2024-09-23 14:10:32.675419,41.32,26.878879,-0.003482159473966507,-0.02278327698858263,0.09690356060148622,44.11764879391193,-104.27510100388527,84.22370748782159
2024-09-23 14:10:32.687494,41.32,26.878879,-0.003482159473966507,-0.02278327698858263,0.09690356060148622,44.11764879391193,-104.27510100388527,84.22370748782159
2024-09-23 14:10:32.720314,41.32,26.878879,-0.003482159473966507,-0.02278327698858263,0.09665483728461309,48.12595698684454,-104.27510100388527,84.22370748782159
2024-09-23 14:10:32.774270,41.32,26.87893,-0.003233425524256645,-0.02303200030545576,0.0973015264147526,40.106058693909645,-104.27510100388527,80.21211738781929
2024-09-23 14:10:32.816319,41.32,26.87893,-0.003233425524256645,-0.02303200030545576,0.0973015264147526,40.106058693909645,-100.26678939585686,80.21211738781929
2024-09-23 14:10:32.828611,41.32,26.879017,-0.0036811340262279837,-0.023728432883788564,0.09750050628343246,40.106058693909645,-100.26678939585686,80.21211738781929
2024-09-23 14:10:32.872195,41.32,26.879115,-0.003382661564999035,-0.023429960042815445,0.09750050628343246,28.07457030097246,-104.27510100388527,80.21211738781929
2024-09-23 14:10:32.915267,41.32,26.879115,-0.003382661564999035,-0.023429960042815445,0.09710254654607277,32.08287849390507,-100.26678939585686,80.21211738781929
2024-09-23 14:10:32.926256,41.32,26.879167,-0.0037308827908396356,-0.023429960042815445,0.09710254654607277,32.08287849390507,-100.26678939585686,76.200527287817
2024-09-23 14:10:32.969326,41.32,26.879217,-0.0037308827908396356,-0.023579196463302005,0.0973015264147526,32.08287849390507,-92.24360919585227,84.22370748782159
2024-09-23 14:10:33.011247,41.32,26.879217,-0.003631395514708897,-0.02268379009219606,0.0973015264147526,32.08287849390507,-92.24360919585227,84.22370748782159
2024-09-23 14:10:33.022658,41.32,26.879217,-0.003631395514708897,-0.02268379009219606,0.09655535038822652,36.09446859390736,-96.25519929585457,80.21211738781929
2024-09-23 14:10:33.064893,41.32,26.87931,-0.0031339382481259063,-0.023429960042815445,0.09710254654607277,36.09446859390736,-96.25519929585457,80.21211738781929
2024-09-23 14:10:33.077968,41.32,26.87931,-0.0031339382481259063,-0.023429960042815445,0.09710254654607277,36.09446859390736,-96.25519929585457,80.21211738781929
2024-09-23 14:10:33.110982,41.32,26.879362,-0.0034324103296106863,-0.023429960042815445,0.09710254654607277,36.09446859390736,-96.25519929585457,80.21211738781929
2024-09-23 14:10:33.122786,41.32,26.879362,-0.0034324103296106863,-0.023429960042815445,0.09675432418099966,40.106058693909645,-96.25519929585457,80.21211738781929
2024-09-23 14:10:33.165347,41.32,26.879412,-0.002586742470023829,-0.02362894446842532,0.09720203344245934,40.106058693909645,-96.25519929585457,80.21211738781929
2024-09-23 14:10:33.207517,41.32,26.879412,-0.002586742470023829,-0.02362894446842532,0.09720203344245934,36.09446859390736,-100.26678939585686,76.200527287817
2024-09-23 14:10:33.218597,41.32,26.879463,-0.0034324103296106863,-0.023230986250042305,0.09720203344245934,36.09446859390736,-100.26678939585686,76.200527287817
2024-09-23 14:10:33.301410,41.32,26.879463,-0.0034324103296106863,-0.023230986250042305,0.09670458680871308,36.09446859390736,-100.26678939585686,76.200527287817
2024-09-23 14:10:33.314426,41.32,26.879514,-0.0035816467500972456,-0.023230986250042305,0.09670458680871308,32.08287849390507,-100.26678939585686,80.21211738781929
2024-09-23 14:10:33.356992,41.32,26.879514,-0.0035816467500972456,-0.023230986250042305,0.09710254654607277,40.106058693909645,-100.26678939585686,80.21211738781929
2024-09-23 14:10:33.368206,41.32,26.879602,-0.0035816467500972456,-0.023230986250042305,0.09710254654607277,40.106058693909645,-100.26678939585686,80.21211738781929
2024-09-23 14:10:33.400628,41.32,26.879602,-0.0038303700669703737,-0.023230986250042305,0.09710254654607277,40.106058693909645,-100.26678939585686,80.21211738781929
2024-09-23 14:10:33.411731,41.32,26.879602,-0.0038303700669703737,-0.023230986250042305,0.0973015264147526,44.11764879391193,-96.25519929585457,76.200527287817
2024-09-23 14:10:33.455500,41.32,26.879654,-0.0035816467500972456,-0.02313149783467906,0.09720203344245934,36.09446859390736,-96.25519929585457,76.200527287817
2024-09-23 14:10:33.467021,41.32,26.879654,-0.0035816467500972456,-0.02313149783467906,0.09720203344245934,36.09446859390736,-100.26678939585686,76.200527287817
2024-09-23 14:10:33.499049,41.32,26.879704,-0.0035816467500972456,-0.02313149783467906,0.09720203344245934,36.09446859390736,-100.26678939585686,84.22370748782159
2024-09-23 14:10:33.510445,41.32,26.879704,-0.003382661564999035,-0.02303200030545576,0.0970030596496862,32.08287849390507,-100.26678939585686,84.22370748782159
2024-09-23 14:10:33.553226,41.32,26.879799,-0.0032831742888682963,-0.023728432883788564,0.09740101331113918,32.08287849390507,-92.24360919585227,80.21211738781929
2024-09-23 14:10:33.597610,41.32,26.879799,-0.0032831742888682963,-0.023728432883788564,0.09740101331113918,32.08287849390507,-100.26678939585686,80.21211738781929
2024-09-23 14:10:33.609577,41.32,26.87985,-0.0031836870127375577,-0.023479709566915436,0.09740101331113918,32.08287849390507,-100.26678939585686,80.21211738781929
2024-09-23 14:10:33.652280,41.32,26.8799,-0.003631395514708897,-0.023479709566915436,0.09680407370509965,28.07457030097246,-96.25519929585457,80.21211738781929
2024-09-23 14:10:33.695872,41.13,26.8799,-0.003631395514708897,-0.02293251340906919,0.09745075675933246,44.11764879391193,-96.25519929585457,80.21211738781929
2024-09-23 14:10:33.708251,41.13,26.879992,-0.003631395514708897,-0.02293251340906919,0.09745075675933246,44.11764879391193,-100.26678939585686,80.21211738781929
2024-09-23 14:10:33.740369,41.13,26.879992,-0.0033329230534799477,-0.02293251340906919,0.09745075675933246,44.11764879391193,-100.26678939585686,80.21211738781929
2024-09-23 14:10:33.751784,41.13,26.879992,-0.0033329230534799477,-0.023579196463302005,0.09675432418099966,32.08287849390507,-100.26678939585686,80.21211738781929
2024-09-23 14:10:33.794659,41.13,26.880044,-0.0033329230534799477,-0.023579196463302005,0.09675432418099966,32.08287849390507,-100.26678939585686,76.200527287817
2024-09-23 14:10:33.805742,41.13,26.880044,-0.003382661564999035,-0.023429960042815445,0.0970030596496862,32.08287849390507,-100.26678939585686,76.200527287817
2024-09-23 14:10:33.838126,41.13,26.880044,-0.003382661564999035,-0.023429960042815445,0.0970030596496862,28.07457030097246,-100.26678939585686,76.200527287817
2024-09-23 14:10:33.849820,41.13,26.880094,-0.003482159473966507,-0.024225890150371555,0.0970030596496862,28.07457030097246,-104.27510100388527,76.200527287817
2024-09-23 14:10:33.892176,41.13,26.880094,-0.003482159473966507,-0.024225890150371555,0.09725178296655933,36.09446859390736,-96.25519929585457,80.21211738781929
2024-09-23 14:10:33.903968,41.13,26.880145,-0.0033329230534799477,-0.024225890150371555,0.09725178296655933,36.09446859390736,-96.25519929585457,80.21211738781929
2024-09-23 14:10:33.937620,41.13,26.880145,-0.0033329230534799477,-0.023230986250042305,0.09745075675933246,36.09446859390736,-96.25519929585457,80.21211738781929
2024-09-23 14:10:33.949754,41.13,26.880196,-0.0033329230534799477,-0.023230986250042305,0.09745075675933246,32.08287849390507,-100.26678939585686,84.22370748782159
2024-09-23 14:10:33.993266,41.13,26.880196,-0.0031339382481259063,-0.023181236725942318,0.09745075675933246,44.11764879391193,-92.24360919585227,92.24360919585227
2024-09-23 14:10:34.035288,41.13,26.880285,-0.0033329230534799477,-0.023181236725942318,0.09745075675933246,44.11764879391193,-92.24360919585227,92.24360919585227
2024-09-23 14:10:34.046440,41.13,26.880285,-0.0033329230534799477,-0.02338022115155219,0.09774922960030558,36.09446859390736,-96.25519929585457,92.24360919585227
2024-09-23 14:10:34.090241,41.13,26.880337,-0.003382661564999035,-0.02303200030545576,0.09685382322919964,36.09446859390736,-96.25519929585457,84.22370748782159
2024-09-23 14:10:34.101805,41.13,26.880337,-0.003382661564999035,-0.02303200030545576,0.09685382322919964,28.07457030097246,-96.25519929585457,84.22370748782159
2024-09-23 14:10:34.134989,41.13,26.880388,-0.003382661564999035,-0.02303200030545576,0.09685382322919964,28.07457030097246,-92.24360919585227,84.22370748782159
2024-09-23 14:10:34.147053,41.13,26.880388,-0.003482159473966507,-0.0228827638849692,0.09670458680871308,28.07457030097246,-92.24360919585227,84.22370748782159
2024-09-23 14:10:34.179189,41.13,26.880388,-0.003482159473966507,-0.0228827638849692,0.09670458680871308,28.07457030097246,-92.24360919585227,84.22370748782159
2024-09-23 14:10:34.190652,41.13,26.880439,-0.0031836870127375577,-0.02313149783467906,0.09670458680871308,28.07457030097246,-104.27510100388527,84.22370748782159
2024-09-23 14:10:34.232735,41.13,26.880439,-0.0031836870127375577,-0.02313149783467906,0.09715228999426605,40.106058693909645,-96.25519929585457,80.21211738781929
2024-09-23 14:10:34.244298,41.13,26.880489,-0.003233425524256645,-0.02313149783467906,0.09715228999426605,40.106058693909645,-96.25519929585457,80.21211738781929
2024-09-23 14:10:34.276230,41.13,26.880489,-0.003233425524256645,-0.02303200030545576,0.09715228999426605,40.106058693909645,-96.25519929585457,80.21211738781929
2024-09-23 14:10:34.289237,41.13,26.880577,-0.003233425524256645,-0.02303200030545576,0.09710254654607277,44.11764879391193,-88.23529758782387,84.22370748782159
2024-09-23 14:10:34.331737,41.13,26.880577,-0.0029349636958644295,-0.023280723622328886,0.09685382322919964,32.08287849390507,-88.23529758782387,84.22370748782159
2024-09-23 14:10:34.343563,41.13,26.880577,-0.0029349636958644295,-0.023280723622328886,0.09685382322919964,32.08287849390507,-88.23529758782387,84.22370748782159
2024-09-23 14:10:34.375638,41.13,26.880629,-0.0029349636958644295,-0.023280723622328886,0.09685382322919964,32.08287849390507,-88.23529758782387,84.22370748782159
2024-09-23 14:10:34.387154,41.13,26.880629,-0.0032831742888682963,-0.023181236725942318,0.09720203344245934,28.07457030097246,-100.26678939585686,84.22370748782159
2024-09-23 14:10:34.430030,41.13,26.88068,-0.003382661564999035,-0.022833026512682618,0.0970030596496862,28.07457030097246,-100.26678939585686,80.21211738781929
2024-09-23 14:10:34.441860,41.13,26.88068,-0.003382661564999035,-0.022833026512682618,0.0970030596496862,32.08287849390507,-100.26678939585686,80.21211738781929
2024-09-23 14:10:34.473736,41.13,26.88068,-0.003382661564999035,-0.022833026512682618,0.0970030596496862,32.08287849390507,-96.25519929585457,80.21211738781929
2024-09-23 14:10:34.485116,41.13,26.88073,-0.003631395514708897,-0.023579196463302005,0.0973512698629459,32.08287849390507,-96.25519929585457,80.21211738781929
2024-09-23 14:10:34.526769,41.13,26.880781,-0.003631395514708897,-0.023579196463302005,0.0973512698629459,40.106058693909645,-92.24360919585227,76.200527287817
2024-09-23 14:10:34.538271,41.13,26.880781,-0.0032831742888682963,-0.023181236725942318,0.0973512698629459,40.106058693909645,-92.24360919585227,76.200527287817
2024-09-23 14:10:34.571312,41.13,26.880781,-0.0032831742888682963,-0.023181236725942318,0.09680407370509965,32.08287849390507,-92.24360919585227,76.200527287817
2024-09-23 14:10:34.582586,41.13,26.880832,-0.003233425524256645,-0.023181236725942318,0.09680407370509965,32.08287849390507,-92.24360919585227,80.21211738781929
2024-09-23 14:10:34.624985,41.13,26.880832,-0.003233425524256645,-0.023429960042815445,0.09745075675933246,36.09446859390736,-100.26678939585686,84.22370748782159
2024-09-23 14:10:34.637186,41.13,26.880919,-0.003233425524256645,-0.023429960042815445,0.09745075675933246,36.09446859390736,-100.26678939585686,84.22370748782159
2024-09-23 14:10:34.671558,41.13,26.880919,-0.004079093383843503,-0.023429960042815445,0.09750050628343246,36.09446859390736,-100.26678939585686,84.22370748782159
2024-09-23 14:10:34.683051,41.13,26.880919,-0.004079093383843503,-0.023429960042815445,0.09750050628343246,40.106058693909645,-100.26678939585686,76.200527287817
2024-09-23 14:10:34.717052,41.91,26.88097,-0.004079093383843503,-0.023429960042815445,0.09750050628343246,40.106058693909645,-100.26678939585686,76.200527287817
2024-09-23 14:10:34.728220,41.91,26.88097,-0.003482159473966507,-0.023181236725942318,0.09764974270391902,32.08287849390507,-100.26678939585686,76.200527287817
2024-09-23 14:10:34.770715,41.91,26.881021,-0.0030344509719951677,-0.023330473146428877,0.09715228999426605,32.08287849390507,-100.26678939585686,72.1922225099802
2024-09-23 14:10:34.782678,41.91,26.881021,-0.0030344509719951677,-0.023330473146428877,0.09715228999426605,36.09446859390736,-100.26678939585686,72.1922225099802
2024-09-23 14:10:34.814712,41.91,26.881021,-0.0030344509719951677,-0.023330473146428877,0.09715228999426605,36.09446859390736,-96.25519929585457,76.200527287817
2024-09-23 14:10:34.826178,41.91,26.881071,-0.0031339382481259063,-0.0228827638849692,0.0973015264147526,36.09446859390736,-96.25519929585457,76.200527287817
2024-09-23 14:10:34.869450,41.91,26.881122,-0.003780631555451287,-0.0228827638849692,0.0973015264147526,36.09446859390736,-96.25519929585457,76.200527287817
2024-09-23 14:10:34.881680,41.91,26.881122,-0.003780631555451287,-0.023230986250042305,0.0973015264147526,36.09446859390736,-96.25519929585457,76.200527287817
2024-09-23 14:10:34.914178,41.91,26.881122,-0.003780631555451287,-0.023230986250042305,0.09715228999426605,40.106058693909645,-96.25519929585457,76.200527287817
2024-09-23 14:10:34.925374,41.91,26.881173,-0.003482159473966507,-0.023230986250042305,0.09715228999426605,40.106058693909645,-92.24360919585227,88.23529758782387
2024-09-23 14:10:34.968438,41.91,26.88126,-0.003482159473966507,-0.024225890150371555,0.09665483728461309,32.08287849390507,-96.25519929585457,84.22370748782159
2024-09-23 14:10:35.011393,41.91,26.88126,-0.002586742470023829,-0.02268379009219606,0.0973015264147526,32.08287849390507,-96.25519929585457,84.22370748782159
2024-09-23 14:10:35.022619,41.91,26.88126,-0.002586742470023829,-0.02268379009219606,0.0973015264147526,40.106058693909645,-100.26678939585686,80.21211738781929
2024-09-23 14:10:35.066963,41.91,26.881311,-0.0031339382481259063,-0.023181236725942318,0.0973512698629459,36.09446859390736,-96.25519929585457,80.21211738781929
2024-09-23 14:10:35.109017,41.91,26.881362,-0.0032831742888682963,-0.023181236725942318,0.0973512698629459,36.09446859390736,-96.25519929585457,80.21211738781929
2024-09-23 14:10:35.120274,41.91,26.881362,-0.0032831742888682963,-0.02362894446842532,0.09675432418099966,32.08287849390507,-96.25519929585457,80.21211738781929
2024-09-23 14:10:35.163301,41.91,26.881413,-0.0033329230534799477,-0.023280723622328886,0.09720203344245934,32.08287849390507,-96.25519929585457,80.21211738781929
2024-09-23 14:10:35.206842,41.91,26.881413,-0.0033329230534799477,-0.023280723622328886,0.09720203344245934,40.106058693909645,-100.26678939585686,80.21211738781929
2024-09-23 14:10:35.217671,41.91,26.881463,-0.003780631555451287,-0.02313149783467906,0.09720203344245934,40.106058693909645,-100.26678939585686,80.21211738781929
2024-09-23 14:10:35.260081,41.91,26.881514,-0.0031339382481259063,-0.02313149783467906,0.09710254654607277,40.106058693909645,-96.25519929585457,84.22370748782159
2024-09-23 14:10:35.302944,41.91,26.881514,-0.0031339382481259063,-0.023479709566915436,0.09725178296655933,40.106058693909645,-96.25519929585457,84.22370748782159
2024-09-23 14:10:35.314864,41.91,26.881601,-0.0031339382481259063,-0.023479709566915436,0.09725178296655933,32.08287849390507,-92.24360919585227,80.21211738781929
2024-09-23 14:10:35.358296,41.91,26.881601,-0.0033329230534799477,-0.02308174982955575,0.09695331012558621,36.09446859390736,-100.26678939585686,80.21211738781929
2024-09-23 14:10:35.401126,41.91,26.881653,-0.0030344509719951677,-0.023330473146428877,0.09695331012558621,36.09446859390736,-100.26678939585686,80.21211738781929
2024-09-23 14:10:35.413308,41.91,26.881653,-0.0030344509719951677,-0.023330473146428877,0.09650560086412653,36.09446859390736,-104.27510100388527,80.21211738781929
2024-09-23 14:10:35.455774,41.91,26.881703,-0.0034324103296106863,-0.023230986250042305,0.09680407370509965,36.09446859390736,-104.27510100388527,80.21211738781929
2024-09-23 14:10:35.498313,41.91,26.881703,-0.0034324103296106863,-0.023230986250042305,0.09680407370509965,36.09446859390736,-92.24360919585227,80.21211738781929
2024-09-23 14:10:35.510003,41.91,26.881754,-0.003482159473966507,-0.023230986250042305,0.09680407370509965,36.09446859390736,-92.24360919585227,80.21211738781929
2024-09-23 14:10:35.554188,41.91,26.881805,-0.003631395514708897,-0.023479709566915436,0.09680407370509965,32.08287849390507,-92.24360919585227,80.21211738781929
2024-09-23 14:10:35.597058,41.91,26.881805,-0.003631395514708897,-0.023479709566915436,0.09630662707135339,44.11764879391193,-92.24360919585227,80.21211738781929
2024-09-23 14:10:35.608437,41.91,26.881855,-0.0029847020175114316,-0.023479709566915436,0.09630662707135339,44.11764879391193,-92.24360919585227,76.200527287817
2024-09-23 14:10:35.650600,41.91,26.881942,-0.0029847020175114316,-0.023181236725942318,0.09759999317981902,32.08287849390507,-100.26678939585686,88.23529758782387
2024-09-23 14:10:35.694001,41.91,26.881942,-0.0033329230534799477,-0.023280723622328886,0.09685382322919964,32.08287849390507,-100.26678939585686,88.23529758782387
2024-09-23 14:10:35.705808,41.91,26.881942,-0.0033329230534799477,-0.023280723622328886,0.09685382322919964,32.08287849390507,-100.26678939585686,84.22370748782159
2024-09-23 14:10:35.748705,41.9,26.881994,-0.0034324103296106863,-0.023479709566915436,0.09705279702197278,28.07457030097246,-96.25519929585457,84.22370748782159
2024-09-23 14:10:35.791446,41.9,26.882045,-0.003233425524256645,-0.023479709566915436,0.09705279702197278,28.07457030097246,-96.25519929585457,80.21211738781929
2024-09-23 14:10:35.803548,41.9,26.882045,-0.003233425524256645,-0.02338022115155219,0.09705279702197278,28.07457030097246,-96.25519929585457,80.21211738781929
2024-09-23 14:10:35.847125,41.9,26.882096,-0.003382661564999035,-0.02338022115155219,0.09680407370509965,32.08287849390507,-100.26678939585686,80.21211738781929
2024-09-23 14:10:35.889386,41.9,26.882096,-0.003382661564999035,-0.023429960042815445,0.09685382322919964,36.09446859390736,-100.26678939585686,80.21211738781929
2024-09-23 14:10:35.900743,41.9,26.882146,-0.003382661564999035,-0.023429960042815445,0.09685382322919964,36.09446859390736,-96.25519929585457,76.200527287817
2024-09-23 14:10:35.943520,41.9,26.882146,-0.0030344509719951677,-0.023181236725942318,0.09755024973162574,40.106058693909645,-100.26678939585686,80.21211738781929
2024-09-23 14:10:35.987674,41.9,26.882197,-0.003382661564999035,-0.023280723622328886,0.09755024973162574,40.106058693909645,-100.26678939585686,80.21211738781929
2024-09-23 14:10:35.999063,41.9,26.882197,-0.003382661564999035,-0.023280723622328886,0.0973512698629459,44.11764879391193,-96.25519929585457,80.21211738781929
2024-09-23 14:10:36.041818,41.9,26.882284,-0.0035816467500972456,-0.023330473146428877,0.0970030596496862,36.09446859390736,-96.25519929585457,84.22370748782159
2024-09-23 14:10:36.085676,41.9,26.882335,-0.0036811340262279837,-0.023330473146428877,0.0970030596496862,36.09446859390736,-92.24360919585227,80.21211738781929
2024-09-23 14:10:36.097335,41.9,26.882335,-0.0036811340262279837,-0.023429960042815445,0.09755024973162574,36.09446859390736,-92.24360919585227,80.21211738781929
2024-09-23 14:10:36.130044,41.9,26.882335,-0.0036811340262279837,-0.023429960042815445,0.09755024973162574,36.09446859390736,-92.24360919585227,80.21211738781929
2024-09-23 14:10:36.141348,41.9,26.882386,-0.0033329230534799477,-0.023479709566915436,0.09755024973162574,36.09446859390736,-96.25519929585457,80.21211738781929
2024-09-23 14:10:36.184293,41.9,26.882436,-0.0033329230534799477,-0.023479709566915436,0.09680407370509965,40.106058693909645,-100.26678939585686,80.21211738781929
2024-09-23 14:10:36.196372,41.9,26.882436,-0.0029847020175114316,-0.023479709566915436,0.09680407370509965,40.106058693909645,-100.26678939585686,80.21211738781929
2024-09-23 14:10:36.228609,41.9,26.882436,-0.0029847020175114316,-0.023330473146428877,0.09685382322919964,40.106058693909645,-100.26678939585686,80.21211738781929
2024-09-23 14:10:36.239505,41.9,26.882527,-0.0029847020175114316,-0.023330473146428877,0.09685382322919964,32.08287849390507,-96.25519929585457,84.22370748782159
2024-09-23 14:10:36.281653,41.9,26.882527,-0.003382661564999035,-0.02362894446842532,0.09685382322919964,32.08287849390507,-100.26678939585686,84.22370748782159
2024-09-23 14:10:36.293400,41.9,26.882527,-0.003382661564999035,-0.02362894446842532,0.09685382322919964,32.08287849390507,-100.26678939585686,80.21211738781929
2024-09-23 14:10:36.325800,41.9,26.882579,-0.0034324103296106863,-0.02362894446842532,0.09685382322919964,32.08287849390507,-100.26678939585686,80.21211738781929
2024-09-23 14:10:36.337698,41.9,26.882579,-0.0034324103296106863,-0.023778180888911878,0.09670458680871308,24.06297849342227,-100.26678939585686,80.21211738781929
2024-09-23 14:10:36.380706,41.9,26.88263,-0.0038303700669703737,-0.02338022115155219,0.09759999317981902,24.06297849342227,-100.26678939585686,84.22370748782159
2024-09-23 14:10:36.392563,41.9,26.88263,-0.0038303700669703737,-0.02338022115155219,0.09759999317981902,40.106058693909645,-100.26678939585686,84.22370748782159
2024-09-23 14:10:36.424576,41.9,26.88263,-0.0038303700669703737,-0.02338022115155219,0.09759999317981902,40.106058693909645,-100.26678939585686,84.22370748782159
2024-09-23 14:10:36.477755,41.9,26.88268,-0.0037308827908396356,-0.02303200030545576,0.0976994861521123,40.106058693909645,-100.26678939585686,76.200527287817
2024-09-23 14:10:36.521275,41.9,26.88268,-0.0037308827908396356,-0.02303200030545576,0.0976994861521123,44.11764879391193,-96.25519929585457,76.200527287817
2024-09-23 14:10:36.533282,41.9,26.882731,-0.002586742470023829,-0.023429960042815445,0.0976994861521123,44.11764879391193,-96.25519929585457,80.21211738781929
2024-09-23 14:10:36.576810,41.9,26.882781,-0.0033329230534799477,-0.023429960042815445,0.09750050628343246,28.07457030097246,-96.25519929585457,84.22370748782159
2024-09-23 14:10:36.618974,41.9,26.882781,-0.0033329230534799477,-0.023280723622328886,0.09725178296655933,28.07457030097246,-96.25519929585457,84.22370748782159
2024-09-23 14:10:36.631029,41.9,26.882869,-0.0033329230534799477,-0.023280723622328886,0.09725178296655933,40.106058693909645,-100.26678939585686,80.21211738781929
2024-09-23 14:10:36.673894,41.9,26.882869,-0.003233425524256645,-0.02338022115155219,0.09755024973162574,44.11764879391193,-100.26678939585686,80.21211738781929
2024-09-23 14:10:36.685730,41.9,26.882869,-0.003233425524256645,-0.02338022115155219,0.09755024973162574,44.11764879391193,-100.26678939585686,72.1922225099802
2024-09-23 14:10:36.718820,41.9,26.882966,-0.0037308827908396356,-0.02308174982955575,0.09745075675933246,44.11764879391193,-100.26678939585686,72.1922225099802
2024-09-23 14:10:36.730553,41.9,26.882966,-0.0037308827908396356,-0.02308174982955575,0.09745075675933246,36.09446859390736,-96.25519929585457,72.1922225099802
2024-09-23 14:10:36.763455,42.01,26.882966,-0.0037308827908396356,-0.02308174982955575,0.09745075675933246,36.09446859390736,-96.25519929585457,80.21211738781929
2024-09-23 14:10:36.775062,42.01,26.883018,-0.0031339382481259063,-0.023479709566915436,0.0973015264147526,40.106058693909645,-96.25519929585457,80.21211738781929
2024-09-23 14:10:36.818841,42.01,26.883068,-0.002785727465249955,-0.023778180888911878,0.0973015264147526,40.106058693909645,-96.25519929585457,80.21211738781929
2024-09-23 14:10:36.862070,42.01,26.883068,-0.002785727465249955,-0.023778180888911878,0.09665483728461309,40.106058693909645,-96.25519929585457,80.21211738781929
2024-09-23 14:10:36.873241,42.01,26.883119,-0.003382661564999035,-0.023778180888911878,0.09665483728461309,32.08287849390507,-96.25519929585457,80.21211738781929
2024-09-23 14:10:36.915301,42.01,26.883119,-0.003382661564999035,-0.02308174982955575,0.09705279702197278,24.06297849342227,-96.25519929585457,80.21211738781929
2024-09-23 14:10:36.926901,42.01,26.88317,-0.003382661564999035,-0.02308174982955575,0.09705279702197278,24.06297849342227,-96.25519929585457,80.21211738781929
2024-09-23 14:10:36.958968,42.01,26.88317,-0.0034324103296106863,-0.02308174982955575,0.09705279702197278,24.06297849342227,-96.25519929585457,80.21211738781929
2024-09-23 14:10:36.971337,42.01,26.88317,-0.0034324103296106863,-0.022982261414192504,0.09695331012558621,44.11764879391193,-96.25519929585457,76.200527287817
2024-09-23 14:10:37.013958,42.01,26.883259,-0.003482159473966507,-0.023181236725942318,0.09695331012558621,36.09446859390736,-96.25519929585457,76.200527287817
2024-09-23 14:10:37.025961,42.01,26.883259,-0.003482159473966507,-0.023181236725942318,0.09695331012558621,36.09446859390736,-96.25519929585457,76.200527287817
2024-09-23 14:10:37.058421,42.01,26.883259,-0.003482159473966507,-0.023181236725942318,0.09695331012558621,36.09446859390736,-96.25519929585457,80.21211738781929
2024-09-23 14:10:37.111334,42.01,26.88331,-0.0032831742888682963,-0.022982261414192504,0.09705279702197278,36.09446859390736,-96.25519929585457,80.21211738781929
2024-09-23 14:10:37.123391,42.01,26.88331,-0.0032831742888682963,-0.022982261414192504,0.09705279702197278,36.09446859390736,-100.26678939585686,80.21211738781929
2024-09-23 14:10:37.155408,42.01,26.883361,-0.0032831742888682963,-0.022982261414192504,0.09705279702197278,36.09446859390736,-100.26678939585686,80.21211738781929
2024-09-23 14:10:37.167577,42.01,26.883361,-0.002636491424507565,-0.0228827638849692,0.09725178296655933,40.106058693909645,-100.26678939585686,80.21211738781929
2024-09-23 14:10:37.210449,42.01,26.883411,-0.0028354659767690416,-0.023827930413011865,0.0970030596496862,40.106058693909645,-92.24360919585227,88.23529758782387
2024-09-23 14:10:37.252379,42.01,26.883411,-0.0028354659767690416,-0.023827930413011865,0.0970030596496862,36.09446859390736,-100.26678939585686,88.23529758782387
2024-09-23 14:10:37.263888,42.01,26.883462,-0.0033329230534799477,-0.023280723622328886,0.0970030596496862,36.09446859390736,-100.26678939585686,84.22370748782159
2024-09-23 14:10:37.307182,42.01,26.883551,-0.004128842528199323,-0.023280723622328886,0.09710254654607277,40.106058693909645,-100.26678939585686,84.22370748782159
2024-09-23 14:10:37.349722,42.01,26.883551,-0.004128842528199323,-0.02338022115155219,0.0970030596496862,40.106058693909645,-100.26678939585686,84.22370748782159
2024-09-23 14:10:37.361288,42.01,26.883649,-0.004128842528199323,-0.02338022115155219,0.0970030596496862,36.09446859390736,-96.25519929585457,80.21211738781929
2024-09-23 14:10:37.403229,42.01,26.883649,-0.003780631555451287,-0.023479709566915436,0.09680407370509965,32.08287849390507,-104.27510100388527,80.21211738781929
2024-09-23 14:10:37.415276,42.01,26.883649,-0.003780631555451287,-0.023479709566915436,0.09680407370509965,32.08287849390507,-104.27510100388527,76.200527287817
2024-09-23 14:10:37.448197,42.01,26.8837,-0.0035816467500972456,-0.023479709566915436,0.09680407370509965,32.08287849390507,-104.27510100388527,76.200527287817
2024-09-23 14:10:37.460121,42.01,26.8837,-0.0035816467500972456,-0.02308174982955575,0.09725178296655933,40.106058693909645,-100.26678939585686,76.200527287817
2024-09-23 14:10:37.502252,42.01,26.883751,-0.0031836870127375577,-0.02308174982955575,0.09725178296655933,40.106058693909645,-100.26678939585686,80.21211738781929
2024-09-23 14:10:37.514888,42.01,26.883751,-0.0031836870127375577,-0.02308174982955575,0.0966050877605131,44.11764879391193,-100.26678939585686,80.21211738781929
2024-09-23 14:10:37.547862,42.01,26.883801,-0.0031836870127375577,-0.02308174982955575,0.0966050877605131,44.11764879391193,-96.25519929585457,76.200527287817
2024-09-23 14:10:37.559316,42.01,26.883801,-0.0031836870127375577,-0.02352945757203875,0.0966050877605131,44.11764879391193,-96.25519929585457,76.200527287817
2024-09-23 14:10:37.591202,42.01,26.883801,-0.0031836870127375577,-0.02352945757203875,0.0966050877605131,40.106058693909645,-96.25519929585457,76.200527287817
2024-09-23 14:10:37.602966,42.01,26.883852,-0.003482159473966507,-0.023181236725942318,0.0966050877605131,40.106058693909645,-96.25519929585457,76.200527287817
2024-09-23 14:10:37.645164,42.01,26.883852,-0.003482159473966507,-0.023181236725942318,0.09695331012558621,32.08287849390507,-96.25519929585457,76.200527287817
2024-09-23 14:10:37.698336,42.01,26.883903,-0.003382661564999035,-0.023230986250042305,0.09680407370509965,32.08287849390507,-104.27510100388527,76.200527287817
2024-09-23 14:10:37.741576,42.01,26.883903,-0.003382661564999035,-0.023230986250042305,0.09680407370509965,36.09446859390736,-100.26678939585686,80.21211738781929
2024-09-23 14:10:37.753182,42.01,26.88399,-0.0037308827908396356,-0.023429960042815445,0.09680407370509965,36.09446859390736,-100.26678939585686,80.21211738781929
2024-09-23 14:10:37.796988,42.37,26.884041,-0.0035816467500972456,-0.023429960042815445,0.09705279702197278,36.09446859390736,-100.26678939585686,72.1922225099802
2024-09-23 14:10:37.839267,42.37,26.884041,-0.0035816467500972456,-0.023181236725942318,0.09755024973162574,36.09446859390736,-100.26678939585686,72.1922225099802
2024-09-23 14:10:37.850869,42.37,26.884092,-0.0035816467500972456,-0.023181236725942318,0.09755024973162574,36.09446859390736,-96.25519929585457,80.21211738781929
2024-09-23 14:10:37.893381,42.37,26.884092,-0.0031836870127375577,-0.023280723622328886,0.09745075675933246,32.08287849390507,-96.25519929585457,80.21211738781929
2024-09-23 14:10:37.936694,42.37,26.884185,-0.0035816467500972456,-0.02313149783467906,0.09745075675933246,32.08287849390507,-96.25519929585457,80.21211738781929
2024-09-23 14:10:37.948560,42.37,26.884185,-0.0035816467500972456,-0.02313149783467906,0.09705279702197278,32.08287849390507,-96.25519929585457,80.21211738781929
2024-09-23 14:10:37.990958,42.37,26.884237,-0.0032831742888682963,-0.02303200030545576,0.09715228999426605,40.106058693909645,-96.25519929585457,80.21211738781929
