Ayaan's Suite
Timestamp,Sample Rate (Hz),Time,Ax,Ay,Az,Gx,Gy,Gz
2024-09-23 20:16:20.822029,0,48.827442,0.001044642601720419,-0.022833026512682618,0.09695331012558621,48.12595698684454,-100.26678939585686,80.21211738781929
2024-09-23 20:16:20.854121,0,48.827442,0.001044642601720419,-0.022833026512682618,0.09710254654607277,44.11764879391193,-96.25519929585457,80.21211738781929
2024-09-23 20:16:20.865714,0,48.827493,0.0008954064660419869,-0.022833026512682618,0.09710254654607277,44.11764879391193,-96.25519929585457,76.200527287817
2024-09-23 20:16:20.907597,0,48.827584,0.0008954064660419869,-0.023330473146428877,0.09750050628343246,44.11764879391193,-96.25519929585457,76.200527287817
2024-09-23 20:16:20.950255,0,48.827584,0.0006964318663124887,-0.022833026512682618,0.09750050628343246,44.11764879391193,-96.25519929585457,76.200527287817
2024-09-23 20:16:20.962650,0,48.827584,0.0006964318663124887,-0.022833026512682618,0.0976994861521123,52.137550501942634,-96.25519929585457,72.1922225099802
2024-09-23 20:16:21.006271,0,48.827636,0.0005471957306340564,-0.02303200030545576,0.0973015264147526,52.137550501942634,-96.25519929585457,72.1922225099802
2024-09-23 20:16:21.049710,0,48.827687,0.0012436275969465451,-0.02303200030545576,0.0973015264147526,52.137550501942634,-96.25519929585457,76.200527287817
2024-09-23 20:16:21.061187,0,48.827687,0.0012436275969465451,-0.023230986250042305,0.09705279702197278,36.09446859390736,-96.25519929585457,76.200527287817
2024-09-23 20:16:21.104064,0,48.827737,0.0006964318663124887,-0.02362894446842532,0.09755024973162574,36.09446859390736,-96.25519929585457,72.1922225099802
2024-09-23 20:16:21.147407,0,48.827737,0.0006964318663124887,-0.02362894446842532,0.09755024973162574,24.06297849342227,-92.24360919585227,76.200527287817
2024-09-23 20:16:21.159050,0,48.827788,0.000845657606494293,-0.02293251340906919,0.09755024973162574,24.06297849342227,-92.24360919585227,76.200527287817
2024-09-23 20:16:21.202138,0,48.827839,0.0004974468710863627,-0.02293251340906919,0.09755024973162574,32.08287849390507,-96.25519929585457,76.200527287817
2024-09-23 20:16:21.244821,0,48.827839,0.0004974468710863627,-0.023280723622328886,0.09784872257259886,40.106058693909645,-96.25519929585457,76.200527287817
2024-09-23 20:16:21.256412,0,48.827926,0.0004974468710863627,-0.023280723622328886,0.09784872257259886,40.106058693909645,-88.23529758782387,80.21211738781929
2024-09-23 20:16:21.298902,0,48.827926,0.0003979595949556242,-0.02338022115155219,0.09740101331113918,48.12595698684454,-96.25519929585457,76.200527287817
2024-09-23 20:16:21.342965,0,48.827977,0.0011441298778511575,-0.023330473146428877,0.09740101331113918,48.12595698684454,-96.25519929585457,76.200527287817
2024-09-23 20:16:21.354853,0,48.827977,0.0011441298778511575,-0.023330473146428877,0.0973015264147526,28.07457030097246,-96.25519929585457,76.200527287817
2024-09-23 20:16:21.387240,0,48.827977,0.0011441298778511575,-0.023330473146428877,0.0973015264147526,28.07457030097246,-96.25519929585457,76.200527287817
2024-09-23 20:16:21.399009,0,48.828028,0.0004974468710863627,-0.023280723622328886,0.09740101331113918,36.09446859390736,-96.25519929585457,76.200527287817
2024-09-23 20:16:21.440995,0,48.828079,0.0011938787373988514,-0.023280723622328886,0.09740101331113918,36.09446859390736,-96.25519929585457,76.200527287817
2024-09-23 20:16:21.452715,0,48.828079,0.0011938787373988514,-0.023330473146428877,0.09784872257259886,36.09446859390736,-96.25519929585457,76.200527287817
2024-09-23 20:16:21.484704,0,48.828079,0.0011938787373988514,-0.023330473146428877,0.09784872257259886,44.11764879391193,-96.25519929585457,76.200527287817
2024-09-23 20:16:21.496404,0,48.828129,0.0009451553255896806,-0.023330473146428877,0.09784872257259886,44.11764879391193,-92.24360919585227,72.1922225099802
2024-09-23 20:16:21.539485,0,48.828129,0.0009451553255896806,-0.023330473146428877,0.09725178296655933,48.12595698684454,-96.25519929585457,72.1922225099802
2024-09-23 20:16:21.550819,0,48.82818,0.0009451553255896806,-0.023330473146428877,0.09725178296655933,48.12595698684454,-96.25519929585457,72.1922225099802
2024-09-23 20:16:21.582936,0,48.82818,0.0007959191899112484,-0.023330473146428877,0.09725178296655933,48.12595698684454,-96.25519929585457,72.1922225099802
2024-09-23 20:16:21.595631,0,48.82818,0.0007959191899112484,-0.0225345536717095,0.09779897304849887,36.09446859390736,-96.25519929585457,76.200527287817
2024-09-23 20:16:21.639567,0,48.828267,0.0005471957306340564,-0.023479709566915436,0.09774922960030558,36.09446859390736,-92.24360919585227,76.200527287817
2024-09-23 20:16:21.682451,0,48.828319,0.0005471957306340564,-0.023479709566915436,0.09774922960030558,36.09446859390736,-92.24360919585227,76.200527287817
2024-09-23 20:16:21.694255,0,48.828319,0.0007959191899112484,-0.023181236725942318,0.09755024973162574,44.11764879391193,-92.24360919585227,76.200527287817
2024-09-23 20:16:21.736838,0,48.828369,0.001044642601720419,-0.02352945757203875,0.09695331012558621,44.11764879391193,-88.23529758782387,76.200527287817
2024-09-23 20:16:21.779033,0,48.828369,0.001044642601720419,-0.02352945757203875,0.09695331012558621,40.106058693909645,-88.23529758782387,76.200527287817
2024-09-23 20:16:21.790569,0,48.82842,0.0007959191899112484,-0.02313149783467906,0.09695331012558621,40.106058693909645,-88.23529758782387,80.21211738781929
2024-09-23 20:16:21.833225,41.98,48.82847,0.0007959191899112484,-0.02313149783467906,0.0976994861521123,36.09446859390736,-88.23529758782387,80.21211738781929
2024-09-23 20:16:21.845343,41.98,48.82847,0.0006466830067647949,-0.02313149783467906,0.0976994861521123,36.09446859390736,-88.23529758782387,80.21211738781929
2024-09-23 20:16:21.878035,41.98,48.82847,0.0006466830067647949,-0.022982261414192504,0.0976994861521123,36.09446859390736,-88.23529758782387,80.21211738781929
2024-09-23 20:16:21.889085,41.98,48.828559,0.0006466830067647949,-0.022982261414192504,0.0976994861521123,36.09446859390736,-92.24360919585227,80.21211738781929
2024-09-23 20:16:21.931776,41.98,48.828559,0.0011441298778511575,-0.023330473146428877,0.09745075675933246,48.12595698684454,-92.24360919585227,76.200527287817
2024-09-23 20:16:21.973776,41.98,48.828611,0.000845657606494293,-0.023330473146428877,0.09745075675933246,48.12595698684454,-92.24360919585227,76.200527287817
2024-09-23 20:16:21.986458,41.98,48.828611,0.000845657606494293,-0.023330473146428877,0.09764974270391902,52.137550501942634,-96.25519929585457,76.200527287817
2024-09-23 20:16:22.028903,41.98,48.828662,0.0007959191899112484,-0.02352945757203875,0.0973512698629459,44.11764879391193,-96.25519929585457,80.21211738781929
2024-09-23 20:16:22.071731,41.98,48.828662,0.0007959191899112484,-0.02352945757203875,0.0973512698629459,44.11764879391193,-92.24360919585227,76.200527287817
2024-09-23 20:16:22.083280,41.98,48.828712,0.0011441298778511575,-0.023230986250042305,0.09725178296655933,44.11764879391193,-92.24360919585227,76.200527287817
2024-09-23 20:16:22.126826,41.98,48.828763,0.001442602149208022,-0.023330473146428877,0.09725178296655933,48.12595698684454,-100.26678939585686,76.200527287817
2024-09-23 20:16:22.170602,41.98,48.828763,0.001442602149208022,-0.023330473146428877,0.09725178296655933,36.09446859390736,-100.26678939585686,76.200527287817
2024-09-23 20:16:22.181927,41.98,48.828814,0.0011938787373988514,-0.023330473146428877,0.09725178296655933,36.09446859390736,-92.24360919585227,76.200527287817
2024-09-23 20:16:22.224924,41.98,48.828901,0.0011938787373988514,-0.023579196463302005,0.09715228999426605,40.106058693909645,-96.25519929585457,80.21211738781929
2024-09-23 20:16:22.268493,41.98,48.828901,0.0006964318663124887,-0.023280723622328886,0.09750050628343246,40.106058693909645,-96.25519929585457,80.21211738781929
2024-09-23 20:16:22.280000,41.98,48.828901,0.0006964318663124887,-0.023280723622328886,0.09750050628343246,40.106058693909645,-92.24360919585227,80.21211738781929
2024-09-23 20:16:22.322512,41.98,48.828952,0.001044642601720419,-0.02367869399252531,0.09755024973162574,44.11764879391193,-96.25519929585457,80.21211738781929
2024-09-23 20:16:22.364635,41.98,48.829003,0.001044642601720419,-0.02367869399252531,0.09755024973162574,44.11764879391193,-96.25519929585457,72.1922225099802
2024-09-23 20:16:22.376784,41.98,48.829003,0.0009451553255896806,-0.023230986250042305,0.0973015264147526,48.12595698684454,-96.25519929585457,72.1922225099802
2024-09-23 20:16:22.419450,41.98,48.829054,0.0012436275969465451,-0.023181236725942318,0.09759999317981902,48.12595698684454,-92.24360919585227,76.200527287817
2024-09-23 20:16:22.462204,41.98,48.829054,0.0012436275969465451,-0.023181236725942318,0.09759999317981902,44.11764879391193,-96.25519929585457,76.200527287817
2024-09-23 20:16:22.473600,41.98,48.829104,0.0009948937421727254,-0.02293251340906919,0.09759999317981902,44.11764879391193,-96.25519929585457,76.200527287817
2024-09-23 20:16:22.515974,41.98,48.829155,0.0009948937421727254,-0.02293251340906919,0.09690356060148622,44.11764879391193,-100.26678939585686,72.1922225099802
2024-09-23 20:16:22.559649,41.98,48.829155,0.0005471957306340564,-0.02313149783467906,0.09690356060148622,44.11764879391193,-100.26678939585686,72.1922225099802
2024-09-23 20:16:22.571462,41.98,48.829155,0.0005471957306340564,-0.02313149783467906,0.09779897304849887,44.11764879391193,-96.25519929585457,68.18063240997792
2024-09-23 20:16:22.614282,41.98,48.829242,0.0005471957306340564,-0.02293251340906919,0.09750050628343246,44.11764879391193,-96.25519929585457,68.18063240997792
2024-09-23 20:16:22.657030,41.98,48.829294,0.0005471957306340564,-0.02293251340906919,0.09750050628343246,44.11764879391193,-96.25519929585457,80.21211738781929
2024-09-23 20:16:22.668481,41.98,48.829294,0.0006964318663124887,-0.023330473146428877,0.09779897304849887,44.11764879391193,-96.25519929585457,80.21211738781929
2024-09-23 20:16:22.711421,41.98,48.829344,0.0006466830067647949,-0.0224350561424862,0.09779897304849887,44.11764879391193,-96.25519929585457,76.200527287817
2024-09-23 20:16:22.723023,41.98,48.829344,0.0006466830067647949,-0.0224350561424862,0.09720203344245934,44.11764879391193,-96.25519929585457,76.200527287817
2024-09-23 20:16:22.755929,41.98,48.829344,0.0006466830067647949,-0.0224350561424862,0.09720203344245934,44.11764879391193,-96.25519929585457,76.200527287817
2024-09-23 20:16:22.767499,41.98,48.829395,0.001044642601720419,-0.023280723622328886,0.09720203344245934,44.11764879391193,-96.25519929585457,76.200527287817
2024-09-23 20:16:22.810020,41.98,48.829445,0.0006466830067647949,-0.023280723622328886,0.0973512698629459,36.09446859390736,-100.26678939585686,80.21211738781929
2024-09-23 20:16:22.852821,41.09,48.829445,0.0006466830067647949,-0.0224350561424862,0.09764974270391902,44.11764879391193,-100.26678939585686,80.21211738781929
2024-09-23 20:16:22.864645,41.09,48.829534,0.0006466830067647949,-0.0224350561424862,0.09764974270391902,44.11764879391193,-100.26678939585686,76.200527287817
2024-09-23 20:16:22.907544,41.09,48.829534,0.0001989745997294981,-0.02313149783467906,0.09740101331113918,40.106058693909645,-88.23529758782387,76.200527287817
2024-09-23 20:16:22.949690,41.09,48.829586,0.0009948937421727254,-0.02313149783467906,0.09740101331113918,40.106058693909645,-88.23529758782387,76.200527287817
2024-09-23 20:16:22.961699,41.09,48.829586,0.0009948937421727254,-0.022733528983459317,0.09710254654607277,40.106058693909645,-88.23529758782387,76.200527287817
2024-09-23 20:16:23.005393,41.09,48.829637,0.0007959191899112484,-0.023429960042815445,0.09705279702197278,36.09446859390736,-88.23529758782387,80.21211738781929
2024-09-23 20:16:23.048479,41.09,48.829687,0.0007959191899112484,-0.023429960042815445,0.09705279702197278,36.09446859390736,-92.24360919585227,76.200527287817
2024-09-23 20:16:23.060050,41.09,48.829687,0.0009948937421727254,-0.022833026512682618,0.0973512698629459,36.09446859390736,-92.24360919585227,76.200527287817
2024-09-23 20:16:23.102765,41.09,48.829687,0.0009948937421727254,-0.022833026512682618,0.0973512698629459,48.12595698684454,-96.25519929585457,76.200527287817
2024-09-23 20:16:23.146130,41.09,48.829738,0.0006964318663124887,-0.02308174982955575,0.0973512698629459,48.12595698684454,-96.25519929585457,76.200527287817
2024-09-23 20:16:23.157670,41.09,48.829738,0.0006964318663124887,-0.02308174982955575,0.09680407370509965,52.137550501942634,-96.25519929585457,76.200527287817
2024-09-23 20:16:23.200718,41.09,48.829789,0.0010943914612681128,-0.023429960042815445,0.09720203344245934,36.09446859390736,-96.25519929585457,76.200527287817
2024-09-23 20:16:23.243446,41.09,48.829876,0.0010943914612681128,-0.023429960042815445,0.09720203344245934,36.09446859390736,-92.24360919585227,76.200527287817
2024-09-23 20:16:23.255043,41.09,48.829876,0.0007461703303635545,-0.02313149783467906,0.09779897304849887,36.09446859390736,-92.24360919585227,76.200527287817
2024-09-23 20:16:23.298469,41.09,48.829927,0.0006964318663124887,-0.023330473146428877,0.09779897304849887,36.09446859390736,-92.24360919585227,76.200527287817
2024-09-23 20:16:23.340718,41.09,48.829927,0.0006964318663124887,-0.023330473146428877,0.09725178296655933,40.106058693909645,-88.23529758782387,76.200527287817
2024-09-23 20:16:23.352571,41.09,48.829978,0.0004974468710863627,-0.023330473146428877,0.09725178296655933,40.106058693909645,-88.23529758782387,76.200527287817
2024-09-23 20:16:23.395190,41.09,48.830071,0.0004974468710863627,-0.023280723622328886,0.0973512698629459,44.11764879391193,-100.26678939585686,76.200527287817
2024-09-23 20:16:23.438057,41.09,48.830071,0.0006964318663124887,-0.02338022115155219,0.09705279702197278,44.11764879391193,-100.26678939585686,76.200527287817
2024-09-23 20:16:23.450146,41.09,48.830071,0.0006964318663124887,-0.02338022115155219,0.09705279702197278,40.106058693909645,-100.26678939585686,72.1922225099802
2024-09-23 20:16:23.492601,41.09,48.830122,0.0005969341946851222,-0.02308174982955575,0.0973512698629459,44.11764879391193,-100.26678939585686,72.1922225099802
2024-09-23 20:16:23.536185,41.09,48.830173,0.0006466830067647949,-0.02308174982955575,0.0973512698629459,44.11764879391193,-100.26678939585686,76.200527287817
2024-09-23 20:16:23.547680,41.09,48.830173,0.0006466830067647949,-0.022982261414192504,0.0973015264147526,44.11764879391193,-100.26678939585686,76.200527287817
2024-09-23 20:16:23.590290,41.09,48.830224,0.0006964318663124887,-0.022982261414192504,0.09779897304849887,44.11764879391193,-92.24360919585227,80.21211738781929
2024-09-23 20:16:23.632838,41.09,48.830224,0.0006964318663124887,-0.022982261414192504,0.09779897304849887,52.137550501942634,-88.23529758782387,80.21211738781929
2024-09-23 20:16:23.645158,41.09,48.830274,0.0006466830067647949,-0.023479709566915436,0.09779897304849887,52.137550501942634,-88.23529758782387,72.1922225099802
2024-09-23 20:16:23.688218,41.09,48.830325,0.0007461703303635545,-0.023479709566915436,0.0973015264147526,52.137550501942634,-100.26678939585686,76.200527287817
2024-09-23 20:16:23.730843,41.09,48.830325,0.0007461703303635545,-0.02338022115155219,0.09809744588947199,52.137550501942634,-100.26678939585686,76.200527287817
2024-09-23 20:16:23.742199,41.09,48.830412,0.0007461703303635545,-0.02338022115155219,0.09809744588947199,44.11764879391193,-100.26678939585686,76.200527287817
2024-09-23 20:16:23.785440,41.09,48.830412,0.001044642601720419,-0.02268379009219606,0.09784872257259886,40.106058693909645,-100.26678939585686,80.21211738781929
2024-09-23 20:16:23.828057,41.09,48.830464,0.0006964318663124887,-0.02278327698858263,0.09784872257259886,40.106058693909645,-100.26678939585686,80.21211738781929
2024-09-23 20:16:23.839069,41.09,48.830464,0.0006964318663124887,-0.02278327698858263,0.09715228999426605,44.11764879391193,-96.25519929585457,80.21211738781929
2024-09-23 20:16:23.881427,40.36,48.830514,0.0003979595949556242,-0.023778180888911878,0.0970030596496862,40.106058693909645,-96.25519929585457,80.21211738781929
2024-09-23 20:16:23.925478,40.36,48.830565,0.0003979595949556242,-0.023778180888911878,0.0970030596496862,40.106058693909645,-100.26678939585686,80.21211738781929
2024-09-23 20:16:23.937372,40.36,48.830565,0.000845657606494293,-0.02338022115155219,0.09720203344245934,40.106058693909645,-100.26678939585686,80.21211738781929
2024-09-23 20:16:23.980388,40.36,48.830615,0.0007461703303635545,-0.023230986250042305,0.09720203344245934,52.137550501942634,-100.26678939585686,80.21211738781929
2024-09-23 20:16:24.023642,40.36,48.830615,0.0007461703303635545,-0.023230986250042305,0.09715228999426605,36.09446859390736,-100.26678939585686,80.21211738781929
2024-09-23 20:16:24.037956,40.36,48.830666,0.0008954064660419869,-0.023230986250042305,0.09715228999426605,36.09446859390736,-100.26678939585686,76.200527287817
2024-09-23 20:16:24.070771,40.36,48.830666,0.0008954064660419869,-0.0228827638849692,0.09710254654607277,36.09446859390736,-100.26678939585686,76.200527287817
2024-09-23 20:16:24.082175,40.36,48.830753,0.0008954064660419869,-0.0228827638849692,0.09710254654607277,40.106058693909645,-96.25519929585457,68.18063240997792
2024-09-23 20:16:24.126632,40.36,48.830753,0.0011938787373988514,-0.023330473146428877,0.09695331012558621,44.11764879391193,-100.26678939585686,76.200527287817
2024-09-23 20:16:24.169222,40.36,48.830805,0.0009451553255896806,-0.023579196463302005,0.09695331012558621,44.11764879391193,-100.26678939585686,76.200527287817
2024-09-23 20:16:24.181216,40.36,48.830805,0.0009451553255896806,-0.023579196463302005,0.09759999317981902,48.12595698684454,-96.25519929585457,76.200527287817
2024-09-23 20:16:24.223607,40.36,48.830855,0.0005471957306340564,-0.0228827638849692,0.09764974270391902,48.12595698684454,-96.25519929585457,76.200527287817
2024-09-23 20:16:24.266334,40.36,48.830855,0.0005471957306340564,-0.0228827638849692,0.09764974270391902,48.12595698684454,-100.26678939585686,76.200527287817
2024-09-23 20:16:24.277872,40.36,48.830906,0.0012436275969465451,-0.02278327698858263,0.09740101331113918,48.12595698684454,-100.26678939585686,76.200527287817
2024-09-23 20:16:24.321566,40.36,48.830957,0.0013431148730772837,-0.023230986250042305,0.09740101331113918,44.11764879391193,-88.23529758782387,80.21211738781929
2024-09-23 20:16:24.364826,40.36,48.830957,0.0013431148730772837,-0.023230986250042305,0.09695331012558621,40.106058693909645,-88.23529758782387,80.21211738781929
2024-09-23 20:16:24.376392,40.36,48.831007,0.0003979595949556242,-0.023230986250042305,0.09695331012558621,40.106058693909645,-88.23529758782387,80.21211738781929
2024-09-23 20:16:24.419576,40.36,48.831095,0.0003979595949556242,-0.02303200030545576,0.09715228999426605,40.106058693909645,-96.25519929585457,72.1922225099802
2024-09-23 20:16:24.462343,40.36,48.831095,0.0007959191899112484,-0.0228827638849692,0.09759999317981902,40.106058693909645,-96.25519929585457,72.1922225099802
2024-09-23 20:16:24.474040,40.36,48.831095,0.0007959191899112484,-0.0228827638849692,0.09759999317981902,44.11764879391193,-88.23529758782387,76.200527287817
2024-09-23 20:16:24.517192,40.36,48.831146,0.0004974468710863627,-0.023230986250042305,0.09715228999426605,36.09446859390736,-84.22370748782159,76.200527287817
2024-09-23 20:16:24.560516,40.36,48.831197,0.0004974468710863627,-0.023230986250042305,0.09715228999426605,36.09446859390736,-84.22370748782159,80.21211738781929
2024-09-23 20:16:24.571597,40.36,48.831197,0.001044642601720419,-0.023429960042815445,0.09750050628343246,32.08287849390507,-84.22370748782159,80.21211738781929
2024-09-23 20:16:24.613939,40.36,48.831247,0.001044642601720419,-0.023330473146428877,0.0976994861521123,32.08287849390507,-96.25519929585457,76.200527287817
2024-09-23 20:16:24.657216,40.36,48.831247,0.001044642601720419,-0.023330473146428877,0.0976994861521123,32.08287849390507,-92.24360919585227,72.1922225099802
2024-09-23 20:16:24.668761,40.36,48.831298,0.0011441298778511575,-0.022982261414192504,0.0976994861521123,32.08287849390507,-92.24360919585227,72.1922225099802
2024-09-23 20:16:24.711467,40.36,48.831349,0.0009451553255896806,-0.022982261414192504,0.0973015264147526,48.12595698684454,-88.23529758782387,80.21211738781929
2024-09-23 20:16:24.754801,40.36,48.831349,0.0009451553255896806,-0.023280723622328886,0.09715228999426605,56.14914060194492,-88.23529758782387,80.21211738781929
2024-09-23 20:16:24.766723,40.36,48.831436,0.0009451553255896806,-0.023280723622328886,0.09715228999426605,56.14914060194492,-92.24360919585227,80.21211738781929
2024-09-23 20:16:24.809912,40.36,48.831436,0.001044642601720419,-0.02268379009219606,0.0973015264147526,44.11764879391193,-96.25519929585457,80.21211738781929
2024-09-23 20:16:24.851880,40.36,48.831487,0.00014922575204880957,-0.023230986250042305,0.0973015264147526,44.11764879391193,-96.25519929585457,80.21211738781929
2024-09-23 20:16:24.863723,40.36,48.831487,0.00014922575204880957,-0.023230986250042305,0.09720203344245934,44.11764879391193,-92.24360919585227,80.21211738781929
2024-09-23 20:16:24.906411,40.03,48.831538,0.00024872343554318134,-0.0228827638849692,0.09774922960030558,48.12595698684454,-92.24360919585227,76.200527287817
2024-09-23 20:16:24.949330,40.03,48.831589,0.00024872343554318134,-0.0228827638849692,0.09774922960030558,48.12595698684454,-92.24360919585227,64.16903547978401
2024-09-23 20:16:24.960487,40.03,48.831589,0.0009451553255896806,-0.02313149783467906,0.09740101331113918,48.12595698684454,-92.24360919585227,64.16903547978401
2024-09-23 20:16:25.002576,40.03,48.831639,0.0008954064660419869,-0.02313149783467906,0.09740101331113918,52.137550501942634,-88.23529758782387,80.21211738781929
2024-09-23 20:16:25.014470,40.03,48.831639,0.0008954064660419869,-0.023429960042815445,0.09740101331113918,52.137550501942634,-88.23529758782387,80.21211738781929
2024-09-23 20:16:25.047511,40.03,48.831639,0.0008954064660419869,-0.023429960042815445,0.09715228999426605,44.11764879391193,-88.23529758782387,80.21211738781929
2024-09-23 20:16:25.058711,40.03,48.83169,0.0012933660135295898,-0.023429960042815445,0.09715228999426605,44.11764879391193,-88.23529758782387,80.21211738781929
2024-09-23 20:16:25.101332,40.03,48.831777,0.0012933660135295898,-0.02293251340906919,0.0973015264147526,44.11764879391193,-96.25519929585457,76.200527287817
2024-09-23 20:16:25.145188,40.03,48.831777,0.0004974468710863627,-0.02308174982955575,0.0970030596496862,44.11764879391193,-96.25519929585457,76.200527287817
2024-09-23 20:16:25.157379,40.03,48.831777,0.0004974468710863627,-0.02308174982955575,0.0970030596496862,48.12595698684454,-92.24360919585227,76.200527287817
2024-09-23 20:16:25.193828,40.03,48.831829,0.0006964318663124887,-0.023330473146428877,0.0970030596496862,48.12595698684454,-92.24360919585227,76.200527287817
2024-09-23 20:16:25.204788,40.03,48.831829,0.0006964318663124887,-0.023330473146428877,0.0973512698629459,44.11764879391193,-96.25519929585457,76.200527287817
2024-09-23 20:16:25.246940,40.03,48.83188,0.000845657606494293,-0.02308174982955575,0.09745075675933246,44.11764879391193,-96.25519929585457,72.1922225099802
2024-09-23 20:16:25.289199,40.03,48.83188,0.000845657606494293,-0.02308174982955575,0.09745075675933246,44.11764879391193,-96.25519929585457,72.1922225099802
2024-09-23 20:16:25.300322,40.03,48.83193,0.0005471957306340564,-0.023280723622328886,0.09680407370509965,44.11764879391193,-96.25519929585457,72.1922225099802
2024-09-23 20:16:25.342998,40.03,48.83193,0.0005471957306340564,-0.023280723622328886,0.09680407370509965,36.09446859390736,-96.25519929585457,72.1922225099802
2024-09-23 20:16:25.385648,40.03,48.83193,0.0005471957306340564,-0.023280723622328886,0.09680407370509965,36.09446859390736,-92.24360919585227,72.1922225099802
2024-09-23 20:16:25.397248,40.03,48.831982,0.00034821073540793035,-0.023280723622328886,0.09740101331113918,36.09446859390736,-92.24360919585227,80.21211738781929
2024-09-23 20:16:25.440774,40.03,48.832032,0.0008954064660419869,-0.023280723622328886,0.09740101331113918,36.09446859390736,-92.24360919585227,76.200527287817
2024-09-23 20:16:25.452901,40.03,48.832032,0.0008954064660419869,-0.02278327698858263,0.09740101331113918,36.09446859390736,-92.24360919585227,76.200527287817
2024-09-23 20:16:25.536135,40.03,48.832032,0.0008954064660419869,-0.02278327698858263,0.09759999317981902,32.08287849390507,-92.24360919585227,80.21211738781929
2024-09-23 20:16:25.549945,40.03,48.832118,0.0005471957306340564,-0.02278327698858263,0.09759999317981902,32.08287849390507,-92.24360919585227,80.21211738781929
2024-09-23 20:16:25.582191,40.03,48.832118,0.0005471957306340564,-0.023579196463302005,0.09774922960030558,32.08287849390507,-92.24360919585227,80.21211738781929
2024-09-23 20:16:25.593186,40.03,48.83217,0.0005471957306340564,-0.023579196463302005,0.09774922960030558,40.106058693909645,-92.24360919585227,80.21211738781929
2024-09-23 20:16:25.635994,40.03,48.83217,0.0006964318663124887,-0.02338022115155219,0.09764974270391902,40.106058693909645,-96.25519929585457,80.21211738781929
2024-09-23 20:16:25.647739,40.03,48.83217,0.0006964318663124887,-0.02338022115155219,0.09764974270391902,40.106058693909645,-96.25519929585457,76.200527287817
2024-09-23 20:16:25.680389,40.03,48.832265,0.0003979595949556242,-0.02338022115155219,0.09764974270391902,40.106058693909645,-96.25519929585457,76.200527287817
2024-09-23 20:16:25.691339,40.03,48.832265,0.0003979595949556242,-0.023330473146428877,0.09789846602079214,60.15744537978172,-92.24360919585227,76.200527287817
2024-09-23 20:16:25.734248,40.03,48.832317,0.0007959191899112484,-0.02278327698858263,0.09680407370509965,16.039798293417693,-92.24360919585227,76.200527287817
2024-09-23 20:16:25.777277,40.03,48.832317,0.0007959191899112484,-0.02278327698858263,0.09680407370509965,16.039798293417693,-96.25519929585457,80.21211738781929
2024-09-23 20:16:25.789067,40.03,48.832412,0.0006964318663124887,-0.02278327698858263,0.09799795899308542,16.039798293417693,-96.25519929585457,80.21211738781929
2024-09-23 20:16:25.831566,40.03,48.832463,0.0001989745997294981,-0.02278327698858263,0.09799795899308542,16.039798293417693,-92.24360919585227,80.21211738781929
2024-09-23 20:16:25.843429,40.03,48.832463,0.0001989745997294981,-0.0228827638849692,0.09799795899308542,16.039798293417693,-92.24360919585227,80.21211738781929
2024-09-23 20:16:25.926687,40.06,48.832463,0.0001989745997294981,-0.0228827638849692,0.0973512698629459,44.11764879391193,-96.25519929585457,68.18063240997792
2024-09-23 20:16:25.938838,40.06,48.832514,0.0003979595949556242,-0.0228827638849692,0.0973512698629459,44.11764879391193,-96.25519929585457,68.18063240997792
2024-09-23 20:16:25.970854,40.06,48.832514,0.0003979595949556242,-0.022982261414192504,0.0973512698629459,44.11764879391193,-96.25519929585457,68.18063240997792
2024-09-23 20:16:25.982175,40.06,48.832606,0.0003979595949556242,-0.022982261414192504,0.09725178296655933,48.12595698684454,-92.24360919585227,76.200527287817
2024-09-23 20:16:26.025193,40.06,48.832606,0.0007959191899112484,-0.022833026512682618,0.09695331012558621,40.106058693909645,-92.24360919585227,76.200527287817
2024-09-23 20:16:26.037230,40.06,48.832606,0.0007959191899112484,-0.022833026512682618,0.09695331012558621,40.106058693909645,-92.24360919585227,80.21211738781929
2024-09-23 20:16:26.070551,40.06,48.832657,0.0012436275969465451,-0.023429960042815445,0.09695331012558621,40.106058693909645,-92.24360919585227,80.21211738781929
2024-09-23 20:16:26.081964,40.06,48.832657,0.0012436275969465451,-0.023429960042815445,0.09725178296655933,36.09446859390736,-92.24360919585227,80.21211738781929
2024-09-23 20:16:26.125110,40.06,48.832708,0.00014922575204880957,-0.02313149783467906,0.09759999317981902,32.08287849390507,-92.24360919585227,84.22370748782159
2024-09-23 20:16:26.167237,40.06,48.832708,0.00014922575204880957,-0.02313149783467906,0.09759999317981902,32.08287849390507,-100.26678939585686,76.200527287817
2024-09-23 20:16:26.179269,40.06,48.832803,0.00029846189959424716,-0.02293251340906919,0.09789846602079214,32.08287849390507,-100.26678939585686,76.200527287817
2024-09-23 20:16:26.222439,40.06,48.832853,0.0011441298778511575,-0.022982261414192504,0.09789846602079214,48.12595698684454,-96.25519929585457,76.200527287817
2024-09-23 20:16:26.264672,40.06,48.832853,0.0011441298778511575,-0.022982261414192504,0.09690356060148622,28.07457030097246,-96.25519929585457,76.200527287817
2024-09-23 20:16:26.276634,40.06,48.832904,0.0007959191899112484,-0.022982261414192504,0.09690356060148622,28.07457030097246,-92.24360919585227,80.21211738781929
2024-09-23 20:16:26.320267,40.06,48.832996,0.0007959191899112484,-0.02293251340906919,0.09755024973162574,56.14914060194492,-88.23529758782387,76.200527287817
2024-09-23 20:16:26.362186,40.06,48.832996,0.0012436275969465451,-0.0228827638849692,0.09755024973162574,56.14914060194492,-88.23529758782387,76.200527287817
2024-09-23 20:16:26.373538,40.06,48.832996,0.0012436275969465451,-0.0228827638849692,0.0973512698629459,60.15744537978172,-92.24360919585227,72.1922225099802
2024-09-23 20:16:26.416486,40.06,48.833047,9.948729986474904e-05,-0.02268379009219606,0.098047696365372,-32.08287849390507,-92.24360919585227,72.1922225099802
2024-09-23 20:16:26.429039,40.06,48.833047,9.948729986474904e-05,-0.02268379009219606,0.098047696365372,-32.08287849390507,-96.25519929585457,72.1922225099802
2024-09-23 20:16:26.462010,40.06,48.833098,0.0009451553255896806,-0.02238531725122294,0.098047696365372,-32.08287849390507,-96.25519929585457,80.21211738781929
2024-09-23 20:16:26.473282,40.06,48.833098,0.0009451553255896806,-0.02238531725122294,0.09934107462565103,40.106058693909645,-96.25519929585457,80.21211738781929
2024-09-23 20:16:26.557137,40.06,48.833098,0.0009451553255896806,-0.02238531725122294,0.09934107462565103,40.106058693909645,-96.25519929585457,80.21211738781929
2024-09-23 20:16:26.569054,40.06,48.833149,0.00044769805900669,-0.02308174982955575,0.09899285226057793,40.106058693909645,-96.25519929585457,76.200527287817
2024-09-23 20:16:26.612827,40.06,48.833199,0.0009451553255896806,-0.02308174982955575,0.09899285226057793,136.36126481995584,-84.22370748782159,68.18063240997792
2024-09-23 20:16:26.654946,40.06,48.833199,0.0009451553255896806,-0.02308174982955575,0.0966050877605131,76.200527287817,-84.22370748782159,68.18063240997792
2024-09-23 20:16:26.666148,40.06,48.83325,0.0009451553255896806,-0.02308174982955575,0.0966050877605131,76.200527287817,-100.26678939585686,64.16903547978401
2024-09-23 20:16:26.710115,40.06,48.83325,0.0003979595949556242,-0.023280723622328886,0.09650560086412653,0.0,-100.26678939585686,76.200527287817
2024-09-23 20:16:26.752642,40.06,48.833337,0.0006964318663124887,-0.023280723622328886,0.09650560086412653,0.0,-100.26678939585686,76.200527287817
2024-09-23 20:16:26.763851,40.06,48.833337,0.0006964318663124887,-0.022833026512682618,0.09755024973162574,56.14914060194492,-92.24360919585227,76.200527287817
2024-09-23 20:16:26.806770,40.06,48.833435,0.0005471957306340564,-0.02293251340906919,0.09715228999426605,56.14914060194492,-92.24360919585227,76.200527287817
2024-09-23 20:16:26.818529,40.06,48.833435,0.0005471957306340564,-0.02293251340906919,0.09715228999426605,52.137550501942634,-92.24360919585227,76.200527287817
2024-09-23 20:16:26.852893,40.06,48.833486,0.0005471957306340564,-0.02293251340906919,0.09715228999426605,52.137550501942634,-96.25519929585457,72.1922225099802
2024-09-23 20:16:26.864404,40.06,48.833486,0.0010943914612681128,-0.023429960042815445,0.0976994861521123,52.137550501942634,-96.25519929585457,72.1922225099802
2024-09-23 20:16:26.896375,40.06,48.833486,0.0010943914612681128,-0.023429960042815445,0.0976994861521123,40.106058693909645,-96.25519929585457,72.1922225099802
2024-09-23 20:16:26.908246,40.06,48.833537,0.0008954064660419869,-0.023330473146428877,0.0976994861521123,40.106058693909645,-100.26678939585686,76.200527287817
2024-09-23 20:16:26.951682,40.54,48.833588,0.0008954064660419869,-0.023330473146428877,0.09759999317981902,36.09446859390736,-100.26678939585686,76.200527287817
2024-09-23 20:16:26.994464,40.54,48.833588,0.0008954064660419869,-0.023330473146428877,0.09759999317981902,36.09446859390736,-100.26678939585686,76.200527287817
2024-09-23 20:16:27.005683,40.54,48.833588,0.0008954064660419869,-0.02303200030545576,0.09670458680871308,52.137550501942634,-92.24360919585227,80.21211738781929
2024-09-23 20:16:27.048061,40.54,48.833678,0.000845657606494293,-0.02367869399252531,0.09740101331113918,52.137550501942634,-92.24360919585227,80.21211738781929
2024-09-23 20:16:27.059847,40.54,48.833678,0.000845657606494293,-0.02367869399252531,0.09740101331113918,16.039798293417693,-92.24360919585227,80.21211738781929
2024-09-23 20:16:27.093447,40.54,48.83373,0.000845657606494293,-0.02367869399252531,0.09740101331113918,16.039798293417693,-92.24360919585227,84.22370748782159
2024-09-23 20:16:27.104500,40.54,48.83373,0.00044769805900669,-0.02313149783467906,0.09774922960030558,20.05138839341998,-92.24360919585227,84.22370748782159
2024-09-23 20:16:27.147236,40.54,48.83378,0.0009451553255896806,-0.02268379009219606,0.09774922960030558,20.05138839341998,-88.23529758782387,84.22370748782159
2024-09-23 20:16:27.158963,40.54,48.83378,0.0009451553255896806,-0.02268379009219606,0.09750050628343246,20.05138839341998,-88.23529758782387,84.22370748782159
2024-09-23 20:16:27.190957,40.54,48.83378,0.0009451553255896806,-0.02268379009219606,0.09750050628343246,56.14914060194492,-96.25519929585457,84.22370748782159
2024-09-23 20:16:27.202121,40.54,48.833832,0.0011441298778511575,-0.023280723622328886,0.09750050628343246,56.14914060194492,-96.25519929585457,76.200527287817
2024-09-23 20:16:27.244261,40.54,48.833882,0.0011441298778511575,-0.023280723622328886,0.09695331012558621,56.14914060194492,-92.24360919585227,76.200527287817
2024-09-23 20:16:27.255874,40.54,48.833882,0.00034821073540793035,-0.023280723622328886,0.09695331012558621,56.14914060194492,-92.24360919585227,76.200527287817
2024-09-23 20:16:27.287981,40.54,48.833882,0.00034821073540793035,-0.0228827638849692,0.09715228999426605,56.14914060194492,-92.24360919585227,76.200527287817
2024-09-23 20:16:27.299746,40.54,48.833971,0.00034821073540793035,-0.0228827638849692,0.09715228999426605,32.08287849390507,-92.24360919585227,80.21211738781929
2024-09-23 20:16:27.342479,40.54,48.833971,0.0006466830067647949,-0.02308174982955575,0.09755024973162574,48.12595698684454,-96.25519929585457,80.21211738781929
2024-09-23 20:16:27.354162,40.54,48.833971,0.0006466830067647949,-0.02308174982955575,0.09755024973162574,48.12595698684454,-96.25519929585457,76.200527287817
2024-09-23 20:16:27.386230,40.54,48.834022,0.0011441298778511575,-0.02308174982955575,0.09755024973162574,48.12595698684454,-96.25519929585457,76.200527287817
2024-09-23 20:16:27.397121,40.54,48.834022,0.0011441298778511575,-0.02313149783467906,0.09809744588947199,40.106058693909645,-88.23529758782387,76.200527287817
2024-09-23 20:16:27.441026,40.54,48.834073,0.0013928637326249774,-0.022982261414192504,0.09725178296655933,44.11764879391193,-88.23529758782387,76.200527287817
2024-09-23 20:16:27.483203,40.54,48.834073,0.0013928637326249774,-0.022982261414192504,0.09725178296655933,44.11764879391193,-88.23529758782387,72.1922225099802
2024-09-23 20:16:27.494203,40.54,48.834124,0.000845657606494293,-0.023181236725942318,0.09774922960030558,44.11764879391193,-88.23529758782387,72.1922225099802
2024-09-23 20:16:27.587894,40.54,48.834174,0.0003979595949556242,-0.02338022115155219,0.09774922960030558,48.12595698684454,-88.23529758782387,76.200527287817
2024-09-23 20:16:27.631129,40.54,48.834174,0.0003979595949556242,-0.02338022115155219,0.09779897304849887,52.137550501942634,-88.23529758782387,76.200527287817
2024-09-23 20:16:27.642575,40.54,48.834225,0.0010943914612681128,-0.02338022115155219,0.09779897304849887,52.137550501942634,-88.23529758782387,76.200527287817
2024-09-23 20:16:27.685373,40.54,48.834312,0.0010943914612681128,-0.023181236725942318,0.0976994861521123,44.11764879391193,-92.24360919585227,76.200527287817
2024-09-23 20:16:27.728823,40.54,48.834312,0.0007959191899112484,-0.023330473146428877,0.0973015264147526,44.11764879391193,-92.24360919585227,76.200527287817
2024-09-23 20:16:27.740793,40.54,48.834312,0.0007959191899112484,-0.023330473146428877,0.0973015264147526,48.12595698684454,-92.24360919585227,76.200527287817
2024-09-23 20:16:27.783762,40.54,48.834364,0.0009948937421727254,-0.02313149783467906,0.09745075675933246,48.12595698684454,-100.26678939585686,76.200527287817
2024-09-23 20:16:27.826950,40.54,48.834459,0.00044769805900669,-0.02313149783467906,0.09745075675933246,48.12595698684454,-100.26678939585686,80.21211738781929
2024-09-23 20:16:27.838639,40.54,48.834459,0.00044769805900669,-0.023181236725942318,0.09675432418099966,44.11764879391193,-100.26678939585686,80.21211738781929
2024-09-23 20:16:27.872175,40.54,48.834459,0.00044769805900669,-0.023181236725942318,0.09675432418099966,44.11764879391193,-96.25519929585457,80.21211738781929
2024-09-23 20:16:27.883579,40.54,48.834511,0.0007461703303635545,-0.02338022115155219,0.09755024973162574,44.11764879391193,-96.25519929585457,76.200527287817
2024-09-23 20:16:27.926327,40.54,48.834561,0.00044769805900669,-0.02338022115155219,0.09755024973162574,40.106058693909645,-96.25519929585457,76.200527287817
2024-09-23 20:16:27.937922,40.54,48.834561,0.00044769805900669,-0.02313149783467906,0.09755024973162574,40.106058693909645,-96.25519929585457,76.200527287817
2024-09-23 20:16:27.969987,40.64,48.834561,0.00044769805900669,-0.02313149783467906,0.09755024973162574,40.106058693909645,-96.25519929585457,76.200527287817
2024-09-23 20:16:27.982078,40.64,48.834612,0.0012436275969465451,-0.02313149783467906,0.09755024973162574,48.12595698684454,-92.24360919585227,76.200527287817
2024-09-23 20:16:28.024448,40.64,48.834612,0.0012436275969465451,-0.0228827638849692,0.09764974270391902,44.11764879391193,-100.26678939585686,76.200527287817
2024-09-23 20:16:28.035413,40.64,48.834702,0.0012436275969465451,-0.0228827638849692,0.09764974270391902,44.11764879391193,-100.26678939585686,76.200527287817
2024-09-23 20:16:28.067882,40.64,48.834702,9.948729986474904e-05,-0.02352945757203875,0.09764974270391902,44.11764879391193,-100.26678939585686,76.200527287817
2024-09-23 20:16:28.079457,40.64,48.834702,9.948729986474904e-05,-0.02352945757203875,0.09740101331113918,20.05138839341998,-88.23529758782387,80.21211738781929
2024-09-23 20:16:28.121960,40.64,48.834754,0.001044642601720419,-0.022982261414192504,0.09784872257259886,40.106058693909645,-88.23529758782387,80.21211738781929
2024-09-23 20:16:28.133665,40.64,48.834754,0.001044642601720419,-0.022982261414192504,0.09784872257259886,40.106058693909645,-96.25519929585457,80.21211738781929
2024-09-23 20:16:28.166081,40.64,48.834804,0.001044642601720419,-0.022982261414192504,0.09784872257259886,40.106058693909645,-96.25519929585457,80.21211738781929
2024-09-23 20:16:28.177893,40.64,48.834804,0.0009948937421727254,-0.0228827638849692,0.0976994861521123,40.106058693909645,-96.25519929585457,80.21211738781929
2024-09-23 20:16:28.221283,40.64,48.834855,0.00029846189959424716,-0.023280723622328886,0.09750050628343246,40.106058693909645,-92.24360919585227,76.200527287817
2024-09-23 20:16:28.263766,40.64,48.834855,0.00029846189959424716,-0.023280723622328886,0.09750050628343246,36.09446859390736,-100.26678939585686,76.200527287817
2024-09-23 20:16:28.275362,40.64,48.834906,0.0006466830067647949,-0.02278327698858263,0.09750050628343246,36.09446859390736,-100.26678939585686,68.18063240997792
2024-09-23 20:16:28.317213,40.64,48.834956,0.0006466830067647949,-0.02278327698858263,0.09695331012558621,32.08287849390507,-96.25519929585457,76.200527287817
2024-09-23 20:16:28.329207,40.64,48.834956,0.001044642601720419,-0.02278327698858263,0.09695331012558621,32.08287849390507,-96.25519929585457,76.200527287817
2024-09-23 20:16:28.362635,40.64,48.834956,0.001044642601720419,-0.02263404056809607,0.09640611396773996,44.11764879391193,-96.25519929585457,76.200527287817
2024-09-23 20:16:28.374158,40.64,48.835043,0.001044642601720419,-0.02263404056809607,0.09640611396773996,44.11764879391193,-96.25519929585457,76.200527287817
2024-09-23 20:16:28.416807,40.64,48.835043,0.00034821073540793035,-0.023280723622328886,0.09710254654607277,44.11764879391193,-100.26678939585686,76.200527287817
2024-09-23 20:16:28.459845,40.64,48.835095,0.0009451553255896806,-0.023778180888911878,0.09710254654607277,44.11764879391193,-100.26678939585686,76.200527287817
2024-09-23 20:16:28.472015,40.64,48.835095,0.0009451553255896806,-0.023778180888911878,0.09685382322919964,40.106058693909645,-100.26678939585686,76.200527287817
2024-09-23 20:16:28.504469,40.64,48.835095,0.0009451553255896806,-0.023778180888911878,0.09685382322919964,40.106058693909645,-100.26678939585686,76.200527287817
2024-09-23 20:16:28.516244,40.64,48.835146,0.0006964318663124887,-0.022982261414192504,0.09690356060148622,0.0,-100.26678939585686,76.200527287817
2024-09-23 20:16:28.609931,40.64,48.835196,0.0007959191899112484,-0.022833026512682618,0.09690356060148622,0.0,-92.24360919585227,76.200527287817
2024-09-23 20:16:28.622040,40.64,48.835196,0.0007959191899112484,-0.022833026512682618,0.09759999317981902,0.0,-92.24360919585227,76.200527287817
2024-09-23 20:16:28.705168,40.64,48.835196,0.0007959191899112484,-0.022833026512682618,0.09759999317981902,60.15744537978172,-100.26678939585686,80.21211738781929
2024-09-23 20:16:28.716689,40.64,48.835247,0.0007461703303635545,-0.023579196463302005,0.09759999317981902,60.15744537978172,-100.26678939585686,80.21211738781929
2024-09-23 20:16:28.748945,40.64,48.835247,0.0007461703303635545,-0.023579196463302005,0.09745075675933246,60.15744537978172,-100.26678939585686,80.21211738781929
2024-09-23 20:16:28.760797,40.64,48.835298,0.000845657606494293,-0.023579196463302005,0.09745075675933246,72.1922225099802,-92.24360919585227,68.18063240997792
2024-09-23 20:16:28.803224,40.64,48.835298,0.000845657606494293,-0.02278327698858263,0.09725178296655933,40.106058693909645,-92.24360919585227,68.18063240997792
2024-09-23 20:16:28.814266,40.64,48.835385,0.000845657606494293,-0.02278327698858263,0.09725178296655933,40.106058693909645,-92.24360919585227,76.200527287817
2024-09-23 20:16:28.847590,40.64,48.835385,0.00044769805900669,-0.02278327698858263,0.09725178296655933,40.106058693909645,-92.24360919585227,76.200527287817
2024-09-23 20:16:28.859536,40.64,48.835385,0.00044769805900669,-0.0228827638849692,0.09740101331113918,40.106058693909645,-96.25519929585457,72.1922225099802
2024-09-23 20:16:28.903100,40.64,48.835483,0.0007461703303635545,-0.023827930413011865,0.0973015264147526,36.09446859390736,-92.24360919585227,72.1922225099802
2024-09-23 20:16:28.945610,40.64,48.835581,0.0007461703303635545,-0.023827930413011865,0.0973015264147526,36.09446859390736,-92.24360919585227,68.18063240997792
2024-09-23 20:16:28.957223,40.64,48.835581,0.0008954064660419869,-0.023280723622328886,0.0973015264147526,36.09446859390736,-92.24360919585227,68.18063240997792
2024-09-23 20:16:29.000016,40.9,48.835632,0.0005969341946851222,-0.022833026512682618,0.0973015264147526,36.09446859390736,-96.25519929585457,88.23529758782387
2024-09-23 20:16:29.012014,40.9,48.835632,0.0005969341946851222,-0.022833026512682618,0.09844565610273168,36.09446859390736,-96.25519929585457,88.23529758782387
2024-09-23 20:16:29.044877,40.9,48.835632,0.0005969341946851222,-0.022833026512682618,0.09844565610273168,48.12595698684454,-100.26678939585686,80.21211738781929
2024-09-23 20:16:29.056430,40.9,48.835682,0.0001989745997294981,-0.023280723622328886,0.09844565610273168,48.12595698684454,-100.26678939585686,80.21211738781929
2024-09-23 20:16:29.098950,40.9,48.835733,0.00044769805900669,-0.023280723622328886,0.09640611396773996,60.15744537978172,-96.25519929585457,72.1922225099802
2024-09-23 20:16:29.142687,40.9,48.835733,0.00044769805900669,-0.023181236725942318,0.09705279702197278,32.08287849390507,-96.25519929585457,72.1922225099802
2024-09-23 20:16:29.153805,40.9,48.835824,0.00044769805900669,-0.023181236725942318,0.09705279702197278,32.08287849390507,-92.24360919585227,84.22370748782159
2024-09-23 20:16:29.197334,40.9,48.835824,0.0006964318663124887,-0.023181236725942318,0.09705279702197278,32.08287849390507,-92.24360919585227,84.22370748782159
2024-09-23 20:16:29.239596,40.9,48.835824,0.0006964318663124887,-0.02303200030545576,0.09779897304849887,32.08287849390507,-92.24360919585227,84.22370748782159
2024-09-23 20:16:29.251749,40.9,48.835876,0.0006964318663124887,-0.02303200030545576,0.09779897304849887,56.14914060194492,-96.25519929585457,80.21211738781929
2024-09-23 20:16:29.294275,40.9,48.835876,0.0010943914612681128,-0.022833026512682618,0.09740101331113918,52.137550501942634,-88.23529758782387,80.21211738781929
2024-09-23 20:16:29.335990,40.9,48.835926,0.0007959191899112484,-0.022833026512682618,0.09740101331113918,52.137550501942634,-88.23529758782387,80.21211738781929
2024-09-23 20:16:29.347069,40.9,48.835926,0.0007959191899112484,-0.02313149783467906,0.09774922960030558,44.11764879391193,-96.25519929585457,80.21211738781929
2024-09-23 20:16:29.389876,40.9,48.835977,0.0004974468710863627,-0.02278327698858263,0.09750050628343246,44.11764879391193,-96.25519929585457,80.21211738781929
2024-09-23 20:16:29.401583,40.9,48.835977,0.0004974468710863627,-0.02278327698858263,0.09750050628343246,44.11764879391193,-96.25519929585457,80.21211738781929
2024-09-23 20:16:29.433381,40.9,48.835977,0.0004974468710863627,-0.02278327698858263,0.09750050628343246,44.11764879391193,-96.25519929585457,76.200527287817
2024-09-23 20:16:29.444878,40.9,48.836028,0.0007461703303635545,-0.023181236725942318,0.09675432418099966,44.11764879391193,-96.25519929585457,76.200527287817
2024-09-23 20:16:29.487751,40.9,48.836118,0.0009451553255896806,-0.023181236725942318,0.09675432418099966,36.09446859390736,-100.26678939585686,72.1922225099802
2024-09-23 20:16:29.499852,40.9,48.836118,0.0009451553255896806,-0.023230986250042305,0.09675432418099966,36.09446859390736,-100.26678939585686,72.1922225099802
2024-09-23 20:16:29.532297,40.9,48.836118,0.0009451553255896806,-0.023230986250042305,0.09789846602079214,36.09446859390736,-96.25519929585457,72.1922225099802
2024-09-23 20:16:29.543947,40.9,48.836169,0.0005471957306340564,-0.023230986250042305,0.09789846602079214,36.09446859390736,-96.25519929585457,76.200527287817
2024-09-23 20:16:29.628516,40.9,48.836169,0.0005471957306340564,-0.022982261414192504,0.09680407370509965,36.09446859390736,-96.25519929585457,76.200527287817
2024-09-23 20:16:29.640791,40.9,48.836262,0.0005471957306340564,-0.022982261414192504,0.09680407370509965,40.106058693909645,-100.26678939585686,76.200527287817
2024-09-23 20:16:29.683932,40.9,48.836262,0.0013431148730772837,-0.0228827638849692,0.09774922960030558,-4.008308192932605,-88.23529758782387,80.21211738781929
2024-09-23 20:16:29.726918,40.9,48.836314,0.0001989745997294981,-0.0228827638849692,0.09774922960030558,-4.008308192932605,-88.23529758782387,80.21211738781929
2024-09-23 20:16:29.779238,40.9,48.836314,0.0001989745997294981,-0.02338022115155219,0.09844565610273168,48.12595698684454,-100.26678939585686,76.200527287817
2024-09-23 20:16:29.791256,40.9,48.836364,0.0001989745997294981,-0.02338022115155219,0.09844565610273168,48.12595698684454,-100.26678939585686,76.200527287817
2024-09-23 20:16:29.824304,40.9,48.836364,4.973845218406054e-05,-0.023579196463302005,0.09844565610273168,48.12595698684454,-100.26678939585686,76.200527287817
2024-09-23 20:16:29.835548,40.9,48.836364,4.973845218406054e-05,-0.023579196463302005,0.09764974270391902,48.12595698684454,-92.24360919585227,68.18063240997792
2024-09-23 20:16:29.877366,40.9,48.836415,0.0007959191899112484,-0.023280723622328886,0.09715228999426605,32.08287849390507,-92.24360919585227,68.18063240997792
2024-09-23 20:16:29.889304,40.9,48.836415,0.0007959191899112484,-0.023280723622328886,0.09715228999426605,32.08287849390507,-88.23529758782387,68.18063240997792
2024-09-23 20:16:29.922128,40.9,48.836508,0.0011938787373988514,-0.023280723622328886,0.09715228999426605,32.08287849390507,-88.23529758782387,72.1922225099802
2024-09-23 20:16:29.933192,40.9,48.836508,0.0011938787373988514,-0.02308174982955575,0.09759999317981902,44.11764879391193,-88.23529758782387,72.1922225099802
2024-09-23 20:16:29.976327,40.9,48.836559,0.0006964318663124887,-0.02303200030545576,0.09710254654607277,44.11764879391193,-96.25519929585457,76.200527287817
2024-09-23 20:16:30.018378,40.83,48.836559,0.0006964318663124887,-0.02303200030545576,0.09710254654607277,48.12595698684454,-92.24360919585227,76.200527287817
2024-09-23 20:16:30.029798,40.83,48.836654,0.0010943914612681128,-0.02313149783467906,0.09710254654607277,48.12595698684454,-92.24360919585227,72.1922225099802
2024-09-23 20:16:30.072779,40.83,48.836705,0.0010943914612681128,-0.02313149783467906,0.09759999317981902,48.12595698684454,-96.25519929585457,72.1922225099802
2024-09-23 20:16:30.084662,40.83,48.836705,0.0006964318663124887,-0.02313149783467906,0.09759999317981902,48.12595698684454,-96.25519929585457,72.1922225099802
2024-09-23 20:16:30.117063,40.83,48.836705,0.0006964318663124887,-0.02338022115155219,0.09725178296655933,104.27510100388527,-96.25519929585457,72.1922225099802
2024-09-23 20:16:30.129017,40.83,48.836798,0.0006964318663124887,-0.02338022115155219,0.09725178296655933,104.27510100388527,-92.24360919585227,76.200527287817
2024-09-23 20:16:30.172098,40.83,48.836798,0.0007959191899112484,-0.02362894446842532,0.09650560086412653,56.14914060194492,-100.26678939585686,76.200527287817
2024-09-23 20:16:30.215923,40.83,48.836798,0.0007959191899112484,-0.02362894446842532,0.09650560086412653,56.14914060194492,-100.26678939585686,84.22370748782159
2024-09-23 20:16:30.268914,40.83,48.83685,0.0006466830067647949,-0.02352945757203875,0.09710254654607277,12.031489246711136,-96.25519929585457,84.22370748782159
2024-09-23 20:16:30.312288,40.83,48.836901,0.000845657606494293,-0.02352945757203875,0.09710254654607277,12.031489246711136,-96.25519929585457,72.1922225099802
2024-09-23 20:16:30.323877,40.83,48.836901,0.000845657606494293,-0.02278327698858263,0.09764974270391902,48.12595698684454,-96.25519929585457,72.1922225099802
2024-09-23 20:16:30.366600,40.83,48.836951,0.0011441298778511575,-0.02308174982955575,0.09715228999426605,48.12595698684454,-100.26678939585686,76.200527287817
2024-09-23 20:16:30.409995,40.83,48.836951,0.0011441298778511575,-0.02308174982955575,0.09715228999426605,52.137550501942634,-96.25519929585457,80.21211738781929
2024-09-23 20:16:30.421208,40.83,48.837002,0.00029846189959424716,-0.023230986250042305,0.09715228999426605,52.137550501942634,-96.25519929585457,80.21211738781929
2024-09-23 20:16:30.463672,40.83,48.837053,0.0011441298778511575,-0.023230986250042305,0.0976994861521123,32.08287849390507,-92.24360919585227,76.200527287817
2024-09-23 20:16:30.505362,40.83,48.837053,0.0011441298778511575,-0.023230986250042305,0.09844565610273168,32.08287849390507,-92.24360919585227,76.200527287817
2024-09-23 20:16:30.517094,40.83,48.837188,0.0011441298778511575,-0.023230986250042305,0.09844565610273168,40.106058693909645,-96.25519929585457,76.200527287817
2024-09-23 20:16:30.560090,40.83,48.837188,0.000845657606494293,-0.02313149783467906,0.09764974270391902,44.11764879391193,-96.25519929585457,76.200527287817
2024-09-23 20:16:30.571766,40.83,48.837188,0.000845657606494293,-0.02313149783467906,0.09764974270391902,44.11764879391193,-96.25519929585457,76.200527287817
2024-09-23 20:16:30.604315,40.83,48.83724,0.0010943914612681128,-0.02313149783467906,0.09764974270391902,44.11764879391193,-96.25519929585457,76.200527287817
2024-09-23 20:16:30.615397,40.83,48.83724,0.0010943914612681128,-0.023827930413011865,0.09750050628343246,32.08287849390507,-80.21211738781929,76.200527287817
2024-09-23 20:16:30.658355,40.83,48.837291,0.0015420998683034098,-0.022833026512682618,0.09789846602079214,32.08287849390507,-80.21211738781929,84.22370748782159
2024-09-23 20:16:30.670110,40.83,48.837291,0.0015420998683034098,-0.022833026512682618,0.09789846602079214,-4.008308192932605,-80.21211738781929,84.22370748782159
2024-09-23 20:16:30.702322,40.83,48.837341,0.0015420998683034098,-0.022833026512682618,0.09789846602079214,-4.008308192932605,-96.25519929585457,76.200527287817
2024-09-23 20:16:30.713848,40.83,48.837341,0.0008954064660419869,-0.02263404056809607,0.09829641968224512,-4.008308192932605,-96.25519929585457,76.200527287817
2024-09-23 20:16:30.756553,40.83,48.837392,0.0009948937421727254,-0.02308174982955575,0.09829641968224512,48.12595698684454,-96.25519929585457,72.1922225099802
2024-09-23 20:16:30.799280,40.83,48.837392,0.0009948937421727254,-0.02308174982955575,0.0970030596496862,64.16903547978401,-96.25519929585457,72.1922225099802
2024-09-23 20:16:30.813039,40.83,48.837443,0.0007461703303635545,-0.02308174982955575,0.0970030596496862,64.16903547978401,-96.25519929585457,68.18063240997792
2024-09-23 20:16:30.845793,40.83,48.837443,0.0007461703303635545,-0.02303200030545576,0.0970030596496862,64.16903547978401,-96.25519929585457,68.18063240997792
2024-09-23 20:16:30.857233,40.83,48.837443,0.0007461703303635545,-0.02303200030545576,0.09794820946898543,64.16903547978401,-96.25519929585457,68.18063240997792
2024-09-23 20:16:30.899960,40.83,48.83753,0.0007461703303635545,-0.02303200030545576,0.09794820946898543,40.106058693909645,-88.23529758782387,80.21211738781929
2024-09-23 20:16:30.911736,40.83,48.83753,0.0008954064660419869,-0.0228827638849692,0.09794820946898543,40.106058693909645,-88.23529758782387,80.21211738781929
2024-09-23 20:16:30.945759,40.83,48.83753,0.0008954064660419869,-0.0228827638849692,0.09764974270391902,52.137550501942634,-88.23529758782387,80.21211738781929
2024-09-23 20:16:30.957453,40.83,48.837581,0.0007959191899112484,-0.0228827638849692,0.09764974270391902,52.137550501942634,-92.24360919585227,80.21211738781929
2024-09-23 20:16:31.000275,40.83,48.837632,0.0007959191899112484,-0.023280723622328886,0.0973512698629459,52.137550501942634,-96.25519929585457,76.200527287817
2024-09-23 20:16:31.042334,40.94,48.837632,0.0004974468710863627,-0.02313149783467906,0.0973512698629459,52.137550501942634,-96.25519929585457,76.200527287817
2024-09-23 20:16:31.054287,40.94,48.837632,0.0004974468710863627,-0.02313149783467906,0.0976994861521123,32.08287849390507,-96.25519929585457,72.1922225099802
2024-09-23 20:16:31.097864,40.94,48.837683,0.0007959191899112484,-0.02293251340906919,0.09710254654607277,44.11764879391193,-88.23529758782387,72.1922225099802
2024-09-23 20:16:31.140167,40.94,48.837774,0.0007959191899112484,-0.02293251340906919,0.09710254654607277,44.11764879391193,-88.23529758782387,76.200527287817
2024-09-23 20:16:31.151189,40.94,48.837774,0.0004974468710863627,-0.0228827638849692,0.09695331012558621,44.11764879391193,-88.23529758782387,76.200527287817
2024-09-23 20:16:31.195009,40.94,48.837826,0.0004974468710863627,-0.022982261414192504,0.09665483728461309,44.11764879391193,-88.23529758782387,80.21211738781929
2024-09-23 20:16:31.237263,40.94,48.837826,0.0004974468710863627,-0.022982261414192504,0.09665483728461309,36.09446859390736,-96.25519929585457,80.21211738781929
2024-09-23 20:16:31.248630,40.94,48.837876,0.0012436275969465451,-0.02362894446842532,0.09665483728461309,36.09446859390736,-96.25519929585457,72.1922225099802
2024-09-23 20:16:31.291590,40.94,48.837927,0.0003979595949556242,-0.02362894446842532,0.09740101331113918,8.019899146708847,-92.24360919585227,76.200527287817
2024-09-23 20:16:31.334322,40.94,48.837927,0.0003979595949556242,-0.023330473146428877,0.09764974270391902,8.019899146708847,-92.24360919585227,76.200527287817
2024-09-23 20:16:31.345787,40.94,48.838017,0.0003979595949556242,-0.023330473146428877,0.09764974270391902,40.106058693909645,-92.24360919585227,76.200527287817
2024-09-23 20:16:31.387969,40.94,48.838017,0.0009451553255896806,-0.02308174982955575,0.09774922960030558,52.137550501942634,-92.24360919585227,76.200527287817
2024-09-23 20:16:31.399662,40.94,48.838017,0.0009451553255896806,-0.02308174982955575,0.09774922960030558,52.137550501942634,-92.24360919585227,72.1922225099802
2024-09-23 20:16:31.431847,40.94,48.838069,0.0009451553255896806,-0.02308174982955575,0.09774922960030558,52.137550501942634,-92.24360919585227,72.1922225099802
2024-09-23 20:16:31.443375,40.94,48.838069,0.0004974468710863627,-0.023230986250042305,0.09745075675933246,44.11764879391193,-100.26678939585686,72.1922225099802
2024-09-23 20:16:31.485964,40.94,48.838119,0.000845657606494293,-0.02303200030545576,0.09740101331113918,44.11764879391193,-100.26678939585686,72.1922225099802
2024-09-23 20:16:31.497352,40.94,48.838119,0.000845657606494293,-0.02303200030545576,0.09740101331113918,48.12595698684454,-100.26678939585686,72.1922225099802
2024-09-23 20:16:31.529315,40.94,48.838119,0.000845657606494293,-0.02303200030545576,0.09740101331113918,48.12595698684454,-96.25519929585457,80.21211738781929
2024-09-23 20:16:31.541479,40.94,48.83817,0.0006964318663124887,-0.0228827638849692,0.09750050628343246,48.12595698684454,-96.25519929585457,80.21211738781929
2024-09-23 20:16:31.584438,40.94,48.838221,0.00044769805900669,-0.02293251340906919,0.09750050628343246,36.09446859390736,-88.23529758782387,84.22370748782159
2024-09-23 20:16:31.626788,40.94,48.838221,0.00044769805900669,-0.02293251340906919,0.09759999317981902,40.106058693909645,-88.23529758782387,84.22370748782159
2024-09-23 20:16:31.638454,40.94,48.838271,0.0006964318663124887,-0.02293251340906919,0.09759999317981902,40.106058693909645,-92.24360919585227,76.200527287817
2024-09-23 20:16:31.681772,40.94,48.838358,0.0006964318663124887,-0.022484804147609512,0.09755024973162574,48.12595698684454,-96.25519929585457,76.200527287817
2024-09-23 20:16:31.724457,40.94,48.838358,0.0010943914612681128,-0.02338022115155219,0.09755024973162574,48.12595698684454,-96.25519929585457,76.200527287817
2024-09-23 20:16:31.736186,40.94,48.838358,0.0010943914612681128,-0.02338022115155219,0.09789846602079214,40.106058693909645,-96.25519929585457,76.200527287817
2024-09-23 20:16:31.779248,40.94,48.83841,0.0009451553255896806,-0.023230986250042305,0.09750050628343246,48.12595698684454,-96.25519929585457,76.200527287817
2024-09-23 20:16:31.822326,40.94,48.838461,0.0009451553255896806,-0.023230986250042305,0.09750050628343246,48.12595698684454,-96.25519929585457,80.21211738781929
2024-09-23 20:16:31.833326,40.94,48.838461,0.001044642601720419,-0.02308174982955575,0.09695331012558621,44.11764879391193,-96.25519929585457,80.21211738781929
2024-09-23 20:16:31.875339,40.94,48.838461,0.001044642601720419,-0.02308174982955575,0.09695331012558621,44.11764879391193,-92.24360919585227,80.21211738781929
2024-09-23 20:16:31.917098,40.94,48.838461,0.001044642601720419,-0.02308174982955575,0.09695331012558621,44.11764879391193,-92.24360919585227,76.200527287817
2024-09-23 20:16:31.928976,40.94,48.838511,0.0005969341946851222,-0.02303200030545576,0.0973015264147526,40.106058693909645,-92.24360919585227,76.200527287817
2024-09-23 20:16:31.971588,40.94,48.838562,0.0010943914612681128,-0.02303200030545576,0.0973015264147526,40.106058693909645,-92.24360919585227,76.200527287817
2024-09-23 20:16:31.983406,40.94,48.838562,0.0010943914612681128,-0.022833026512682618,0.09755024973162574,40.106058693909645,-92.24360919585227,76.200527287817
2024-09-23 20:16:32.015080,40.94,48.838562,0.0010943914612681128,-0.022833026512682618,0.09755024973162574,44.11764879391193,-92.24360919585227,76.200527287817
2024-09-23 20:16:32.026795,40.94,48.838613,0.0007959191899112484,-0.023230986250042305,0.09755024973162574,44.11764879391193,-92.24360919585227,76.200527287817
2024-09-23 20:16:32.070210,41.03,48.838613,0.0007959191899112484,-0.023230986250042305,0.0970030596496862,44.11764879391193,-100.26678939585686,76.200527287817
2024-09-23 20:16:32.082734,41.03,48.8387,0.0006964318663124887,-0.023230986250042305,0.0970030596496862,44.11764879391193,-100.26678939585686,76.200527287817
2024-09-23 20:16:32.115225,41.03,48.8387,0.0006964318663124887,-0.02308174982955575,0.09745075675933246,44.11764879391193,-100.26678939585686,76.200527287817
2024-09-23 20:16:32.126415,41.03,48.83875,0.0006964318663124887,-0.02308174982955575,0.09745075675933246,44.11764879391193,-92.24360919585227,84.22370748782159
2024-09-23 20:16:32.168456,41.03,48.83875,0.0008954064660419869,-0.023181236725942318,0.0973015264147526,36.09446859390736,-92.24360919585227,84.22370748782159
2024-09-23 20:16:32.180566,41.03,48.83875,0.0008954064660419869,-0.023181236725942318,0.0973015264147526,36.09446859390736,-92.24360919585227,80.21211738781929
2024-09-23 20:16:32.213913,41.03,48.838846,0.0010943914612681128,-0.02293251340906919,0.0973015264147526,36.09446859390736,-92.24360919585227,80.21211738781929
2024-09-23 20:16:32.225741,41.03,48.838846,0.0010943914612681128,-0.02293251340906919,0.09715228999426605,44.11764879391193,-100.26678939585686,80.21211738781929
2024-09-23 20:16:32.267762,41.03,48.838898,0.0007959191899112484,-0.023280723622328886,0.09759999317981902,52.137550501942634,-100.26678939585686,76.200527287817
2024-09-23 20:16:32.311051,41.03,48.838948,0.0007959191899112484,-0.023280723622328886,0.09759999317981902,52.137550501942634,-104.27510100388527,64.16903547978401
2024-09-23 20:16:32.322577,41.03,48.838948,0.0003979595949556242,-0.023579196463302005,0.09720203344245934,52.137550501942634,-104.27510100388527,64.16903547978401
2024-09-23 20:16:32.365617,41.03,48.838999,0.0009451553255896806,-0.0228827638849692,0.09720203344245934,44.11764879391193,-96.25519929585457,76.200527287817
2024-09-23 20:16:32.408223,41.03,48.838999,0.0009451553255896806,-0.0228827638849692,0.0973015264147526,40.106058693909645,-96.25519929585457,76.200527287817
2024-09-23 20:16:32.419671,41.03,48.83905,0.0007461703303635545,-0.0228827638849692,0.0973015264147526,40.106058693909645,-96.25519929585457,76.200527287817
2024-09-23 20:16:32.463054,41.03,48.839138,0.0007461703303635545,-0.02352945757203875,0.09720203344245934,32.08287849390507,-88.23529758782387,80.21211738781929
2024-09-23 20:16:32.505471,41.03,48.839138,0.0006466830067647949,-0.02338022115155219,0.09774922960030558,32.08287849390507,-88.23529758782387,80.21211738781929
2024-09-23 20:16:32.516579,41.03,48.839138,0.0006466830067647949,-0.02338022115155219,0.09774922960030558,40.106058693909645,-88.23529758782387,76.200527287817
2024-09-23 20:16:32.559354,41.03,48.83919,0.0014923510087557158,-0.022982261414192504,0.09794820946898543,36.09446859390736,-100.26678939585686,76.200527287817
2024-09-23 20:16:32.602935,41.03,48.839241,0.0014923510087557158,-0.022982261414192504,0.09794820946898543,36.09446859390736,-100.26678939585686,76.200527287817
2024-09-23 20:16:32.614659,41.03,48.839241,0.00034821073540793035,-0.023181236725942318,0.09869439157141822,36.09446859390736,-100.26678939585686,76.200527287817
2024-09-23 20:16:32.656578,41.03,48.839292,0.0010943914612681128,-0.0228827638849692,0.09869439157141822,36.09446859390736,-96.25519929585457,72.1922225099802
2024-09-23 20:16:32.668291,41.03,48.839292,0.0010943914612681128,-0.0228827638849692,0.0973015264147526,36.09446859390736,-96.25519929585457,72.1922225099802
2024-09-23 20:16:32.701098,41.03,48.839292,0.0010943914612681128,-0.0228827638849692,0.0973015264147526,48.12595698684454,-92.24360919585227,76.200527287817
2024-09-23 20:16:32.712608,41.03,48.839343,0.0004974468710863627,-0.022733528983459317,0.0973015264147526,48.12595698684454,-92.24360919585227,76.200527287817
2024-09-23 20:16:32.755485,41.03,48.839393,0.0012436275969465451,-0.022733528983459317,0.09779897304849887,48.12595698684454,-92.24360919585227,80.21211738781929
2024-09-23 20:16:32.798184,41.03,48.839393,0.0012436275969465451,-0.023181236725942318,0.0973512698629459,28.07457030097246,-92.24360919585227,80.21211738781929
2024-09-23 20:16:32.809906,41.03,48.83948,0.0012436275969465451,-0.023181236725942318,0.0973512698629459,28.07457030097246,-92.24360919585227,76.200527287817
2024-09-23 20:16:32.853151,41.03,48.83948,0.000845657606494293,-0.022833026512682618,0.09725178296655933,36.09446859390736,-96.25519929585457,76.200527287817
2024-09-23 20:16:32.895284,41.03,48.839531,0.0005969341946851222,-0.022833026512682618,0.09725178296655933,36.09446859390736,-96.25519929585457,76.200527287817
2024-09-23 20:16:32.906696,41.03,48.839531,0.0005969341946851222,-0.022833026512682618,0.0973015264147526,40.106058693909645,-96.25519929585457,76.200527287817
2024-09-23 20:16:32.950738,41.03,48.839582,0.00029846189959424716,-0.023579196463302005,0.098047696365372,56.14914060194492,-96.25519929585457,72.1922225099802
2024-09-23 20:16:32.993728,41.03,48.839632,0.00029846189959424716,-0.023579196463302005,0.098047696365372,56.14914060194492,-96.25519929585457,76.200527287817
2024-09-23 20:16:33.004998,41.03,48.839632,0.0008954064660419869,-0.023479709566915436,0.09779897304849887,56.14914060194492,-96.25519929585457,76.200527287817
2024-09-23 20:16:33.048010,41.03,48.839632,0.0008954064660419869,-0.023479709566915436,0.09779897304849887,40.106058693909645,-100.26678939585686,76.200527287817
2024-09-23 20:16:33.091392,41.12,48.839683,0.0009451553255896806,-0.023479709566915436,0.09779897304849887,40.106058693909645,-100.26678939585686,68.18063240997792
2024-09-23 20:16:33.102907,41.12,48.839683,0.0009451553255896806,-0.023479709566915436,0.0973512698629459,36.09446859390736,-100.26678939585686,68.18063240997792
2024-09-23 20:16:33.145200,41.12,48.839734,0.0006964318663124887,-0.02338022115155219,0.09745075675933246,36.09446859390736,-92.24360919585227,72.1922225099802
2024-09-23 20:16:33.188598,41.12,48.839734,0.0006964318663124887,-0.02338022115155219,0.09745075675933246,40.106058693909645,-92.24360919585227,72.1922225099802
2024-09-23 20:16:33.200456,41.12,48.839821,0.0007959191899112484,-0.023230986250042305,0.09745075675933246,40.106058693909645,-92.24360919585227,72.1922225099802
2024-09-23 20:16:33.234860,41.12,48.839821,0.0007959191899112484,-0.023230986250042305,0.09814718933766527,40.106058693909645,-92.24360919585227,72.1922225099802
2024-09-23 20:16:33.245805,41.12,48.839872,0.0005471957306340564,-0.023230986250042305,0.09814718933766527,48.12595698684454,-96.25519929585457,68.18063240997792
2024-09-23 20:16:33.288889,41.12,48.839872,0.0005471957306340564,-0.02303200030545576,0.09764974270391902,48.12595698684454,-88.23529758782387,72.1922225099802
2024-09-23 20:16:33.300866,41.12,48.839923,0.0005471957306340564,-0.02303200030545576,0.09764974270391902,48.12595698684454,-88.23529758782387,72.1922225099802
2024-09-23 20:16:33.333429,41.12,48.839923,0.0009451553255896806,-0.022982261414192504,0.09764974270391902,48.12595698684454,-88.23529758782387,72.1922225099802
2024-09-23 20:16:33.345179,41.12,48.839923,0.0009451553255896806,-0.022982261414192504,0.09725178296655933,36.09446859390736,-92.24360919585227,76.200527287817
2024-09-23 20:16:33.387262,41.12,48.840016,0.00044769805900669,-0.023429960042815445,0.09715228999426605,44.11764879391193,-92.24360919585227,76.200527287817
2024-09-23 20:16:33.399050,41.12,48.840016,0.00044769805900669,-0.023429960042815445,0.09715228999426605,44.11764879391193,-96.25519929585457,76.200527287817
2024-09-23 20:16:33.430815,41.12,48.840068,0.00044769805900669,-0.023429960042815445,0.09715228999426605,44.11764879391193,-96.25519929585457,72.1922225099802
2024-09-23 20:16:33.442772,41.12,48.840068,0.0006466830067647949,-0.023230986250042305,0.09779897304849887,40.106058693909645,-96.25519929585457,72.1922225099802
2024-09-23 20:16:33.485725,41.12,48.840118,0.0013431148730772837,-0.0225345536717095,0.09814718933766527,40.106058693909645,-88.23529758782387,72.1922225099802
2024-09-23 20:16:33.528179,41.12,48.840118,0.0013431148730772837,-0.0225345536717095,0.09814718933766527,36.09446859390736,-88.23529758782387,72.1922225099802
2024-09-23 20:16:33.539973,41.12,48.840169,0.0004974468710863627,-0.023230986250042305,0.09814718933766527,36.09446859390736,-88.23529758782387,76.200527287817
2024-09-23 20:16:33.583359,41.12,48.84022,0.0001989745997294981,-0.023230986250042305,0.09750050628343246,60.15744537978172,-88.23529758782387,76.200527287817
2024-09-23 20:16:33.625357,41.12,48.84022,0.0001989745997294981,-0.02367869399252531,0.09755024973162574,60.15744537978172,-88.23529758782387,76.200527287817
2024-09-23 20:16:33.636879,41.12,48.840308,0.0001989745997294981,-0.02367869399252531,0.09755024973162574,24.06297849342227,-92.24360919585227,76.200527287817
2024-09-23 20:16:33.678457,41.12,48.840308,0.0009948937421727254,-0.02308174982955575,0.09750050628343246,24.06297849342227,-92.24360919585227,76.200527287817
2024-09-23 20:16:33.690851,41.12,48.840308,0.0009948937421727254,-0.02308174982955575,0.09750050628343246,24.06297849342227,-92.24360919585227,76.200527287817
2024-09-23 20:16:33.723211,41.12,48.84036,0.001044642601720419,-0.02308174982955575,0.09750050628343246,24.06297849342227,-92.24360919585227,76.200527287817
2024-09-23 20:16:33.734627,41.12,48.84036,0.001044642601720419,-0.02313149783467906,0.09685382322919964,44.11764879391193,-88.23529758782387,76.200527287817
2024-09-23 20:16:33.777133,41.12,48.840411,0.0008954064660419869,-0.023330473146428877,0.09750050628343246,44.11764879391193,-88.23529758782387,80.21211738781929
2024-09-23 20:16:33.789106,41.12,48.840411,0.0008954064660419869,-0.023330473146428877,0.09750050628343246,40.106058693909645,-88.23529758782387,80.21211738781929
2024-09-23 20:16:33.821592,41.12,48.840461,0.0008954064660419869,-0.023330473146428877,0.09750050628343246,40.106058693909645,-92.24360919585227,80.21211738781929
2024-09-23 20:16:33.832707,41.12,48.840461,0.0011441298778511575,-0.02313149783467906,0.09715228999426605,40.106058693909645,-92.24360919585227,80.21211738781929
2024-09-23 20:16:33.875051,41.12,48.840512,0.0011938787373988514,-0.023479709566915436,0.09715228999426605,36.09446859390736,-92.24360919585227,76.200527287817
2024-09-23 20:16:33.918325,41.12,48.840512,0.0011938787373988514,-0.023479709566915436,0.09774922960030558,44.11764879391193,-92.24360919585227,76.200527287817
2024-09-23 20:16:33.930531,41.12,48.840563,0.0007461703303635545,-0.023479709566915436,0.09774922960030558,44.11764879391193,-96.25519929585457,76.200527287817
2024-09-23 20:16:33.974085,41.12,48.84065,0.0007461703303635545,-0.023181236725942318,0.09725178296655933,40.106058693909645,-92.24360919585227,76.200527287817
2024-09-23 20:16:34.016047,41.12,48.84065,0.0008954064660419869,-0.023230986250042305,0.09725178296655933,40.106058693909645,-92.24360919585227,76.200527287817
2024-09-23 20:16:34.027840,41.12,48.84065,0.0008954064660419869,-0.023230986250042305,0.0973512698629459,44.11764879391193,-96.25519929585457,80.21211738781929
2024-09-23 20:16:34.070679,41.12,48.840701,0.0009948937421727254,-0.02352945757203875,0.09740101331113918,44.11764879391193,-96.25519929585457,80.21211738781929
2024-09-23 20:16:34.083184,41.12,48.840701,0.0009948937421727254,-0.02352945757203875,0.09740101331113918,44.11764879391193,-96.25519929585457,80.21211738781929
2024-09-23 20:16:34.115518,41.62,48.840752,0.0007959191899112484,-0.02352945757203875,0.09740101331113918,44.11764879391193,-96.25519929585457,80.21211738781929
2024-09-23 20:16:34.127159,41.62,48.840752,0.0007959191899112484,-0.02367869399252531,0.09789846602079214,44.11764879391193,-96.25519929585457,80.21211738781929
2024-09-23 20:16:34.169455,41.62,48.840803,0.0001989745997294981,-0.02338022115155219,0.09745075675933246,44.11764879391193,-96.25519929585457,76.200527287817
2024-09-23 20:16:34.214188,41.62,48.840853,0.0001989745997294981,-0.02338022115155219,0.09745075675933246,40.106058693909645,-96.25519929585457,80.21211738781929
2024-09-23 20:16:34.226704,41.62,48.840853,0.0007461703303635545,-0.023330473146428877,0.09745075675933246,40.106058693909645,-96.25519929585457,80.21211738781929
2024-09-23 20:16:34.258848,41.62,48.840853,0.0007461703303635545,-0.023330473146428877,0.09774922960030558,44.11764879391193,-96.25519929585457,80.21211738781929
2024-09-23 20:16:34.270464,41.62,48.840904,0.0006964318663124887,-0.023330473146428877,0.09774922960030558,44.11764879391193,-96.25519929585457,76.200527287817
2024-09-23 20:16:34.313254,41.62,48.840904,0.0006964318663124887,-0.023181236725942318,0.09755024973162574,40.106058693909645,-84.22370748782159,76.200527287817
2024-09-23 20:16:34.326139,41.62,48.840991,0.0006964318663124887,-0.023181236725942318,0.09755024973162574,40.106058693909645,-84.22370748782159,76.200527287817
2024-09-23 20:16:34.358617,41.62,48.840991,0.0007461703303635545,-0.023280723622328886,0.09715228999426605,40.106058693909645,-84.22370748782159,76.200527287817
2024-09-23 20:16:34.370187,41.62,48.840991,0.0007461703303635545,-0.023280723622328886,0.09715228999426605,52.137550501942634,-92.24360919585227,80.21211738781929
2024-09-23 20:16:34.412669,41.62,48.841042,0.0010943914612681128,-0.02367869399252531,0.09685382322919964,44.11764879391193,-92.24360919585227,80.21211738781929
2024-09-23 20:16:34.456243,41.62,48.841093,0.000845657606494293,-0.02367869399252531,0.09685382322919964,44.11764879391193,-92.24360919585227,76.200527287817
2024-09-23 20:16:34.467461,41.62,48.841093,0.000845657606494293,-0.023230986250042305,0.0973512698629459,44.11764879391193,-92.24360919585227,76.200527287817
2024-09-23 20:16:34.509634,41.62,48.841144,0.0007461703303635545,-0.02313149783467906,0.0973015264147526,44.11764879391193,-92.24360919585227,72.1922225099802
2024-09-23 20:16:34.551873,41.62,48.841144,0.0007461703303635545,-0.02313149783467906,0.0973015264147526,44.11764879391193,-100.26678939585686,72.1922225099802
2024-09-23 20:16:34.563156,41.62,48.841194,0.0011441298778511575,-0.023230986250042305,0.0973015264147526,44.11764879391193,-100.26678939585686,80.21211738781929
2024-09-23 20:16:34.605771,41.62,48.841245,0.0011441298778511575,-0.023230986250042305,0.09745075675933246,36.09446859390736,-100.26678939585686,76.200527287817
2024-09-23 20:16:34.617808,41.62,48.841245,0.0004974468710863627,-0.023230986250042305,0.09745075675933246,36.09446859390736,-100.26678939585686,76.200527287817
2024-09-23 20:16:34.651019,41.62,48.841245,0.0004974468710863627,-0.022733528983459317,0.09725178296655933,44.11764879391193,-100.26678939585686,76.200527287817
2024-09-23 20:16:34.662719,41.62,48.841332,0.0004974468710863627,-0.022733528983459317,0.09725178296655933,44.11764879391193,-92.24360919585227,76.200527287817
2024-09-23 20:16:34.706158,41.62,48.841332,0.0005471957306340564,-0.022982261414192504,0.0973512698629459,40.106058693909645,-92.24360919585227,76.200527287817
2024-09-23 20:16:34.748319,41.62,48.841384,0.0009948937421727254,-0.02303200030545576,0.0973512698629459,40.106058693909645,-92.24360919585227,76.200527287817
2024-09-23 20:16:34.760116,41.62,48.841384,0.0009948937421727254,-0.02303200030545576,0.09789846602079214,36.09446859390736,-92.24360919585227,76.200527287817
2024-09-23 20:16:34.803081,41.62,48.841434,0.0007461703303635545,-0.02313149783467906,0.0976994861521123,40.106058693909645,-92.24360919585227,80.21211738781929
2024-09-23 20:16:34.846252,41.62,48.841485,0.0007461703303635545,-0.02313149783467906,0.0976994861521123,40.106058693909645,-92.24360919585227,80.21211738781929
2024-09-23 20:16:34.857864,41.62,48.841485,0.0007959191899112484,-0.02278327698858263,0.09740101331113918,40.106058693909645,-92.24360919585227,80.21211738781929
2024-09-23 20:16:34.900539,41.62,48.841536,0.0006964318663124887,-0.02303200030545576,0.09740101331113918,44.11764879391193,-92.24360919585227,80.21211738781929
2024-09-23 20:16:34.943763,41.62,48.841536,0.0006964318663124887,-0.02303200030545576,0.09789846602079214,44.11764879391193,-92.24360919585227,80.21211738781929
2024-09-23 20:16:34.955389,41.62,48.841586,0.0005969341946851222,-0.02303200030545576,0.09789846602079214,44.11764879391193,-92.24360919585227,76.200527287817
2024-09-23 20:16:34.997803,41.62,48.841673,0.0005969341946851222,-0.023429960042815445,0.09665483728461309,36.09446859390736,-96.25519929585457,80.21211738781929
2024-09-23 20:16:35.041596,41.62,48.841673,0.0011938787373988514,-0.022833026512682618,0.0973015264147526,36.09446859390736,-96.25519929585457,80.21211738781929
2024-09-23 20:16:35.052843,41.62,48.841673,0.0011938787373988514,-0.022833026512682618,0.0973015264147526,44.11764879391193,-96.25519929585457,80.21211738781929
2024-09-23 20:16:35.137807,41.73,48.841725,0.0005471957306340564,-0.022833026512682618,0.0973015264147526,44.11764879391193,-96.25519929585457,80.21211738781929
2024-09-23 20:16:35.148878,41.73,48.841725,0.0005471957306340564,-0.02303200030545576,0.09710254654607277,44.11764879391193,-92.24360919585227,80.21211738781929
2024-09-23 20:16:35.190855,41.73,48.841776,0.0006466830067647949,-0.02303200030545576,0.09759999317981902,44.11764879391193,-92.24360919585227,80.21211738781929
2024-09-23 20:16:35.203020,41.73,48.841776,0.0006466830067647949,-0.02303200030545576,0.09759999317981902,44.11764879391193,-92.24360919585227,80.21211738781929
2024-09-23 20:16:35.234858,41.73,48.841776,0.0006466830067647949,-0.02303200030545576,0.09759999317981902,44.11764879391193,-92.24360919585227,76.200527287817
2024-09-23 20:16:35.245810,41.73,48.841826,0.0007959191899112484,-0.02338022115155219,0.09710254654607277,44.11764879391193,-92.24360919585227,76.200527287817
2024-09-23 20:16:35.287812,41.73,48.841877,0.0010943914612681128,-0.02338022115155219,0.09710254654607277,52.137550501942634,-100.26678939585686,76.200527287817
2024-09-23 20:16:35.299309,41.73,48.841877,0.0010943914612681128,-0.023479709566915436,0.09710254654607277,52.137550501942634,-100.26678939585686,76.200527287817
2024-09-23 20:16:35.332845,41.73,48.841877,0.0010943914612681128,-0.023479709566915436,0.0973512698629459,44.11764879391193,-100.26678939585686,76.200527287817
2024-09-23 20:16:35.344022,41.73,48.841928,0.0006466830067647949,-0.023479709566915436,0.0973512698629459,44.11764879391193,-92.24360919585227,80.21211738781929
2024-09-23 20:16:35.386536,41.73,48.841928,0.0006466830067647949,-0.02293251340906919,0.09774922960030558,48.12595698684454,-100.26678939585686,80.21211738781929
2024-09-23 20:16:35.398405,41.73,48.842063,0.0006466830067647949,-0.02293251340906919,0.09774922960030558,48.12595698684454,-100.26678939585686,72.1922225099802
2024-09-23 20:16:35.431575,41.73,48.842063,0.0008954064660419869,-0.02313149783467906,0.09789846602079214,48.12595698684454,-100.26678939585686,72.1922225099802
2024-09-23 20:16:35.443637,41.73,48.842063,0.0008954064660419869,-0.02313149783467906,0.09789846602079214,44.11764879391193,-96.25519929585457,76.200527287817
2024-09-23 20:16:35.476181,41.73,48.842115,0.0008954064660419869,-0.02313149783467906,0.09789846602079214,44.11764879391193,-96.25519929585457,76.200527287817
2024-09-23 20:16:35.487265,41.73,48.842115,0.0006466830067647949,-0.023280723622328886,0.09755024973162574,44.11764879391193,-92.24360919585227,76.200527287817
2024-09-23 20:16:35.530058,41.73,48.842166,0.0003979595949556242,-0.0228827638849692,0.09755024973162574,44.11764879391193,-92.24360919585227,76.200527287817
2024-09-23 20:16:35.541467,41.73,48.842166,0.0003979595949556242,-0.0228827638849692,0.09715228999426605,44.11764879391193,-92.24360919585227,76.200527287817
2024-09-23 20:16:35.575004,41.73,48.842166,0.0003979595949556242,-0.0228827638849692,0.09715228999426605,44.11764879391193,-84.22370748782159,76.200527287817
2024-09-23 20:16:35.586159,41.73,48.842216,0.0007959191899112484,-0.02303200030545576,0.09750050628343246,44.11764879391193,-84.22370748782159,76.200527287817
2024-09-23 20:16:35.628988,41.73,48.842267,0.0007461703303635545,-0.02303200030545576,0.09750050628343246,52.137550501942634,-88.23529758782387,84.22370748782159
2024-09-23 20:16:35.640703,41.73,48.842267,0.0007461703303635545,-0.022982261414192504,0.09750050628343246,52.137550501942634,-88.23529758782387,84.22370748782159
2024-09-23 20:16:35.672556,41.73,48.842267,0.0007461703303635545,-0.022982261414192504,0.09685382322919964,40.106058693909645,-88.23529758782387,84.22370748782159
2024-09-23 20:16:35.684705,41.73,48.842267,0.0007461703303635545,-0.022982261414192504,0.09685382322919964,40.106058693909645,-100.26678939585686,84.22370748782159
2024-09-23 20:16:35.727493,41.73,48.842318,0.001044642601720419,-0.023280723622328886,0.09759999317981902,40.106058693909645,-100.26678939585686,76.200527287817
2024-09-23 20:16:35.739445,41.73,48.842318,0.001044642601720419,-0.023280723622328886,0.09759999317981902,44.11764879391193,-100.26678939585686,76.200527287817
2024-09-23 20:16:35.771512,41.73,48.842318,0.001044642601720419,-0.023280723622328886,0.09759999317981902,44.11764879391193,-92.24360919585227,80.21211738781929
2024-09-23 20:16:35.783306,41.73,48.842405,0.0013431148730772837,-0.02352945757203875,0.09779897304849887,44.11764879391193,-92.24360919585227,80.21211738781929
2024-09-23 20:16:35.826440,41.73,48.842456,0.0006964318663124887,-0.023181236725942318,0.09779897304849887,44.11764879391193,-92.24360919585227,84.22370748782159
2024-09-23 20:16:35.868851,41.73,48.842456,0.0006964318663124887,-0.023181236725942318,0.0973015264147526,40.106058693909645,-92.24360919585227,84.22370748782159
2024-09-23 20:16:35.880384,41.73,48.842507,0.0007959191899112484,-0.023181236725942318,0.0973015264147526,40.106058693909645,-96.25519929585457,76.200527287817
2024-09-23 20:16:35.922514,41.73,48.842507,0.0007959191899112484,-0.0228827638849692,0.09725178296655933,36.09446859390736,-88.23529758782387,76.200527287817
2024-09-23 20:16:35.934365,41.73,48.8426,0.0007959191899112484,-0.0228827638849692,0.09725178296655933,36.09446859390736,-88.23529758782387,76.200527287817
2024-09-23 20:16:35.967319,41.73,48.8426,0.0005969341946851222,-0.023230986250042305,0.09774922960030558,36.09446859390736,-88.23529758782387,76.200527287817
2024-09-23 20:16:35.978909,41.73,48.8426,0.0005969341946851222,-0.023230986250042305,0.09774922960030558,44.11764879391193,-100.26678939585686,72.1922225099802
2024-09-23 20:16:36.021698,41.73,48.842651,0.0005471957306340564,-0.023579196463302005,0.0973015264147526,44.11764879391193,-92.24360919585227,72.1922225099802
2024-09-23 20:16:36.064253,41.73,48.842702,0.0010943914612681128,-0.023579196463302005,0.0973015264147526,44.11764879391193,-92.24360919585227,72.1922225099802
2024-09-23 20:16:36.075489,41.73,48.842702,0.0010943914612681128,-0.022982261414192504,0.09715228999426605,44.11764879391193,-92.24360919585227,72.1922225099802
2024-09-23 20:16:36.117803,41.73,48.842752,0.0006964318663124887,-0.0228827638849692,0.09715228999426605,44.11764879391193,-96.25519929585457,80.21211738781929
2024-09-23 20:16:36.129603,41.73,48.842752,0.0006964318663124887,-0.0228827638849692,0.09809744588947199,44.11764879391193,-96.25519929585457,80.21211738781929
2024-09-23 20:16:36.162999,42.39,48.842752,0.0006964318663124887,-0.0228827638849692,0.09809744588947199,40.106058693909645,-96.25519929585457,76.200527287817
2024-09-23 20:16:36.174110,42.39,48.842803,0.0012436275969465451,-0.02367869399252531,0.09809744588947199,40.106058693909645,-96.25519929585457,76.200527287817
2024-09-23 20:16:36.216917,42.39,48.842854,0.0012436275969465451,-0.02367869399252531,0.09799795899308542,40.106058693909645,-92.24360919585227,76.200527287817
2024-09-23 20:16:36.259016,42.39,48.842854,0.0010943914612681128,-0.02367869399252531,0.09799795899308542,40.106058693909645,-92.24360919585227,76.200527287817
2024-09-23 20:16:36.312005,42.39,48.842854,0.0010943914612681128,-0.023330473146428877,0.09774922960030558,36.09446859390736,-92.24360919585227,76.200527287817
2024-09-23 20:16:36.324882,42.39,48.842941,0.0010943914612681128,-0.023330473146428877,0.09774922960030558,36.09446859390736,-92.24360919585227,72.1922225099802
2024-09-23 20:16:36.357230,42.39,48.842941,0.00044769805900669,-0.02313149783467906,0.09720203344245934,36.09446859390736,-92.24360919585227,72.1922225099802
2024-09-23 20:16:36.368929,42.39,48.842941,0.00044769805900669,-0.02313149783467906,0.09720203344245934,48.12595698684454,-92.24360919585227,80.21211738781929
2024-09-23 20:16:36.411495,42.39,48.842992,0.0006964318663124887,-0.023429960042815445,0.09774922960030558,44.11764879391193,-92.24360919585227,80.21211738781929
2024-09-23 20:16:36.453566,42.39,48.843043,0.0006964318663124887,-0.023429960042815445,0.09774922960030558,44.11764879391193,-92.24360919585227,72.1922225099802
2024-09-23 20:16:36.464850,42.39,48.843043,0.0005471957306340564,-0.023330473146428877,0.09695331012558621,32.08287849390507,-92.24360919585227,72.1922225099802
2024-09-23 20:16:36.507131,42.39,48.843094,0.0004974468710863627,-0.023280723622328886,0.09695331012558621,32.08287849390507,-96.25519929585457,72.1922225099802
2024-09-23 20:16:36.519085,42.39,48.843094,0.0004974468710863627,-0.023280723622328886,0.09715228999426605,32.08287849390507,-96.25519929585457,72.1922225099802
2024-09-23 20:16:36.551053,42.39,48.843094,0.0004974468710863627,-0.023280723622328886,0.09715228999426605,52.137550501942634,-88.23529758782387,72.1922225099802
2024-09-23 20:16:36.562042,42.39,48.843187,0.0006964318663124887,-0.02352945757203875,0.09715228999426605,52.137550501942634,-88.23529758782387,80.21211738781929
2024-09-23 20:16:36.604702,42.39,48.843238,0.0006964318663124887,-0.02352945757203875,0.09755024973162574,44.11764879391193,-92.24360919585227,80.21211738781929
2024-09-23 20:16:36.616416,42.39,48.843238,0.0003979595949556242,-0.02352945757203875,0.09755024973162574,44.11764879391193,-92.24360919585227,80.21211738781929
2024-09-23 20:16:36.648597,42.39,48.843238,0.0003979595949556242,-0.022982261414192504,0.09740101331113918,44.11764879391193,-92.24360919585227,80.21211738781929
2024-09-23 20:16:36.660359,42.39,48.843331,0.0003979595949556242,-0.022982261414192504,0.09740101331113918,44.11764879391193,-96.25519929585457,76.200527287817
2024-09-23 20:16:36.703375,42.39,48.843331,0.000845657606494293,-0.023479709566915436,0.09740101331113918,40.106058693909645,-96.25519929585457,80.21211738781929
2024-09-23 20:16:36.745897,42.39,48.843382,0.0012436275969465451,-0.023479709566915436,0.09740101331113918,40.106058693909645,-96.25519929585457,80.21211738781929
2024-09-23 20:16:36.757992,42.39,48.843382,0.0012436275969465451,-0.023479709566915436,0.09759999317981902,40.106058693909645,-92.24360919585227,80.21211738781929
2024-09-23 20:16:36.801916,42.39,48.843433,0.0011938787373988514,-0.02352945757203875,0.09680407370509965,40.106058693909645,-92.24360919585227,72.1922225099802
2024-09-23 20:16:36.844791,42.39,48.843484,0.0011938787373988514,-0.02352945757203875,0.09680407370509965,40.106058693909645,-92.24360919585227,76.200527287817
2024-09-23 20:16:36.857342,42.39,48.843484,0.0005969341946851222,-0.0228827638849692,0.09784872257259886,40.106058693909645,-92.24360919585227,76.200527287817
2024-09-23 20:16:36.889443,42.39,48.843484,0.0005969341946851222,-0.0228827638849692,0.09784872257259886,36.09446859390736,-92.24360919585227,76.200527287817
2024-09-23 20:16:36.900759,42.39,48.843534,0.0006964318663124887,-0.023778180888911878,0.09784872257259886,36.09446859390736,-92.24360919585227,76.200527287817
2024-09-23 20:16:36.943203,42.39,48.843534,0.0006964318663124887,-0.023778180888911878,0.09740101331113918,48.12595698684454,-96.25519929585457,76.200527287817
2024-09-23 20:16:36.954970,42.39,48.843585,-0.00014922575204880957,-0.023778180888911878,0.09740101331113918,48.12595698684454,-96.25519929585457,76.200527287817
2024-09-23 20:16:36.987147,42.39,48.843585,-0.00014922575204880957,-0.0228827638849692,0.09740101331113918,48.12595698684454,-96.25519929585457,76.200527287817
2024-09-23 20:16:36.998732,42.39,48.843672,-0.00014922575204880957,-0.0228827638849692,0.09720203344245934,44.11764879391193,-96.25519929585457,76.200527287817
2024-09-23 20:16:37.040816,42.39,48.843672,0.0007461703303635545,-0.02293251340906919,0.09774922960030558,40.106058693909645,-96.25519929585457,76.200527287817
2024-09-23 20:16:37.052417,42.39,48.843672,0.0007461703303635545,-0.02293251340906919,0.09774922960030558,40.106058693909645,-92.24360919585227,76.200527287817
2024-09-23 20:16:37.095973,42.39,48.843724,0.0005969341946851222,-0.023230986250042305,0.09755024973162574,52.137550501942634,-92.24360919585227,76.200527287817
2024-09-23 20:16:37.138553,42.39,48.843774,0.0006964318663124887,-0.02268379009219606,0.09755024973162574,52.137550501942634,-92.24360919585227,76.200527287817
2024-09-23 20:16:37.150178,42.39,48.843774,0.0006964318663124887,-0.02268379009219606,0.09799795899308542,52.137550501942634,-92.24360919585227,76.200527287817
2024-09-23 20:16:37.182405,42.42,48.843774,0.0006964318663124887,-0.02268379009219606,0.09799795899308542,52.137550501942634,-96.25519929585457,76.200527287817
2024-09-23 20:16:37.194245,42.42,48.843825,0.0007461703303635545,-0.022733528983459317,0.09755024973162574,52.137550501942634,-96.25519929585457,72.1922225099802
2024-09-23 20:16:37.236068,42.42,48.843825,0.0007461703303635545,-0.022733528983459317,0.09755024973162574,40.106058693909645,-92.24360919585227,76.200527287817
2024-09-23 20:16:37.247366,42.42,48.843876,0.0008954064660419869,-0.023280723622328886,0.09755024973162574,40.106058693909645,-92.24360919585227,76.200527287817
2024-09-23 20:16:37.281234,42.42,48.843876,0.0008954064660419869,-0.023280723622328886,0.09745075675933246,40.106058693909645,-92.24360919585227,76.200527287817
2024-09-23 20:16:37.293103,42.42,48.843926,0.0011441298778511575,-0.023280723622328886,0.09745075675933246,40.106058693909645,-100.26678939585686,72.1922225099802
2024-09-23 20:16:37.336587,42.42,48.843926,0.0011441298778511575,-0.022982261414192504,0.09725178296655933,52.137550501942634,-96.25519929585457,76.200527287817
2024-09-23 20:16:37.349116,42.42,48.844013,0.0011441298778511575,-0.022982261414192504,0.09725178296655933,52.137550501942634,-96.25519929585457,76.200527287817
2024-09-23 20:16:37.381360,42.42,48.844013,0.0013431148730772837,-0.02293251340906919,0.09784872257259886,52.137550501942634,-96.25519929585457,76.200527287817
2024-09-23 20:16:37.392671,42.42,48.844013,0.0013431148730772837,-0.02293251340906919,0.09784872257259886,44.11764879391193,-92.24360919585227,72.1922225099802
2024-09-23 20:16:37.435432,42.42,48.844065,0.000845657606494293,-0.023181236725942318,0.09715228999426605,32.08287849390507,-96.25519929585457,72.1922225099802
2024-09-23 20:16:37.477227,42.42,48.844116,0.000845657606494293,-0.023181236725942318,0.09715228999426605,32.08287849390507,-96.25519929585457,72.1922225099802
2024-09-23 20:16:37.489419,42.42,48.844116,0.001044642601720419,-0.0228827638849692,0.09814718933766527,36.09446859390736,-96.25519929585457,72.1922225099802
2024-09-23 20:16:37.532773,42.42,48.844166,0.0012436275969465451,-0.02218633282561307,0.09814718933766527,36.09446859390736,-96.25519929585457,72.1922225099802
2024-09-23 20:16:37.544929,42.42,48.844166,0.0012436275969465451,-0.02218633282561307,0.0973015264147526,36.09446859390736,-96.25519929585457,72.1922225099802
2024-09-23 20:16:37.576624,42.42,48.844166,0.0012436275969465451,-0.02218633282561307,0.0973015264147526,44.11764879391193,-96.25519929585457,76.200527287817
2024-09-23 20:16:37.587820,42.42,48.844217,0.0012436275969465451,-0.02308174982955575,0.0973015264147526,44.11764879391193,-96.25519929585457,76.200527287817
2024-09-23 20:16:37.631579,42.42,48.844268,0.0004974468710863627,-0.02308174982955575,0.09720203344245934,36.09446859390736,-88.23529758782387,80.21211738781929
2024-09-23 20:16:37.674503,42.42,48.844268,0.0004974468710863627,-0.022982261414192504,0.0973015264147526,44.11764879391193,-88.23529758782387,80.21211738781929
2024-09-23 20:16:37.685852,42.42,48.844355,0.0004974468710863627,-0.022982261414192504,0.0973015264147526,44.11764879391193,-104.27510100388527,76.200527287817
2024-09-23 20:16:37.727922,42.42,48.844355,0.0005471957306340564,-0.023579196463302005,0.09759999317981902,48.12595698684454,-100.26678939585686,72.1922225099802
2024-09-23 20:16:37.770722,42.42,48.844406,0.0005471957306340564,-0.022982261414192504,0.09759999317981902,48.12595698684454,-100.26678939585686,72.1922225099802
2024-09-23 20:16:37.781848,42.42,48.844406,0.0005471957306340564,-0.022982261414192504,0.09750050628343246,32.08287849390507,-88.23529758782387,72.1922225099802
2024-09-23 20:16:37.824270,42.42,48.844457,0.0012436275969465451,-0.023230986250042305,0.0973015264147526,40.106058693909645,-88.23529758782387,76.200527287817
2024-09-23 20:16:37.866815,42.42,48.844457,0.0012436275969465451,-0.023230986250042305,0.0973015264147526,40.106058693909645,-100.26678939585686,80.21211738781929
2024-09-23 20:16:37.878446,42.42,48.844508,0.00029846189959424716,-0.023230986250042305,0.09745075675933246,40.106058693909645,-100.26678939585686,80.21211738781929
2024-09-23 20:16:37.921632,42.42,48.844559,0.0006964318663124887,-0.023230986250042305,0.09745075675933246,44.11764879391193,-100.26678939585686,76.200527287817
2024-09-23 20:16:37.934167,42.42,48.844559,0.0006964318663124887,-0.0228827638849692,0.09745075675933246,44.11764879391193,-100.26678939585686,76.200527287817
2024-09-23 20:16:37.966407,42.42,48.844559,0.0006964318663124887,-0.0228827638849692,0.09774922960030558,40.106058693909645,-100.26678939585686,76.200527287817
2024-09-23 20:16:37.977642,42.42,48.844609,0.0009451553255896806,-0.0228827638849692,0.09774922960030558,40.106058693909645,-100.26678939585686,76.200527287817
2024-09-23 20:16:38.020611,42.42,48.844696,0.0009451553255896806,-0.02268379009219606,0.0973015264147526,44.11764879391193,-96.25519929585457,80.21211738781929
2024-09-23 20:16:38.063230,42.42,48.844696,0.0006466830067647949,-0.02313149783467906,0.09745075675933246,44.11764879391193,-96.25519929585457,80.21211738781929
2024-09-23 20:16:38.074310,42.42,48.844696,0.0006466830067647949,-0.02313149783467906,0.09745075675933246,44.11764879391193,-92.24360919585227,76.200527287817
2024-09-23 20:16:38.116275,42.42,48.844747,0.0007959191899112484,-0.02338022115155219,0.09720203344245934,40.106058693909645,-92.24360919585227,76.200527287817
2024-09-23 20:16:38.128252,42.42,48.844747,0.0007959191899112484,-0.02338022115155219,0.09720203344245934,40.106058693909645,-92.24360919585227,76.200527287817
2024-09-23 20:16:38.160564,42.42,48.844798,0.000845657606494293,-0.02338022115155219,0.09720203344245934,40.106058693909645,-92.24360919585227,80.21211738781929
2024-09-23 20:16:38.171596,42.42,48.844798,0.000845657606494293,-0.023579196463302005,0.09784872257259886,40.106058693909645,-92.24360919585227,80.21211738781929
2024-09-23 20:16:38.214094,42.66,48.844849,0.0005969341946851222,-0.022982261414192504,0.09750050628343246,40.106058693909645,-88.23529758782387,80.21211738781929
2024-09-23 20:16:38.257259,42.66,48.844849,0.0005969341946851222,-0.022982261414192504,0.09750050628343246,40.106058693909645,-96.25519929585457,80.21211738781929
2024-09-23 20:16:38.268686,42.66,48.844899,0.00044769805900669,-0.0224350561424862,0.09750050628343246,40.106058693909645,-96.25519929585457,76.200527287817
2024-09-23 20:16:38.310938,42.66,48.84495,0.00044769805900669,-0.0224350561424862,0.0970030596496862,44.11764879391193,-96.25519929585457,76.200527287817
2024-09-23 20:16:38.322820,42.66,48.84495,0.0007959191899112484,-0.0224350561424862,0.0970030596496862,44.11764879391193,-96.25519929585457,76.200527287817
2024-09-23 20:16:38.354533,42.66,48.84495,0.0007959191899112484,-0.02338022115155219,0.0970030596496862,44.11764879391193,-96.25519929585457,76.200527287817
2024-09-23 20:16:38.366408,42.66,48.845037,0.0007959191899112484,-0.02338022115155219,0.09720203344245934,48.12595698684454,-96.25519929585457,80.21211738781929
2024-09-23 20:16:38.408996,42.66,48.845037,0.0008954064660419869,-0.02303200030545576,0.09745075675933246,40.106058693909645,-92.24360919585227,76.200527287817
2024-09-23 20:16:38.451457,42.66,48.845089,0.0007461703303635545,-0.02303200030545576,0.09745075675933246,40.106058693909645,-92.24360919585227,76.200527287817
2024-09-23 20:16:38.463159,42.66,48.845089,0.0007461703303635545,-0.023280723622328886,0.09745075675933246,40.106058693909645,-92.24360919585227,76.200527287817
2024-09-23 20:16:38.505621,42.66,48.845139,0.0007461703303635545,-0.023280723622328886,0.09745075675933246,40.106058693909645,-96.25519929585457,72.1922225099802
2024-09-23 20:16:38.517822,42.66,48.845139,0.0006466830067647949,-0.023280723622328886,0.09745075675933246,40.106058693909645,-96.25519929585457,72.1922225099802
2024-09-23 20:16:38.549759,42.66,48.845139,0.0006466830067647949,-0.023330473146428877,0.09680407370509965,40.106058693909645,-96.25519929585457,72.1922225099802
2024-09-23 20:16:38.561362,42.66,48.84519,0.0006466830067647949,-0.023330473146428877,0.09680407370509965,36.09446859390736,-92.24360919585227,76.200527287817
2024-09-23 20:16:38.603814,42.66,48.84519,0.0008954064660419869,-0.023479709566915436,0.09779897304849887,40.106058693909645,-80.21211738781929,76.200527287817
2024-09-23 20:16:38.615264,42.66,48.84519,0.0008954064660419869,-0.023479709566915436,0.09779897304849887,40.106058693909645,-80.21211738781929,80.21211738781929
2024-09-23 20:16:38.650309,42.66,48.845241,0.000845657606494293,-0.02313149783467906,0.09779897304849887,40.106058693909645,-80.21211738781929,80.21211738781929
2024-09-23 20:16:38.662178,42.66,48.845241,0.000845657606494293,-0.02313149783467906,0.0970030596496862,52.137550501942634,-92.24360919585227,80.21211738781929
2024-09-23 20:16:38.694274,42.66,48.845241,0.000845657606494293,-0.02313149783467906,0.0970030596496862,52.137550501942634,-92.24360919585227,80.21211738781929
2024-09-23 20:16:38.705832,42.66,48.845291,0.0009451553255896806,-0.02338022115155219,0.09824668230995855,48.12595698684454,-92.24360919585227,80.21211738781929
2024-09-23 20:16:38.747495,42.66,48.84538,0.0006466830067647949,-0.02338022115155219,0.09824668230995855,48.12595698684454,-100.26678939585686,76.200527287817
2024-09-23 20:16:38.758958,42.66,48.84538,0.0006466830067647949,-0.02303200030545576,0.09779897304849887,48.12595698684454,-100.26678939585686,76.200527287817
2024-09-23 20:16:38.791089,42.66,48.84538,0.0006466830067647949,-0.02303200030545576,0.09779897304849887,44.11764879391193,-100.26678939585686,76.200527287817
2024-09-23 20:16:38.802265,42.66,48.845431,0.0004974468710863627,-0.023479709566915436,0.09779897304849887,44.11764879391193,-92.24360919585227,80.21211738781929
2024-09-23 20:16:38.845037,42.66,48.845431,0.0004974468710863627,-0.023479709566915436,0.0973015264147526,40.106058693909645,-92.24360919585227,80.21211738781929
2024-09-23 20:16:38.856123,42.66,48.845482,0.0008954064660419869,-0.023479709566915436,0.0973015264147526,40.106058693909645,-92.24360919585227,84.22370748782159
2024-09-23 20:16:38.890233,42.66,48.845482,0.0008954064660419869,-0.022733528983459317,0.0973015264147526,40.106058693909645,-92.24360919585227,84.22370748782159
2024-09-23 20:16:38.901854,42.66,48.845573,0.0008954064660419869,-0.022733528983459317,0.09755024973162574,52.137550501942634,-96.25519929585457,88.23529758782387
2024-09-23 20:16:38.944242,42.66,48.845573,0.0005471957306340564,-0.022982261414192504,0.09715228999426605,48.12595698684454,-96.25519929585457,88.23529758782387
2024-09-23 20:16:38.955316,42.66,48.845573,0.0005471957306340564,-0.022982261414192504,0.09715228999426605,48.12595698684454,-88.23529758782387,80.21211738781929
2024-09-23 20:16:38.986823,42.66,48.845626,0.0005471957306340564,-0.022982261414192504,0.09715228999426605,48.12595698684454,-88.23529758782387,80.21211738781929
2024-09-23 20:16:38.998667,42.66,48.845626,0.0007959191899112484,-0.022982261414192504,0.09715228999426605,48.12595698684454,-88.23529758782387,80.21211738781929
2024-09-23 20:16:39.042047,42.66,48.845626,0.0007959191899112484,-0.023181236725942318,0.09799795899308542,48.12595698684454,-92.24360919585227,76.200527287817
2024-09-23 20:16:39.053801,42.66,48.845676,0.0007959191899112484,-0.023181236725942318,0.09799795899308542,48.12595698684454,-92.24360919585227,76.200527287817
2024-09-23 20:16:39.086176,42.66,48.845676,0.0008954064660419869,-0.0228827638849692,0.09799795899308542,48.12595698684454,-92.24360919585227,76.200527287817
2024-09-23 20:16:39.097208,42.66,48.845676,0.0008954064660419869,-0.0228827638849692,0.09799795899308542,44.11764879391193,-88.23529758782387,72.1922225099802
2024-09-23 20:16:39.140810,42.66,48.845727,0.0006964318663124887,-0.023280723622328886,0.09774922960030558,36.09446859390736,-88.23529758782387,72.1922225099802
2024-09-23 20:16:39.152632,42.66,48.845727,0.0006964318663124887,-0.023280723622328886,0.09774922960030558,36.09446859390736,-88.23529758782387,72.1922225099802
2024-09-23 20:16:39.185279,42.66,48.845778,0.0005471957306340564,-0.023280723622328886,0.09774922960030558,36.09446859390736,-88.23529758782387,72.1922225099802
2024-09-23 20:16:39.197199,42.66,48.845778,0.0005471957306340564,-0.023330473146428877,0.09809744588947199,48.12595698684454,-88.23529758782387,72.1922225099802
2024-09-23 20:16:39.230665,43.11,48.845778,0.0005471957306340564,-0.023330473146428877,0.09809744588947199,48.12595698684454,-100.26678939585686,72.1922225099802
2024-09-23 20:16:39.242648,43.11,48.845828,0.0012436275969465451,-0.02313149783467906,0.09745075675933246,48.12595698684454,-100.26678939585686,76.200527287817
2024-09-23 20:16:39.284935,43.11,48.845917,0.0012436275969465451,-0.02313149783467906,0.09745075675933246,40.106058693909645,-100.26678939585686,84.22370748782159
2024-09-23 20:16:39.296579,43.11,48.845917,0.0005471957306340564,-0.023579196463302005,0.09745075675933246,40.106058693909645,-100.26678939585686,84.22370748782159
2024-09-23 20:16:39.329986,43.11,48.845917,0.0005471957306340564,-0.023579196463302005,0.09755024973162574,48.12595698684454,-100.26678939585686,84.22370748782159
2024-09-23 20:16:39.341615,43.11,48.845968,0.0011441298778511575,-0.023579196463302005,0.09755024973162574,48.12595698684454,-84.22370748782159,80.21211738781929
2024-09-23 20:16:39.385440,43.11,48.846061,0.0011441298778511575,-0.02313149783467906,0.09759999317981902,52.137550501942634,-96.25519929585457,76.200527287817
2024-09-23 20:16:39.428035,43.11,48.846061,0.0007959191899112484,-0.023429960042815445,0.09784872257259886,52.137550501942634,-96.25519929585457,76.200527287817
2024-09-23 20:16:39.439066,43.11,48.846061,0.0007959191899112484,-0.023429960042815445,0.09784872257259886,36.09446859390736,-88.23529758782387,76.200527287817
2024-09-23 20:16:39.482093,43.11,48.846112,0.0006964318663124887,-0.023429960042815445,0.09774922960030558,44.11764879391193,-88.23529758782387,76.200527287817
2024-09-23 20:16:39.494097,43.11,48.846112,0.0006964318663124887,-0.023429960042815445,0.09774922960030558,44.11764879391193,-96.25519929585457,76.200527287817
2024-09-23 20:16:39.526024,43.11,48.846163,0.0006964318663124887,-0.023429960042815445,0.09774922960030558,44.11764879391193,-96.25519929585457,76.200527287817
2024-09-23 20:16:39.579963,43.11,48.846214,0.0006964318663124887,-0.02313149783467906,0.0970030596496862,40.106058693909645,-104.27510100388527,76.200527287817
2024-09-23 20:16:39.622091,43.11,48.846214,0.0007959191899112484,-0.02268379009219606,0.0970030596496862,40.106058693909645,-104.27510100388527,76.200527287817
2024-09-23 20:16:39.634199,43.11,48.846214,0.0007959191899112484,-0.02268379009219606,0.09705279702197278,40.106058693909645,-88.23529758782387,72.1922225099802
2024-09-23 20:16:39.677666,43.11,48.846264,0.0007461703303635545,-0.02313149783467906,0.09784872257259886,52.137550501942634,-96.25519929585457,72.1922225099802
2024-09-23 20:16:39.719913,43.11,48.846315,0.0007461703303635545,-0.02313149783467906,0.09784872257259886,52.137550501942634,-96.25519929585457,76.200527287817
2024-09-23 20:16:39.730981,43.11,48.846315,0.00034821073540793035,-0.023479709566915436,0.0976994861521123,40.106058693909645,-96.25519929585457,76.200527287817
2024-09-23 20:16:39.773919,43.11,48.846402,0.00029846189959424716,-0.022733528983459317,0.09774922960030558,40.106058693909645,-96.25519929585457,76.200527287817
2024-09-23 20:16:39.816154,43.11,48.846402,0.00029846189959424716,-0.022733528983459317,0.09774922960030558,40.106058693909645,-96.25519929585457,76.200527287817
2024-09-23 20:16:39.827604,43.11,48.846454,0.000845657606494293,-0.023579196463302005,0.09774922960030558,40.106058693909645,-96.25519929585457,76.200527287817
2024-09-23 20:16:39.869670,43.11,48.846454,0.000845657606494293,-0.023579196463302005,0.09705279702197278,36.09446859390736,-96.25519929585457,72.1922225099802
2024-09-23 20:16:39.885934,43.11,48.846504,0.0009948937421727254,-0.023579196463302005,0.09705279702197278,36.09446859390736,-96.25519929585457,72.1922225099802
2024-09-23 20:16:39.919085,43.11,48.846504,0.0009948937421727254,-0.02313149783467906,0.09725178296655933,40.106058693909645,-96.25519929585457,76.200527287817
2024-09-23 20:16:39.930987,43.11,48.846597,0.0009948937421727254,-0.02313149783467906,0.09725178296655933,40.106058693909645,-96.25519929585457,76.200527287817
2024-09-23 20:16:39.964452,43.11,48.846597,0.00034821073540793035,-0.02308174982955575,0.09725178296655933,40.106058693909645,-96.25519929585457,76.200527287817
2024-09-23 20:16:39.975436,43.11,48.846597,0.00034821073540793035,-0.02308174982955575,0.0976994861521123,44.11764879391193,-92.24360919585227,76.200527287817
2024-09-23 20:16:40.018157,43.11,48.846649,0.000845657606494293,-0.02338022115155219,0.09690356060148622,40.106058693909645,-88.23529758782387,76.200527287817
2024-09-23 20:16:40.060378,43.11,48.846699,0.000845657606494293,-0.02338022115155219,0.09690356060148622,40.106058693909645,-88.23529758782387,72.1922225099802
2024-09-23 20:16:40.071266,43.11,48.846699,0.0009451553255896806,-0.02352945757203875,0.09695331012558621,36.09446859390736,-88.23529758782387,72.1922225099802
2024-09-23 20:16:40.113933,43.11,48.846699,0.0009451553255896806,-0.02352945757203875,0.09695331012558621,36.09446859390736,-88.23529758782387,72.1922225099802
2024-09-23 20:16:40.156508,43.11,48.846699,0.0009451553255896806,-0.02352945757203875,0.09695331012558621,36.09446859390736,-88.23529758782387,80.21211738781929
2024-09-23 20:16:40.167583,43.11,48.84675,0.0008954064660419869,-0.02313149783467906,0.09784872257259886,44.11764879391193,-88.23529758782387,80.21211738781929
2024-09-23 20:16:40.210376,43.11,48.846801,0.0008954064660419869,-0.02313149783467906,0.09784872257259886,44.11764879391193,-84.22370748782159,76.200527287817
2024-09-23 20:16:40.221468,43.11,48.846801,0.0008954064660419869,-0.0228827638849692,0.09809744588947199,44.11764879391193,-84.22370748782159,76.200527287817
2024-09-23 20:16:40.254456,43.38,48.846801,0.0008954064660419869,-0.0228827638849692,0.09809744588947199,48.12595698684454,-84.22370748782159,76.200527287817
2024-09-23 20:16:40.266143,43.38,48.846851,0.0007959191899112484,-0.02303200030545576,0.09809744588947199,48.12595698684454,-92.24360919585227,80.21211738781929
2024-09-23 20:16:40.308807,43.38,48.846938,0.0007959191899112484,-0.02303200030545576,0.09789846602079214,40.106058693909645,-92.24360919585227,80.21211738781929
2024-09-23 20:16:40.320626,43.38,48.846938,0.0006964318663124887,-0.02303200030545576,0.09789846602079214,40.106058693909645,-92.24360919585227,80.21211738781929
2024-09-23 20:16:40.353377,43.38,48.846938,0.0006964318663124887,-0.02278327698858263,0.09745075675933246,40.106058693909645,-92.24360919585227,80.21211738781929
2024-09-23 20:16:40.364758,43.38,48.846989,0.0006964318663124887,-0.02278327698858263,0.09745075675933246,40.106058693909645,-100.26678939585686,72.1922225099802
2024-09-23 20:16:40.407868,43.38,48.846989,0.0006964318663124887,-0.02293251340906919,0.0973015264147526,44.11764879391193,-92.24360919585227,76.200527287817
2024-09-23 20:16:40.449927,43.38,48.847085,0.0006964318663124887,-0.02293251340906919,0.0973015264147526,44.11764879391193,-92.24360919585227,76.200527287817
2024-09-23 20:16:40.461787,43.38,48.847085,0.0010943914612681128,-0.023827930413011865,0.09705279702197278,52.137550501942634,-92.24360919585227,76.200527287817
2024-09-23 20:16:40.504653,43.38,48.847137,0.0008954064660419869,-0.02303200030545576,0.09764974270391902,52.137550501942634,-92.24360919585227,76.200527287817
2024-09-23 20:16:40.516742,43.38,48.847137,0.0008954064660419869,-0.02303200030545576,0.09764974270391902,56.14914060194492,-92.24360919585227,76.200527287817
2024-09-23 20:16:40.548549,43.38,48.847137,0.0008954064660419869,-0.02303200030545576,0.09764974270391902,56.14914060194492,-96.25519929585457,76.200527287817
2024-09-23 20:16:40.559687,43.38,48.847187,0.0007959191899112484,-0.02308174982955575,0.09779897304849887,56.14914060194492,-96.25519929585457,76.200527287817
2024-09-23 20:16:40.602514,43.38,48.847238,0.0004974468710863627,-0.02308174982955575,0.09779897304849887,48.12595698684454,-84.22370748782159,84.22370748782159
2024-09-23 20:16:40.614592,43.38,48.847238,0.0004974468710863627,-0.023280723622328886,0.09779897304849887,48.12595698684454,-84.22370748782159,84.22370748782159
2024-09-23 20:16:40.646450,43.38,48.847238,0.0004974468710863627,-0.023280723622328886,0.09680407370509965,36.09446859390736,-84.22370748782159,84.22370748782159
2024-09-23 20:16:40.699113,43.38,48.847289,0.001044642601720419,-0.02367869399252531,0.09680407370509965,36.09446859390736,-88.23529758782387,80.21211738781929
2024-09-23 20:16:40.710708,43.38,48.847289,0.001044642601720419,-0.02367869399252531,0.09764974270391902,36.09446859390736,-88.23529758782387,80.21211738781929
2024-09-23 20:16:40.743694,43.38,48.847289,0.001044642601720419,-0.02367869399252531,0.09764974270391902,40.106058693909645,-92.24360919585227,80.21211738781929
2024-09-23 20:16:40.755304,43.38,48.847377,0.0005471957306340564,-0.02293251340906919,0.09764974270391902,40.106058693909645,-92.24360919585227,76.200527287817
2024-09-23 20:16:40.797113,43.38,48.847429,0.0005471957306340564,-0.02293251340906919,0.0973015264147526,48.12595698684454,-96.25519929585457,80.21211738781929
2024-09-23 20:16:40.809261,43.38,48.847429,0.0005471957306340564,-0.02293251340906919,0.0973015264147526,48.12595698684454,-96.25519929585457,80.21211738781929
2024-09-23 20:16:40.842209,43.38,48.847429,0.0005471957306340564,-0.02338022115155219,0.09740101331113918,44.11764879391193,-96.25519929585457,80.21211738781929
2024-09-23 20:16:40.853837,43.38,48.847479,0.0005471957306340564,-0.02338022115155219,0.09740101331113918,44.11764879391193,-96.25519929585457,76.200527287817
2024-09-23 20:16:40.896911,43.38,48.847479,0.0005969341946851222,-0.02278327698858263,0.09794820946898543,40.106058693909645,-100.26678939585686,84.22370748782159
2024-09-23 20:16:40.939304,43.38,48.847573,0.0009948937421727254,-0.02303200030545576,0.09794820946898543,40.106058693909645,-100.26678939585686,84.22370748782159
2024-09-23 20:16:40.950527,43.38,48.847573,0.0009948937421727254,-0.02303200030545576,0.09740101331113918,40.106058693909645,-92.24360919585227,84.22370748782159
2024-09-23 20:16:40.994205,43.38,48.847624,0.001044642601720419,-0.023778180888911878,0.09740101331113918,20.05138839341998,-92.24360919585227,76.200527287817
2024-09-23 20:16:41.037099,43.38,48.847624,0.001044642601720419,-0.023778180888911878,0.09740101331113918,20.05138839341998,-96.25519929585457,76.200527287817
2024-09-23 20:16:41.048187,43.38,48.847675,0.0010943914612681128,-0.023181236725942318,0.09755024973162574,20.05138839341998,-96.25519929585457,76.200527287817
2024-09-23 20:16:41.089882,43.38,48.847725,0.0008954064660419869,-0.023280723622328886,0.09755024973162574,36.09446859390736,-92.24360919585227,76.200527287817
2024-09-23 20:16:41.133011,43.38,48.847725,0.0008954064660419869,-0.023280723622328886,0.09740101331113918,56.14914060194492,-92.24360919585227,76.200527287817
2024-09-23 20:16:41.144570,43.38,48.847776,0.0005969341946851222,-0.023280723622328886,0.09740101331113918,56.14914060194492,-96.25519929585457,72.1922225099802
2024-09-23 20:16:41.186550,43.38,48.847776,0.0005969341946851222,-0.022833026512682618,0.09685382322919964,32.08287849390507,-100.26678939585686,72.1922225099802
2024-09-23 20:16:41.228302,43.38,48.847776,0.0005969341946851222,-0.022833026512682618,0.09685382322919964,32.08287849390507,-100.26678939585686,76.200527287817
2024-09-23 20:16:41.240017,43.38,48.847865,0.0006964318663124887,-0.02303200030545576,0.09740101331113918,44.11764879391193,-100.26678939585686,76.200527287817
2024-09-23 20:16:41.282042,43.46,48.847916,0.0006964318663124887,-0.02303200030545576,0.09740101331113918,44.11764879391193,-96.25519929585457,76.200527287817
2024-09-23 20:16:41.293686,43.46,48.847916,0.0010943914612681128,-0.023330473146428877,0.09764974270391902,44.11764879391193,-96.25519929585457,76.200527287817
2024-09-23 20:16:41.326101,43.46,48.847916,0.0010943914612681128,-0.023330473146428877,0.09764974270391902,52.137550501942634,-96.25519929585457,76.200527287817
2024-09-23 20:16:41.337587,43.46,48.847967,0.0010943914612681128,-0.02278327698858263,0.09764974270391902,52.137550501942634,-84.22370748782159,88.23529758782387
2024-09-23 20:16:41.380436,43.46,48.847967,0.0010943914612681128,-0.02278327698858263,0.09779897304849887,44.11764879391193,-92.24360919585227,80.21211738781929
2024-09-23 20:16:41.392254,43.46,48.848018,0.0006964318663124887,-0.02278327698858263,0.09779897304849887,44.11764879391193,-92.24360919585227,80.21211738781929
2024-09-23 20:16:41.424842,43.46,48.848018,0.0006964318663124887,-0.023181236725942318,0.09779897304849887,44.11764879391193,-92.24360919585227,80.21211738781929
2024-09-23 20:16:41.436017,43.46,48.848068,0.0006964318663124887,-0.023181236725942318,0.09665483728461309,36.09446859390736,-92.24360919585227,76.200527287817
2024-09-23 20:16:41.478886,43.46,48.848068,0.0006466830067647949,-0.0228827638849692,0.09725178296655933,40.106058693909645,-92.24360919585227,76.200527287817
2024-09-23 20:16:41.490969,43.46,48.848068,0.0006466830067647949,-0.0228827638849692,0.09725178296655933,40.106058693909645,-92.24360919585227,80.21211738781929
2024-09-23 20:16:41.522819,43.46,48.848158,0.001044642601720419,-0.0228827638849692,0.09725178296655933,40.106058693909645,-92.24360919585227,80.21211738781929
2024-09-23 20:16:41.534107,43.46,48.848158,0.001044642601720419,-0.02313149783467906,0.09720203344245934,40.106058693909645,-96.25519929585457,80.21211738781929
2024-09-23 20:16:41.576813,43.46,48.848209,0.0003979595949556242,-0.02308174982955575,0.09720203344245934,40.106058693909645,-96.25519929585457,76.200527287817
2024-09-23 20:16:41.589385,43.46,48.848209,0.0003979595949556242,-0.02308174982955575,0.09764974270391902,32.08287849390507,-96.25519929585457,76.200527287817
2024-09-23 20:16:41.622347,43.46,48.84826,0.0003979595949556242,-0.02308174982955575,0.09764974270391902,32.08287849390507,-92.24360919585227,76.200527287817
2024-09-23 20:16:41.633687,43.46,48.84826,0.0005969341946851222,-0.023230986250042305,0.09740101331113918,32.08287849390507,-92.24360919585227,76.200527287817
2024-09-23 20:16:41.675534,43.46,48.848311,0.000845657606494293,-0.022833026512682618,0.09740101331113918,40.106058693909645,-96.25519929585457,76.200527287817
2024-09-23 20:16:41.718023,43.46,48.848311,0.000845657606494293,-0.022833026512682618,0.09745075675933246,48.12595698684454,-96.25519929585457,76.200527287817
2024-09-23 20:16:41.729713,43.46,48.848362,0.000845657606494293,-0.022833026512682618,0.09745075675933246,48.12595698684454,-96.25519929585457,72.1922225099802
2024-09-23 20:16:41.772628,43.46,48.848362,0.0005969341946851222,-0.022833026512682618,0.09745075675933246,48.12595698684454,-96.25519929585457,72.1922225099802
2024-09-23 20:16:41.815448,43.46,48.848362,0.0005969341946851222,-0.023579196463302005,0.09745075675933246,48.12595698684454,-96.25519929585457,72.1922225099802
2024-09-23 20:16:41.826964,43.46,48.84845,0.0005969341946851222,-0.023579196463302005,0.09695331012558621,36.09446859390736,-100.26678939585686,68.18063240997792
2024-09-23 20:16:41.869824,43.46,48.84845,0.0006964318663124887,-0.02313149783467906,0.09779897304849887,40.106058693909645,-96.25519929585457,68.18063240997792
2024-09-23 20:16:41.881700,43.46,48.84845,0.0006964318663124887,-0.02313149783467906,0.09779897304849887,40.106058693909645,-96.25519929585457,72.1922225099802
2024-09-23 20:16:41.913076,43.46,48.848501,0.0006466830067647949,-0.02313149783467906,0.09779897304849887,40.106058693909645,-96.25519929585457,72.1922225099802
2024-09-23 20:16:41.924564,43.46,48.848501,0.0006466830067647949,-0.02263404056809607,0.09764974270391902,40.106058693909645,-92.24360919585227,72.1922225099802
2024-09-23 20:16:41.967945,43.46,48.848552,0.0004974468710863627,-0.023429960042815445,0.09695331012558621,40.106058693909645,-92.24360919585227,80.21211738781929
2024-09-23 20:16:41.980085,43.46,48.848552,0.0004974468710863627,-0.023429960042815445,0.09695331012558621,44.11764879391193,-92.24360919585227,80.21211738781929
2024-09-23 20:16:42.014746,43.46,48.848603,0.0004974468710863627,-0.023429960042815445,0.09695331012558621,44.11764879391193,-92.24360919585227,80.21211738781929
2024-09-23 20:16:42.025995,43.46,48.848603,0.0009948937421727254,-0.023280723622328886,0.09740101331113918,44.11764879391193,-92.24360919585227,80.21211738781929
2024-09-23 20:16:42.058448,43.46,48.848603,0.0009948937421727254,-0.023280723622328886,0.09740101331113918,36.09446859390736,-92.24360919585227,80.21211738781929
2024-09-23 20:16:42.070338,43.46,48.848696,0.0006964318663124887,-0.02313149783467906,0.09740101331113918,36.09446859390736,-92.24360919585227,80.21211738781929
2024-09-23 20:16:42.113318,43.46,48.848746,0.0006964318663124887,-0.02313149783467906,0.0973512698629459,44.11764879391193,-92.24360919585227,76.200527287817
2024-09-23 20:16:42.125083,43.46,48.848746,0.000845657606494293,-0.02313149783467906,0.0973512698629459,44.11764879391193,-92.24360919585227,76.200527287817
2024-09-23 20:16:42.156917,43.46,48.848746,0.000845657606494293,-0.02313149783467906,0.0976994861521123,44.11764879391193,-92.24360919585227,76.200527287817
2024-09-23 20:16:42.168059,43.46,48.84884,0.000845657606494293,-0.02313149783467906,0.0976994861521123,40.106058693909645,-96.25519929585457,72.1922225099802
2024-09-23 20:16:42.211221,43.46,48.84884,0.00044769805900669,-0.02313149783467906,0.09740101331113918,48.12595698684454,-92.24360919585227,72.1922225099802
2024-09-23 20:16:42.223677,43.46,48.84884,0.00044769805900669,-0.02313149783467906,0.09740101331113918,48.12595698684454,-92.24360919585227,68.18063240997792
2024-09-23 20:16:42.256290,43.46,48.848891,0.0007461703303635545,-0.02313149783467906,0.09740101331113918,48.12595698684454,-92.24360919585227,68.18063240997792
2024-09-23 20:16:42.267661,43.46,48.848891,0.0007461703303635545,-0.02313149783467906,0.09690356060148622,40.106058693909645,-96.25519929585457,68.18063240997792
2024-09-23 20:16:42.310042,43.85,48.848942,0.0011441298778511575,-0.02313149783467906,0.09690356060148622,40.106058693909645,-96.25519929585457,72.1922225099802
2024-09-23 20:16:42.352814,43.85,48.848942,0.0011441298778511575,-0.023230986250042305,0.09764974270391902,40.106058693909645,-96.25519929585457,72.1922225099802
2024-09-23 20:16:42.364788,43.85,48.848993,0.0011441298778511575,-0.023230986250042305,0.09764974270391902,36.09446859390736,-100.26678939585686,76.200527287817
