Ayaan's Suite
Timestamp,Sample Rate (Hz),Time,Ax,Ay,Az,Gx,Gy,Gz
2024-09-23 16:38:18.286808,0,35.74472,-0.0027359787006383035,-0.023429960042815445,0.09750050628343246,36.09446859390736,-92.24360919585227,76.200527287817
2024-09-23 16:38:18.298875,0,35.74472,-0.0031339382481259063,-0.02367869399252531,0.09750050628343246,36.09446859390736,-92.24360919585227,76.200527287817
2024-09-23 16:38:18.331797,0,35.74472,-0.0031339382481259063,-0.02367869399252531,0.09764974270391902,36.09446859390736,-92.24360919585227,76.200527287817
2024-09-23 16:38:18.342871,0,35.744771,-0.0026862297461545674,-0.02367869399252531,0.09764974270391902,40.106058693909645,-96.25519929585457,76.200527287817
2024-09-23 16:38:18.385376,0,35.744771,-0.0026862297461545674,-0.023230986250042305,0.0973512698629459,40.106058693909645,-92.24360919585227,84.22370748782159
2024-09-23 16:38:18.397122,0,35.744861,-0.0026862297461545674,-0.023230986250042305,0.0973512698629459,40.106058693909645,-92.24360919585227,84.22370748782159
2024-09-23 16:38:18.429952,0,35.744861,-0.0035318979854855937,-0.02303200030545576,0.0973512698629459,40.106058693909645,-92.24360919585227,84.22370748782159
2024-09-23 16:38:18.440874,0,35.744861,-0.0035318979854855937,-0.02303200030545576,0.09720203344245934,40.106058693909645,-100.26678939585686,80.21211738781929
2024-09-23 16:38:18.483546,0,35.744912,-0.0025369937054121774,-0.023280723622328886,0.09740101331113918,40.106058693909645,-100.26678939585686,80.21211738781929
2024-09-23 16:38:18.495585,0,35.744912,-0.0025369937054121774,-0.023280723622328886,0.09740101331113918,40.106058693909645,-100.26678939585686,80.21211738781929
2024-09-23 16:38:18.527441,0,35.744963,-0.0025369937054121774,-0.023280723622328886,0.09740101331113918,40.106058693909645,-100.26678939585686,80.21211738781929
2024-09-23 16:38:18.631907,0,35.744963,-0.0029349636958644295,-0.023181236725942318,0.09745075675933246,36.09446859390736,-96.25519929585457,76.200527287817
2024-09-23 16:38:18.675196,0,35.745014,-0.0027359787006383035,-0.023280723622328886,0.09745075675933246,36.09446859390736,-96.25519929585457,76.200527287817
2024-09-23 16:38:18.686565,0,35.745014,-0.0027359787006383035,-0.023280723622328886,0.09685382322919964,28.07457030097246,-96.25519929585457,76.200527287817
2024-09-23 16:38:18.728945,0,35.745064,-0.0029847020175114316,-0.02367869399252531,0.09759999317981902,24.06297849342227,-96.25519929585457,80.21211738781929
2024-09-23 16:38:18.771903,0,35.745115,-0.0029847020175114316,-0.02367869399252531,0.09759999317981902,24.06297849342227,-104.27510100388527,80.21211738781929
2024-09-23 16:38:18.783425,0,35.745115,-0.0030344509719951677,-0.02367869399252531,0.0976994861521123,24.06297849342227,-104.27510100388527,80.21211738781929
2024-09-23 16:38:18.827087,0,35.745202,-0.0034324103296106863,-0.02338022115155219,0.0976994861521123,40.106058693909645,-100.26678939585686,80.21211738781929
2024-09-23 16:38:18.869480,0,35.745202,-0.0034324103296106863,-0.02338022115155219,0.09650560086412653,40.106058693909645,-92.24360919585227,80.21211738781929
2024-09-23 16:38:18.880515,0,35.745302,-0.0035816467500972456,-0.02338022115155219,0.09650560086412653,40.106058693909645,-92.24360919585227,88.23529758782387
2024-09-23 16:38:18.923767,0,35.745397,-0.0035816467500972456,-0.023330473146428877,0.09750050628343246,32.08287849390507,-96.25519929585457,84.22370748782159
2024-09-23 16:38:18.966000,0,35.745397,-0.003482159473966507,-0.02362894446842532,0.09750050628343246,32.08287849390507,-96.25519929585457,84.22370748782159
2024-09-23 16:38:18.977309,0,35.745397,-0.003482159473966507,-0.02362894446842532,0.0973512698629459,36.09446859390736,-96.25519929585457,80.21211738781929
2024-09-23 16:38:19.019039,0,35.745449,-0.0030344509719951677,-0.02308174982955575,0.09680407370509965,36.09446859390736,-96.25519929585457,80.21211738781929
2024-09-23 16:38:19.030915,0,35.745449,-0.0030344509719951677,-0.02308174982955575,0.09680407370509965,36.09446859390736,-100.26678939585686,80.21211738781929
2024-09-23 16:38:19.063641,0,35.745499,-0.0030344509719951677,-0.02308174982955575,0.09680407370509965,36.09446859390736,-100.26678939585686,84.22370748782159
2024-09-23 16:38:19.075535,0,35.745499,-0.0028852147413806935,-0.02313149783467906,0.0970030596496862,40.106058693909645,-100.26678939585686,84.22370748782159
2024-09-23 16:38:19.117994,0,35.74555,-0.0031836870127375577,-0.023877669304275123,0.09725178296655933,40.106058693909645,-96.25519929585457,76.200527287817
2024-09-23 16:38:19.161457,0,35.74555,-0.0031836870127375577,-0.023877669304275123,0.09725178296655933,36.09446859390736,-96.25519929585457,76.200527287817
2024-09-23 16:38:19.173699,0,35.745601,-0.0033329230534799477,-0.02303200030545576,0.09725178296655933,36.09446859390736,-96.25519929585457,76.200527287817
2024-09-23 16:38:19.216918,0,35.745651,-0.0025369937054121774,-0.02303200030545576,0.09715228999426605,40.106058693909645,-100.26678939585686,84.22370748782159
2024-09-23 16:38:19.258952,39.4,35.745651,-0.0025369937054121774,-0.02268379009219606,0.09680407370509965,40.106058693909645,-100.26678939585686,84.22370748782159
2024-09-23 16:38:19.270544,39.4,35.745738,-0.0025369937054121774,-0.02268379009219606,0.09680407370509965,36.09446859390736,-92.24360919585227,76.200527287817
2024-09-23 16:38:19.313261,39.4,35.745738,-0.0025369937054121774,-0.023579196463302005,0.09695331012558621,36.09446859390736,-96.25519929585457,76.200527287817
2024-09-23 16:38:19.355281,39.4,35.74579,-0.0029349636958644295,-0.023579196463302005,0.09695331012558621,36.09446859390736,-96.25519929585457,76.200527287817
2024-09-23 16:38:19.366472,39.4,35.74579,-0.0029349636958644295,-0.02362894446842532,0.09705279702197278,40.106058693909645,-100.26678939585686,76.200527287817
2024-09-23 16:38:19.409913,39.4,35.745841,-0.0031339382481259063,-0.02308174982955575,0.09710254654607277,40.106058693909645,-100.26678939585686,76.200527287817
2024-09-23 16:38:19.422096,39.4,35.745841,-0.0031339382481259063,-0.02308174982955575,0.09710254654607277,32.08287849390507,-100.26678939585686,76.200527287817
2024-09-23 16:38:19.455342,39.4,35.745892,-0.0031339382481259063,-0.02308174982955575,0.09710254654607277,32.08287849390507,-104.27510100388527,76.200527287817
2024-09-23 16:38:19.467139,39.4,35.745892,-0.0030344509719951677,-0.022982261414192504,0.09779897304849887,32.08287849390507,-104.27510100388527,76.200527287817
2024-09-23 16:38:19.509163,39.4,35.745942,-0.0028354659767690416,-0.02303200030545576,0.09779897304849887,32.08287849390507,-100.26678939585686,80.21211738781929
2024-09-23 16:38:19.551831,39.4,35.745942,-0.0028354659767690416,-0.02303200030545576,0.09725178296655933,32.08287849390507,-104.27510100388527,80.21211738781929
2024-09-23 16:38:19.563165,39.4,35.745993,-0.003233425524256645,-0.02303200030545576,0.09725178296655933,32.08287849390507,-104.27510100388527,76.200527287817
2024-09-23 16:38:19.606516,39.4,35.74608,-0.003233425524256645,-0.023429960042815445,0.0976994861521123,40.106058693909645,-92.24360919585227,76.200527287817
2024-09-23 16:38:19.751520,39.4,35.74608,-0.003482159473966507,-0.022982261414192504,0.09725178296655933,36.09446859390736,-92.24360919585227,76.200527287817
2024-09-23 16:38:19.764186,39.4,35.74608,-0.003482159473966507,-0.022982261414192504,0.09725178296655933,36.09446859390736,-92.24360919585227,76.200527287817
2024-09-23 16:38:19.796399,39.4,35.746131,-0.002785727465249955,-0.023429960042815445,0.09725178296655933,36.09446859390736,-92.24360919585227,76.200527287817
2024-09-23 16:38:19.807964,39.4,35.746131,-0.002785727465249955,-0.023429960042815445,0.09745075675933246,40.106058693909645,-92.24360919585227,76.200527287817
2024-09-23 16:38:19.850788,39.4,35.746182,-0.0028852147413806935,-0.023230986250042305,0.09670458680871308,40.106058693909645,-92.24360919585227,72.1922225099802
2024-09-23 16:38:19.893712,39.4,35.746182,-0.0028852147413806935,-0.023230986250042305,0.09670458680871308,40.106058693909645,-96.25519929585457,80.21211738781929
2024-09-23 16:38:19.905327,39.4,35.746233,-0.0033329230534799477,-0.023778180888911878,0.09670458680871308,40.106058693909645,-96.25519929585457,80.21211738781929
2024-09-23 16:38:19.949405,39.4,35.746283,-0.0029349636958644295,-0.023778180888911878,0.0973512698629459,36.09446859390736,-96.25519929585457,84.22370748782159
2024-09-23 16:38:19.992853,39.4,35.746283,-0.0029349636958644295,-0.023778180888911878,0.09759999317981902,44.11764879391193,-96.25519929585457,84.22370748782159
2024-09-23 16:38:20.004332,39.4,35.746424,-0.0029349636958644295,-0.023778180888911878,0.09759999317981902,44.11764879391193,-96.25519929585457,72.1922225099802
2024-09-23 16:38:20.038005,39.4,35.746424,-0.0030841997366068195,-0.023330473146428877,0.09759999317981902,44.11764879391193,-96.25519929585457,72.1922225099802
2024-09-23 16:38:20.049607,39.4,35.746424,-0.0030841997366068195,-0.023330473146428877,0.09680407370509965,36.09446859390736,-100.26678939585686,80.21211738781929
2024-09-23 16:38:20.092310,39.4,35.746519,-0.0029349636958644295,-0.02367869399252531,0.09695331012558621,36.09446859390736,-100.26678939585686,80.21211738781929
2024-09-23 16:38:20.104447,39.4,35.746519,-0.0029349636958644295,-0.02367869399252531,0.09695331012558621,36.09446859390736,-100.26678939585686,80.21211738781929
2024-09-23 16:38:20.136529,39.4,35.74657,-0.0029349636958644295,-0.02367869399252531,0.09695331012558621,36.09446859390736,-100.26678939585686,76.200527287817
2024-09-23 16:38:20.148836,39.4,35.74657,-0.0029349636958644295,-0.023778180888911878,0.09675432418099966,36.09446859390736,-100.26678939585686,76.200527287817
2024-09-23 16:38:20.191845,39.4,35.746621,-0.0026862297461545674,-0.02278327698858263,0.09784872257259886,36.09446859390736,-96.25519929585457,76.200527287817
2024-09-23 16:38:20.234537,39.4,35.746621,-0.0026862297461545674,-0.02278327698858263,0.09784872257259886,36.09446859390736,-108.28669110388756,84.22370748782159
2024-09-23 16:38:20.245814,39.4,35.746672,-0.002785727465249955,-0.02352945757203875,0.09784872257259886,36.09446859390736,-108.28669110388756,84.22370748782159
2024-09-23 16:38:20.289234,39.11,35.746722,-0.0030344509719951677,-0.02352945757203875,0.09680407370509965,36.09446859390736,-100.26678939585686,80.21211738781929
2024-09-23 16:38:20.332241,39.11,35.746722,-0.0030344509719951677,-0.023579196463302005,0.0970030596496862,32.08287849390507,-100.26678939585686,80.21211738781929
2024-09-23 16:38:20.344099,39.11,35.746811,-0.0030344509719951677,-0.023579196463302005,0.0970030596496862,32.08287849390507,-92.24360919585227,84.22370748782159
2024-09-23 16:38:20.385907,39.11,35.746811,-0.002785727465249955,-0.023330473146428877,0.09690356060148622,32.08287849390507,-100.26678939585686,80.21211738781929
2024-09-23 16:38:20.428583,39.11,35.746863,-0.002785727465249955,-0.023330473146428877,0.09690356060148622,32.08287849390507,-100.26678939585686,80.21211738781929
2024-09-23 16:38:20.439613,39.11,35.746863,-0.002785727465249955,-0.023479709566915436,0.0973512698629459,36.09446859390736,-92.24360919585227,80.21211738781929
2024-09-23 16:38:20.483320,39.11,35.746913,-0.0028852147413806935,-0.023280723622328886,0.09685382322919964,36.09446859390736,-92.24360919585227,80.21211738781929
2024-09-23 16:38:20.525622,39.11,35.746913,-0.0028852147413806935,-0.023280723622328886,0.09685382322919964,44.11764879391193,-88.23529758782387,80.21211738781929
2024-09-23 16:38:20.537538,39.11,35.746964,-0.0028852147413806935,-0.023579196463302005,0.09685382322919964,44.11764879391193,-88.23529758782387,92.24360919585227
2024-09-23 16:38:20.580648,39.11,35.747014,-0.002785727465249955,-0.023579196463302005,0.09725178296655933,36.09446859390736,-92.24360919585227,76.200527287817
2024-09-23 16:38:20.623389,39.11,35.747014,-0.002785727465249955,-0.02367869399252531,0.09740101331113918,36.09446859390736,-92.24360919585227,76.200527287817
2024-09-23 16:38:20.634437,39.11,35.747065,-0.002785727465249955,-0.02367869399252531,0.09740101331113918,36.09446859390736,-100.26678939585686,80.21211738781929
2024-09-23 16:38:20.676630,39.11,35.747065,-0.003482159473966507,-0.0228827638849692,0.0970030596496862,40.106058693909645,-92.24360919585227,80.21211738781929
2024-09-23 16:38:20.688524,39.11,35.747065,-0.003482159473966507,-0.0228827638849692,0.0970030596496862,40.106058693909645,-92.24360919585227,76.200527287817
2024-09-23 16:38:20.720876,39.11,35.747152,-0.0033329230534799477,-0.0228827638849692,0.0970030596496862,40.106058693909645,-92.24360919585227,76.200527287817
2024-09-23 16:38:20.732293,39.11,35.747152,-0.0033329230534799477,-0.023280723622328886,0.09665483728461309,32.08287849390507,-92.24360919585227,76.200527287817
2024-09-23 16:38:20.774521,39.11,35.747204,-0.0027359787006383035,-0.023579196463302005,0.09665483728461309,32.08287849390507,-96.25519929585457,72.1922225099802
2024-09-23 16:38:20.786746,39.11,35.747204,-0.0027359787006383035,-0.023579196463302005,0.09779897304849887,32.08287849390507,-96.25519929585457,72.1922225099802
2024-09-23 16:38:20.819901,39.11,35.747204,-0.0027359787006383035,-0.023579196463302005,0.09779897304849887,36.09446859390736,-100.26678939585686,80.21211738781929
2024-09-23 16:38:20.831462,39.11,35.747254,-0.0029847020175114316,-0.02338022115155219,0.09779897304849887,36.09446859390736,-100.26678939585686,80.21211738781929
2024-09-23 16:38:20.874105,39.11,35.747305,-0.002636491424507565,-0.02338022115155219,0.09675432418099966,40.106058693909645,-96.25519929585457,80.21211738781929
2024-09-23 16:38:20.916135,39.11,35.747305,-0.002636491424507565,-0.02303200030545576,0.0973512698629459,40.106058693909645,-96.25519929585457,80.21211738781929
2024-09-23 16:38:20.928359,39.11,35.747356,-0.002636491424507565,-0.02303200030545576,0.0973512698629459,40.106058693909645,-96.25519929585457,80.21211738781929
2024-09-23 16:38:20.971300,39.11,35.747356,-0.0027359787006383035,-0.023280723622328886,0.09720203344245934,40.106058693909645,-100.26678939585686,76.200527287817
2024-09-23 16:38:21.014640,39.11,35.747445,-0.0032831742888682963,-0.02338022115155219,0.09720203344245934,40.106058693909645,-100.26678939585686,76.200527287817
2024-09-23 16:38:21.026569,39.11,35.747445,-0.0032831742888682963,-0.02338022115155219,0.09750050628343246,40.106058693909645,-100.26678939585686,76.200527287817
2024-09-23 16:38:21.111439,39.11,35.747497,-0.0032831742888682963,-0.02338022115155219,0.09750050628343246,40.106058693909645,-100.26678939585686,84.22370748782159
2024-09-23 16:38:21.123184,39.11,35.747497,-0.0031339382481259063,-0.023579196463302005,0.09710254654607277,40.106058693909645,-100.26678939585686,84.22370748782159
2024-09-23 16:38:21.165688,39.11,35.747547,-0.0032831742888682963,-0.023579196463302005,0.09710254654607277,40.106058693909645,-96.25519929585457,76.200527287817
2024-09-23 16:38:21.177770,39.11,35.747547,-0.0032831742888682963,-0.02367869399252531,0.09710254654607277,40.106058693909645,-96.25519929585457,76.200527287817
2024-09-23 16:38:21.210239,39.11,35.747547,-0.0032831742888682963,-0.02367869399252531,0.09725178296655933,36.09446859390736,-100.26678939585686,76.200527287817
2024-09-23 16:38:21.221884,39.11,35.747598,-0.0028852147413806935,-0.02367869399252531,0.09725178296655933,36.09446859390736,-100.26678939585686,76.200527287817
2024-09-23 16:38:21.264428,39.11,35.747649,-0.0028852147413806935,-0.023579196463302005,0.09690356060148622,36.09446859390736,-96.25519929585457,76.200527287817
2024-09-23 16:38:21.307673,39.17,35.747649,-0.0027359787006383035,-0.023778180888911878,0.0973015264147526,36.09446859390736,-96.25519929585457,76.200527287817
2024-09-23 16:38:21.319260,39.17,35.747649,-0.0027359787006383035,-0.023778180888911878,0.0973015264147526,36.09446859390736,-100.26678939585686,80.21211738781929
2024-09-23 16:38:21.361779,39.17,35.747786,-0.0028852147413806935,-0.02338022115155219,0.09705279702197278,40.106058693909645,-96.25519929585457,80.21211738781929
2024-09-23 16:38:21.405455,39.17,35.747837,-0.0029847020175114316,-0.02338022115155219,0.09705279702197278,40.106058693909645,-96.25519929585457,80.21211738781929
2024-09-23 16:38:21.417320,39.17,35.747837,-0.0029847020175114316,-0.023280723622328886,0.09680407370509965,36.09446859390736,-96.25519929585457,80.21211738781929
2024-09-23 16:38:21.450065,39.17,35.747837,-0.0029847020175114316,-0.023280723622328886,0.09680407370509965,36.09446859390736,-100.26678939585686,80.21211738781929
2024-09-23 16:38:21.461454,39.17,35.747888,-0.002437506429281439,-0.023230986250042305,0.09750050628343246,36.09446859390736,-100.26678939585686,80.21211738781929
2024-09-23 16:38:21.503765,39.17,35.747939,-0.002437506429281439,-0.023230986250042305,0.09750050628343246,36.09446859390736,-96.25519929585457,76.200527287817
2024-09-23 16:38:21.514863,39.17,35.747939,-0.003233425524256645,-0.0228827638849692,0.09750050628343246,36.09446859390736,-96.25519929585457,76.200527287817
2024-09-23 16:38:21.557892,39.17,35.747989,-0.0029847020175114316,-0.0228827638849692,0.09670458680871308,36.09446859390736,-96.25519929585457,76.200527287817
2024-09-23 16:38:21.600362,39.17,35.747989,-0.0029847020175114316,-0.02338022115155219,0.09705279702197278,40.106058693909645,-96.25519929585457,76.200527287817
2024-09-23 16:38:21.611545,39.17,35.748078,-0.0029847020175114316,-0.02338022115155219,0.09705279702197278,40.106058693909645,-96.25519929585457,76.200527287817
2024-09-23 16:38:21.654037,39.17,35.748078,-0.002387757474797703,-0.022982261414192504,0.09690356060148622,40.106058693909645,-96.25519929585457,76.200527287817
2024-09-23 16:38:21.695798,39.17,35.74813,-0.0029349636958644295,-0.022982261414192504,0.09690356060148622,40.106058693909645,-96.25519929585457,76.200527287817
2024-09-23 16:38:21.707314,39.17,35.74813,-0.0029349636958644295,-0.023230986250042305,0.09705279702197278,40.106058693909645,-96.25519929585457,76.200527287817
2024-09-23 16:38:21.749743,39.17,35.748181,-0.0028852147413806935,-0.023230986250042305,0.09705279702197278,40.106058693909645,-104.27510100388527,76.200527287817
2024-09-23 16:38:21.761713,39.17,35.748181,-0.0028852147413806935,-0.02352945757203875,0.09705279702197278,40.106058693909645,-104.27510100388527,76.200527287817
2024-09-23 16:38:21.793604,39.17,35.748181,-0.0028852147413806935,-0.02352945757203875,0.09690356060148622,40.106058693909645,-104.27510100388527,76.200527287817
2024-09-23 16:38:21.804625,39.17,35.748231,-0.003233425524256645,-0.02352945757203875,0.09690356060148622,40.106058693909645,-100.26678939585686,80.21211738781929
2024-09-23 16:38:21.848347,39.17,35.748282,-0.003233425524256645,-0.02313149783467906,0.09759999317981902,40.106058693909645,-100.26678939585686,80.21211738781929
2024-09-23 16:38:21.890238,39.17,35.748282,-0.0030344509719951677,-0.023330473146428877,0.09759999317981902,40.106058693909645,-100.26678939585686,80.21211738781929
2024-09-23 16:38:21.902025,39.17,35.748282,-0.0030344509719951677,-0.023330473146428877,0.09710254654607277,36.09446859390736,-100.26678939585686,80.21211738781929
2024-09-23 16:38:21.944252,39.17,35.748333,-0.0033329230534799477,-0.023330473146428877,0.09695331012558621,36.09446859390736,-100.26678939585686,80.21211738781929
2024-09-23 16:38:21.955655,39.17,35.748333,-0.0033329230534799477,-0.023330473146428877,0.09695331012558621,44.11764879391193,-96.25519929585457,80.21211738781929
2024-09-23 16:38:21.987900,39.17,35.748333,-0.0033329230534799477,-0.023330473146428877,0.09695331012558621,44.11764879391193,-96.25519929585457,76.200527287817
2024-09-23 16:38:21.998828,39.17,35.748421,-0.002437506429281439,-0.023579196463302005,0.09774922960030558,40.106058693909645,-96.25519929585457,76.200527287817
2024-09-23 16:38:22.042558,39.17,35.748472,-0.0028852147413806935,-0.02338022115155219,0.09774922960030558,40.106058693909645,-96.25519929585457,80.21211738781929
2024-09-23 16:38:22.054448,39.17,35.748472,-0.0028852147413806935,-0.02338022115155219,0.09715228999426605,40.106058693909645,-96.25519929585457,80.21211738781929
2024-09-23 16:38:22.089821,39.17,35.748523,-0.0028852147413806935,-0.02338022115155219,0.09715228999426605,32.08287849390507,-100.26678939585686,76.200527287817
2024-09-23 16:38:22.101740,39.17,35.748523,-0.0025369937054121774,-0.02352945757203875,0.09715228999426605,32.08287849390507,-100.26678939585686,76.200527287817
2024-09-23 16:38:22.134072,39.17,35.748523,-0.0025369937054121774,-0.02352945757203875,0.09750050628343246,32.08287849390507,-100.26678939585686,76.200527287817
2024-09-23 16:38:22.145135,39.17,35.748573,-0.003233425524256645,-0.02352945757203875,0.09750050628343246,36.09446859390736,-96.25519929585457,76.200527287817
2024-09-23 16:38:22.188974,39.17,35.748663,-0.003233425524256645,-0.02313149783467906,0.09740101331113918,48.12595698684454,-100.26678939585686,76.200527287817
2024-09-23 16:38:22.231936,39.17,35.748663,-0.0028354659767690416,-0.023330473146428877,0.09740101331113918,48.12595698684454,-100.26678939585686,76.200527287817
2024-09-23 16:38:22.243110,39.17,35.748663,-0.0028354659767690416,-0.023330473146428877,0.09705279702197278,36.09446859390736,-96.25519929585457,76.200527287817
2024-09-23 16:38:22.286027,39.17,35.748715,-0.0030841997366068195,-0.0228827638849692,0.09685382322919964,44.11764879391193,-96.25519929585457,76.200527287817
2024-09-23 16:38:22.298046,39.17,35.748715,-0.0030841997366068195,-0.0228827638849692,0.09685382322919964,44.11764879391193,-100.26678939585686,76.200527287817
2024-09-23 16:38:22.331512,40.61,35.748766,-0.003780631555451287,-0.0228827638849692,0.09685382322919964,44.11764879391193,-100.26678939585686,80.21211738781929
2024-09-23 16:38:22.342757,40.61,35.748766,-0.003780631555451287,-0.0228827638849692,0.09695331012558621,36.09446859390736,-100.26678939585686,80.21211738781929
2024-09-23 16:38:22.385640,40.61,35.748816,-0.003382661564999035,-0.02313149783467906,0.0973015264147526,36.09446859390736,-96.25519929585457,76.200527287817
2024-09-23 16:38:22.429174,40.61,35.748816,-0.003382661564999035,-0.02313149783467906,0.0973015264147526,44.11764879391193,-96.25519929585457,72.1922225099802
2024-09-23 16:38:22.441315,40.61,35.748867,-0.0030841997366068195,-0.02367869399252531,0.0973015264147526,44.11764879391193,-96.25519929585457,72.1922225099802
2024-09-23 16:38:22.474778,40.61,35.748867,-0.0030841997366068195,-0.02367869399252531,0.09710254654607277,44.11764879391193,-96.25519929585457,72.1922225099802
2024-09-23 16:38:22.486531,40.61,35.748918,-0.0031836870127375577,-0.02367869399252531,0.09710254654607277,40.106058693909645,-100.26678939585686,76.200527287817
2024-09-23 16:38:22.529770,40.61,35.748918,-0.0031836870127375577,-0.023230986250042305,0.09725178296655933,32.08287849390507,-92.24360919585227,76.200527287817
2024-09-23 16:38:22.542073,40.61,35.749005,-0.0031836870127375577,-0.023230986250042305,0.09725178296655933,32.08287849390507,-92.24360919585227,76.200527287817
2024-09-23 16:38:22.574901,40.61,35.749005,-0.0033329230534799477,-0.023280723622328886,0.09725178296655933,32.08287849390507,-92.24360919585227,76.200527287817
2024-09-23 16:38:22.585902,40.61,35.749005,-0.0033329230534799477,-0.023280723622328886,0.09705279702197278,36.09446859390736,-100.26678939585686,80.21211738781929
2024-09-23 16:38:22.627982,40.61,35.749056,-0.0025369937054121774,-0.02293251340906919,0.0973512698629459,36.09446859390736,-100.26678939585686,80.21211738781929
2024-09-23 16:38:22.671013,40.61,35.749107,-0.0025369937054121774,-0.02293251340906919,0.0973512698629459,36.09446859390736,-100.26678939585686,76.200527287817
2024-09-23 16:38:22.682307,40.61,35.749107,-0.0030344509719951677,-0.023280723622328886,0.09745075675933246,44.11764879391193,-100.26678939585686,76.200527287817
2024-09-23 16:38:22.725754,40.61,35.749158,-0.003382661564999035,-0.023280723622328886,0.09745075675933246,44.11764879391193,-92.24360919585227,84.22370748782159
2024-09-23 16:38:22.738072,40.61,35.749158,-0.003382661564999035,-0.02313149783467906,0.09685382322919964,44.11764879391193,-92.24360919585227,84.22370748782159
2024-09-23 16:38:22.770150,40.61,35.749158,-0.003382661564999035,-0.02313149783467906,0.09685382322919964,36.09446859390736,-92.24360919585227,80.21211738781929
2024-09-23 16:38:22.781809,40.61,35.749208,-0.0028354659767690416,-0.02263404056809607,0.09685382322919964,36.09446859390736,-92.24360919585227,80.21211738781929
2024-09-23 16:38:22.816874,40.61,35.749208,-0.0028354659767690416,-0.02263404056809607,0.09715228999426605,36.09446859390736,-92.24360919585227,80.21211738781929
2024-09-23 16:38:22.828057,40.61,35.749259,-0.002636491424507565,-0.02263404056809607,0.09715228999426605,32.08287849390507,-96.25519929585457,76.200527287817
2024-09-23 16:38:22.870429,40.61,35.749259,-0.002636491424507565,-0.022982261414192504,0.0973512698629459,40.106058693909645,-96.25519929585457,76.200527287817
2024-09-23 16:38:22.881539,40.61,35.749346,-0.002636491424507565,-0.022982261414192504,0.0973512698629459,40.106058693909645,-96.25519929585457,80.21211738781929
2024-09-23 16:38:22.915020,40.61,35.749346,-0.0030841997366068195,-0.02313149783467906,0.0973512698629459,40.106058693909645,-96.25519929585457,80.21211738781929
2024-09-23 16:38:22.926971,40.61,35.749346,-0.0030841997366068195,-0.02313149783467906,0.09675432418099966,40.106058693909645,-96.25519929585457,80.21211738781929
2024-09-23 16:38:22.969037,40.61,35.749398,-0.0030841997366068195,-0.023827930413011865,0.09755024973162574,36.09446859390736,-96.25519929585457,80.21211738781929
2024-09-23 16:38:23.011727,40.61,35.749448,-0.0030841997366068195,-0.023827930413011865,0.09755024973162574,36.09446859390736,-96.25519929585457,84.22370748782159
2024-09-23 16:38:23.023156,40.61,35.749448,-0.0033329230534799477,-0.023927417309398437,0.09685382322919964,40.106058693909645,-96.25519929585457,84.22370748782159
2024-09-23 16:38:23.067027,40.61,35.749499,-0.002586742470023829,-0.02362894446842532,0.0976994861521123,40.106058693909645,-92.24360919585227,84.22370748782159
2024-09-23 16:38:23.110896,40.61,35.749499,-0.002586742470023829,-0.02362894446842532,0.0976994861521123,36.09446859390736,-100.26678939585686,84.22370748782159
2024-09-23 16:38:23.122128,40.61,35.74955,-0.0028354659767690416,-0.02308174982955575,0.0976994861521123,36.09446859390736,-100.26678939585686,80.21211738781929
2024-09-23 16:38:23.164633,40.61,35.7496,-0.0034324103296106863,-0.02308174982955575,0.0973512698629459,32.08287849390507,-96.25519929585457,80.21211738781929
2024-09-23 16:38:23.207935,40.61,35.7496,-0.0034324103296106863,-0.022584292562972758,0.09705279702197278,40.106058693909645,-96.25519929585457,80.21211738781929
2024-09-23 16:38:23.219122,40.61,35.749687,-0.0034324103296106863,-0.022584292562972758,0.09705279702197278,40.106058693909645,-100.26678939585686,84.22370748782159
2024-09-23 16:38:23.261955,40.61,35.749687,-0.0028354659767690416,-0.023181236725942318,0.09740101331113918,36.09446859390736,-100.26678939585686,80.21211738781929
2024-09-23 16:38:23.304939,40.61,35.749739,-0.0028354659767690416,-0.023181236725942318,0.09740101331113918,36.09446859390736,-100.26678939585686,80.21211738781929
2024-09-23 16:38:23.316557,40.61,35.749739,-0.0028354659767690416,-0.02308174982955575,0.09685382322919964,40.106058693909645,-96.25519929585457,80.21211738781929
2024-09-23 16:38:23.359767,41.04,35.749789,-0.002636491424507565,-0.023429960042815445,0.0973512698629459,40.106058693909645,-96.25519929585457,76.200527287817
2024-09-23 16:38:23.402046,41.04,35.749789,-0.002636491424507565,-0.023429960042815445,0.0973512698629459,40.106058693909645,-100.26678939585686,80.21211738781929
2024-09-23 16:38:23.413720,41.04,35.74984,-0.0029349636958644295,-0.023479709566915436,0.09705279702197278,40.106058693909645,-100.26678939585686,80.21211738781929
2024-09-23 16:38:23.456914,41.04,35.749891,-0.0030841997366068195,-0.023479709566915436,0.09705279702197278,44.11764879391193,-100.26678939585686,84.22370748782159
2024-09-23 16:38:23.499405,41.04,35.749891,-0.0030841997366068195,-0.023479709566915436,0.09750050628343246,32.08287849390507,-100.26678939585686,84.22370748782159
2024-09-23 16:38:23.510595,41.04,35.749941,-0.0028852147413806935,-0.023479709566915436,0.09750050628343246,32.08287849390507,-100.26678939585686,80.21211738781929
2024-09-23 16:38:23.552653,41.04,35.749941,-0.0028852147413806935,-0.023181236725942318,0.09695331012558621,40.106058693909645,-96.25519929585457,84.22370748782159
2024-09-23 16:38:23.564678,41.04,35.750028,-0.0028852147413806935,-0.023181236725942318,0.09695331012558621,40.106058693909645,-96.25519929585457,84.22370748782159
2024-09-23 16:38:23.597339,41.04,35.750028,-0.0031339382481259063,-0.023230986250042305,0.09695331012558621,40.106058693909645,-96.25519929585457,84.22370748782159
2024-09-23 16:38:23.608840,41.04,35.750028,-0.0031339382481259063,-0.023230986250042305,0.09715228999426605,36.09446859390736,-84.22370748782159,84.22370748782159
2024-09-23 16:38:23.651033,41.04,35.75008,-0.0034324103296106863,-0.02352945757203875,0.09685382322919964,32.08287849390507,-84.22370748782159,84.22370748782159
2024-09-23 16:38:23.663027,41.04,35.75008,-0.0034324103296106863,-0.02352945757203875,0.09685382322919964,32.08287849390507,-88.23529758782387,84.22370748782159
2024-09-23 16:38:23.695876,41.04,35.750131,-0.0036811340262279837,-0.02352945757203875,0.09685382322919964,32.08287849390507,-88.23529758782387,84.22370748782159
2024-09-23 16:38:23.707216,41.04,35.750131,-0.0036811340262279837,-0.023579196463302005,0.0973015264147526,32.08287849390507,-88.23529758782387,84.22370748782159
2024-09-23 16:38:23.749163,41.04,35.750182,-0.0024872551938930902,-0.02303200030545576,0.0973015264147526,36.09446859390736,-96.25519929585457,76.200527287817
2024-09-23 16:38:23.791507,41.04,35.750182,-0.0024872551938930902,-0.02303200030545576,0.09755024973162574,36.09446859390736,-96.25519929585457,76.200527287817
2024-09-23 16:38:23.803595,41.04,35.750232,-0.0029847020175114316,-0.02303200030545576,0.09755024973162574,40.106058693909645,-92.24360919585227,80.21211738781929
2024-09-23 16:38:23.846542,41.04,35.750232,-0.0029847020175114316,-0.02263404056809607,0.09670458680871308,36.09446859390736,-88.23529758782387,84.22370748782159
2024-09-23 16:38:23.858334,41.04,35.750283,-0.0029847020175114316,-0.02263404056809607,0.09670458680871308,36.09446859390736,-88.23529758782387,84.22370748782159
2024-09-23 16:38:23.889949,41.04,35.750283,-0.003233425524256645,-0.023429960042815445,0.09670458680871308,36.09446859390736,-88.23529758782387,84.22370748782159
2024-09-23 16:38:23.901764,41.04,35.750283,-0.003233425524256645,-0.023429960042815445,0.0973015264147526,28.07457030097246,-100.26678939585686,84.22370748782159
2024-09-23 16:38:23.944638,41.04,35.75037,-0.002636491424507565,-0.02313149783467906,0.09750050628343246,36.09446859390736,-96.25519929585457,84.22370748782159
2024-09-23 16:38:23.986956,41.04,35.750421,-0.002636491424507565,-0.02313149783467906,0.09750050628343246,36.09446859390736,-96.25519929585457,84.22370748782159
2024-09-23 16:38:23.998222,41.04,35.750421,-0.0029349636958644295,-0.02362894446842532,0.09665483728461309,40.106058693909645,-96.25519929585457,84.22370748782159
2024-09-23 16:38:24.040277,41.04,35.750472,-0.0029349636958644295,-0.02308174982955575,0.09665483728461309,40.106058693909645,-92.24360919585227,80.21211738781929
2024-09-23 16:38:24.052422,41.04,35.750472,-0.0029349636958644295,-0.02308174982955575,0.09715228999426605,40.106058693909645,-92.24360919585227,80.21211738781929
2024-09-23 16:38:24.084282,41.04,35.750472,-0.0029349636958644295,-0.02308174982955575,0.09715228999426605,44.11764879391193,-96.25519929585457,80.21211738781929
2024-09-23 16:38:24.096022,41.04,35.750523,-0.0025369937054121774,-0.022833026512682618,0.09715228999426605,44.11764879391193,-96.25519929585457,72.1922225099802
2024-09-23 16:38:24.139273,41.04,35.750573,-0.003233425524256645,-0.022833026512682618,0.09710254654607277,36.09446859390736,-96.25519929585457,72.1922225099802
2024-09-23 16:38:24.181648,41.04,35.750573,-0.003233425524256645,-0.023579196463302005,0.09720203344245934,36.09446859390736,-96.25519929585457,72.1922225099802
2024-09-23 16:38:24.193483,41.04,35.750662,-0.003233425524256645,-0.023579196463302005,0.09720203344245934,32.08287849390507,-92.24360919585227,76.200527287817
2024-09-23 16:38:24.235765,41.04,35.750662,-0.0031836870127375577,-0.02313149783467906,0.09750050628343246,36.09446859390736,-96.25519929585457,76.200527287817
2024-09-23 16:38:24.248004,41.04,35.750662,-0.0031836870127375577,-0.02313149783467906,0.09750050628343246,36.09446859390736,-96.25519929585457,80.21211738781929
2024-09-23 16:38:24.280308,41.04,35.750714,-0.0031836870127375577,-0.02313149783467906,0.09750050628343246,36.09446859390736,-96.25519929585457,80.21211738781929
2024-09-23 16:38:24.291485,41.04,35.750714,-0.0031836870127375577,-0.023181236725942318,0.09725178296655933,44.11764879391193,-96.25519929585457,80.21211738781929
2024-09-23 16:38:24.334102,41.04,35.750764,-0.0032831742888682963,-0.023330473146428877,0.0973512698629459,44.11764879391193,-96.25519929585457,80.21211738781929
2024-09-23 16:38:24.346042,41.04,35.750764,-0.0032831742888682963,-0.023330473146428877,0.0973512698629459,44.11764879391193,-96.25519929585457,80.21211738781929
2024-09-23 16:38:24.378666,41.56,35.750815,-0.0032831742888682963,-0.023330473146428877,0.0973512698629459,44.11764879391193,-92.24360919585227,80.21211738781929
2024-09-23 16:38:24.389990,41.56,35.750815,-0.0030841997366068195,-0.02303200030545576,0.0970030596496862,44.11764879391193,-92.24360919585227,80.21211738781929
2024-09-23 16:38:24.431852,41.56,35.750866,-0.003233425524256645,-0.02268379009219606,0.0970030596496862,44.11764879391193,-96.25519929585457,88.23529758782387
2024-09-23 16:38:24.475840,41.56,35.750866,-0.003233425524256645,-0.02268379009219606,0.09680407370509965,44.11764879391193,-100.26678939585686,88.23529758782387
2024-09-23 16:38:24.487167,41.56,35.750916,-0.003382661564999035,-0.02268379009219606,0.09680407370509965,44.11764879391193,-100.26678939585686,80.21211738781929
2024-09-23 16:38:24.529946,41.56,35.751003,-0.003382661564999035,-0.023280723622328886,0.0966050877605131,36.09446859390736,-100.26678939585686,80.21211738781929
2024-09-23 16:38:24.572368,41.56,35.751003,-0.002785727465249955,-0.02268379009219606,0.0966050877605131,36.09446859390736,-100.26678939585686,80.21211738781929
2024-09-23 16:38:24.584562,41.56,35.751003,-0.002785727465249955,-0.02268379009219606,0.09695331012558621,44.11764879391193,-92.24360919585227,76.200527287817
2024-09-23 16:38:24.628725,41.56,35.751055,-0.0031339382481259063,-0.023579196463302005,0.09695331012558621,40.106058693909645,-100.26678939585686,76.200527287817
2024-09-23 16:38:24.671556,41.56,35.751106,-0.0031339382481259063,-0.023579196463302005,0.09695331012558621,40.106058693909645,-100.26678939585686,80.21211738781929
2024-09-23 16:38:24.682996,41.56,35.751106,-0.0030344509719951677,-0.023479709566915436,0.09710254654607277,48.12595698684454,-100.26678939585686,80.21211738781929
2024-09-23 16:38:24.767372,41.56,35.751106,-0.0030344509719951677,-0.023479709566915436,0.09710254654607277,48.12595698684454,-100.26678939585686,80.21211738781929
2024-09-23 16:38:24.778418,41.56,35.751156,-0.0030841997366068195,-0.02367869399252531,0.09665483728461309,48.12595698684454,-100.26678939585686,80.21211738781929
2024-09-23 16:38:24.820698,41.56,35.751207,-0.0030841997366068195,-0.02367869399252531,0.09665483728461309,44.11764879391193,-96.25519929585457,80.21211738781929
2024-09-23 16:38:24.833008,41.56,35.751207,-0.0030841997366068195,-0.023230986250042305,0.09665483728461309,44.11764879391193,-96.25519929585457,80.21211738781929
2024-09-23 16:38:24.866293,41.56,35.751207,-0.0030841997366068195,-0.023230986250042305,0.0973512698629459,40.106058693909645,-92.24360919585227,80.21211738781929
2024-09-23 16:38:24.877730,41.56,35.751258,-0.0030841997366068195,-0.023230986250042305,0.0973512698629459,40.106058693909645,-92.24360919585227,80.21211738781929
2024-09-23 16:38:24.920338,41.56,35.751258,-0.0031339382481259063,-0.023579196463302005,0.0973512698629459,36.09446859390736,-96.25519929585457,76.200527287817
2024-09-23 16:38:24.962016,41.56,35.751345,-0.0023380189632786156,-0.023579196463302005,0.0973512698629459,36.09446859390736,-96.25519929585457,76.200527287817
2024-09-23 16:38:24.973469,41.56,35.751345,-0.0023380189632786156,-0.02293251340906919,0.09725178296655933,32.08287849390507,-96.25519929585457,76.200527287817
2024-09-23 16:38:25.016691,41.56,35.751443,-0.0030841997366068195,-0.02313149783467906,0.09740101331113918,32.08287849390507,-96.25519929585457,80.21211738781929
2024-09-23 16:38:25.028387,41.56,35.751443,-0.0030841997366068195,-0.02313149783467906,0.09740101331113918,28.07457030097246,-96.25519929585457,80.21211738781929
2024-09-23 16:38:25.060640,41.56,35.751443,-0.0030841997366068195,-0.02313149783467906,0.09740101331113918,28.07457030097246,-96.25519929585457,80.21211738781929
2024-09-23 16:38:25.071816,41.56,35.751494,-0.0025369937054121774,-0.02313149783467906,0.0970030596496862,28.07457030097246,-96.25519929585457,80.21211738781929
2024-09-23 16:38:25.115850,41.56,35.751545,-0.0030344509719951677,-0.02308174982955575,0.0970030596496862,44.11764879391193,-92.24360919585227,84.22370748782159
2024-09-23 16:38:25.158652,41.56,35.751545,-0.0030344509719951677,-0.02308174982955575,0.0973015264147526,40.106058693909645,-96.25519929585457,84.22370748782159
2024-09-23 16:38:25.169766,41.56,35.751596,-0.0029349636958644295,-0.02308174982955575,0.0973015264147526,40.106058693909645,-96.25519929585457,80.21211738781929
2024-09-23 16:38:25.212440,41.56,35.751686,-0.0029349636958644295,-0.023280723622328886,0.09705279702197278,32.08287849390507,-96.25519929585457,80.21211738781929
2024-09-23 16:38:25.256621,41.56,35.751686,-0.0031339382481259063,-0.023479709566915436,0.09740101331113918,32.08287849390507,-96.25519929585457,80.21211738781929
2024-09-23 16:38:25.267619,41.56,35.751686,-0.0031339382481259063,-0.023479709566915436,0.09740101331113918,48.12595698684454,-104.27510100388527,72.1922225099802
2024-09-23 16:38:25.310236,41.56,35.751738,-0.0034324103296106863,-0.023479709566915436,0.0973015264147526,32.08287849390507,-96.25519929585457,72.1922225099802
2024-09-23 16:38:25.352964,41.56,35.751788,-0.0030344509719951677,-0.023479709566915436,0.0973015264147526,32.08287849390507,-96.25519929585457,80.21211738781929
2024-09-23 16:38:25.364279,41.56,35.751788,-0.0030344509719951677,-0.02308174982955575,0.09690356060148622,36.09446859390736,-96.25519929585457,80.21211738781929
2024-09-23 16:38:25.406807,41.32,35.751839,-0.0025369937054121774,-0.02308174982955575,0.09710254654607277,36.09446859390736,-88.23529758782387,84.22370748782159
2024-09-23 16:38:25.450426,41.32,35.751839,-0.0025369937054121774,-0.02308174982955575,0.09710254654607277,48.12595698684454,-100.26678939585686,84.22370748782159
2024-09-23 16:38:25.462420,41.32,35.75189,-0.0028354659767690416,-0.02352945757203875,0.09710254654607277,48.12595698684454,-100.26678939585686,76.200527287817
2024-09-23 16:38:25.505937,41.32,35.75194,-0.0028354659767690416,-0.02352945757203875,0.09710254654607277,36.09446859390736,-100.26678939585686,76.200527287817
2024-09-23 16:38:25.517353,41.32,35.75194,-0.0030344509719951677,-0.02352945757203875,0.09710254654607277,36.09446859390736,-100.26678939585686,76.200527287817
2024-09-23 16:38:25.549880,41.32,35.75194,-0.0030344509719951677,-0.02338022115155219,0.09675432418099966,28.07457030097246,-96.25519929585457,76.200527287817
2024-09-23 16:38:25.561163,41.32,35.752027,-0.0030344509719951677,-0.02338022115155219,0.09675432418099966,28.07457030097246,-96.25519929585457,76.200527287817
2024-09-23 16:38:25.604032,41.32,35.752027,-0.0029349636958644295,-0.023579196463302005,0.09620712802315341,36.09446859390736,-96.25519929585457,80.21211738781929
2024-09-23 16:38:25.648044,41.32,35.752079,-0.002636491424507565,-0.023181236725942318,0.09685382322919964,36.09446859390736,-96.25519929585457,80.21211738781929
2024-09-23 16:38:25.659761,41.32,35.752079,-0.002636491424507565,-0.023181236725942318,0.09685382322919964,36.09446859390736,-100.26678939585686,80.21211738781929
2024-09-23 16:38:25.691438,41.32,35.752079,-0.002636491424507565,-0.023181236725942318,0.09685382322919964,36.09446859390736,-100.26678939585686,80.21211738781929
2024-09-23 16:38:25.702621,41.32,35.752129,-0.0027359787006383035,-0.023230986250042305,0.09725178296655933,36.09446859390736,-100.26678939585686,80.21211738781929
2024-09-23 16:38:25.797870,41.32,35.75218,-0.0028852147413806935,-0.023778180888911878,0.09690356060148622,36.09446859390736,-96.25519929585457,80.21211738781929
2024-09-23 16:38:25.842718,41.32,35.75218,-0.0028852147413806935,-0.023778180888911878,0.09690356060148622,36.09446859390736,-92.24360919585227,76.200527287817
2024-09-23 16:38:25.854474,41.32,35.752231,-0.0031836870127375577,-0.023330473146428877,0.09690356060148622,36.09446859390736,-92.24360919585227,76.200527287817
2024-09-23 16:38:25.887894,41.32,35.752231,-0.0031836870127375577,-0.023330473146428877,0.09824668230995855,36.09446859390736,-92.24360919585227,76.200527287817
2024-09-23 16:38:25.899489,41.32,35.752281,-0.0028852147413806935,-0.023330473146428877,0.09824668230995855,36.09446859390736,-96.25519929585457,80.21211738781929
2024-09-23 16:38:25.942886,41.32,35.752368,-0.0028852147413806935,-0.022982261414192504,0.09690356060148622,32.08287849390507,-96.25519929585457,80.21211738781929
2024-09-23 16:38:25.985094,41.32,35.752368,-0.0030841997366068195,-0.023429960042815445,0.09690356060148622,32.08287849390507,-96.25519929585457,80.21211738781929
2024-09-23 16:38:25.996677,41.32,35.752368,-0.0030841997366068195,-0.023429960042815445,0.09764974270391902,44.11764879391193,-92.24360919585227,84.22370748782159
2024-09-23 16:38:26.039775,41.32,35.752466,-0.003233425524256645,-0.023330473146428877,0.09710254654607277,36.09446859390736,-92.24360919585227,84.22370748782159
2024-09-23 16:38:26.052181,41.32,35.752466,-0.003233425524256645,-0.023330473146428877,0.09710254654607277,36.09446859390736,-100.26678939585686,84.22370748782159
2024-09-23 16:38:26.085078,41.32,35.752518,-0.0030841997366068195,-0.023330473146428877,0.09710254654607277,36.09446859390736,-100.26678939585686,84.22370748782159
2024-09-23 16:38:26.096691,41.32,35.752518,-0.0030841997366068195,-0.02367869399252531,0.0973015264147526,40.106058693909645,-100.26678939585686,84.22370748782159
2024-09-23 16:38:26.139417,41.32,35.752569,-0.0034324103296106863,-0.02263404056809607,0.09710254654607277,40.106058693909645,-100.26678939585686,76.200527287817
2024-09-23 16:38:26.181309,41.32,35.752569,-0.0034324103296106863,-0.02263404056809607,0.09710254654607277,36.09446859390736,-84.22370748782159,76.200527287817
2024-09-23 16:38:26.234595,41.32,35.752619,-0.0026862297461545674,-0.022982261414192504,0.09779897304849887,36.09446859390736,-84.22370748782159,76.200527287817
2024-09-23 16:38:26.246749,41.32,35.752619,-0.0026862297461545674,-0.022982261414192504,0.09779897304849887,40.106058693909645,-84.22370748782159,76.200527287817
2024-09-23 16:38:26.278427,41.32,35.752619,-0.0026862297461545674,-0.022982261414192504,0.09779897304849887,40.106058693909645,-88.23529758782387,92.24360919585227
2024-09-23 16:38:26.289484,41.32,35.75267,-0.0029349636958644295,-0.023280723622328886,0.09685382322919964,40.106058693909645,-88.23529758782387,92.24360919585227
2024-09-23 16:38:26.333797,41.32,35.752758,-0.0027359787006383035,-0.023181236725942318,0.09685382322919964,36.09446859390736,-96.25519929585457,72.1922225099802
2024-09-23 16:38:26.376165,41.32,35.752758,-0.0027359787006383035,-0.023181236725942318,0.09705279702197278,44.11764879391193,-96.25519929585457,72.1922225099802
2024-09-23 16:38:26.387444,41.32,35.75281,-0.002586742470023829,-0.023181236725942318,0.09705279702197278,44.11764879391193,-100.26678939585686,76.200527287817
2024-09-23 16:38:26.429617,41.05,35.75281,-0.002586742470023829,-0.023230986250042305,0.09764974270391902,28.07457030097246,-104.27510100388527,76.200527287817
2024-09-23 16:38:26.441791,41.05,35.752861,-0.002586742470023829,-0.023230986250042305,0.09764974270391902,28.07457030097246,-104.27510100388527,76.200527287817
2024-09-23 16:38:26.475130,41.05,35.752861,-0.002437506429281439,-0.02352945757203875,0.0973512698629459,28.07457030097246,-104.27510100388527,76.200527287817
2024-09-23 16:38:26.486675,41.05,35.752861,-0.002437506429281439,-0.02352945757203875,0.0973512698629459,40.106058693909645,-96.25519929585457,76.200527287817
2024-09-23 16:38:26.529923,41.05,35.752954,-0.002785727465249955,-0.023330473146428877,0.09705279702197278,40.106058693909645,-96.25519929585457,76.200527287817
2024-09-23 16:38:26.571744,41.05,35.753005,-0.003382661564999035,-0.023330473146428877,0.09705279702197278,40.106058693909645,-96.25519929585457,76.200527287817
2024-09-23 16:38:26.583208,41.05,35.753005,-0.003382661564999035,-0.022982261414192504,0.09715228999426605,40.106058693909645,-96.25519929585457,76.200527287817
2024-09-23 16:38:26.625619,41.05,35.753056,-0.0034324103296106863,-0.02308174982955575,0.09755024973162574,40.106058693909645,-100.26678939585686,76.200527287817
2024-09-23 16:38:26.668560,41.05,35.753056,-0.0034324103296106863,-0.02308174982955575,0.09755024973162574,40.106058693909645,-104.27510100388527,76.200527287817
2024-09-23 16:38:26.679448,41.05,35.753107,-0.0029349636958644295,-0.023429960042815445,0.09755024973162574,40.106058693909645,-104.27510100388527,76.200527287817
2024-09-23 16:38:26.722846,41.05,35.753157,-0.0029349636958644295,-0.023429960042815445,0.0973512698629459,36.09446859390736,-100.26678939585686,80.21211738781929
2024-09-23 16:38:26.734491,41.05,35.753157,-0.0038303700669703737,-0.023429960042815445,0.0973512698629459,36.09446859390736,-100.26678939585686,80.21211738781929
2024-09-23 16:38:26.817146,41.05,35.753157,-0.0038303700669703737,-0.023181236725942318,0.0970030596496862,36.09446859390736,-96.25519929585457,80.21211738781929
2024-09-23 16:38:26.828640,41.05,35.753246,-0.0038303700669703737,-0.023181236725942318,0.0970030596496862,36.09446859390736,-96.25519929585457,76.200527287817
2024-09-23 16:38:26.861265,41.05,35.753246,-0.0030841997366068195,-0.023181236725942318,0.0970030596496862,36.09446859390736,-96.25519929585457,76.200527287817
2024-09-23 16:38:26.872554,41.05,35.753246,-0.0030841997366068195,-0.023827930413011865,0.09745075675933246,52.137550501942634,-96.25519929585457,80.21211738781929
2024-09-23 16:38:26.914347,41.05,35.753297,-0.0030841997366068195,-0.02303200030545576,0.09745075675933246,52.137550501942634,-96.25519929585457,80.21211738781929
2024-09-23 16:38:26.925382,41.05,35.753297,-0.0030841997366068195,-0.02303200030545576,0.09725178296655933,40.106058693909645,-100.26678939585686,80.21211738781929
2024-09-23 16:38:26.969308,41.05,35.753348,-0.0031339382481259063,-0.023479709566915436,0.09710254654607277,32.08287849390507,-100.26678939585686,76.200527287817
2024-09-23 16:38:27.012119,41.05,35.753399,-0.003382661564999035,-0.023479709566915436,0.09710254654607277,32.08287849390507,-96.25519929585457,80.21211738781929
2024-09-23 16:38:27.023798,41.05,35.753399,-0.003382661564999035,-0.023429960042815445,0.09670458680871308,32.08287849390507,-96.25519929585457,80.21211738781929
2024-09-23 16:38:27.066637,41.05,35.753492,-0.0028852147413806935,-0.022733528983459317,0.09670458680871308,36.09446859390736,-92.24360919585227,84.22370748782159
2024-09-23 16:38:27.110973,41.05,35.753492,-0.0028852147413806935,-0.022733528983459317,0.09720203344245934,40.106058693909645,-100.26678939585686,84.22370748782159
2024-09-23 16:38:27.123989,41.05,35.753543,-0.0029349636958644295,-0.022733528983459317,0.09720203344245934,40.106058693909645,-100.26678939585686,84.22370748782159
2024-09-23 16:38:27.156181,41.05,35.753543,-0.0029349636958644295,-0.0228827638849692,0.09710254654607277,40.106058693909645,-100.26678939585686,84.22370748782159
2024-09-23 16:38:27.167624,41.05,35.753636,-0.0029349636958644295,-0.0228827638849692,0.09710254654607277,40.106058693909645,-96.25519929585457,80.21211738781929
2024-09-23 16:38:27.211495,41.05,35.753636,-0.0030344509719951677,-0.023330473146428877,0.09695331012558621,28.07457030097246,-100.26678939585686,84.22370748782159
2024-09-23 16:38:27.254976,41.05,35.753687,-0.0030841997366068195,-0.02293251340906919,0.09695331012558621,28.07457030097246,-100.26678939585686,84.22370748782159
2024-09-23 16:38:27.266583,41.05,35.753687,-0.0030841997366068195,-0.02293251340906919,0.09715228999426605,32.08287849390507,-104.27510100388527,84.22370748782159
2024-09-23 16:38:27.310893,41.05,35.753738,-0.0031836870127375577,-0.023230986250042305,0.09685382322919964,40.106058693909645,-104.27510100388527,76.200527287817
2024-09-23 16:38:27.353422,41.05,35.753789,-0.0031836870127375577,-0.023230986250042305,0.09685382322919964,40.106058693909645,-100.26678939585686,76.200527287817
2024-09-23 16:38:27.364710,41.05,35.753789,-0.003482159473966507,-0.02313149783467906,0.09695331012558621,40.106058693909645,-100.26678939585686,76.200527287817
2024-09-23 16:38:27.407579,41.05,35.753839,-0.0027359787006383035,-0.02338022115155219,0.09695331012558621,36.09446859390736,-104.27510100388527,72.1922225099802
2024-09-23 16:38:27.450205,40.95,35.753839,-0.0027359787006383035,-0.02338022115155219,0.09695331012558621,36.09446859390736,-100.26678939585686,72.1922225099802
2024-09-23 16:38:27.462147,40.95,35.75389,-0.0034324103296106863,-0.02338022115155219,0.09695331012558621,36.09446859390736,-100.26678939585686,72.1922225099802
2024-09-23 16:38:27.505116,40.95,35.753977,-0.0034324103296106863,-0.023330473146428877,0.09725178296655933,44.11764879391193,-92.24360919585227,80.21211738781929
2024-09-23 16:38:27.546990,40.95,35.753977,-0.0025369937054121774,-0.02352945757203875,0.09715228999426605,44.11764879391193,-92.24360919585227,80.21211738781929
2024-09-23 16:38:27.558778,40.95,35.753977,-0.0025369937054121774,-0.02352945757203875,0.09715228999426605,44.11764879391193,-92.24360919585227,76.200527287817
2024-09-23 16:38:27.601901,40.95,35.754029,-0.0029847020175114316,-0.023280723622328886,0.0973015264147526,36.09446859390736,-100.26678939585686,76.200527287817
2024-09-23 16:38:27.645205,40.95,35.754079,-0.0031339382481259063,-0.023280723622328886,0.0973015264147526,36.09446859390736,-100.26678939585686,80.21211738781929
2024-09-23 16:38:27.656618,40.95,35.754079,-0.0031339382481259063,-0.02352945757203875,0.09745075675933246,48.12595698684454,-100.26678939585686,80.21211738781929
2024-09-23 16:38:27.699406,40.95,35.75413,-0.0027359787006383035,-0.023181236725942318,0.09715228999426605,48.12595698684454,-104.27510100388527,72.1922225099802
2024-09-23 16:38:27.742003,40.95,35.75413,-0.0027359787006383035,-0.023181236725942318,0.09715228999426605,40.106058693909645,-96.25519929585457,76.200527287817
2024-09-23 16:38:27.753117,40.95,35.754181,-0.0029349636958644295,-0.022833026512682618,0.09715228999426605,40.106058693909645,-96.25519929585457,76.200527287817
2024-09-23 16:38:27.837818,40.95,35.754181,-0.0029349636958644295,-0.022833026512682618,0.0970030596496862,32.08287849390507,-96.25519929585457,76.200527287817
2024-09-23 16:38:27.849364,40.95,35.754231,-0.0026862297461545674,-0.022833026512682618,0.0970030596496862,32.08287849390507,-96.25519929585457,80.21211738781929
2024-09-23 16:38:27.892183,40.95,35.754231,-0.0026862297461545674,-0.02352945757203875,0.09695331012558621,44.11764879391193,-92.24360919585227,84.22370748782159
2024-09-23 16:38:27.904758,40.95,35.754318,-0.0026862297461545674,-0.02352945757203875,0.09695331012558621,44.11764879391193,-92.24360919585227,84.22370748782159
2024-09-23 16:38:27.937244,40.95,35.754318,-0.0029349636958644295,-0.02263404056809607,0.0966050877605131,44.11764879391193,-92.24360919585227,84.22370748782159
2024-09-23 16:38:27.948835,40.95,35.754318,-0.0029349636958644295,-0.02263404056809607,0.0966050877605131,32.08287849390507,-92.24360919585227,80.21211738781929
2024-09-23 16:38:27.991787,40.95,35.754371,-0.0035318979854855937,-0.023330473146428877,0.09705279702197278,36.09446859390736,-96.25519929585457,80.21211738781929
2024-09-23 16:38:28.033446,40.95,35.754421,-0.0035318979854855937,-0.023330473146428877,0.09705279702197278,36.09446859390736,-96.25519929585457,84.22370748782159
2024-09-23 16:38:28.045194,40.95,35.754421,-0.0033329230534799477,-0.023479709566915436,0.09755024973162574,40.106058693909645,-96.25519929585457,84.22370748782159
2024-09-23 16:38:28.087894,40.95,35.754515,-0.0035318979854855937,-0.023579196463302005,0.09755024973162574,40.106058693909645,-92.24360919585227,80.21211738781929
2024-09-23 16:38:28.100219,40.95,35.754515,-0.0035318979854855937,-0.023579196463302005,0.09690356060148622,40.106058693909645,-92.24360919585227,80.21211738781929
2024-09-23 16:38:28.132839,40.95,35.754515,-0.0035318979854855937,-0.023579196463302005,0.09690356060148622,32.08287849390507,-96.25519929585457,80.21211738781929
2024-09-23 16:38:28.144731,40.95,35.754566,-0.0029847020175114316,-0.023479709566915436,0.09690356060148622,32.08287849390507,-96.25519929585457,80.21211738781929
2024-09-23 16:38:28.177883,40.95,35.754566,-0.0029847020175114316,-0.023479709566915436,0.0970030596496862,32.08287849390507,-96.25519929585457,80.21211738781929
2024-09-23 16:38:28.189572,40.95,35.754617,-0.0027359787006383035,-0.023479709566915436,0.0970030596496862,36.09446859390736,-100.26678939585686,80.21211738781929
2024-09-23 16:38:28.232552,40.95,35.754617,-0.0027359787006383035,-0.023181236725942318,0.09720203344245934,24.06297849342227,-100.26678939585686,84.22370748782159
2024-09-23 16:38:28.244351,40.95,35.754708,-0.0027359787006383035,-0.023181236725942318,0.09720203344245934,24.06297849342227,-100.26678939585686,84.22370748782159
2024-09-23 16:38:28.277293,40.95,35.754708,-0.0031339382481259063,-0.02308174982955575,0.09720203344245934,24.06297849342227,-100.26678939585686,84.22370748782159
2024-09-23 16:38:28.288551,40.95,35.754708,-0.0031339382481259063,-0.02308174982955575,0.09695331012558621,24.06297849342227,-96.25519929585457,80.21211738781929
2024-09-23 16:38:28.330888,40.95,35.75476,-0.0031836870127375577,-0.023728432883788564,0.09750050628343246,36.09446859390736,-96.25519929585457,80.21211738781929
2024-09-23 16:38:28.343085,40.95,35.75476,-0.0031836870127375577,-0.023728432883788564,0.09750050628343246,36.09446859390736,-100.26678939585686,80.21211738781929
2024-09-23 16:38:28.375913,40.95,35.754811,-0.0030841997366068195,-0.023728432883788564,0.09750050628343246,36.09446859390736,-100.26678939585686,76.200527287817
2024-09-23 16:38:28.386885,40.95,35.754811,-0.0030841997366068195,-0.023429960042815445,0.09759999317981902,40.106058693909645,-100.26678939585686,76.200527287817
2024-09-23 16:38:28.429341,40.95,35.754861,-0.003233425524256645,-0.02293251340906919,0.09705279702197278,40.106058693909645,-96.25519929585457,80.21211738781929
2024-09-23 16:38:28.471351,41.07,35.754861,-0.003233425524256645,-0.02293251340906919,0.09705279702197278,24.06297849342227,-96.25519929585457,80.21211738781929
2024-09-23 16:38:28.483290,41.07,35.754912,-0.0030344509719951677,-0.023778180888911878,0.09705279702197278,24.06297849342227,-96.25519929585457,76.200527287817
2024-09-23 16:38:28.525186,41.07,35.754963,-0.0030344509719951677,-0.023778180888911878,0.09774922960030558,28.07457030097246,-96.25519929585457,76.200527287817
2024-09-23 16:38:28.536888,41.07,35.754963,-0.0030841997366068195,-0.023778180888911878,0.09774922960030558,28.07457030097246,-96.25519929585457,76.200527287817
2024-09-23 16:38:28.568986,41.07,35.754963,-0.0030841997366068195,-0.02313149783467906,0.09675432418099966,28.07457030097246,-96.25519929585457,76.200527287817
2024-09-23 16:38:28.580501,41.07,35.75505,-0.0030841997366068195,-0.02313149783467906,0.09675432418099966,48.12595698684454,-96.25519929585457,84.22370748782159
2024-09-23 16:38:28.622970,41.07,35.75505,-0.0027359787006383035,-0.02278327698858263,0.09670458680871308,40.106058693909645,-92.24360919585227,84.22370748782159
2024-09-23 16:38:28.634466,41.07,35.75505,-0.0027359787006383035,-0.02278327698858263,0.09670458680871308,40.106058693909645,-92.24360919585227,80.21211738781929
2024-09-23 16:38:28.666743,41.07,35.755101,-0.0030344509719951677,-0.02278327698858263,0.09670458680871308,40.106058693909645,-92.24360919585227,80.21211738781929
2024-09-23 16:38:28.677984,41.07,35.755101,-0.0030344509719951677,-0.022733528983459317,0.09750050628343246,36.09446859390736,-96.25519929585457,80.21211738781929
2024-09-23 16:38:28.720046,41.07,35.755152,-0.0028852147413806935,-0.023479709566915436,0.09725178296655933,36.09446859390736,-96.25519929585457,80.21211738781929
2024-09-23 16:38:28.732487,41.07,35.755152,-0.0028852147413806935,-0.023479709566915436,0.09725178296655933,32.08287849390507,-96.25519929585457,80.21211738781929
2024-09-23 16:38:28.764209,41.07,35.755152,-0.0028852147413806935,-0.023479709566915436,0.09725178296655933,32.08287849390507,-88.23529758782387,76.200527287817
2024-09-23 16:38:28.775120,41.07,35.755203,-0.0030344509719951677,-0.0228827638849692,0.09740101331113918,32.08287849390507,-88.23529758782387,76.200527287817
2024-09-23 16:38:28.868912,41.07,35.755253,-0.0037308827908396356,-0.023579196463302005,0.09740101331113918,36.09446859390736,-88.23529758782387,84.22370748782159
2024-09-23 16:38:28.912546,41.07,35.755253,-0.0037308827908396356,-0.023579196463302005,0.09670458680871308,24.06297849342227,-96.25519929585457,84.22370748782159
2024-09-23 16:38:28.924201,41.07,35.755304,-0.0034324103296106863,-0.023579196463302005,0.09670458680871308,24.06297849342227,-96.25519929585457,80.21211738781929
2024-09-23 16:38:28.966809,41.07,35.755391,-0.0034324103296106863,-0.022982261414192504,0.09715228999426605,48.12595698684454,-88.23529758782387,76.200527287817
2024-09-23 16:38:29.009290,41.07,35.755391,-0.0029349636958644295,-0.02313149783467906,0.09690356060148622,48.12595698684454,-88.23529758782387,76.200527287817
2024-09-23 16:38:29.020714,41.07,35.755391,-0.0029349636958644295,-0.02313149783467906,0.09690356060148622,52.137550501942634,-96.25519929585457,80.21211738781929
2024-09-23 16:38:29.063337,41.07,35.755442,-0.003382661564999035,-0.0225345536717095,0.09705279702197278,36.09446859390736,-100.26678939585686,80.21211738781929
2024-09-23 16:38:29.106917,41.07,35.755538,-0.003382661564999035,-0.0225345536717095,0.09705279702197278,36.09446859390736,-100.26678939585686,76.200527287817
2024-09-23 16:38:29.118636,41.07,35.755538,-0.003382661564999035,-0.023429960042815445,0.09695331012558621,40.106058693909645,-100.26678939585686,76.200527287817
2024-09-23 16:38:29.162471,41.07,35.755589,-0.0028354659767690416,-0.02338022115155219,0.09655535038822652,40.106058693909645,-92.24360919585227,80.21211738781929
2024-09-23 16:38:29.204981,41.07,35.755589,-0.0028354659767690416,-0.02338022115155219,0.09655535038822652,40.106058693909645,-96.25519929585457,80.21211738781929
2024-09-23 16:38:29.216441,41.07,35.75564,-0.0031339382481259063,-0.023230986250042305,0.09655535038822652,40.106058693909645,-96.25519929585457,80.21211738781929
2024-09-23 16:38:29.258675,41.07,35.755691,-0.0028852147413806935,-0.023230986250042305,0.09715228999426605,36.09446859390736,-96.25519929585457,80.21211738781929
2024-09-23 16:38:29.301368,41.07,35.755691,-0.0028852147413806935,-0.023330473146428877,0.09715228999426605,36.09446859390736,-96.25519929585457,80.21211738781929
2024-09-23 16:38:29.353620,41.07,35.755691,-0.0028852147413806935,-0.023330473146428877,0.09720203344245934,40.106058693909645,-100.26678939585686,76.200527287817
2024-09-23 16:38:29.366471,41.07,35.755781,-0.0030344509719951677,-0.023330473146428877,0.09720203344245934,40.106058693909645,-100.26678939585686,76.200527287817
2024-09-23 16:38:29.398813,41.07,35.755781,-0.0030344509719951677,-0.02293251340906919,0.09685382322919964,40.106058693909645,-100.26678939585686,76.200527287817
2024-09-23 16:38:29.410229,41.07,35.755832,-0.0030344509719951677,-0.02293251340906919,0.09685382322919964,36.09446859390736,-92.24360919585227,80.21211738781929
2024-09-23 16:38:29.452270,41.07,35.755832,-0.0029349636958644295,-0.02278327698858263,0.0973512698629459,28.07457030097246,-92.24360919585227,80.21211738781929
2024-09-23 16:38:29.464153,41.07,35.755832,-0.0029349636958644295,-0.02278327698858263,0.0973512698629459,28.07457030097246,-92.24360919585227,76.200527287817
2024-09-23 16:38:29.496382,41.22,35.755883,-0.0029349636958644295,-0.02278327698858263,0.0973512698629459,28.07457030097246,-92.24360919585227,76.200527287817
2024-09-23 16:38:29.508491,41.22,35.755883,-0.0029349636958644295,-0.023230986250042305,0.0973015264147526,36.09446859390736,-96.25519929585457,76.200527287817
2024-09-23 16:38:29.551373,41.22,35.755934,-0.0034324103296106863,-0.022833026512682618,0.0973015264147526,44.11764879391193,-96.25519929585457,84.22370748782159
2024-09-23 16:38:29.594868,41.22,35.756026,-0.0034324103296106863,-0.022833026512682618,0.0973015264147526,44.11764879391193,-92.24360919585227,80.21211738781929
2024-09-23 16:38:29.606633,41.22,35.756026,-0.0029349636958644295,-0.023230986250042305,0.09720203344245934,44.11764879391193,-92.24360919585227,80.21211738781929
2024-09-23 16:38:29.649961,41.22,35.756077,-0.0029847020175114316,-0.02352945757203875,0.09720203344245934,36.09446859390736,-96.25519929585457,76.200527287817
2024-09-23 16:38:29.692077,41.22,35.756077,-0.0029847020175114316,-0.02352945757203875,0.09675432418099966,36.09446859390736,-96.25519929585457,76.200527287817
2024-09-23 16:38:29.703262,41.22,35.756128,-0.0028852147413806935,-0.02352945757203875,0.09675432418099966,36.09446859390736,-96.25519929585457,80.21211738781929
2024-09-23 16:38:29.746497,41.22,35.75622,-0.0028852147413806935,-0.023479709566915436,0.09695331012558621,36.09446859390736,-100.26678939585686,76.200527287817
2024-09-23 16:38:29.790208,41.22,35.75622,-0.003233425524256645,-0.02313149783467906,0.09740101331113918,36.09446859390736,-100.26678939585686,76.200527287817
2024-09-23 16:38:29.801560,41.22,35.75622,-0.003233425524256645,-0.02313149783467906,0.09740101331113918,44.11764879391193,-92.24360919585227,80.21211738781929
2024-09-23 16:38:29.844574,41.22,35.756271,-0.003233425524256645,-0.02313149783467906,0.09740101331113918,44.11764879391193,-92.24360919585227,80.21211738781929
2024-09-23 16:38:29.887234,41.22,35.756271,-0.0032831742888682963,-0.023827930413011865,0.09740101331113918,44.11764879391193,-92.24360919585227,80.21211738781929
2024-09-23 16:38:29.899151,41.22,35.756271,-0.0032831742888682963,-0.023827930413011865,0.09764974270391902,36.09446859390736,-92.24360919585227,76.200527287817
2024-09-23 16:38:29.943664,41.22,35.756322,-0.002636491424507565,-0.022833026512682618,0.09685382322919964,44.11764879391193,-96.25519929585457,76.200527287817
2024-09-23 16:38:29.986414,41.22,35.756373,-0.0029349636958644295,-0.022833026512682618,0.09685382322919964,44.11764879391193,-96.25519929585457,80.21211738781929
2024-09-23 16:38:29.997472,41.22,35.756373,-0.0029349636958644295,-0.023280723622328886,0.09675432418099966,40.106058693909645,-96.25519929585457,80.21211738781929
2024-09-23 16:38:30.031699,41.22,35.756373,-0.0029349636958644295,-0.023280723622328886,0.09675432418099966,40.106058693909645,-96.25519929585457,80.21211738781929
2024-09-23 16:38:30.043631,41.22,35.756423,-0.002387757474797703,-0.02362894446842532,0.0976994861521123,40.106058693909645,-96.25519929585457,76.200527287817
2024-09-23 16:38:30.086037,41.22,35.756474,-0.0030344509719951677,-0.02362894446842532,0.0976994861521123,44.11764879391193,-96.25519929585457,80.21211738781929
2024-09-23 16:38:30.097772,41.22,35.756474,-0.0030344509719951677,-0.02362894446842532,0.0976994861521123,44.11764879391193,-96.25519929585457,80.21211738781929
2024-09-23 16:38:30.129856,41.22,35.756474,-0.0030344509719951677,-0.02362894446842532,0.09680407370509965,40.106058693909645,-96.25519929585457,80.21211738781929
2024-09-23 16:38:30.141838,41.22,35.756564,-0.0034324103296106863,-0.02362894446842532,0.09680407370509965,40.106058693909645,-92.24360919585227,80.21211738781929
2024-09-23 16:38:30.185157,41.22,35.756658,-0.0034324103296106863,-0.023579196463302005,0.098047696365372,40.106058693909645,-92.24360919585227,80.21211738781929
2024-09-23 16:38:30.228334,41.22,35.756658,-0.0034324103296106863,-0.023330473146428877,0.09690356060148622,40.106058693909645,-92.24360919585227,80.21211738781929
2024-09-23 16:38:30.239368,41.22,35.756658,-0.0034324103296106863,-0.023330473146428877,0.09690356060148622,32.08287849390507,-96.25519929585457,84.22370748782159
2024-09-23 16:38:30.281865,41.22,35.75671,-0.003482159473966507,-0.023479709566915436,0.09725178296655933,36.09446859390736,-92.24360919585227,84.22370748782159
2024-09-23 16:38:30.325248,41.22,35.756761,-0.003482159473966507,-0.023479709566915436,0.09725178296655933,36.09446859390736,-92.24360919585227,80.21211738781929
2024-09-23 16:38:30.336627,41.22,35.756761,-0.0028852147413806935,-0.023877669304275123,0.0973015264147526,32.08287849390507,-92.24360919585227,80.21211738781929
2024-09-23 16:38:30.378777,41.22,35.756811,-0.0029349636958644295,-0.02293251340906919,0.0973015264147526,32.08287849390507,-100.26678939585686,80.21211738781929
2024-09-23 16:38:30.390849,41.22,35.756811,-0.0029349636958644295,-0.02293251340906919,0.09680407370509965,32.08287849390507,-100.26678939585686,80.21211738781929
2024-09-23 16:38:30.423515,41.22,35.756811,-0.0029349636958644295,-0.02293251340906919,0.09680407370509965,40.106058693909645,-100.26678939585686,76.200527287817
2024-09-23 16:38:30.434601,41.22,35.756862,-0.0034324103296106863,-0.02367869399252531,0.09680407370509965,40.106058693909645,-100.26678939585686,76.200527287817
2024-09-23 16:38:30.476636,41.22,35.756913,-0.0028354659767690416,-0.02367869399252531,0.09715228999426605,40.106058693909645,-96.25519929585457,72.1922225099802
2024-09-23 16:38:30.519589,41.44,35.756913,-0.0028354659767690416,-0.02293251340906919,0.09715228999426605,40.106058693909645,-96.25519929585457,72.1922225099802
2024-09-23 16:38:30.531794,41.44,35.757,-0.0028354659767690416,-0.02293251340906919,0.09715228999426605,44.11764879391193,-96.25519929585457,80.21211738781929
2024-09-23 16:38:30.574950,41.44,35.757,-0.0033329230534799477,-0.022833026512682618,0.09745075675933246,52.137550501942634,-96.25519929585457,76.200527287817
2024-09-23 16:38:30.617084,41.44,35.757051,-0.0030344509719951677,-0.022833026512682618,0.09745075675933246,52.137550501942634,-96.25519929585457,76.200527287817
2024-09-23 16:38:30.628979,41.44,35.757051,-0.0030344509719951677,-0.022833026512682618,0.09680407370509965,28.07457030097246,-100.26678939585686,76.200527287817
2024-09-23 16:38:30.672269,41.44,35.757102,-0.002586742470023829,-0.02303200030545576,0.09680407370509965,28.07457030097246,-100.26678939585686,76.200527287817
2024-09-23 16:38:30.714105,41.44,35.757102,-0.002586742470023829,-0.02303200030545576,0.09725178296655933,32.08287849390507,-100.26678939585686,76.200527287817
2024-09-23 16:38:30.725337,41.44,35.757153,-0.0028354659767690416,-0.02303200030545576,0.09725178296655933,32.08287849390507,-96.25519929585457,76.200527287817
2024-09-23 16:38:30.769225,41.44,35.757153,-0.0028354659767690416,-0.022982261414192504,0.09710254654607277,36.09446859390736,-92.24360919585227,76.200527287817
2024-09-23 16:38:30.782494,41.44,35.757203,-0.0028354659767690416,-0.022982261414192504,0.09710254654607277,36.09446859390736,-92.24360919585227,76.200527287817
2024-09-23 16:38:30.815685,41.44,35.757203,-0.0038303700669703737,-0.02338022115155219,0.0973512698629459,48.12595698684454,-92.24360919585227,76.200527287817
2024-09-23 16:38:30.827394,41.44,35.757203,-0.0038303700669703737,-0.02338022115155219,0.0973512698629459,48.12595698684454,-96.25519929585457,72.1922225099802
2024-09-23 16:38:30.859891,41.44,35.757254,-0.0038303700669703737,-0.02338022115155219,0.0973512698629459,48.12595698684454,-96.25519929585457,72.1922225099802
2024-09-23 16:38:30.871340,41.44,35.757254,-0.0031836870127375577,-0.02338022115155219,0.0973512698629459,48.12595698684454,-96.25519929585457,72.1922225099802
2024-09-23 16:38:30.914435,41.44,35.757254,-0.0031836870127375577,-0.023429960042815445,0.09690356060148622,32.08287849390507,-96.25519929585457,80.21211738781929
2024-09-23 16:38:30.926639,41.44,35.757341,-0.0031836870127375577,-0.023429960042815445,0.09690356060148622,32.08287849390507,-96.25519929585457,80.21211738781929
2024-09-23 16:38:30.959085,41.44,35.757341,-0.0028354659767690416,-0.023728432883788564,0.09690356060148622,32.08287849390507,-96.25519929585457,80.21211738781929
2024-09-23 16:38:30.970839,41.44,35.757341,-0.0028354659767690416,-0.023728432883788564,0.09755024973162574,36.09446859390736,-96.25519929585457,72.1922225099802
2024-09-23 16:38:31.014072,41.44,35.757392,-0.0030344509719951677,-0.023181236725942318,0.09755024973162574,40.106058693909645,-96.25519929585457,72.1922225099802
2024-09-23 16:38:31.058339,41.44,35.757443,-0.002785727465249955,-0.02308174982955575,0.09755024973162574,40.106058693909645,-96.25519929585457,80.21211738781929
2024-09-23 16:38:31.069806,41.44,35.757443,-0.002785727465249955,-0.02308174982955575,0.09720203344245934,36.09446859390736,-96.25519929585457,80.21211738781929
2024-09-23 16:38:31.101847,41.44,35.757443,-0.002785727465249955,-0.02308174982955575,0.09720203344245934,36.09446859390736,-104.27510100388527,80.21211738781929
2024-09-23 16:38:31.113465,41.44,35.757494,-0.0029847020175114316,-0.023330473146428877,0.09779897304849887,36.09446859390736,-104.27510100388527,76.200527287817
2024-09-23 16:38:31.156903,41.44,35.757587,-0.0029847020175114316,-0.023330473146428877,0.09779897304849887,44.11764879391193,-96.25519929585457,80.21211738781929
2024-09-23 16:38:31.168307,41.44,35.757587,-0.0028354659767690416,-0.022982261414192504,0.09779897304849887,44.11764879391193,-96.25519929585457,80.21211738781929
2024-09-23 16:38:31.200754,41.44,35.757587,-0.0028354659767690416,-0.022982261414192504,0.09715228999426605,44.11764879391193,-96.25519929585457,80.21211738781929
2024-09-23 16:38:31.212530,41.44,35.757638,-0.0026862297461545674,-0.022982261414192504,0.09715228999426605,32.08287849390507,-96.25519929585457,80.21211738781929
2024-09-23 16:38:31.254494,41.44,35.757638,-0.0026862297461545674,-0.02338022115155219,0.09675432418099966,32.08287849390507,-96.25519929585457,80.21211738781929
2024-09-23 16:38:31.307612,41.44,35.757731,-0.0030344509719951677,-0.02313149783467906,0.09675432418099966,40.106058693909645,-96.25519929585457,80.21211738781929
2024-09-23 16:38:31.350545,41.44,35.757731,-0.0030344509719951677,-0.02313149783467906,0.09670458680871308,48.12595698684454,-92.24360919585227,80.21211738781929
2024-09-23 16:38:31.361966,41.44,35.757783,-0.003233425524256645,-0.02313149783467906,0.09670458680871308,48.12595698684454,-92.24360919585227,80.21211738781929
2024-09-23 16:38:31.405178,41.44,35.757833,-0.003233425524256645,-0.023429960042815445,0.09725178296655933,44.11764879391193,-92.24360919585227,80.21211738781929
2024-09-23 16:38:31.447510,41.44,35.757833,-0.0027359787006383035,-0.023479709566915436,0.09680407370509965,44.11764879391193,-92.24360919585227,80.21211738781929
2024-09-23 16:38:31.459539,41.44,35.757833,-0.0027359787006383035,-0.023479709566915436,0.09680407370509965,40.106058693909645,-96.25519929585457,76.200527287817
2024-09-23 16:38:31.503004,41.44,35.757884,-0.0031836870127375577,-0.023230986250042305,0.09690356060148622,32.08287849390507,-96.25519929585457,76.200527287817
2024-09-23 16:38:31.545434,41.71,35.757976,-0.0029349636958644295,-0.023230986250042305,0.09690356060148622,32.08287849390507,-96.25519929585457,80.21211738781929
2024-09-23 16:38:31.556729,41.71,35.757976,-0.0029349636958644295,-0.023230986250042305,0.09715228999426605,24.06297849342227,-96.25519929585457,80.21211738781929
2024-09-23 16:38:31.600176,41.71,35.758027,-0.002785727465249955,-0.02303200030545576,0.0970030596496862,24.06297849342227,-100.26678939585686,80.21211738781929
2024-09-23 16:38:31.643215,41.71,35.758078,-0.002785727465249955,-0.02303200030545576,0.0970030596496862,32.08287849390507,-100.26678939585686,76.200527287817
2024-09-23 16:38:31.654862,41.71,35.758078,-0.0029349636958644295,-0.023479709566915436,0.0970030596496862,32.08287849390507,-100.26678939585686,76.200527287817
2024-09-23 16:38:31.687021,41.71,35.758078,-0.0029349636958644295,-0.023479709566915436,0.09740101331113918,32.08287849390507,-100.26678939585686,76.200527287817
2024-09-23 16:38:31.698627,41.71,35.758128,-0.0029847020175114316,-0.023479709566915436,0.09740101331113918,40.106058693909645,-100.26678939585686,80.21211738781929
2024-09-23 16:38:31.740762,41.71,35.758128,-0.0029847020175114316,-0.02338022115155219,0.0970030596496862,28.07457030097246,-96.25519929585457,80.21211738781929
2024-09-23 16:38:31.752633,41.71,35.758218,-0.0029847020175114316,-0.02338022115155219,0.0970030596496862,28.07457030097246,-96.25519929585457,80.21211738781929
2024-09-23 16:38:31.785782,41.71,35.758218,-0.0028852147413806935,-0.02338022115155219,0.0970030596496862,28.07457030097246,-96.25519929585457,80.21211738781929
2024-09-23 16:38:31.797121,41.71,35.758218,-0.0028852147413806935,-0.022982261414192504,0.09759999317981902,36.09446859390736,-100.26678939585686,84.22370748782159
2024-09-23 16:38:31.842689,41.71,35.75827,-0.0033329230534799477,-0.02352945757203875,0.09710254654607277,44.11764879391193,-100.26678939585686,84.22370748782159
2024-09-23 16:38:31.885802,41.71,35.758321,-0.0033329230534799477,-0.02352945757203875,0.09710254654607277,44.11764879391193,-100.26678939585686,76.200527287817
2024-09-23 16:38:31.991746,41.71,35.758321,-0.003382661564999035,-0.023280723622328886,0.09745075675933246,44.11764879391193,-108.28669110388756,68.18063240997792
2024-09-23 16:38:32.035259,41.71,35.758371,-0.003382661564999035,-0.02352945757203875,0.09695331012558621,44.11764879391193,-108.28669110388756,68.18063240997792
2024-09-23 16:38:32.046349,41.71,35.758371,-0.003382661564999035,-0.02352945757203875,0.09695331012558621,40.106058693909645,-100.26678939585686,68.18063240997792
2024-09-23 16:38:32.078346,41.71,35.758371,-0.003382661564999035,-0.02352945757203875,0.09695331012558621,40.106058693909645,-100.26678939585686,76.200527287817
2024-09-23 16:38:32.089872,41.71,35.758422,-0.002636491424507565,-0.02352945757203875,0.09655535038822652,32.08287849390507,-100.26678939585686,76.200527287817
2024-09-23 16:38:32.132647,41.71,35.758473,-0.0030841997366068195,-0.02352945757203875,0.09655535038822652,32.08287849390507,-104.27510100388527,84.22370748782159
2024-09-23 16:38:32.145136,41.71,35.758473,-0.0030841997366068195,-0.02352945757203875,0.0973512698629459,32.08287849390507,-104.27510100388527,84.22370748782159
2024-09-23 16:38:32.177391,41.71,35.758473,-0.0030841997366068195,-0.02352945757203875,0.0973512698629459,44.11764879391193,-100.26678939585686,84.22370748782159
2024-09-23 16:38:32.188923,41.71,35.75856,-0.0027359787006383035,-0.022733528983459317,0.0973512698629459,44.11764879391193,-100.26678939585686,76.200527287817
2024-09-23 16:38:32.231196,41.71,35.75866,-0.0027359787006383035,-0.022733528983459317,0.09720203344245934,36.09446859390736,-104.27510100388527,84.22370748782159
2024-09-23 16:38:32.242800,41.71,35.75866,-0.0029349636958644295,-0.022733528983459317,0.09720203344245934,36.09446859390736,-104.27510100388527,84.22370748782159
2024-09-23 16:38:32.276113,41.71,35.75866,-0.0029349636958644295,-0.022982261414192504,0.09764974270391902,40.106058693909645,-104.27510100388527,84.22370748782159
2024-09-23 16:38:32.287015,41.71,35.758755,-0.0029349636958644295,-0.022982261414192504,0.09764974270391902,40.106058693909645,-100.26678939585686,76.200527287817
2024-09-23 16:38:32.329436,41.71,35.758755,-0.003233425524256645,-0.02352945757203875,0.09695331012558621,40.106058693909645,-96.25519929585457,80.21211738781929
2024-09-23 16:38:32.372394,41.71,35.758806,-0.0030841997366068195,-0.02352945757203875,0.09695331012558621,40.106058693909645,-96.25519929585457,80.21211738781929
2024-09-23 16:38:32.384128,41.71,35.758806,-0.0030841997366068195,-0.02352945757203875,0.09710254654607277,40.106058693909645,-88.23529758782387,80.21211738781929
2024-09-23 16:38:32.427047,41.71,35.758857,-0.0031339382481259063,-0.022733528983459317,0.09745075675933246,40.106058693909645,-88.23529758782387,80.21211738781929
2024-09-23 16:38:32.438560,41.71,35.758857,-0.0031339382481259063,-0.022733528983459317,0.09745075675933246,36.09446859390736,-88.23529758782387,80.21211738781929
2024-09-23 16:38:32.470887,41.71,35.758908,-0.0031339382481259063,-0.022733528983459317,0.09745075675933246,36.09446859390736,-92.24360919585227,80.21211738781929
2024-09-23 16:38:32.481996,41.71,35.758908,-0.0033329230534799477,-0.023479709566915436,0.09710254654607277,36.09446859390736,-92.24360919585227,80.21211738781929
2024-09-23 16:38:32.525321,41.71,35.758958,-0.0024872551938930902,-0.022982261414192504,0.09710254654607277,32.08287849390507,-92.24360919585227,80.21211738781929
2024-09-23 16:38:32.567350,41.33,35.758958,-0.0024872551938930902,-0.022982261414192504,0.09764974270391902,40.106058693909645,-92.24360919585227,80.21211738781929
2024-09-23 16:38:32.620805,41.33,35.759009,-0.0029847020175114316,-0.022982261414192504,0.09764974270391902,40.106058693909645,-92.24360919585227,84.22370748782159
2024-09-23 16:38:32.632642,41.33,35.759009,-0.0029847020175114316,-0.022833026512682618,0.09675432418099966,40.106058693909645,-92.24360919585227,84.22370748782159
2024-09-23 16:38:32.667060,41.33,35.759009,-0.0029847020175114316,-0.022833026512682618,0.09675432418099966,44.11764879391193,-96.25519929585457,84.22370748782159
2024-09-23 16:38:32.678998,41.33,35.759096,-0.0031339382481259063,-0.022733528983459317,0.09675432418099966,44.11764879391193,-96.25519929585457,84.22370748782159
2024-09-23 16:38:32.711649,41.33,35.759096,-0.0031339382481259063,-0.022733528983459317,0.09690356060148622,44.11764879391193,-96.25519929585457,84.22370748782159
2024-09-23 16:38:32.723458,41.33,35.759148,-0.0027359787006383035,-0.022733528983459317,0.09690356060148622,40.106058693909645,-104.27510100388527,80.21211738781929
2024-09-23 16:38:32.766153,41.33,35.759148,-0.0027359787006383035,-0.023579196463302005,0.09685382322919964,40.106058693909645,-96.25519929585457,80.21211738781929
2024-09-23 16:38:32.777750,41.33,35.759198,-0.0027359787006383035,-0.023579196463302005,0.09685382322919964,40.106058693909645,-96.25519929585457,76.200527287817
2024-09-23 16:38:32.809979,41.33,35.759198,-0.003482159473966507,-0.023579196463302005,0.09685382322919964,40.106058693909645,-96.25519929585457,76.200527287817
2024-09-23 16:38:32.821365,41.33,35.759198,-0.003482159473966507,-0.023280723622328886,0.09715228999426605,44.11764879391193,-104.27510100388527,72.1922225099802
2024-09-23 16:38:32.864704,41.33,35.759292,-0.0029847020175114316,-0.02303200030545576,0.09680407370509965,32.08287849390507,-104.27510100388527,72.1922225099802
2024-09-23 16:38:32.876979,41.33,35.759292,-0.0029847020175114316,-0.02303200030545576,0.09680407370509965,32.08287849390507,-104.27510100388527,72.1922225099802
2024-09-23 16:38:32.909692,41.33,35.759343,-0.0029847020175114316,-0.02303200030545576,0.09680407370509965,32.08287849390507,-104.27510100388527,76.200527287817
2024-09-23 16:38:32.961598,41.33,35.759343,-0.0030841997366068195,-0.023778180888911878,0.09759999317981902,36.09446859390736,-96.25519929585457,76.200527287817
2024-09-23 16:38:32.973259,41.33,35.759343,-0.0030841997366068195,-0.023778180888911878,0.09759999317981902,36.09446859390736,-96.25519929585457,84.22370748782159
2024-09-23 16:38:33.005765,41.33,35.759394,-0.003233425524256645,-0.023778180888911878,0.09759999317981902,36.09446859390736,-96.25519929585457,84.22370748782159
2024-09-23 16:38:33.016807,41.33,35.759394,-0.003233425524256645,-0.022733528983459317,0.09759999317981902,36.09446859390736,-92.24360919585227,84.22370748782159
2024-09-23 16:38:33.059313,41.33,35.759445,-0.003631395514708897,-0.02362894446842532,0.09759999317981902,36.09446859390736,-92.24360919585227,76.200527287817
2024-09-23 16:38:33.071634,41.33,35.759445,-0.003631395514708897,-0.02362894446842532,0.09720203344245934,36.09446859390736,-92.24360919585227,76.200527287817
2024-09-23 16:38:33.103518,41.33,35.759445,-0.003631395514708897,-0.02362894446842532,0.09720203344245934,36.09446859390736,-100.26678939585686,76.200527287817
2024-09-23 16:38:33.115675,41.33,35.759496,-0.002636491424507565,-0.023429960042815445,0.09720203344245934,36.09446859390736,-100.26678939585686,76.200527287817
2024-09-23 16:38:33.158862,41.33,35.759583,-0.002586742470023829,-0.023429960042815445,0.09720203344245934,36.09446859390736,-100.26678939585686,80.21211738781929
2024-09-23 16:38:33.171218,41.33,35.759583,-0.002586742470023829,-0.022982261414192504,0.09720203344245934,36.09446859390736,-100.26678939585686,80.21211738781929
2024-09-23 16:38:33.203740,41.33,35.759583,-0.002586742470023829,-0.022982261414192504,0.09705279702197278,44.11764879391193,-96.25519929585457,76.200527287817
2024-09-23 16:38:33.256469,41.33,35.759635,-0.003482159473966507,-0.023181236725942318,0.09675432418099966,40.106058693909645,-92.24360919585227,76.200527287817
2024-09-23 16:38:33.298962,41.33,35.75973,-0.003482159473966507,-0.023181236725942318,0.09675432418099966,40.106058693909645,-92.24360919585227,84.22370748782159
2024-09-23 16:38:33.310510,41.33,35.75973,-0.0029349636958644295,-0.023230986250042305,0.09710254654607277,44.11764879391193,-92.24360919585227,84.22370748782159
2024-09-23 16:38:33.353682,41.33,35.759781,-0.0036811340262279837,-0.023330473146428877,0.09715228999426605,44.11764879391193,-96.25519929585457,80.21211738781929
2024-09-23 16:38:33.395897,41.33,35.759781,-0.0036811340262279837,-0.023330473146428877,0.09715228999426605,40.106058693909645,-92.24360919585227,80.21211738781929
2024-09-23 16:38:33.407208,41.33,35.759832,-0.0033329230534799477,-0.023429960042815445,0.09715228999426605,40.106058693909645,-92.24360919585227,80.21211738781929
2024-09-23 16:38:33.449775,41.33,35.759883,-0.0033329230534799477,-0.023429960042815445,0.09615739065086683,32.08287849390507,-96.25519929585457,80.21211738781929
2024-09-23 16:38:33.461687,41.33,35.759883,-0.0029847020175114316,-0.023429960042815445,0.09615739065086683,32.08287849390507,-96.25519929585457,80.21211738781929
2024-09-23 16:38:33.493242,41.33,35.759883,-0.0029847020175114316,-0.023579196463302005,0.09745075675933246,32.08287849390507,-96.25519929585457,80.21211738781929
2024-09-23 16:38:33.504419,41.33,35.759973,-0.0029847020175114316,-0.023579196463302005,0.09745075675933246,44.11764879391193,-96.25519929585457,76.200527287817
2024-09-23 16:38:33.547760,41.33,35.759973,-0.002785727465249955,-0.023429960042815445,0.09715228999426605,44.11764879391193,-100.26678939585686,72.1922225099802
2024-09-23 16:38:33.590998,41.35,35.760025,-0.0031339382481259063,-0.023429960042815445,0.09715228999426605,44.11764879391193,-100.26678939585686,72.1922225099802
2024-09-23 16:38:33.602161,41.35,35.760025,-0.0031339382481259063,-0.02362894446842532,0.09650560086412653,32.08287849390507,-100.26678939585686,72.1922225099802
2024-09-23 16:38:33.643844,41.35,35.760076,-0.0038801188315820256,-0.02313149783467906,0.09690356060148622,32.08287849390507,-100.26678939585686,80.21211738781929
2024-09-23 16:38:33.655814,41.35,35.760076,-0.0038801188315820256,-0.02313149783467906,0.09690356060148622,36.09446859390736,-100.26678939585686,80.21211738781929
2024-09-23 16:38:33.687974,41.35,35.760076,-0.0038801188315820256,-0.02313149783467906,0.09690356060148622,36.09446859390736,-96.25519929585457,84.22370748782159
2024-09-23 16:38:33.699339,41.35,35.760126,-0.0029349636958644295,-0.023479709566915436,0.09710254654607277,36.09446859390736,-96.25519929585457,84.22370748782159
2024-09-23 16:38:33.742520,41.35,35.760177,-0.003382661564999035,-0.023479709566915436,0.09710254654607277,32.08287849390507,-96.25519929585457,76.200527287817
2024-09-23 16:38:33.754182,41.35,35.760177,-0.003382661564999035,-0.02352945757203875,0.09710254654607277,32.08287849390507,-96.25519929585457,76.200527287817
2024-09-23 16:38:33.786520,41.35,35.760177,-0.003382661564999035,-0.02352945757203875,0.09685382322919964,36.09446859390736,-96.25519929585457,76.200527287817
2024-09-23 16:38:33.797886,41.35,35.760228,-0.0036811340262279837,-0.02352945757203875,0.09685382322919964,36.09446859390736,-100.26678939585686,80.21211738781929
2024-09-23 16:38:33.840241,41.35,35.760315,-0.0036811340262279837,-0.02338022115155219,0.09685382322919964,44.11764879391193,-92.24360919585227,76.200527287817
2024-09-23 16:38:33.883728,41.35,35.760315,-0.002288270198666964,-0.02308174982955575,0.09685382322919964,44.11764879391193,-92.24360919585227,76.200527287817
2024-09-23 16:38:33.895454,41.35,35.760315,-0.002288270198666964,-0.02308174982955575,0.09720203344245934,48.12595698684454,-96.25519929585457,76.200527287817
2024-09-23 16:38:33.938257,41.35,35.760366,-0.0027359787006383035,-0.023479709566915436,0.09710254654607277,40.106058693909645,-96.25519929585457,76.200527287817
2024-09-23 16:38:33.950061,41.35,35.760366,-0.0027359787006383035,-0.023479709566915436,0.09710254654607277,40.106058693909645,-92.24360919585227,76.200527287817
2024-09-23 16:38:33.982762,41.35,35.760417,-0.0027359787006383035,-0.023479709566915436,0.09710254654607277,40.106058693909645,-92.24360919585227,84.22370748782159
2024-09-23 16:38:33.994224,41.35,35.760417,-0.002785727465249955,-0.02308174982955575,0.09740101331113918,40.106058693909645,-92.24360919585227,84.22370748782159
2024-09-23 16:38:34.027232,41.35,35.760417,-0.002785727465249955,-0.02308174982955575,0.09740101331113918,40.106058693909645,-92.24360919585227,84.22370748782159
2024-09-23 16:38:34.038308,41.35,35.760468,-0.0022385316871478774,-0.023230986250042305,0.09675432418099966,40.106058693909645,-92.24360919585227,84.22370748782159
2024-09-23 16:38:34.081475,41.35,35.760518,-0.0022385316871478774,-0.023230986250042305,0.09675432418099966,28.07457030097246,-92.24360919585227,80.21211738781929
2024-09-23 16:38:34.092561,41.35,35.760518,-0.002636491424507565,-0.02362894446842532,0.09675432418099966,28.07457030097246,-92.24360919585227,80.21211738781929
2024-09-23 16:38:34.124937,41.35,35.760518,-0.002636491424507565,-0.02362894446842532,0.09725178296655933,28.07457030097246,-92.24360919585227,80.21211738781929
2024-09-23 16:38:34.136531,41.35,35.760569,-0.0030344509719951677,-0.02362894446842532,0.09725178296655933,36.09446859390736,-104.27510100388527,80.21211738781929
2024-09-23 16:38:34.178531,41.35,35.760569,-0.0030344509719951677,-0.02308174982955575,0.09745075675933246,40.106058693909645,-100.26678939585686,80.21211738781929
2024-09-23 16:38:34.190038,41.35,35.760656,-0.0030344509719951677,-0.02308174982955575,0.09745075675933246,40.106058693909645,-100.26678939585686,76.200527287817
2024-09-23 16:38:34.222160,41.35,35.760656,-0.0031339382481259063,-0.02308174982955575,0.09745075675933246,40.106058693909645,-100.26678939585686,76.200527287817
2024-09-23 16:38:34.233777,41.35,35.760656,-0.0031339382481259063,-0.02308174982955575,0.09715228999426605,40.106058693909645,-92.24360919585227,80.21211738781929
2024-09-23 16:38:34.277070,41.35,35.760708,-0.0032831742888682963,-0.02293251340906919,0.09755024973162574,40.106058693909645,-92.24360919585227,80.21211738781929
2024-09-23 16:38:34.288813,41.35,35.760708,-0.0032831742888682963,-0.02293251340906919,0.09755024973162574,40.106058693909645,-96.25519929585457,80.21211738781929
2024-09-23 16:38:34.321239,41.35,35.760708,-0.0032831742888682963,-0.02293251340906919,0.09755024973162574,40.106058693909645,-96.25519929585457,76.200527287817
2024-09-23 16:38:34.333270,41.35,35.760758,-0.003780631555451287,-0.02263404056809607,0.09665483728461309,40.106058693909645,-96.25519929585457,76.200527287817
2024-09-23 16:38:34.375424,41.35,35.760758,-0.003780631555451287,-0.02263404056809607,0.09665483728461309,40.106058693909645,-100.26678939585686,76.200527287817
2024-09-23 16:38:34.418699,41.35,35.760758,-0.003780631555451287,-0.02263404056809607,0.09665483728461309,40.106058693909645,-100.26678939585686,76.200527287817
2024-09-23 16:38:34.430268,41.35,35.760809,-0.0029349636958644295,-0.02362894446842532,0.0976994861521123,40.106058693909645,-100.26678939585686,76.200527287817
2024-09-23 16:38:34.473579,41.35,35.76086,-0.0029349636958644295,-0.02362894446842532,0.0976994861521123,40.106058693909645,-92.24360919585227,76.200527287817
2024-09-23 16:38:34.484646,41.35,35.76086,-0.0029349636958644295,-0.02338022115155219,0.09745075675933246,40.106058693909645,-92.24360919585227,76.200527287817
2024-09-23 16:38:34.517230,41.35,35.76086,-0.0029349636958644295,-0.02338022115155219,0.09745075675933246,40.106058693909645,-92.24360919585227,76.200527287817
2024-09-23 16:38:34.528484,41.35,35.76091,-0.002586742470023829,-0.02278327698858263,0.09745075675933246,40.106058693909645,-100.26678939585686,80.21211738781929
2024-09-23 16:38:34.571683,41.35,35.760997,-0.0033329230534799477,-0.02278327698858263,0.09705279702197278,32.08287849390507,-108.28669110388756,72.1922225099802
2024-09-23 16:38:34.613964,41.52,35.760997,-0.0033329230534799477,-0.02313149783467906,0.0973512698629459,32.08287849390507,-108.28669110388756,72.1922225099802
2024-09-23 16:38:34.625844,41.52,35.761048,-0.0033329230534799477,-0.02313149783467906,0.0973512698629459,36.09446859390736,-108.28669110388756,76.200527287817
2024-09-23 16:38:34.669038,41.52,35.761048,-0.0030841997366068195,-0.02352945757203875,0.09635636444363997,40.106058693909645,-92.24360919585227,80.21211738781929
2024-09-23 16:38:34.712288,41.52,35.761144,-0.0029847020175114316,-0.02352945757203875,0.09635636444363997,40.106058693909645,-92.24360919585227,80.21211738781929
2024-09-23 16:38:34.724187,41.52,35.761144,-0.0029847020175114316,-0.02278327698858263,0.0976994861521123,44.11764879391193,-96.25519929585457,80.21211738781929
2024-09-23 16:38:34.767958,41.52,35.761195,-0.0030344509719951677,-0.02362894446842532,0.09725178296655933,44.11764879391193,-96.25519929585457,80.21211738781929
2024-09-23 16:38:34.811472,41.52,35.761246,-0.0030344509719951677,-0.02362894446842532,0.09725178296655933,44.11764879391193,-92.24360919585227,76.200527287817
2024-09-23 16:38:34.822983,41.52,35.761246,-0.002387757474797703,-0.023330473146428877,0.0973512698629459,44.11764879391193,-92.24360919585227,76.200527287817
2024-09-23 16:38:34.865598,41.52,35.761297,-0.003482159473966507,-0.02352945757203875,0.0973512698629459,40.106058693909645,-92.24360919585227,80.21211738781929
2024-09-23 16:38:34.908732,41.52,35.761297,-0.003482159473966507,-0.02352945757203875,0.0973015264147526,40.106058693909645,-92.24360919585227,80.21211738781929
2024-09-23 16:38:34.920397,41.52,35.761347,-0.0029847020175114316,-0.02352945757203875,0.0973015264147526,40.106058693909645,-92.24360919585227,76.200527287817
2024-09-23 16:38:34.962766,41.52,35.761436,-0.0029847020175114316,-0.023579196463302005,0.09715228999426605,44.11764879391193,-96.25519929585457,76.200527287817
2024-09-23 16:38:35.005390,41.52,35.761436,-0.0029349636958644295,-0.022982261414192504,0.09725178296655933,44.11764879391193,-96.25519929585457,76.200527287817
2024-09-23 16:38:35.017625,41.52,35.761436,-0.0029349636958644295,-0.022982261414192504,0.09725178296655933,44.11764879391193,-100.26678939585686,72.1922225099802
2024-09-23 16:38:35.060007,41.52,35.761488,-0.0028852147413806935,-0.022733528983459317,0.09680407370509965,28.07457030097246,-100.26678939585686,72.1922225099802
2024-09-23 16:38:35.102021,41.52,35.761539,-0.0028852147413806935,-0.022733528983459317,0.09680407370509965,28.07457030097246,-100.26678939585686,72.1922225099802
2024-09-23 16:38:35.113936,41.52,35.761539,-0.0032831742888682963,-0.02367869399252531,0.09680407370509965,40.106058693909645,-100.26678939585686,72.1922225099802
2024-09-23 16:38:35.157238,41.52,35.761589,-0.0029847020175114316,-0.023280723622328886,0.09680407370509965,40.106058693909645,-96.25519929585457,80.21211738781929
2024-09-23 16:38:35.168782,41.52,35.761589,-0.0029847020175114316,-0.023280723622328886,0.09685382322919964,40.106058693909645,-96.25519929585457,80.21211738781929
2024-09-23 16:38:35.201617,41.52,35.761589,-0.0029847020175114316,-0.023280723622328886,0.09685382322919964,40.106058693909645,-92.24360919585227,80.21211738781929
2024-09-23 16:38:35.212665,41.52,35.76164,-0.0029349636958644295,-0.022982261414192504,0.09685382322919964,40.106058693909645,-92.24360919585227,80.21211738781929
2024-09-23 16:38:35.255338,41.52,35.761691,-0.002586742470023829,-0.022982261414192504,0.09685382322919964,32.08287849390507,-100.26678939585686,80.21211738781929
2024-09-23 16:38:35.298184,41.52,35.761691,-0.002586742470023829,-0.023429960042815445,0.09690356060148622,28.07457030097246,-100.26678939585686,80.21211738781929
2024-09-23 16:38:35.309958,41.52,35.761777,-0.002586742470023829,-0.023429960042815445,0.09690356060148622,28.07457030097246,-100.26678939585686,80.21211738781929
2024-09-23 16:38:35.352661,41.52,35.761777,-0.0027359787006383035,-0.0228827638849692,0.09725178296655933,36.09446859390736,-100.26678939585686,80.21211738781929
2024-09-23 16:38:35.394705,41.52,35.761829,-0.0033329230534799477,-0.0228827638849692,0.09725178296655933,36.09446859390736,-100.26678939585686,80.21211738781929
2024-09-23 16:38:35.406789,41.52,35.761829,-0.0033329230534799477,-0.023827930413011865,0.09774922960030558,40.106058693909645,-92.24360919585227,80.21211738781929
2024-09-23 16:38:35.449323,41.52,35.76188,-0.0028852147413806935,-0.023280723622328886,0.09655535038822652,44.11764879391193,-92.24360919585227,76.200527287817
2024-09-23 16:38:35.491709,41.52,35.76188,-0.0028852147413806935,-0.023280723622328886,0.09655535038822652,44.11764879391193,-92.24360919585227,80.21211738781929
2024-09-23 16:38:35.503181,41.52,35.76193,-0.003482159473966507,-0.022733528983459317,0.09675432418099966,44.11764879391193,-92.24360919585227,80.21211738781929
2024-09-23 16:38:35.545579,41.52,35.761981,-0.003482159473966507,-0.022733528983459317,0.09675432418099966,48.12595698684454,-100.26678939585686,84.22370748782159
2024-09-23 16:38:35.557264,41.52,35.761981,-0.003482159473966507,-0.023280723622328886,0.09675432418099966,48.12595698684454,-100.26678939585686,84.22370748782159
2024-09-23 16:38:35.588878,41.52,35.761981,-0.003482159473966507,-0.023280723622328886,0.09675432418099966,36.09446859390736,-100.26678939585686,84.22370748782159
2024-09-23 16:38:35.600476,41.52,35.762031,-0.0031836870127375577,-0.023280723622328886,0.09675432418099966,36.09446859390736,-92.24360919585227,80.21211738781929
2024-09-23 16:38:35.642512,41.62,35.762031,-0.0031836870127375577,-0.023778180888911878,0.09655535038822652,32.08287849390507,-96.25519929585457,76.200527287817
2024-09-23 16:38:35.654791,41.62,35.762119,-0.0031836870127375577,-0.023778180888911878,0.09655535038822652,32.08287849390507,-96.25519929585457,76.200527287817
2024-09-23 16:38:35.687064,41.62,35.762119,-0.0035318979854855937,-0.023778180888911878,0.09655535038822652,32.08287849390507,-96.25519929585457,76.200527287817
2024-09-23 16:38:35.698842,41.62,35.762119,-0.0035318979854855937,-0.023429960042815445,0.09675432418099966,32.08287849390507,-100.26678939585686,80.21211738781929
2024-09-23 16:38:35.782817,41.62,35.76217,-0.0035318979854855937,-0.023429960042815445,0.09675432418099966,32.08287849390507,-100.26678939585686,80.21211738781929
2024-09-23 16:38:35.794949,41.62,35.76217,-0.0030841997366068195,-0.02352945757203875,0.09715228999426605,32.08287849390507,-92.24360919585227,80.21211738781929
2024-09-23 16:38:35.838687,41.62,35.762221,-0.002636491424507565,-0.02313149783467906,0.09715228999426605,32.08287849390507,-92.24360919585227,84.22370748782159
2024-09-23 16:38:35.849801,41.62,35.762221,-0.002636491424507565,-0.02313149783467906,0.09710254654607277,44.11764879391193,-92.24360919585227,84.22370748782159
2024-09-23 16:38:35.881457,41.62,35.762221,-0.002636491424507565,-0.02313149783467906,0.09710254654607277,44.11764879391193,-92.24360919585227,80.21211738781929
2024-09-23 16:38:35.892911,41.62,35.762271,-0.003233425524256645,-0.023280723622328886,0.09715228999426605,44.11764879391193,-92.24360919585227,80.21211738781929
2024-09-23 16:38:35.936730,41.62,35.762322,-0.003382661564999035,-0.023280723622328886,0.09715228999426605,40.106058693909645,-96.25519929585457,80.21211738781929
2024-09-23 16:38:35.979522,41.62,35.762322,-0.003382661564999035,-0.023280723622328886,0.09725178296655933,32.08287849390507,-96.25519929585457,80.21211738781929
2024-09-23 16:38:35.990741,41.62,35.762373,-0.0030344509719951677,-0.023280723622328886,0.09725178296655933,32.08287849390507,-108.28669110388756,76.200527287817
2024-09-23 16:38:36.034946,41.62,35.762373,-0.0030344509719951677,-0.023479709566915436,0.09774922960030558,48.12595698684454,-92.24360919585227,76.200527287817
2024-09-23 16:38:36.046577,41.62,35.762509,-0.0030344509719951677,-0.023479709566915436,0.09774922960030558,48.12595698684454,-92.24360919585227,76.200527287817
2024-09-23 16:38:36.078898,41.62,35.762509,-0.0028852147413806935,-0.02352945757203875,0.09720203344245934,48.12595698684454,-92.24360919585227,76.200527287817
2024-09-23 16:38:36.090262,41.62,35.762509,-0.0028852147413806935,-0.02352945757203875,0.09720203344245934,44.11764879391193,-96.25519929585457,76.200527287817
2024-09-23 16:38:36.132792,41.62,35.76256,-0.0026862297461545674,-0.02308174982955575,0.09685382322919964,28.07457030097246,-96.25519929585457,76.200527287817
2024-09-23 16:38:36.174705,41.62,35.762611,-0.0026862297461545674,-0.02308174982955575,0.09685382322919964,28.07457030097246,-96.25519929585457,84.22370748782159
2024-09-23 16:38:36.189940,41.62,35.762611,-0.0028354659767690416,-0.023927417309398437,0.09725178296655933,32.08287849390507,-96.25519929585457,84.22370748782159
2024-09-23 16:38:36.222493,41.62,35.762611,-0.0028354659767690416,-0.023927417309398437,0.09725178296655933,32.08287849390507,-92.24360919585227,84.22370748782159
2024-09-23 16:38:36.234205,41.62,35.762661,-0.0031339382481259063,-0.023728432883788564,0.09725178296655933,32.08287849390507,-92.24360919585227,80.21211738781929
2024-09-23 16:38:36.276448,41.62,35.762661,-0.0031339382481259063,-0.023728432883788564,0.09725178296655933,36.09446859390736,-92.24360919585227,80.21211738781929
2024-09-23 16:38:36.321072,41.62,35.762661,-0.0031339382481259063,-0.023728432883788564,0.09725178296655933,36.09446859390736,-92.24360919585227,80.21211738781929
2024-09-23 16:38:36.332689,41.62,35.762712,-0.0026862297461545674,-0.02303200030545576,0.09690356060148622,36.09446859390736,-92.24360919585227,80.21211738781929
2024-09-23 16:38:36.374702,41.62,35.762763,-0.0029847020175114316,-0.02303200030545576,0.09690356060148622,36.09446859390736,-108.28669110388756,72.1922225099802
2024-09-23 16:38:36.387461,41.62,35.762763,-0.0029847020175114316,-0.02352945757203875,0.09690356060148622,36.09446859390736,-108.28669110388756,72.1922225099802
2024-09-23 16:38:36.420284,41.62,35.762763,-0.0029847020175114316,-0.02352945757203875,0.09740101331113918,36.09446859390736,-100.26678939585686,72.1922225099802
2024-09-23 16:38:36.431464,41.62,35.76285,-0.002586742470023829,-0.02352945757203875,0.09740101331113918,36.09446859390736,-100.26678939585686,84.22370748782159
2024-09-23 16:38:36.473909,41.62,35.762901,-0.002586742470023829,-0.02278327698858263,0.09695331012558621,32.08287849390507,-96.25519929585457,84.22370748782159
2024-09-23 16:38:36.515836,41.62,35.762901,-0.0028852147413806935,-0.023479709566915436,0.09695331012558621,32.08287849390507,-96.25519929585457,84.22370748782159
2024-09-23 16:38:36.527989,41.62,35.762901,-0.0028852147413806935,-0.023479709566915436,0.0973512698629459,40.106058693909645,-100.26678939585686,76.200527287817
2024-09-23 16:38:36.571439,41.62,35.762997,-0.0030344509719951677,-0.023181236725942318,0.09705279702197278,36.09446859390736,-92.24360919585227,76.200527287817
2024-09-23 16:38:36.613171,41.62,35.763048,-0.0030344509719951677,-0.023181236725942318,0.09705279702197278,36.09446859390736,-92.24360919585227,76.200527287817
2024-09-23 16:38:36.624581,41.62,35.763048,-0.002785727465249955,-0.0228827638849692,0.09690356060148622,36.09446859390736,-92.24360919585227,76.200527287817
2024-09-23 16:38:36.667211,42.0,35.763099,-0.002636491424507565,-0.02367869399252531,0.09690356060148622,36.09446859390736,-100.26678939585686,76.200527287817
2024-09-23 16:38:36.678743,42.0,35.763099,-0.002636491424507565,-0.02367869399252531,0.0970030596496862,36.09446859390736,-100.26678939585686,76.200527287817
2024-09-23 16:38:36.710827,42.0,35.763099,-0.002636491424507565,-0.02367869399252531,0.0970030596496862,36.09446859390736,-108.28669110388756,76.200527287817
2024-09-23 16:38:36.721970,42.0,35.763149,-0.0027359787006383035,-0.02308174982955575,0.0970030596496862,36.09446859390736,-108.28669110388756,68.18063240997792
2024-09-23 16:38:36.764412,42.0,35.7632,-0.0027359787006383035,-0.02308174982955575,0.09755024973162574,44.11764879391193,-96.25519929585457,76.200527287817
2024-09-23 16:38:36.776752,42.0,35.7632,-0.0031836870127375577,-0.02308174982955575,0.09755024973162574,44.11764879391193,-96.25519929585457,76.200527287817
2024-09-23 16:38:36.808694,42.0,35.7632,-0.0031836870127375577,-0.023280723622328886,0.0970030596496862,44.11764879391193,-96.25519929585457,76.200527287817
2024-09-23 16:38:36.820485,42.0,35.763289,-0.0031836870127375577,-0.023280723622328886,0.0970030596496862,40.106058693909645,-96.25519929585457,72.1922225099802
2024-09-23 16:38:36.863923,42.0,35.763289,-0.002785727465249955,-0.02293251340906919,0.09715228999426605,36.09446859390736,-96.25519929585457,76.200527287817
2024-09-23 16:38:36.906505,42.0,35.76334,-0.0026862297461545674,-0.023479709566915436,0.09715228999426605,36.09446859390736,-96.25519929585457,76.200527287817
2024-09-23 16:38:36.960507,42.0,35.763391,-0.002636491424507565,-0.023479709566915436,0.09755024973162574,36.09446859390736,-96.25519929585457,80.21211738781929
2024-09-23 16:38:37.003595,42.0,35.763391,-0.002636491424507565,-0.023579196463302005,0.0973512698629459,36.09446859390736,-96.25519929585457,80.21211738781929
2024-09-23 16:38:37.014876,42.0,35.763441,-0.002636491424507565,-0.023579196463302005,0.0973512698629459,40.106058693909645,-96.25519929585457,80.21211738781929
2024-09-23 16:38:37.057948,42.0,35.763441,-0.0030841997366068195,-0.02313149783467906,0.09755024973162574,52.137550501942634,-96.25519929585457,80.21211738781929
2024-09-23 16:38:37.069793,42.0,35.763441,-0.0030841997366068195,-0.02313149783467906,0.09755024973162574,52.137550501942634,-96.25519929585457,76.200527287817
2024-09-23 16:38:37.102178,42.0,35.763492,-0.0030344509719951677,-0.02362894446842532,0.09755024973162574,52.137550501942634,-96.25519929585457,76.200527287817
2024-09-23 16:38:37.113955,42.0,35.763492,-0.0030344509719951677,-0.02362894446842532,0.0973512698629459,44.11764879391193,-96.25519929585457,76.200527287817
2024-09-23 16:38:37.156715,42.0,35.763543,-0.002785727465249955,-0.02362894446842532,0.09720203344245934,40.106058693909645,-96.25519929585457,72.1922225099802
2024-09-23 16:38:37.199020,42.0,35.763543,-0.002785727465249955,-0.02362894446842532,0.09720203344245934,40.106058693909645,-96.25519929585457,76.200527287817
2024-09-23 16:38:37.210903,42.0,35.763631,-0.002636491424507565,-0.02308174982955575,0.0970030596496862,40.106058693909645,-96.25519929585457,76.200527287817
2024-09-23 16:38:37.253601,42.0,35.763682,-0.0027359787006383035,-0.023479709566915436,0.0970030596496862,36.09446859390736,-100.26678939585686,76.200527287817
2024-09-23 16:38:37.295926,42.0,35.763682,-0.0027359787006383035,-0.023479709566915436,0.0973512698629459,36.09446859390736,-100.26678939585686,76.200527287817
2024-09-23 16:38:37.307470,42.0,35.763733,-0.003382661564999035,-0.023479709566915436,0.0973512698629459,36.09446859390736,-92.24360919585227,76.200527287817
2024-09-23 16:38:37.350416,42.0,35.763825,-0.003382661564999035,-0.02308174982955575,0.09710254654607277,40.106058693909645,-104.27510100388527,80.21211738781929
2024-09-23 16:38:37.392476,42.0,35.763825,-0.0030841997366068195,-0.02308174982955575,0.09710254654607277,40.106058693909645,-104.27510100388527,80.21211738781929
2024-09-23 16:38:37.403464,42.0,35.763825,-0.0030841997366068195,-0.02263404056809607,0.09715228999426605,36.09446859390736,-100.26678939585686,76.200527287817
2024-09-23 16:38:37.446348,42.0,35.763876,-0.0031836870127375577,-0.023280723622328886,0.09690356060148622,40.106058693909645,-100.26678939585686,76.200527287817
2024-09-23 16:38:37.457876,42.0,35.763876,-0.0031836870127375577,-0.023280723622328886,0.09690356060148622,40.106058693909645,-96.25519929585457,76.200527287817
2024-09-23 16:38:37.490027,42.0,35.763927,-0.0031836870127375577,-0.023280723622328886,0.09690356060148622,40.106058693909645,-96.25519929585457,76.200527287817
2024-09-23 16:38:37.543567,42.0,35.763927,-0.0029349636958644295,-0.023579196463302005,0.0973512698629459,36.09446859390736,-88.23529758782387,76.200527287817
2024-09-23 16:38:37.556320,42.0,35.763927,-0.0029349636958644295,-0.023579196463302005,0.0973512698629459,36.09446859390736,-88.23529758782387,72.1922225099802
2024-09-23 16:38:37.588667,42.0,35.763978,-0.0026862297461545674,-0.023579196463302005,0.0973512698629459,36.09446859390736,-88.23529758782387,72.1922225099802
2024-09-23 16:38:37.600573,42.0,35.763978,-0.0026862297461545674,-0.023330473146428877,0.09720203344245934,40.106058693909645,-92.24360919585227,72.1922225099802
2024-09-23 16:38:37.643674,42.0,35.764028,-0.0033329230534799477,-0.023280723622328886,0.09665483728461309,36.09446859390736,-92.24360919585227,76.200527287817
2024-09-23 16:38:37.685729,42.01,35.764028,-0.0033329230534799477,-0.023280723622328886,0.09665483728461309,36.09446859390736,-104.27510100388527,64.16903547978401
2024-09-23 16:38:37.697017,42.01,35.764079,-0.003233425524256645,-0.023429960042815445,0.09720203344245934,36.09446859390736,-104.27510100388527,64.16903547978401
2024-09-23 16:38:37.739925,42.01,35.764166,-0.0032831742888682963,-0.023429960042815445,0.09720203344245934,36.09446859390736,-104.27510100388527,76.200527287817
2024-09-23 16:38:37.751440,42.01,35.764166,-0.0032831742888682963,-0.02338022115155219,0.09720203344245934,36.09446859390736,-104.27510100388527,76.200527287817
2024-09-23 16:38:37.783329,42.01,35.764166,-0.0032831742888682963,-0.02338022115155219,0.09774922960030558,48.12595698684454,-104.27510100388527,76.200527287817
2024-09-23 16:38:37.794927,42.01,35.764218,-0.002636491424507565,-0.02338022115155219,0.09774922960030558,48.12595698684454,-100.26678939585686,76.200527287817
2024-09-23 16:38:37.838844,42.01,35.764312,-0.002636491424507565,-0.02338022115155219,0.09695331012558621,32.08287849390507,-100.26678939585686,76.200527287817
2024-09-23 16:38:37.880843,42.01,35.764312,-0.0030344509719951677,-0.023330473146428877,0.09695331012558621,32.08287849390507,-100.26678939585686,76.200527287817
2024-09-23 16:38:37.892142,42.01,35.764312,-0.0030344509719951677,-0.023330473146428877,0.09680407370509965,40.106058693909645,-92.24360919585227,84.22370748782159
2024-09-23 16:38:37.935288,42.01,35.764364,-0.0027359787006383035,-0.02313149783467906,0.0973512698629459,44.11764879391193,-92.24360919585227,84.22370748782159
2024-09-23 16:38:37.947287,42.01,35.764364,-0.0027359787006383035,-0.02313149783467906,0.0973512698629459,44.11764879391193,-92.24360919585227,84.22370748782159
2024-09-23 16:38:37.980004,42.01,35.764415,-0.0030841997366068195,-0.02313149783467906,0.0973512698629459,44.11764879391193,-92.24360919585227,80.21211738781929
2024-09-23 16:38:37.991216,42.01,35.764415,-0.0030841997366068195,-0.02352945757203875,0.0973512698629459,40.106058693909645,-92.24360919585227,80.21211738781929
2024-09-23 16:38:38.034254,42.01,35.764465,-0.0028354659767690416,-0.02303200030545576,0.09670458680871308,40.106058693909645,-96.25519929585457,76.200527287817
2024-09-23 16:38:38.076197,42.01,35.764465,-0.0028354659767690416,-0.02303200030545576,0.09670458680871308,36.09446859390736,-96.25519929585457,76.200527287817
2024-09-23 16:38:38.129594,42.01,35.764516,-0.0026862297461545674,-0.02313149783467906,0.09670458680871308,36.09446859390736,-96.25519929585457,76.200527287817
2024-09-23 16:38:38.141782,42.01,35.764516,-0.0026862297461545674,-0.02313149783467906,0.0973512698629459,36.09446859390736,-96.25519929585457,76.200527287817
2024-09-23 16:38:38.173726,42.01,35.764516,-0.0026862297461545674,-0.02313149783467906,0.0973512698629459,36.09446859390736,-96.25519929585457,76.200527287817
2024-09-23 16:38:38.185375,42.01,35.764566,-0.0029349636958644295,-0.02367869399252531,0.0973512698629459,36.09446859390736,-96.25519929585457,76.200527287817
2024-09-23 16:38:38.228725,42.01,35.764654,-0.0029349636958644295,-0.02367869399252531,0.09705279702197278,40.106058693909645,-88.23529758782387,72.1922225099802
2024-09-23 16:38:38.240553,42.01,35.764654,-0.0030344509719951677,-0.02367869399252531,0.09705279702197278,40.106058693909645,-88.23529758782387,72.1922225099802
2024-09-23 16:38:38.273723,42.01,35.764654,-0.0030344509719951677,-0.023280723622328886,0.09720203344245934,40.106058693909645,-88.23529758782387,72.1922225099802
2024-09-23 16:38:38.285715,42.01,35.764705,-0.0030344509719951677,-0.023280723622328886,0.09720203344245934,40.106058693909645,-92.24360919585227,76.200527287817
2024-09-23 16:38:38.320879,42.01,35.764705,-0.002586742470023829,-0.023479709566915436,0.09720203344245934,40.106058693909645,-92.24360919585227,76.200527287817
2024-09-23 16:38:38.332672,42.01,35.764705,-0.002586742470023829,-0.023479709566915436,0.09665483728461309,44.11764879391193,-96.25519929585457,80.21211738781929
2024-09-23 16:38:38.375701,42.01,35.7648,-0.0030841997366068195,-0.02367869399252531,0.0973015264147526,36.09446859390736,-92.24360919585227,80.21211738781929
2024-09-23 16:38:38.420374,42.01,35.764852,-0.0029847020175114316,-0.02367869399252531,0.0973015264147526,36.09446859390736,-92.24360919585227,80.21211738781929
2024-09-23 16:38:38.432113,42.01,35.764852,-0.0029847020175114316,-0.02338022115155219,0.09690356060148622,44.11764879391193,-92.24360919585227,80.21211738781929
2024-09-23 16:38:38.465972,42.01,35.764852,-0.0029847020175114316,-0.02338022115155219,0.09690356060148622,44.11764879391193,-96.25519929585457,80.21211738781929
2024-09-23 16:38:38.477813,42.01,35.764902,-0.0035816467500972456,-0.023330473146428877,0.09720203344245934,44.11764879391193,-96.25519929585457,80.21211738781929
2024-09-23 16:38:38.521474,42.01,35.764953,-0.0034324103296106863,-0.022733528983459317,0.09720203344245934,48.12595698684454,-104.27510100388527,76.200527287817
2024-09-23 16:38:38.615832,42.01,35.764953,-0.0034324103296106863,-0.022733528983459317,0.09715228999426605,32.08287849390507,-100.26678939585686,76.200527287817
2024-09-23 16:38:38.627306,42.01,35.765004,-0.0035816467500972456,-0.022733528983459317,0.09715228999426605,32.08287849390507,-100.26678939585686,76.200527287817
2024-09-23 16:38:38.660254,42.01,35.765004,-0.0035816467500972456,-0.022982261414192504,0.09715228999426605,32.08287849390507,-100.26678939585686,76.200527287817
2024-09-23 16:38:38.671935,42.01,35.765092,-0.0035816467500972456,-0.022982261414192504,0.0970030596496862,48.12595698684454,-92.24360919585227,80.21211738781929
2024-09-23 16:38:38.713727,42.08,35.765092,-0.003382661564999035,-0.0228827638849692,0.09715228999426605,44.11764879391193,-96.25519929585457,80.21211738781929
2024-09-23 16:38:38.725409,42.08,35.765092,-0.003382661564999035,-0.0228827638849692,0.09715228999426605,44.11764879391193,-96.25519929585457,76.200527287817
2024-09-23 16:38:38.809360,42.08,35.765144,-0.003233425524256645,-0.022833026512682618,0.09715228999426605,44.11764879391193,-96.25519929585457,76.200527287817
2024-09-23 16:38:38.821408,42.08,35.765144,-0.003233425524256645,-0.022833026512682618,0.09745075675933246,48.12595698684454,-88.23529758782387,76.200527287817
2024-09-23 16:38:38.853280,42.08,35.765144,-0.003233425524256645,-0.022833026512682618,0.09745075675933246,48.12595698684454,-88.23529758782387,76.200527287817
2024-09-23 16:38:38.864834,42.08,35.765195,-0.0031836870127375577,-0.02293251340906919,0.09705279702197278,44.11764879391193,-88.23529758782387,76.200527287817
2024-09-23 16:38:38.908178,42.08,35.765289,-0.002586742470023829,-0.02293251340906919,0.09705279702197278,44.11764879391193,-96.25519929585457,80.21211738781929
2024-09-23 16:38:38.919824,42.08,35.765289,-0.002586742470023829,-0.024076653729884996,0.09710254654607277,44.11764879391193,-96.25519929585457,80.21211738781929
2024-09-23 16:38:38.952868,42.08,35.765289,-0.002586742470023829,-0.024076653729884996,0.09710254654607277,36.09446859390736,-104.27510100388527,80.21211738781929
2024-09-23 16:38:38.964469,42.08,35.76534,-0.003631395514708897,-0.023479709566915436,0.09710254654607277,36.09446859390736,-104.27510100388527,84.22370748782159
2024-09-23 16:38:39.006292,42.08,35.76539,-0.003631395514708897,-0.023479709566915436,0.09725178296655933,36.09446859390736,-96.25519929585457,84.22370748782159
2024-09-23 16:38:39.018198,42.08,35.76539,-0.0024872551938930902,-0.023479709566915436,0.09725178296655933,36.09446859390736,-96.25519929585457,84.22370748782159
2024-09-23 16:38:39.050972,42.08,35.76539,-0.0024872551938930902,-0.02308174982955575,0.09759999317981902,36.09446859390736,-96.25519929585457,84.22370748782159
2024-09-23 16:38:39.062800,42.08,35.765531,-0.0024872551938930902,-0.02308174982955575,0.09759999317981902,24.06297849342227,-100.26678939585686,80.21211738781929
2024-09-23 16:38:39.105337,42.08,35.765531,-0.0032831742888682963,-0.02338022115155219,0.09695331012558621,36.09446859390736,-100.26678939585686,80.21211738781929
2024-09-23 16:38:39.148112,42.08,35.765583,-0.003382661564999035,-0.02338022115155219,0.09695331012558621,36.09446859390736,-100.26678939585686,80.21211738781929
2024-09-23 16:38:39.159474,42.08,35.765583,-0.003382661564999035,-0.023330473146428877,0.0970030596496862,36.09446859390736,-100.26678939585686,80.21211738781929
2024-09-23 16:38:39.202778,42.08,35.765633,-0.0027359787006383035,-0.022982261414192504,0.09695331012558621,44.11764879391193,-100.26678939585686,80.21211738781929
2024-09-23 16:38:39.246110,42.08,35.765633,-0.0027359787006383035,-0.022982261414192504,0.09695331012558621,44.11764879391193,-92.24360919585227,84.22370748782159
2024-09-23 16:38:39.257428,42.08,35.765684,-0.002636491424507565,-0.02362894446842532,0.09745075675933246,44.11764879391193,-92.24360919585227,84.22370748782159
2024-09-23 16:38:39.299413,42.08,35.765735,-0.0030841997366068195,-0.02362894446842532,0.09745075675933246,44.11764879391193,-100.26678939585686,72.1922225099802
2024-09-23 16:38:39.311601,42.08,35.765735,-0.0030841997366068195,-0.023579196463302005,0.09745075675933246,44.11764879391193,-100.26678939585686,72.1922225099802
2024-09-23 16:38:39.343561,42.08,35.765735,-0.0030841997366068195,-0.023579196463302005,0.0970030596496862,48.12595698684454,-100.26678939585686,72.1922225099802
2024-09-23 16:38:39.355385,42.08,35.765785,-0.0030841997366068195,-0.023579196463302005,0.0970030596496862,48.12595698684454,-88.23529758782387,76.200527287817
2024-09-23 16:38:39.397235,42.08,35.765785,-0.002636491424507565,-0.023579196463302005,0.0970030596496862,48.12595698684454,-88.23529758782387,76.200527287817
2024-09-23 16:38:39.439947,42.08,35.765785,-0.002636491424507565,-0.023429960042815445,0.0970030596496862,48.12595698684454,-88.23529758782387,76.200527287817
2024-09-23 16:38:39.451965,42.08,35.765872,-0.002636491424507565,-0.023429960042815445,0.09755024973162574,40.106058693909645,-100.26678939585686,80.21211738781929
2024-09-23 16:38:39.494592,42.08,35.765872,-0.0030841997366068195,-0.023230986250042305,0.09725178296655933,44.11764879391193,-100.26678939585686,80.21211738781929
2024-09-23 16:38:39.506763,42.08,35.765872,-0.0030841997366068195,-0.023230986250042305,0.09725178296655933,44.11764879391193,-100.26678939585686,76.200527287817
2024-09-23 16:38:39.538444,42.08,35.765924,-0.0022385316871478774,-0.023230986250042305,0.09725178296655933,44.11764879391193,-100.26678939585686,76.200527287817
2024-09-23 16:38:39.550311,42.08,35.765924,-0.0022385316871478774,-0.023579196463302005,0.09685382322919964,44.11764879391193,-96.25519929585457,76.200527287817
2024-09-23 16:38:39.634871,42.08,35.765924,-0.0022385316871478774,-0.023579196463302005,0.09685382322919964,44.11764879391193,-96.25519929585457,76.200527287817
2024-09-23 16:38:39.645870,42.08,35.765975,-0.0030344509719951677,-0.023230986250042305,0.09750050628343246,48.12595698684454,-96.25519929585457,76.200527287817
2024-09-23 16:38:39.688278,42.08,35.766025,-0.003233425524256645,-0.023230986250042305,0.09750050628343246,48.12595698684454,-96.25519929585457,76.200527287817
2024-09-23 16:38:39.699854,42.08,35.766025,-0.003233425524256645,-0.023579196463302005,0.09715228999426605,48.12595698684454,-96.25519929585457,76.200527287817
2024-09-23 16:38:39.732478,42.2,35.766025,-0.003233425524256645,-0.023579196463302005,0.09715228999426605,44.11764879391193,-96.25519929585457,76.200527287817
2024-09-23 16:38:39.744204,42.2,35.766118,-0.0029847020175114316,-0.023181236725942318,0.09715228999426605,44.11764879391193,-104.27510100388527,80.21211738781929
2024-09-23 16:38:39.786183,42.2,35.766169,-0.0029847020175114316,-0.023181236725942318,0.09665483728461309,36.09446859390736,-96.25519929585457,80.21211738781929
2024-09-23 16:38:39.797951,42.2,35.766169,-0.0030344509719951677,-0.023181236725942318,0.09665483728461309,36.09446859390736,-96.25519929585457,80.21211738781929
2024-09-23 16:38:39.831160,42.2,35.766169,-0.0030344509719951677,-0.02362894446842532,0.0973512698629459,36.09446859390736,-96.25519929585457,80.21211738781929
2024-09-23 16:38:39.842178,42.2,35.766311,-0.0030344509719951677,-0.02362894446842532,0.0973512698629459,48.12595698684454,-96.25519929585457,76.200527287817
2024-09-23 16:38:39.884273,42.2,35.766311,-0.0030841997366068195,-0.02308174982955575,0.09715228999426605,48.12595698684454,-92.24360919585227,76.200527287817
2024-09-23 16:38:39.895780,42.2,35.766311,-0.0030841997366068195,-0.02308174982955575,0.09715228999426605,48.12595698684454,-92.24360919585227,72.1922225099802
2024-09-23 16:38:39.927814,42.2,35.766363,-0.0029847020175114316,-0.02308174982955575,0.09715228999426605,48.12595698684454,-92.24360919585227,72.1922225099802
2024-09-23 16:38:39.939980,42.2,35.766363,-0.0029847020175114316,-0.023330473146428877,0.09675432418099966,48.12595698684454,-100.26678939585686,72.1922225099802
2024-09-23 16:38:40.024298,42.2,35.766363,-0.0029847020175114316,-0.023330473146428877,0.09675432418099966,48.12595698684454,-100.26678939585686,76.200527287817
2024-09-23 16:38:40.035909,42.2,35.766413,-0.0031836870127375577,-0.023230986250042305,0.0973015264147526,40.106058693909645,-100.26678939585686,76.200527287817
2024-09-23 16:38:40.079648,42.2,35.766464,-0.0031836870127375577,-0.02338022115155219,0.0973015264147526,40.106058693909645,-96.25519929585457,84.22370748782159
