Ayaan's Suite
Timestamp,Sample Rate (Hz),Time,Ax,Ay,Az,Gx,Gy,Gz
2024-09-23 14:38:16.758395,0,28.543023,-0.002636491424507565,-0.0225345536717095,0.09710254654607277,36.09446859390736,-104.27510100388527,80.21211738781929
2024-09-23 14:38:16.790471,0,28.543023,-0.002636491424507565,-0.0225345536717095,0.09710254654607277,36.09446859390736,-104.27510100388527,80.21211738781929
2024-09-23 14:38:16.801469,0,28.543075,-0.003482159473966507,-0.02293251340906919,0.09645586349183995,36.09446859390736,-104.27510100388527,80.21211738781929
2024-09-23 14:38:16.843963,0,28.543125,-0.0030344509719951677,-0.02293251340906919,0.09645586349183995,36.09446859390736,-100.26678939585686,76.200527287817
2024-09-23 14:38:16.855512,0,28.543125,-0.0030344509719951677,-0.023330473146428877,0.09764974270391902,36.09446859390736,-100.26678939585686,76.200527287817
2024-09-23 14:38:16.898131,0,28.543176,-0.003780631555451287,-0.0228827638849692,0.09764974270391902,44.11764879391193,-84.22370748782159,92.24360919585227
2024-09-23 14:38:16.941311,0,28.543176,-0.003780631555451287,-0.0228827638849692,0.0973015264147526,40.106058693909645,-92.24360919585227,84.22370748782159
2024-09-23 14:38:16.952698,0,28.543227,-0.0033329230534799477,-0.0228827638849692,0.0973015264147526,40.106058693909645,-92.24360919585227,84.22370748782159
2024-09-23 14:38:16.985049,0,28.543227,-0.0033329230534799477,-0.022982261414192504,0.0973015264147526,40.106058693909645,-92.24360919585227,84.22370748782159
2024-09-23 14:38:16.996531,0,28.543315,-0.0033329230534799477,-0.022982261414192504,0.09685382322919964,36.09446859390736,-100.26678939585686,84.22370748782159
2024-09-23 14:38:17.039668,0,28.543315,-0.003382661564999035,-0.02308174982955575,0.09745075675933246,36.09446859390736,-100.26678939585686,84.22370748782159
2024-09-23 14:38:17.051423,0,28.543315,-0.003382661564999035,-0.02308174982955575,0.09745075675933246,36.09446859390736,-100.26678939585686,84.22370748782159
2024-09-23 14:38:17.084778,0,28.543367,-0.003382661564999035,-0.02308174982955575,0.09745075675933246,36.09446859390736,-100.26678939585686,84.22370748782159
2024-09-23 14:38:17.096557,0,28.543367,-0.0028354659767690416,-0.023429960042815445,0.09680407370509965,36.09446859390736,-92.24360919585227,84.22370748782159
2024-09-23 14:38:17.138955,0,28.543417,-0.003780631555451287,-0.02313149783467906,0.09725178296655933,36.09446859390736,-92.24360919585227,80.21211738781929
2024-09-23 14:38:17.151118,0,28.543417,-0.003780631555451287,-0.02313149783467906,0.09725178296655933,36.09446859390736,-92.24360919585227,80.21211738781929
2024-09-23 14:38:17.182760,0,28.543417,-0.003780631555451287,-0.02313149783467906,0.09725178296655933,36.09446859390736,-96.25519929585457,80.21211738781929
2024-09-23 14:38:17.195102,0,28.543468,-0.003482159473966507,-0.02362894446842532,0.09725178296655933,36.09446859390736,-96.25519929585457,80.21211738781929
2024-09-23 14:38:17.238331,0,28.543519,-0.003482159473966507,-0.023330473146428877,0.09725178296655933,36.09446859390736,-92.24360919585227,80.21211738781929
2024-09-23 14:38:17.281301,0,28.543519,-0.003482159473966507,-0.023330473146428877,0.09705279702197278,36.09446859390736,-96.25519929585457,80.21211738781929
2024-09-23 14:38:17.292382,0,28.543569,-0.0030841997366068195,-0.023330473146428877,0.09705279702197278,36.09446859390736,-96.25519929585457,76.200527287817
2024-09-23 14:38:17.336093,0,28.543656,-0.0030841997366068195,-0.02338022115155219,0.09705279702197278,36.09446859390736,-96.25519929585457,80.21211738781929
2024-09-23 14:38:17.379356,0,28.543656,-0.002636491424507565,-0.02303200030545576,0.0970030596496862,36.09446859390736,-96.25519929585457,80.21211738781929
2024-09-23 14:38:17.391152,0,28.543656,-0.002636491424507565,-0.02303200030545576,0.0970030596496862,36.09446859390736,-92.24360919585227,84.22370748782159
2024-09-23 14:38:17.433568,0,28.543708,-0.0029349636958644295,-0.023230986250042305,0.0970030596496862,32.08287849390507,-100.26678939585686,84.22370748782159
2024-09-23 14:38:17.477382,0,28.543759,-0.003631395514708897,-0.023230986250042305,0.0970030596496862,32.08287849390507,-100.26678939585686,76.200527287817
2024-09-23 14:38:17.489300,0,28.543759,-0.003631395514708897,-0.023181236725942318,0.09725178296655933,40.106058693909645,-100.26678939585686,76.200527287817
2024-09-23 14:38:17.531721,0,28.543809,-0.003382661564999035,-0.02313149783467906,0.09715228999426605,40.106058693909645,-96.25519929585457,84.22370748782159
2024-09-23 14:38:17.575359,0,28.543809,-0.003382661564999035,-0.02313149783467906,0.09715228999426605,44.11764879391193,-100.26678939585686,80.21211738781929
2024-09-23 14:38:17.586923,0,28.54386,-0.0035318979854855937,-0.023280723622328886,0.09715228999426605,44.11764879391193,-100.26678939585686,80.21211738781929
2024-09-23 14:38:17.618951,0,28.54386,-0.0035318979854855937,-0.023280723622328886,0.09695331012558621,44.11764879391193,-100.26678939585686,80.21211738781929
2024-09-23 14:38:17.630377,0,28.543911,-0.0035816467500972456,-0.023280723622328886,0.09695331012558621,40.106058693909645,-104.27510100388527,72.1922225099802
2024-09-23 14:38:17.674446,0,28.543911,-0.0035816467500972456,-0.02367869399252531,0.09715228999426605,40.106058693909645,-100.26678939585686,88.23529758782387
2024-09-23 14:38:17.686022,0,28.543998,-0.0035816467500972456,-0.02367869399252531,0.09715228999426605,40.106058693909645,-100.26678939585686,88.23529758782387
2024-09-23 14:38:17.719404,0,28.543998,-0.0032831742888682963,-0.02313149783467906,0.09715228999426605,40.106058693909645,-100.26678939585686,88.23529758782387
2024-09-23 14:38:17.731269,0,28.543998,-0.0032831742888682963,-0.02313149783467906,0.09745075675933246,36.09446859390736,-104.27510100388527,80.21211738781929
2024-09-23 14:38:17.774414,43.81,28.544049,-0.0036811340262279837,-0.023429960042815445,0.0970030596496862,32.08287849390507,-104.27510100388527,80.21211738781929
2024-09-23 14:38:17.816523,43.81,28.5441,-0.0036811340262279837,-0.023429960042815445,0.0970030596496862,32.08287849390507,-104.27510100388527,80.21211738781929
2024-09-23 14:38:17.828498,43.81,28.5441,-0.003631395514708897,-0.023330473146428877,0.0973512698629459,40.106058693909645,-104.27510100388527,80.21211738781929
2024-09-23 14:38:17.871127,43.81,28.544151,-0.0035318979854855937,-0.02338022115155219,0.09715228999426605,40.106058693909645,-100.26678939585686,80.21211738781929
2024-09-23 14:38:17.914284,43.81,28.544151,-0.0035318979854855937,-0.02338022115155219,0.09715228999426605,36.09446859390736,-100.26678939585686,80.21211738781929
2024-09-23 14:38:17.926060,43.81,28.544201,-0.003631395514708897,-0.02338022115155219,0.09715228999426605,36.09446859390736,-100.26678939585686,80.21211738781929
2024-09-23 14:38:17.969780,43.81,28.544252,-0.0037308827908396356,-0.02338022115155219,0.09690356060148622,36.09446859390736,-104.27510100388527,80.21211738781929
2024-09-23 14:38:18.012964,43.81,28.544252,-0.0037308827908396356,-0.023429960042815445,0.09710254654607277,36.09446859390736,-104.27510100388527,80.21211738781929
2024-09-23 14:38:18.024142,43.81,28.544339,-0.0037308827908396356,-0.023429960042815445,0.09710254654607277,32.08287849390507,-96.25519929585457,80.21211738781929
2024-09-23 14:38:18.066445,43.81,28.544339,-0.0031339382481259063,-0.02352945757203875,0.09705279702197278,40.106058693909645,-100.26678939585686,80.21211738781929
2024-09-23 14:38:18.078489,43.81,28.544339,-0.0031339382481259063,-0.02352945757203875,0.09705279702197278,40.106058693909645,-100.26678939585686,76.200527287817
2024-09-23 14:38:18.110363,43.81,28.544391,-0.0032831742888682963,-0.023429960042815445,0.09705279702197278,40.106058693909645,-100.26678939585686,76.200527287817
2024-09-23 14:38:18.121918,43.81,28.544391,-0.0032831742888682963,-0.023429960042815445,0.09645586349183995,36.09446859390736,-108.28669110388756,76.200527287817
2024-09-23 14:38:18.165814,43.81,28.544441,-0.0029349636958644295,-0.023429960042815445,0.09715228999426605,40.106058693909645,-108.28669110388756,76.200527287817
2024-09-23 14:38:18.207913,43.81,28.544492,-0.0029349636958644295,-0.023429960042815445,0.09715228999426605,40.106058693909645,-96.25519929585457,76.200527287817
2024-09-23 14:38:18.219792,43.81,28.544492,-0.002785727465249955,-0.02308174982955575,0.09720203344245934,40.106058693909645,-96.25519929585457,76.200527287817
2024-09-23 14:38:18.262684,43.81,28.544543,-0.0027359787006383035,-0.023280723622328886,0.09720203344245934,36.09446859390736,-96.25519929585457,76.200527287817
2024-09-23 14:38:18.305194,43.81,28.544543,-0.0027359787006383035,-0.023280723622328886,0.09740101331113918,36.09446859390736,-96.25519929585457,76.200527287817
2024-09-23 14:38:18.316342,43.81,28.544593,-0.0030841997366068195,-0.023280723622328886,0.09740101331113918,36.09446859390736,-96.25519929585457,76.200527287817
2024-09-23 14:38:18.359509,43.81,28.54468,-0.0030841997366068195,-0.023330473146428877,0.09690356060148622,44.11764879391193,-100.26678939585686,76.200527287817
2024-09-23 14:38:18.401093,43.81,28.54468,-0.003233425524256645,-0.022833026512682618,0.09690356060148622,44.11764879391193,-100.26678939585686,76.200527287817
2024-09-23 14:38:18.412556,43.81,28.54468,-0.003233425524256645,-0.022833026512682618,0.09740101331113918,32.08287849390507,-96.25519929585457,80.21211738781929
2024-09-23 14:38:18.454806,43.81,28.544732,-0.0028852147413806935,-0.02362894446842532,0.09715228999426605,32.08287849390507,-96.25519929585457,80.21211738781929
2024-09-23 14:38:18.467410,43.81,28.544732,-0.0028852147413806935,-0.02362894446842532,0.09715228999426605,32.08287849390507,-104.27510100388527,80.21211738781929
2024-09-23 14:38:18.502319,43.81,28.544782,-0.003631395514708897,-0.02362894446842532,0.09715228999426605,32.08287849390507,-104.27510100388527,72.1922225099802
2024-09-23 14:38:18.513870,43.81,28.544782,-0.003631395514708897,-0.02308174982955575,0.09715228999426605,36.09446859390736,-104.27510100388527,72.1922225099802
2024-09-23 14:38:18.545366,43.81,28.544782,-0.003631395514708897,-0.02308174982955575,0.09715228999426605,36.09446859390736,-100.26678939585686,72.1922225099802
2024-09-23 14:38:18.556659,43.81,28.544833,-0.0034324103296106863,-0.02338022115155219,0.09695331012558621,36.09446859390736,-100.26678939585686,80.21211738781929
2024-09-23 14:38:18.598959,43.81,28.544884,-0.0034324103296106863,-0.02338022115155219,0.09695331012558621,32.08287849390507,-104.27510100388527,80.21211738781929
2024-09-23 14:38:18.610698,43.81,28.544884,-0.0026862297461545674,-0.023330473146428877,0.09695331012558621,32.08287849390507,-104.27510100388527,80.21211738781929
2024-09-23 14:38:18.643920,43.81,28.544884,-0.0026862297461545674,-0.023330473146428877,0.0970030596496862,32.08287849390507,-104.27510100388527,80.21211738781929
2024-09-23 14:38:18.655195,43.81,28.544934,-0.0037308827908396356,-0.023330473146428877,0.0970030596496862,32.08287849390507,-100.26678939585686,80.21211738781929
2024-09-23 14:38:18.698084,43.81,28.544934,-0.0037308827908396356,-0.023579196463302005,0.09680407370509965,40.106058693909645,-92.24360919585227,80.21211738781929
2024-09-23 14:38:18.710106,43.81,28.545022,-0.0037308827908396356,-0.023579196463302005,0.09680407370509965,40.106058693909645,-92.24360919585227,80.21211738781929
2024-09-23 14:38:18.742515,43.81,28.545022,-0.0030841997366068195,-0.023280723622328886,0.09680407370509965,40.106058693909645,-92.24360919585227,80.21211738781929
2024-09-23 14:38:18.753827,43.81,28.545022,-0.0030841997366068195,-0.023280723622328886,0.09670458680871308,36.09446859390736,-96.25519929585457,80.21211738781929
2024-09-23 14:38:18.797085,43.42,28.545073,-0.003233425524256645,-0.023181236725942318,0.09710254654607277,40.106058693909645,-96.25519929585457,80.21211738781929
2024-09-23 14:38:18.809021,43.42,28.545073,-0.003233425524256645,-0.023181236725942318,0.09710254654607277,40.106058693909645,-96.25519929585457,80.21211738781929
2024-09-23 14:38:18.842002,43.42,28.545124,-0.0030841997366068195,-0.023181236725942318,0.09710254654607277,40.106058693909645,-96.25519929585457,84.22370748782159
2024-09-23 14:38:18.853587,43.42,28.545124,-0.0030841997366068195,-0.023280723622328886,0.0973015264147526,40.106058693909645,-96.25519929585457,84.22370748782159
2024-09-23 14:38:18.895901,43.42,28.545175,-0.0026862297461545674,-0.023230986250042305,0.09750050628343246,40.106058693909645,-92.24360919585227,80.21211738781929
2024-09-23 14:38:18.937980,43.42,28.545175,-0.0026862297461545674,-0.023230986250042305,0.09750050628343246,36.09446859390736,-96.25519929585457,80.21211738781929
2024-09-23 14:38:18.950014,43.42,28.545225,-0.0037308827908396356,-0.022982261414192504,0.09750050628343246,36.09446859390736,-96.25519929585457,80.21211738781929
2024-09-23 14:38:18.993184,43.42,28.545276,-0.0037308827908396356,-0.022982261414192504,0.09764974270391902,32.08287849390507,-96.25519929585457,80.21211738781929
2024-09-23 14:38:19.004968,43.42,28.545276,-0.003482159473966507,-0.022982261414192504,0.09764974270391902,32.08287849390507,-96.25519929585457,80.21211738781929
2024-09-23 14:38:19.036438,43.42,28.545276,-0.003482159473966507,-0.023479709566915436,0.09745075675933246,36.09446859390736,-96.25519929585457,80.21211738781929
2024-09-23 14:38:19.047913,43.42,28.545363,-0.003482159473966507,-0.023479709566915436,0.09745075675933246,36.09446859390736,-92.24360919585227,80.21211738781929
2024-09-23 14:38:19.091314,43.42,28.545363,-0.003482159473966507,-0.023479709566915436,0.09745075675933246,36.09446859390736,-92.24360919585227,80.21211738781929
2024-09-23 14:38:19.133744,43.42,28.545363,-0.003482159473966507,-0.023579196463302005,0.09695331012558621,40.106058693909645,-92.24360919585227,80.21211738781929
2024-09-23 14:38:19.144690,43.42,28.545414,-0.003482159473966507,-0.023579196463302005,0.09695331012558621,40.106058693909645,-92.24360919585227,80.21211738781929
2024-09-23 14:38:19.186386,43.42,28.545414,-0.0033329230534799477,-0.022733528983459317,0.09635636444363997,32.08287849390507,-92.24360919585227,80.21211738781929
2024-09-23 14:38:19.198363,43.42,28.545414,-0.0033329230534799477,-0.022733528983459317,0.09635636444363997,32.08287849390507,-92.24360919585227,80.21211738781929
2024-09-23 14:38:19.230506,43.42,28.545465,-0.003233425524256645,-0.022733528983459317,0.09635636444363997,32.08287849390507,-92.24360919585227,80.21211738781929
2024-09-23 14:38:19.241584,43.42,28.545465,-0.003233425524256645,-0.02352945757203875,0.09650560086412653,24.06297849342227,-96.25519929585457,80.21211738781929
2024-09-23 14:38:19.285333,43.42,28.545516,-0.0031836870127375577,-0.02268379009219606,0.0973512698629459,36.09446859390736,-96.25519929585457,80.21211738781929
2024-09-23 14:38:19.327201,43.42,28.545516,-0.0031836870127375577,-0.02268379009219606,0.0973512698629459,36.09446859390736,-96.25519929585457,80.21211738781929
2024-09-23 14:38:19.339255,43.42,28.545566,-0.0028354659767690416,-0.02293251340906919,0.09720203344245934,36.09446859390736,-96.25519929585457,80.21211738781929
2024-09-23 14:38:19.381920,43.42,28.545657,-0.0032831742888682963,-0.02293251340906919,0.09720203344245934,40.106058693909645,-96.25519929585457,76.200527287817
2024-09-23 14:38:19.393711,43.42,28.545657,-0.0032831742888682963,-0.02293251340906919,0.09720203344245934,40.106058693909645,-96.25519929585457,76.200527287817
2024-09-23 14:38:19.426172,43.42,28.545657,-0.0032831742888682963,-0.02293251340906919,0.09705279702197278,40.106058693909645,-96.25519929585457,76.200527287817
2024-09-23 14:38:19.437146,43.42,28.545708,-0.003482159473966507,-0.02293251340906919,0.09705279702197278,40.106058693909645,-96.25519929585457,72.1922225099802
2024-09-23 14:38:19.480732,43.42,28.545802,-0.003482159473966507,-0.023429960042815445,0.09740101331113918,40.106058693909645,-96.25519929585457,76.200527287817
2024-09-23 14:38:19.523612,43.42,28.545802,-0.0031339382481259063,-0.0228827638849692,0.09650560086412653,40.106058693909645,-96.25519929585457,76.200527287817
2024-09-23 14:38:19.535460,43.42,28.545802,-0.0031339382481259063,-0.0228827638849692,0.09650560086412653,32.08287849390507,-100.26678939585686,76.200527287817
2024-09-23 14:38:19.578652,43.42,28.545853,-0.0035318979854855937,-0.022733528983459317,0.09710254654607277,36.09446859390736,-96.25519929585457,76.200527287817
2024-09-23 14:38:19.621687,43.42,28.545904,-0.0035318979854855937,-0.022733528983459317,0.09710254654607277,36.09446859390736,-96.25519929585457,76.200527287817
2024-09-23 14:38:19.674004,43.42,28.545904,-0.003382661564999035,-0.023429960042815445,0.09715228999426605,40.106058693909645,-92.24360919585227,76.200527287817
2024-09-23 14:38:19.686080,43.42,28.545904,-0.003382661564999035,-0.023429960042815445,0.09715228999426605,40.106058693909645,-92.24360919585227,80.21211738781929
2024-09-23 14:38:19.720793,43.42,28.545954,-0.003482159473966507,-0.02313149783467906,0.09715228999426605,40.106058693909645,-92.24360919585227,80.21211738781929
2024-09-23 14:38:19.732672,43.42,28.545954,-0.003482159473966507,-0.02313149783467906,0.09705279702197278,44.11764879391193,-92.24360919585227,80.21211738781929
2024-09-23 14:38:19.764295,43.42,28.545954,-0.003482159473966507,-0.02313149783467906,0.09705279702197278,44.11764879391193,-92.24360919585227,76.200527287817
2024-09-23 14:38:19.776521,43.42,28.546005,-0.0031836870127375577,-0.0228827638849692,0.09715228999426605,32.08287849390507,-92.24360919585227,76.200527287817
2024-09-23 14:38:19.819548,43.29,28.546056,-0.003382661564999035,-0.023429960042815445,0.09715228999426605,32.08287849390507,-96.25519929585457,80.21211738781929
2024-09-23 14:38:19.831547,43.29,28.546056,-0.003382661564999035,-0.023429960042815445,0.0976994861521123,32.08287849390507,-96.25519929585457,80.21211738781929
2024-09-23 14:38:19.864182,43.29,28.546056,-0.003382661564999035,-0.023429960042815445,0.0976994861521123,28.07457030097246,-100.26678939585686,80.21211738781929
2024-09-23 14:38:19.875385,43.29,28.546143,-0.0031836870127375577,-0.02352945757203875,0.0976994861521123,28.07457030097246,-100.26678939585686,84.22370748782159
2024-09-23 14:38:19.918506,43.29,28.546194,-0.0028852147413806935,-0.02352945757203875,0.0970030596496862,32.08287849390507,-92.24360919585227,84.22370748782159
2024-09-23 14:38:19.961158,43.29,28.546194,-0.0028852147413806935,-0.02293251340906919,0.0966050877605131,32.08287849390507,-92.24360919585227,84.22370748782159
2024-09-23 14:38:19.973693,43.29,28.546289,-0.0028852147413806935,-0.02293251340906919,0.0966050877605131,28.07457030097246,-100.26678939585686,84.22370748782159
2024-09-23 14:38:20.017106,43.29,28.546289,-0.0037308827908396356,-0.023280723622328886,0.09725178296655933,40.106058693909645,-100.26678939585686,80.21211738781929
2024-09-23 14:38:20.059138,43.29,28.546341,-0.003382661564999035,-0.023280723622328886,0.09725178296655933,40.106058693909645,-100.26678939585686,80.21211738781929
2024-09-23 14:38:20.070869,43.29,28.546341,-0.003382661564999035,-0.022982261414192504,0.0973015264147526,44.11764879391193,-96.25519929585457,80.21211738781929
2024-09-23 14:38:20.113760,43.29,28.546391,-0.0036811340262279837,-0.022833026512682618,0.0973015264147526,44.11764879391193,-96.25519929585457,84.22370748782159
2024-09-23 14:38:20.125444,43.29,28.546391,-0.0036811340262279837,-0.022833026512682618,0.0973015264147526,36.09446859390736,-96.25519929585457,84.22370748782159
2024-09-23 14:38:20.158056,43.29,28.546442,-0.0036811340262279837,-0.022833026512682618,0.0973015264147526,36.09446859390736,-96.25519929585457,80.21211738781929
2024-09-23 14:38:20.169667,43.29,28.546442,-0.003631395514708897,-0.023778180888911878,0.09740101331113918,36.09446859390736,-96.25519929585457,80.21211738781929
2024-09-23 14:38:20.212317,43.29,28.546493,-0.0029349636958644295,-0.023927417309398437,0.09740101331113918,40.106058693909645,-96.25519929585457,80.21211738781929
2024-09-23 14:38:20.255215,43.29,28.546493,-0.0029349636958644295,-0.023927417309398437,0.09725178296655933,44.11764879391193,-92.24360919585227,80.21211738781929
2024-09-23 14:38:20.267177,43.29,28.546493,-0.0029349636958644295,-0.023927417309398437,0.09725178296655933,44.11764879391193,-92.24360919585227,76.200527287817
2024-09-23 14:38:20.350967,43.29,28.546543,-0.0029349636958644295,-0.023927417309398437,0.09725178296655933,44.11764879391193,-92.24360919585227,76.200527287817
2024-09-23 14:38:20.362732,43.29,28.546543,-0.0034324103296106863,-0.02338022115155219,0.09745075675933246,36.09446859390736,-100.26678939585686,76.200527287817
2024-09-23 14:38:20.405385,43.29,28.54663,-0.0031339382481259063,-0.023230986250042305,0.0966050877605131,36.09446859390736,-100.26678939585686,80.21211738781929
2024-09-23 14:38:20.417606,43.29,28.54663,-0.0031339382481259063,-0.023230986250042305,0.0966050877605131,44.11764879391193,-100.26678939585686,80.21211738781929
2024-09-23 14:38:20.449171,43.29,28.54663,-0.0031339382481259063,-0.023230986250042305,0.0966050877605131,44.11764879391193,-100.26678939585686,80.21211738781929
2024-09-23 14:38:20.460942,43.29,28.546682,-0.0031339382481259063,-0.023330473146428877,0.0973512698629459,44.11764879391193,-100.26678939585686,80.21211738781929
2024-09-23 14:38:20.504127,43.29,28.546733,-0.0031339382481259063,-0.02308174982955575,0.0973512698629459,40.106058693909645,-100.26678939585686,84.22370748782159
2024-09-23 14:38:20.547187,43.29,28.546733,-0.0031339382481259063,-0.02308174982955575,0.09665483728461309,32.08287849390507,-100.26678939585686,84.22370748782159
2024-09-23 14:38:20.558525,43.29,28.546783,-0.0031836870127375577,-0.02308174982955575,0.09665483728461309,32.08287849390507,-96.25519929585457,76.200527287817
2024-09-23 14:38:20.601678,43.29,28.546923,-0.0031836870127375577,-0.02308174982955575,0.0973015264147526,36.09446859390736,-96.25519929585457,80.21211738781929
2024-09-23 14:38:20.644510,43.29,28.546923,-0.003233425524256645,-0.023330473146428877,0.0973015264147526,36.09446859390736,-96.25519929585457,80.21211738781929
2024-09-23 14:38:20.655723,43.29,28.546923,-0.003233425524256645,-0.023330473146428877,0.09750050628343246,24.06297849342227,-92.24360919585227,76.200527287817
2024-09-23 14:38:20.697915,43.29,28.546974,-0.0034324103296106863,-0.02303200030545576,0.09755024973162574,40.106058693909645,-92.24360919585227,76.200527287817
2024-09-23 14:38:20.709606,43.29,28.546974,-0.0034324103296106863,-0.02303200030545576,0.09755024973162574,40.106058693909645,-96.25519929585457,76.200527287817
2024-09-23 14:38:20.742375,43.29,28.547025,-0.0031339382481259063,-0.02303200030545576,0.09755024973162574,40.106058693909645,-96.25519929585457,80.21211738781929
2024-09-23 14:38:20.753575,43.29,28.547025,-0.0031339382481259063,-0.023479709566915436,0.09665483728461309,40.106058693909645,-96.25519929585457,80.21211738781929
2024-09-23 14:38:20.795937,43.29,28.547076,-0.0032831742888682963,-0.0225345536717095,0.09710254654607277,40.106058693909645,-100.26678939585686,84.22370748782159
2024-09-23 14:38:20.838892,42.77,28.547076,-0.0032831742888682963,-0.0225345536717095,0.09710254654607277,40.106058693909645,-92.24360919585227,84.22370748782159
2024-09-23 14:38:20.850867,42.77,28.547126,-0.0032831742888682963,-0.023479709566915436,0.09710254654607277,40.106058693909645,-92.24360919585227,84.22370748782159
2024-09-23 14:38:20.893122,42.77,28.547126,-0.0032831742888682963,-0.023479709566915436,0.09720203344245934,40.106058693909645,-92.24360919585227,84.22370748782159
2024-09-23 14:38:20.936257,42.77,28.547126,-0.0032831742888682963,-0.023479709566915436,0.09720203344245934,36.09446859390736,-100.26678939585686,84.22370748782159
2024-09-23 14:38:20.989147,42.77,28.547126,-0.0032831742888682963,-0.023479709566915436,0.09720203344245934,36.09446859390736,-100.26678939585686,80.21211738781929
2024-09-23 14:38:21.033290,42.77,28.547177,-0.0032831742888682963,-0.023479709566915436,0.09720203344245934,36.09446859390736,-100.26678939585686,80.21211738781929
2024-09-23 14:38:21.045197,42.77,28.547177,-0.003233425524256645,-0.023877669304275123,0.09680407370509965,44.11764879391193,-104.27510100388527,80.21211738781929
2024-09-23 14:38:21.087751,42.77,28.547264,-0.0032831742888682963,-0.02303200030545576,0.09645586349183995,44.11764879391193,-104.27510100388527,80.21211738781929
2024-09-23 14:38:21.099531,42.77,28.547264,-0.0032831742888682963,-0.02303200030545576,0.09645586349183995,40.106058693909645,-104.27510100388527,80.21211738781929
2024-09-23 14:38:21.132220,42.77,28.547264,-0.0032831742888682963,-0.02303200030545576,0.09645586349183995,40.106058693909645,-96.25519929585457,80.21211738781929
2024-09-23 14:38:21.185359,42.77,28.547316,-0.0032831742888682963,-0.023330473146428877,0.0973512698629459,40.106058693909645,-96.25519929585457,80.21211738781929
2024-09-23 14:38:21.198132,42.77,28.547316,-0.0032831742888682963,-0.023330473146428877,0.0973512698629459,36.09446859390736,-96.25519929585457,80.21211738781929
2024-09-23 14:38:21.231157,42.77,28.547366,-0.0032831742888682963,-0.023330473146428877,0.0973512698629459,36.09446859390736,-104.27510100388527,84.22370748782159
2024-09-23 14:38:21.243288,42.77,28.547366,-0.0032831742888682963,-0.023579196463302005,0.09645586349183995,36.09446859390736,-104.27510100388527,84.22370748782159
2024-09-23 14:38:21.277028,42.77,28.547366,-0.0032831742888682963,-0.023579196463302005,0.09645586349183995,36.09446859390736,-104.27510100388527,84.22370748782159
2024-09-23 14:38:21.288934,42.77,28.547508,-0.003233425524256645,-0.02278327698858263,0.09645586349183995,36.09446859390736,-92.24360919585227,76.200527287817
2024-09-23 14:38:21.332021,42.77,28.547605,-0.003233425524256645,-0.02278327698858263,0.09715228999426605,36.09446859390736,-96.25519929585457,76.200527287817
2024-09-23 14:38:21.344138,42.77,28.547605,-0.0032831742888682963,-0.02278327698858263,0.09715228999426605,36.09446859390736,-96.25519929585457,76.200527287817
2024-09-23 14:38:21.376009,42.77,28.547605,-0.0032831742888682963,-0.022982261414192504,0.09685382322919964,32.08287849390507,-96.25519929585457,76.200527287817
2024-09-23 14:38:21.387184,42.77,28.547656,-0.0032831742888682963,-0.022982261414192504,0.09685382322919964,32.08287849390507,-92.24360919585227,84.22370748782159
2024-09-23 14:38:21.429096,42.77,28.547656,-0.0033329230534799477,-0.023429960042815445,0.09759999317981902,36.09446859390736,-96.25519929585457,84.22370748782159
2024-09-23 14:38:21.441004,42.77,28.547656,-0.0033329230534799477,-0.023429960042815445,0.09759999317981902,36.09446859390736,-96.25519929585457,80.21211738781929
2024-09-23 14:38:21.474379,42.77,28.547752,-0.0026862297461545674,-0.023230986250042305,0.09759999317981902,36.09446859390736,-96.25519929585457,80.21211738781929
2024-09-23 14:38:21.485832,42.77,28.547752,-0.0026862297461545674,-0.023230986250042305,0.09710254654607277,40.106058693909645,-104.27510100388527,80.21211738781929
2024-09-23 14:38:21.529742,42.77,28.547803,-0.0035318979854855937,-0.023429960042815445,0.09675432418099966,40.106058693909645,-104.27510100388527,76.200527287817
2024-09-23 14:38:21.572186,42.77,28.547854,-0.0035318979854855937,-0.023429960042815445,0.09675432418099966,40.106058693909645,-104.27510100388527,72.1922225099802
2024-09-23 14:38:21.625143,42.77,28.547854,-0.0034324103296106863,-0.023230986250042305,0.09745075675933246,36.09446859390736,-100.26678939585686,80.21211738781929
2024-09-23 14:38:21.667778,42.77,28.547905,-0.0033329230534799477,-0.023230986250042305,0.09745075675933246,36.09446859390736,-100.26678939585686,80.21211738781929
2024-09-23 14:38:21.679090,42.77,28.547905,-0.0033329230534799477,-0.023330473146428877,0.09675432418099966,28.07457030097246,-96.25519929585457,80.21211738781929
2024-09-23 14:38:21.722149,42.77,28.547955,-0.0031339382481259063,-0.023330473146428877,0.09675432418099966,28.07457030097246,-96.25519929585457,84.22370748782159
2024-09-23 14:38:21.764601,42.77,28.547955,-0.0031339382481259063,-0.02313149783467906,0.09740101331113918,28.07457030097246,-96.25519929585457,84.22370748782159
2024-09-23 14:38:21.776319,42.77,28.548044,-0.0031339382481259063,-0.02313149783467906,0.09740101331113918,36.09446859390736,-96.25519929585457,76.200527287817
2024-09-23 14:38:21.818429,42.77,28.548044,-0.0033329230534799477,-0.02313149783467906,0.09759999317981902,32.08287849390507,-100.26678939585686,76.200527287817
2024-09-23 14:38:21.830451,42.77,28.548044,-0.0033329230534799477,-0.02313149783467906,0.09759999317981902,32.08287849390507,-100.26678939585686,76.200527287817
2024-09-23 14:38:21.863266,42.61,28.548095,-0.0029349636958644295,-0.02313149783467906,0.09759999317981902,32.08287849390507,-100.26678939585686,76.200527287817
2024-09-23 14:38:21.874692,42.61,28.548095,-0.0029349636958644295,-0.02367869399252531,0.09705279702197278,36.09446859390736,-88.23529758782387,76.200527287817
2024-09-23 14:38:21.916720,42.61,28.548146,-0.003233425524256645,-0.02313149783467906,0.09725178296655933,36.09446859390736,-88.23529758782387,84.22370748782159
2024-09-23 14:38:21.928721,42.61,28.548146,-0.003233425524256645,-0.02313149783467906,0.09725178296655933,28.07457030097246,-88.23529758782387,84.22370748782159
2024-09-23 14:38:21.960964,42.61,28.548239,-0.003233425524256645,-0.02313149783467906,0.09725178296655933,28.07457030097246,-92.24360919585227,80.21211738781929
2024-09-23 14:38:22.014068,42.61,28.548239,-0.0031339382481259063,-0.023479709566915436,0.09710254654607277,32.08287849390507,-100.26678939585686,80.21211738781929
2024-09-23 14:38:22.025724,42.61,28.548239,-0.0031339382481259063,-0.023479709566915436,0.09710254654607277,32.08287849390507,-100.26678939585686,80.21211738781929
2024-09-23 14:38:22.057893,42.61,28.548291,-0.0036811340262279837,-0.023479709566915436,0.09710254654607277,32.08287849390507,-100.26678939585686,80.21211738781929
2024-09-23 14:38:22.069767,42.61,28.548291,-0.0036811340262279837,-0.023230986250042305,0.09750050628343246,40.106058693909645,-100.26678939585686,80.21211738781929
2024-09-23 14:38:22.112915,42.61,28.548341,-0.003233425524256645,-0.02293251340906919,0.09715228999426605,40.106058693909645,-100.26678939585686,84.22370748782159
2024-09-23 14:38:22.155158,42.61,28.548341,-0.003233425524256645,-0.02293251340906919,0.09715228999426605,40.106058693909645,-100.26678939585686,72.1922225099802
2024-09-23 14:38:22.166347,42.61,28.548434,-0.0035318979854855937,-0.02352945757203875,0.09725178296655933,40.106058693909645,-100.26678939585686,72.1922225099802
2024-09-23 14:38:22.209639,42.61,28.548485,-0.0034324103296106863,-0.023330473146428877,0.09725178296655933,44.11764879391193,-100.26678939585686,84.22370748782159
2024-09-23 14:38:22.252233,42.61,28.548485,-0.0034324103296106863,-0.023330473146428877,0.0973512698629459,32.08287849390507,-100.26678939585686,84.22370748782159
2024-09-23 14:38:22.304981,42.61,28.548536,-0.0032831742888682963,-0.023330473146428877,0.0973512698629459,32.08287849390507,-96.25519929585457,80.21211738781929
2024-09-23 14:38:22.316794,42.61,28.548536,-0.0032831742888682963,-0.023230986250042305,0.09685382322919964,32.08287849390507,-96.25519929585457,80.21211738781929
2024-09-23 14:38:22.349316,42.61,28.548536,-0.0032831742888682963,-0.023230986250042305,0.09685382322919964,32.08287849390507,-96.25519929585457,80.21211738781929
2024-09-23 14:38:22.360454,42.61,28.548629,-0.0031836870127375577,-0.02308174982955575,0.09685382322919964,32.08287849390507,-108.28669110388756,76.200527287817
2024-09-23 14:38:22.402461,42.61,28.548629,-0.0031836870127375577,-0.02308174982955575,0.0970030596496862,32.08287849390507,-104.27510100388527,76.200527287817
2024-09-23 14:38:22.414175,42.61,28.548681,-0.003233425524256645,-0.02308174982955575,0.0970030596496862,32.08287849390507,-104.27510100388527,76.200527287817
2024-09-23 14:38:22.447120,42.61,28.548681,-0.003233425524256645,-0.02303200030545576,0.0970030596496862,32.08287849390507,-104.27510100388527,76.200527287817
2024-09-23 14:38:22.458335,42.61,28.548731,-0.003233425524256645,-0.02303200030545576,0.09725178296655933,36.09446859390736,-96.25519929585457,88.23529758782387
2024-09-23 14:38:22.551718,42.61,28.548731,-0.0034324103296106863,-0.02338022115155219,0.09655535038822652,36.09446859390736,-92.24360919585227,84.22370748782159
2024-09-23 14:38:22.595793,42.61,28.548825,-0.0035318979854855937,-0.023579196463302005,0.09655535038822652,36.09446859390736,-92.24360919585227,84.22370748782159
2024-09-23 14:38:22.607398,42.61,28.548825,-0.0035318979854855937,-0.023579196463302005,0.09690356060148622,44.11764879391193,-100.26678939585686,84.22370748782159
2024-09-23 14:38:22.650662,42.61,28.548876,-0.0035816467500972456,-0.02338022115155219,0.09690356060148622,40.106058693909645,-100.26678939585686,76.200527287817
2024-09-23 14:38:22.693189,42.61,28.548927,-0.0035816467500972456,-0.02338022115155219,0.09690356060148622,40.106058693909645,-96.25519929585457,76.200527287817
2024-09-23 14:38:22.705044,42.61,28.548927,-0.003780631555451287,-0.02233556924609963,0.09710254654607277,40.106058693909645,-96.25519929585457,76.200527287817
2024-09-23 14:38:22.748179,42.61,28.548977,-0.0035318979854855937,-0.022733528983459317,0.09710254654607277,36.09446859390736,-96.25519929585457,84.22370748782159
2024-09-23 14:38:22.790942,42.61,28.548977,-0.0035318979854855937,-0.022733528983459317,0.09720203344245934,52.137550501942634,-100.26678939585686,84.22370748782159
2024-09-23 14:38:22.802831,42.61,28.549071,-0.0026862297461545674,-0.022733528983459317,0.09720203344245934,52.137550501942634,-100.26678939585686,76.200527287817
2024-09-23 14:38:22.835458,42.61,28.549071,-0.0026862297461545674,-0.023728432883788564,0.09720203344245934,52.137550501942634,-100.26678939585686,76.200527287817
2024-09-23 14:38:22.847391,42.61,28.549165,-0.0026862297461545674,-0.023728432883788564,0.09740101331113918,32.08287849390507,-100.26678939585686,84.22370748782159
2024-09-23 14:38:22.890280,42.16,28.549165,-0.0038303700669703737,-0.023181236725942318,0.09655535038822652,36.09446859390736,-100.26678939585686,84.22370748782159
2024-09-23 14:38:22.932614,42.16,28.549165,-0.0038303700669703737,-0.023181236725942318,0.09655535038822652,36.09446859390736,-100.26678939585686,84.22370748782159
2024-09-23 14:38:22.945637,42.16,28.549217,-0.0031339382481259063,-0.02367869399252531,0.09755024973162574,36.09446859390736,-100.26678939585686,84.22370748782159
2024-09-23 14:38:22.989708,42.16,28.549268,-0.0035816467500972456,-0.023230986250042305,0.09755024973162574,36.09446859390736,-92.24360919585227,80.21211738781929
2024-09-23 14:38:23.001350,42.16,28.549268,-0.0035816467500972456,-0.023230986250042305,0.0970030596496862,36.09446859390736,-92.24360919585227,80.21211738781929
2024-09-23 14:38:23.034325,42.16,28.549268,-0.0035816467500972456,-0.023230986250042305,0.0970030596496862,36.09446859390736,-96.25519929585457,80.21211738781929
2024-09-23 14:38:23.045947,42.16,28.549318,-0.0028354659767690416,-0.02338022115155219,0.0970030596496862,36.09446859390736,-96.25519929585457,80.21211738781929
2024-09-23 14:38:23.088403,42.16,28.549369,-0.0035816467500972456,-0.02338022115155219,0.09755024973162574,36.09446859390736,-96.25519929585457,84.22370748782159
2024-09-23 14:38:23.130389,42.16,28.549369,-0.0035816467500972456,-0.023728432883788564,0.0973512698629459,36.09446859390736,-96.25519929585457,84.22370748782159
2024-09-23 14:38:23.141368,42.16,28.549458,-0.0035816467500972456,-0.023728432883788564,0.0973512698629459,36.09446859390736,-104.27510100388527,76.200527287817
2024-09-23 14:38:23.185138,42.16,28.549458,-0.0034324103296106863,-0.023230986250042305,0.0973512698629459,36.09446859390736,-100.26678939585686,76.200527287817
2024-09-23 14:38:23.227352,42.16,28.549509,-0.0035318979854855937,-0.023230986250042305,0.0973512698629459,36.09446859390736,-100.26678939585686,76.200527287817
2024-09-23 14:38:23.238801,42.16,28.549509,-0.0035318979854855937,-0.02268379009219606,0.09715228999426605,36.09446859390736,-96.25519929585457,76.200527287817
2024-09-23 14:38:23.281651,42.16,28.54956,-0.0036811340262279837,-0.023330473146428877,0.09710254654607277,36.09446859390736,-96.25519929585457,80.21211738781929
2024-09-23 14:38:23.293816,42.16,28.54956,-0.0036811340262279837,-0.023330473146428877,0.09710254654607277,32.08287849390507,-96.25519929585457,80.21211738781929
2024-09-23 14:38:23.325688,42.16,28.54956,-0.0036811340262279837,-0.023330473146428877,0.09710254654607277,32.08287849390507,-92.24360919585227,92.24360919585227
2024-09-23 14:38:23.336963,42.16,28.549611,-0.0029349636958644295,-0.023479709566915436,0.0973512698629459,32.08287849390507,-92.24360919585227,92.24360919585227
2024-09-23 14:38:23.380544,42.16,28.549661,-0.0030344509719951677,-0.023230986250042305,0.0973512698629459,36.09446859390736,-96.25519929585457,88.23529758782387
2024-09-23 14:38:23.422559,42.16,28.549661,-0.0030344509719951677,-0.023230986250042305,0.09710254654607277,36.09446859390736,-96.25519929585457,88.23529758782387
2024-09-23 14:38:23.434851,42.16,28.549712,-0.0030841997366068195,-0.023230986250042305,0.09710254654607277,36.09446859390736,-96.25519929585457,84.22370748782159
2024-09-23 14:38:23.478175,42.16,28.549799,-0.0030841997366068195,-0.02352945757203875,0.09635636444363997,36.09446859390736,-96.25519929585457,92.24360919585227
2024-09-23 14:38:23.572188,42.16,28.549799,-0.0030841997366068195,-0.02303200030545576,0.09764974270391902,36.09446859390736,-96.25519929585457,92.24360919585227
2024-09-23 14:38:23.584192,42.16,28.549799,-0.0030841997366068195,-0.02303200030545576,0.09764974270391902,36.09446859390736,-96.25519929585457,84.22370748782159
2024-09-23 14:38:23.616994,42.16,28.549851,-0.0030841997366068195,-0.02303200030545576,0.09764974270391902,36.09446859390736,-96.25519929585457,84.22370748782159
2024-09-23 14:38:23.628813,42.16,28.549851,-0.0031339382481259063,-0.02293251340906919,0.09745075675933246,44.11764879391193,-96.25519929585457,84.22370748782159
2024-09-23 14:38:23.671274,42.16,28.549902,-0.0035816467500972456,-0.0228827638849692,0.0970030596496862,44.11764879391193,-96.25519929585457,80.21211738781929
2024-09-23 14:38:23.714725,42.16,28.549902,-0.0035816467500972456,-0.0228827638849692,0.0970030596496862,36.09446859390736,-96.25519929585457,80.21211738781929
2024-09-23 14:38:23.727350,42.16,28.549952,-0.0029349636958644295,-0.02293251340906919,0.0970030596496862,36.09446859390736,-96.25519929585457,80.21211738781929
2024-09-23 14:38:23.770218,42.16,28.550003,-0.003482159473966507,-0.02293251340906919,0.0973512698629459,32.08287849390507,-96.25519929585457,76.200527287817
2024-09-23 14:38:23.812772,42.16,28.550003,-0.003482159473966507,-0.023280723622328886,0.0973015264147526,32.08287849390507,-96.25519929585457,76.200527287817
2024-09-23 14:38:23.824000,42.16,28.550094,-0.003482159473966507,-0.023280723622328886,0.0973015264147526,36.09446859390736,-92.24360919585227,80.21211738781929
2024-09-23 14:38:23.866928,42.16,28.550094,-0.0028354659767690416,-0.02367869399252531,0.09705279702197278,40.106058693909645,-100.26678939585686,80.21211738781929
2024-09-23 14:38:23.878872,42.16,28.550094,-0.0028354659767690416,-0.02367869399252531,0.09705279702197278,40.106058693909645,-100.26678939585686,76.200527287817
2024-09-23 14:38:23.910532,41.88,28.550189,-0.0028354659767690416,-0.02367869399252531,0.09705279702197278,40.106058693909645,-100.26678939585686,76.200527287817
2024-09-23 14:38:23.963350,41.88,28.550189,-0.0034324103296106863,-0.023330473146428877,0.09755024973162574,36.09446859390736,-100.26678939585686,76.200527287817
2024-09-23 14:38:23.975385,41.88,28.550189,-0.0034324103296106863,-0.023330473146428877,0.09755024973162574,36.09446859390736,-100.26678939585686,80.21211738781929
2024-09-23 14:38:24.007765,41.88,28.550241,-0.0028852147413806935,-0.023330473146428877,0.09755024973162574,36.09446859390736,-100.26678939585686,80.21211738781929
2024-09-23 14:38:24.019711,41.88,28.550241,-0.0028852147413806935,-0.02303200030545576,0.09764974270391902,40.106058693909645,-104.27510100388527,80.21211738781929
2024-09-23 14:38:24.062190,41.88,28.550241,-0.0028852147413806935,-0.02303200030545576,0.09764974270391902,40.106058693909645,-104.27510100388527,80.21211738781929
2024-09-23 14:38:24.104475,41.88,28.550291,-0.0028852147413806935,-0.02303200030545576,0.09764974270391902,40.106058693909645,-104.27510100388527,80.21211738781929
2024-09-23 14:38:24.116340,41.88,28.550291,-0.0032831742888682963,-0.023579196463302005,0.09720203344245934,44.11764879391193,-100.26678939585686,80.21211738781929
2024-09-23 14:38:24.160909,41.88,28.550342,-0.003382661564999035,-0.023479709566915436,0.09675432418099966,36.09446859390736,-100.26678939585686,84.22370748782159
2024-09-23 14:38:24.203859,41.88,28.550342,-0.003382661564999035,-0.023479709566915436,0.09675432418099966,36.09446859390736,-104.27510100388527,76.200527287817
2024-09-23 14:38:24.215155,41.88,28.550393,-0.003382661564999035,-0.023230986250042305,0.09720203344245934,36.09446859390736,-104.27510100388527,76.200527287817
2024-09-23 14:38:24.258458,41.88,28.550484,-0.0030841997366068195,-0.02303200030545576,0.09720203344245934,32.08287849390507,-92.24360919585227,76.200527287817
2024-09-23 14:38:24.300374,41.88,28.550484,-0.0030841997366068195,-0.02303200030545576,0.09750050628343246,32.08287849390507,-92.24360919585227,76.200527287817
2024-09-23 14:38:24.311378,41.88,28.550579,-0.0038303700669703737,-0.02303200030545576,0.09750050628343246,32.08287849390507,-92.24360919585227,88.23529758782387
2024-09-23 14:38:24.352896,41.88,28.550579,-0.0038303700669703737,-0.02308174982955575,0.0970030596496862,40.106058693909645,-92.24360919585227,84.22370748782159
2024-09-23 14:38:24.364889,41.88,28.550677,-0.0038303700669703737,-0.02308174982955575,0.0970030596496862,40.106058693909645,-92.24360919585227,84.22370748782159
2024-09-23 14:38:24.397335,41.88,28.550677,-0.0033329230534799477,-0.023181236725942318,0.0970030596496862,40.106058693909645,-92.24360919585227,84.22370748782159
2024-09-23 14:38:24.409235,41.88,28.550677,-0.0033329230534799477,-0.023181236725942318,0.09750050628343246,40.106058693909645,-96.25519929585457,80.21211738781929
2024-09-23 14:38:24.452201,41.88,28.550728,-0.003233425524256645,-0.02303200030545576,0.09720203344245934,36.09446859390736,-104.27510100388527,80.21211738781929
2024-09-23 14:38:24.495239,41.88,28.550779,-0.003233425524256645,-0.02303200030545576,0.09720203344245934,36.09446859390736,-104.27510100388527,80.21211738781929
2024-09-23 14:38:24.507331,41.88,28.550779,-0.0031339382481259063,-0.023230986250042305,0.09690356060148622,40.106058693909645,-104.27510100388527,80.21211738781929
2024-09-23 14:38:24.550280,41.88,28.550779,-0.0031339382481259063,-0.023230986250042305,0.09690356060148622,40.106058693909645,-100.26678939585686,80.21211738781929
2024-09-23 14:38:24.592074,41.88,28.550829,-0.0029847020175114316,-0.023230986250042305,0.09690356060148622,40.106058693909645,-100.26678939585686,80.21211738781929
2024-09-23 14:38:24.603698,41.88,28.550829,-0.0029847020175114316,-0.02313149783467906,0.09755024973162574,32.08287849390507,-100.26678939585686,80.21211738781929
2024-09-23 14:38:24.646973,41.88,28.55088,-0.0030344509719951677,-0.02313149783467906,0.09755024973162574,32.08287849390507,-100.26678939585686,80.21211738781929
2024-09-23 14:38:24.690304,41.88,28.55088,-0.0030344509719951677,-0.023429960042815445,0.09685382322919964,32.08287849390507,-100.26678939585686,80.21211738781929
2024-09-23 14:38:24.702198,41.88,28.550931,-0.0030344509719951677,-0.023429960042815445,0.09685382322919964,40.106058693909645,-100.26678939585686,76.200527287817
2024-09-23 14:38:24.744383,41.88,28.550931,-0.0031836870127375577,-0.023330473146428877,0.09725178296655933,44.11764879391193,-88.23529758782387,80.21211738781929
2024-09-23 14:38:24.787487,41.88,28.551018,-0.003233425524256645,-0.023330473146428877,0.09725178296655933,44.11764879391193,-88.23529758782387,80.21211738781929
2024-09-23 14:38:24.798591,41.88,28.551018,-0.003233425524256645,-0.022833026512682618,0.09695331012558621,40.106058693909645,-92.24360919585227,80.21211738781929
2024-09-23 14:38:24.840634,41.88,28.551069,-0.003631395514708897,-0.023181236725942318,0.09690356060148622,40.106058693909645,-92.24360919585227,80.21211738781929
2024-09-23 14:38:24.852362,41.88,28.551069,-0.003631395514708897,-0.023181236725942318,0.09690356060148622,40.106058693909645,-92.24360919585227,80.21211738781929
2024-09-23 14:38:24.885360,41.88,28.551069,-0.003631395514708897,-0.023181236725942318,0.09690356060148622,40.106058693909645,-88.23529758782387,76.200527287817
2024-09-23 14:38:24.896610,41.88,28.551164,-0.0035318979854855937,-0.02367869399252531,0.09740101331113918,40.106058693909645,-88.23529758782387,76.200527287817
2024-09-23 14:38:24.938835,41.75,28.551164,-0.0035318979854855937,-0.02367869399252531,0.09740101331113918,36.09446859390736,-88.23529758782387,76.200527287817
2024-09-23 14:38:24.981553,41.75,28.551164,-0.0035318979854855937,-0.02367869399252531,0.09740101331113918,36.09446859390736,-92.24360919585227,76.200527287817
2024-09-23 14:38:25.034471,41.75,28.551216,-0.003382661564999035,-0.02367869399252531,0.09740101331113918,36.09446859390736,-92.24360919585227,72.1922225099802
2024-09-23 14:38:25.046063,41.75,28.551216,-0.003382661564999035,-0.02397715620066169,0.0973015264147526,44.11764879391193,-92.24360919585227,72.1922225099802
2024-09-23 14:38:25.078435,41.75,28.551216,-0.003382661564999035,-0.02397715620066169,0.0973015264147526,44.11764879391193,-88.23529758782387,72.1922225099802
2024-09-23 14:38:25.090419,41.75,28.551266,-0.0031836870127375577,-0.023429960042815445,0.0970030596496862,44.11764879391193,-88.23529758782387,92.24360919585227
2024-09-23 14:38:25.133312,41.75,28.551359,-0.0031836870127375577,-0.023429960042815445,0.0970030596496862,44.11764879391193,-100.26678939585686,76.200527287817
2024-09-23 14:38:25.144763,41.75,28.551359,-0.0027359787006383035,-0.023230986250042305,0.0970030596496862,44.11764879391193,-100.26678939585686,76.200527287817
2024-09-23 14:38:25.176270,41.75,28.551359,-0.0027359787006383035,-0.023230986250042305,0.09725178296655933,44.11764879391193,-100.26678939585686,76.200527287817
2024-09-23 14:38:25.187522,41.75,28.551411,-0.0038801188315820256,-0.023230986250042305,0.09725178296655933,32.08287849390507,-92.24360919585227,76.200527287817
2024-09-23 14:38:25.230503,41.75,28.551411,-0.0038801188315820256,-0.02313149783467906,0.0973512698629459,28.07457030097246,-96.25519929585457,76.200527287817
2024-09-23 14:38:25.245903,41.75,28.551554,-0.0038801188315820256,-0.02313149783467906,0.0973512698629459,28.07457030097246,-96.25519929585457,80.21211738781929
2024-09-23 14:38:25.277935,41.75,28.551554,-0.0031339382481259063,-0.02308174982955575,0.09725178296655933,40.106058693909645,-96.25519929585457,80.21211738781929
2024-09-23 14:38:25.289417,41.75,28.551554,-0.0031339382481259063,-0.02308174982955575,0.09725178296655933,40.106058693909645,-96.25519929585457,80.21211738781929
2024-09-23 14:38:25.321448,41.75,28.551606,-0.0031339382481259063,-0.02308174982955575,0.09725178296655933,40.106058693909645,-96.25519929585457,80.21211738781929
2024-09-23 14:38:25.333080,41.75,28.551606,-0.0029847020175114316,-0.02303200030545576,0.0973512698629459,36.09446859390736,-100.26678939585686,80.21211738781929
2024-09-23 14:38:25.375956,41.75,28.551656,-0.0032831742888682963,-0.02293251340906919,0.0973512698629459,36.09446859390736,-100.26678939585686,80.21211738781929
2024-09-23 14:38:25.387855,41.75,28.551656,-0.0032831742888682963,-0.02293251340906919,0.09720203344245934,36.09446859390736,-100.26678939585686,80.21211738781929
2024-09-23 14:38:25.421962,41.75,28.551656,-0.0032831742888682963,-0.02293251340906919,0.09720203344245934,36.09446859390736,-100.26678939585686,84.22370748782159
2024-09-23 14:38:25.433755,41.75,28.551707,-0.003929857343101113,-0.023280723622328886,0.09695331012558621,36.09446859390736,-100.26678939585686,84.22370748782159
2024-09-23 14:38:25.477150,41.75,28.551758,-0.0031339382481259063,-0.023230986250042305,0.09695331012558621,36.09446859390736,-100.26678939585686,84.22370748782159
2024-09-23 14:38:25.519205,41.75,28.551758,-0.0031339382481259063,-0.023230986250042305,0.09690356060148622,32.08287849390507,-100.26678939585686,84.22370748782159
2024-09-23 14:38:25.530179,41.75,28.551808,-0.0034324103296106863,-0.023230986250042305,0.09690356060148622,32.08287849390507,-104.27510100388527,80.21211738781929
2024-09-23 14:38:25.571668,41.75,28.551808,-0.0034324103296106863,-0.0228827638849692,0.09695331012558621,36.09446859390736,-104.27510100388527,80.21211738781929
2024-09-23 14:38:25.583678,41.75,28.551895,-0.0034324103296106863,-0.0228827638849692,0.09695331012558621,36.09446859390736,-104.27510100388527,80.21211738781929
2024-09-23 14:38:25.616541,41.75,28.551895,-0.0028852147413806935,-0.023181236725942318,0.09695331012558621,36.09446859390736,-104.27510100388527,80.21211738781929
2024-09-23 14:38:25.627651,41.75,28.551895,-0.0028852147413806935,-0.023181236725942318,0.09680407370509965,32.08287849390507,-96.25519929585457,84.22370748782159
2024-09-23 14:38:25.670309,41.75,28.551947,-0.003780631555451287,-0.023181236725942318,0.09695331012558621,32.08287849390507,-96.25519929585457,84.22370748782159
2024-09-23 14:38:25.682910,41.75,28.551947,-0.003780631555451287,-0.023181236725942318,0.09695331012558621,32.08287849390507,-96.25519929585457,84.22370748782159
2024-09-23 14:38:25.715942,41.75,28.551998,-0.0034324103296106863,-0.023181236725942318,0.09695331012558621,32.08287849390507,-96.25519929585457,80.21211738781929
2024-09-23 14:38:25.727502,41.75,28.551998,-0.0034324103296106863,-0.023827930413011865,0.09690356060148622,40.106058693909645,-96.25519929585457,80.21211738781929
2024-09-23 14:38:25.769857,41.75,28.552048,-0.003233425524256645,-0.02308174982955575,0.09675432418099966,40.106058693909645,-92.24360919585227,76.200527287817
2024-09-23 14:38:25.813137,41.75,28.552048,-0.003233425524256645,-0.02308174982955575,0.09675432418099966,28.07457030097246,-92.24360919585227,80.21211738781929
2024-09-23 14:38:25.824479,41.75,28.552099,-0.0033329230534799477,-0.023230986250042305,0.09675432418099966,28.07457030097246,-92.24360919585227,80.21211738781929
2024-09-23 14:38:25.867258,41.75,28.55215,-0.0037308827908396356,-0.023230986250042305,0.09635636444363997,32.08287849390507,-88.23529758782387,80.21211738781929
2024-09-23 14:38:25.910034,41.75,28.55215,-0.0037308827908396356,-0.023429960042815445,0.09690356060148622,32.08287849390507,-88.23529758782387,80.21211738781929
2024-09-23 14:38:25.921482,41.75,28.552237,-0.0037308827908396356,-0.023429960042815445,0.09690356060148622,40.106058693909645,-100.26678939585686,88.23529758782387
2024-09-23 14:38:25.964513,42.09,28.552237,-0.0028852147413806935,-0.023230986250042305,0.0976994861521123,36.09446859390736,-100.26678939585686,80.21211738781929
2024-09-23 14:38:26.006539,42.09,28.552288,-0.0031836870127375577,-0.022982261414192504,0.0976994861521123,36.09446859390736,-100.26678939585686,80.21211738781929
2024-09-23 14:38:26.017821,42.09,28.552288,-0.0031836870127375577,-0.022982261414192504,0.09685382322919964,32.08287849390507,-100.26678939585686,80.21211738781929
2024-09-23 14:38:26.059464,42.09,28.552339,-0.0036811340262279837,-0.023579196463302005,0.09750050628343246,32.08287849390507,-100.26678939585686,80.21211738781929
2024-09-23 14:38:26.071421,42.09,28.552339,-0.0036811340262279837,-0.023579196463302005,0.09750050628343246,40.106058693909645,-100.26678939585686,80.21211738781929
2024-09-23 14:38:26.103620,42.09,28.552339,-0.0036811340262279837,-0.023579196463302005,0.09750050628343246,40.106058693909645,-96.25519929585457,76.200527287817
2024-09-23 14:38:26.115550,42.09,28.552389,-0.0031339382481259063,-0.02352945757203875,0.09665483728461309,40.106058693909645,-96.25519929585457,76.200527287817
2024-09-23 14:38:26.158860,42.09,28.55244,-0.0030841997366068195,-0.02278327698858263,0.09665483728461309,40.106058693909645,-100.26678939585686,76.200527287817
2024-09-23 14:38:26.201038,42.09,28.55244,-0.0030841997366068195,-0.02278327698858263,0.09690356060148622,40.106058693909645,-100.26678939585686,76.200527287817
2024-09-23 14:38:26.212468,42.09,28.552491,-0.0036811340262279837,-0.02278327698858263,0.09690356060148622,40.106058693909645,-104.27510100388527,80.21211738781929
2024-09-23 14:38:26.255278,42.09,28.552491,-0.0036811340262279837,-0.022982261414192504,0.09740101331113918,44.11764879391193,-96.25519929585457,80.21211738781929
2024-09-23 14:38:26.267350,42.09,28.552578,-0.0036811340262279837,-0.022982261414192504,0.09740101331113918,44.11764879391193,-96.25519929585457,80.21211738781929
2024-09-23 14:38:26.299484,42.09,28.552578,-0.0034324103296106863,-0.02313149783467906,0.09740101331113918,44.11764879391193,-96.25519929585457,80.21211738781929
2024-09-23 14:38:26.310533,42.09,28.552578,-0.0034324103296106863,-0.02313149783467906,0.09710254654607277,36.09446859390736,-96.25519929585457,76.200527287817
2024-09-23 14:38:26.353356,42.09,28.552629,-0.0038801188315820256,-0.023230986250042305,0.09695331012558621,36.09446859390736,-96.25519929585457,76.200527287817
2024-09-23 14:38:26.365449,42.09,28.552629,-0.0038801188315820256,-0.023230986250042305,0.09695331012558621,36.09446859390736,-96.25519929585457,76.200527287817
2024-09-23 14:38:26.398304,42.09,28.55268,-0.0035318979854855937,-0.023230986250042305,0.09695331012558621,36.09446859390736,-96.25519929585457,84.22370748782159
2024-09-23 14:38:26.409957,42.09,28.55268,-0.0035318979854855937,-0.023778180888911878,0.09764974270391902,44.11764879391193,-96.25519929585457,84.22370748782159
2024-09-23 14:38:26.452656,42.09,28.552731,-0.004327827333553365,-0.02278327698858263,0.0970030596496862,44.11764879391193,-96.25519929585457,76.200527287817
2024-09-23 14:38:26.496507,42.09,28.552731,-0.004327827333553365,-0.02278327698858263,0.0970030596496862,40.106058693909645,-92.24360919585227,80.21211738781929
2024-09-23 14:38:26.508312,42.09,28.552781,-0.0032831742888682963,-0.022982261414192504,0.0970030596496862,40.106058693909645,-92.24360919585227,80.21211738781929
2024-09-23 14:38:26.540414,42.09,28.552781,-0.0032831742888682963,-0.022982261414192504,0.0970030596496862,40.106058693909645,-92.24360919585227,80.21211738781929
2024-09-23 14:38:26.552088,42.09,28.552832,-0.0029847020175114316,-0.022982261414192504,0.0970030596496862,36.09446859390736,-96.25519929585457,72.1922225099802
2024-09-23 14:38:26.594850,42.09,28.552832,-0.0029847020175114316,-0.02308174982955575,0.0973015264147526,36.09446859390736,-96.25519929585457,72.1922225099802
2024-09-23 14:38:26.606725,42.09,28.552919,-0.0029847020175114316,-0.02308174982955575,0.0973015264147526,36.09446859390736,-96.25519929585457,80.21211738781929
2024-09-23 14:38:26.640066,42.09,28.552919,-0.0036811340262279837,-0.023280723622328886,0.0973015264147526,36.09446859390736,-96.25519929585457,80.21211738781929
2024-09-23 14:38:26.651717,42.09,28.552919,-0.0036811340262279837,-0.023280723622328886,0.09774922960030558,36.09446859390736,-100.26678939585686,76.200527287817
2024-09-23 14:38:26.694554,42.09,28.552971,-0.0032831742888682963,-0.023330473146428877,0.09725178296655933,40.106058693909645,-100.26678939585686,76.200527287817
2024-09-23 14:38:26.736835,42.09,28.552971,-0.0032831742888682963,-0.023330473146428877,0.09725178296655933,40.106058693909645,-100.26678939585686,80.21211738781929
2024-09-23 14:38:26.748649,42.09,28.553021,-0.003382661564999035,-0.023330473146428877,0.09705279702197278,40.106058693909645,-100.26678939585686,80.21211738781929
2024-09-23 14:38:26.791121,42.09,28.553072,-0.0030841997366068195,-0.023330473146428877,0.09705279702197278,40.106058693909645,-104.27510100388527,76.200527287817
2024-09-23 14:38:26.802237,42.09,28.553072,-0.0030841997366068195,-0.023230986250042305,0.09695331012558621,40.106058693909645,-104.27510100388527,76.200527287817
2024-09-23 14:38:26.834732,42.09,28.553072,-0.0030841997366068195,-0.023230986250042305,0.09695331012558621,36.09446859390736,-104.27510100388527,76.200527287817
2024-09-23 14:38:26.846584,42.09,28.553123,-0.0035816467500972456,-0.02367869399252531,0.09695331012558621,36.09446859390736,-92.24360919585227,80.21211738781929
2024-09-23 14:38:26.930201,42.09,28.553123,-0.0035816467500972456,-0.02367869399252531,0.0973015264147526,36.09446859390736,-92.24360919585227,80.21211738781929
2024-09-23 14:38:26.941926,42.09,28.553173,-0.0036811340262279837,-0.02367869399252531,0.0973015264147526,32.08287849390507,-104.27510100388527,80.21211738781929
2024-09-23 14:38:26.984795,42.1,28.553173,-0.0036811340262279837,-0.023330473146428877,0.09720203344245934,36.09446859390736,-104.27510100388527,80.21211738781929
2024-09-23 14:38:26.996302,42.1,28.55326,-0.0036811340262279837,-0.023330473146428877,0.09720203344245934,36.09446859390736,-104.27510100388527,68.18063240997792
2024-09-23 14:38:27.080866,42.1,28.55326,-0.003482159473966507,-0.02303200030545576,0.0973512698629459,36.09446859390736,-104.27510100388527,68.18063240997792
2024-09-23 14:38:27.092190,42.1,28.55326,-0.003482159473966507,-0.02303200030545576,0.0973512698629459,36.09446859390736,-104.27510100388527,72.1922225099802
2024-09-23 14:38:27.135917,42.1,28.553312,-0.003929857343101113,-0.023181236725942318,0.0966050877605131,36.09446859390736,-100.26678939585686,72.1922225099802
2024-09-23 14:38:27.177874,42.1,28.553363,-0.003482159473966507,-0.023181236725942318,0.0966050877605131,36.09446859390736,-100.26678939585686,88.23529758782387
2024-09-23 14:38:27.189227,42.1,28.553363,-0.003482159473966507,-0.0228827638849692,0.09745075675933246,32.08287849390507,-100.26678939585686,88.23529758782387
2024-09-23 14:38:27.231907,42.1,28.553457,-0.0034324103296106863,-0.023778180888911878,0.09665483728461309,32.08287849390507,-100.26678939585686,80.21211738781929
2024-09-23 14:38:27.274527,42.1,28.553457,-0.0034324103296106863,-0.023778180888911878,0.09665483728461309,28.07457030097246,-100.26678939585686,80.21211738781929
2024-09-23 14:38:27.285593,42.1,28.553508,-0.0030841997366068195,-0.02303200030545576,0.09665483728461309,28.07457030097246,-100.26678939585686,84.22370748782159
2024-09-23 14:38:27.329161,42.1,28.553604,-0.0030841997366068195,-0.02303200030545576,0.09720203344245934,40.106058693909645,-100.26678939585686,84.22370748782159
2024-09-23 14:38:27.340773,42.1,28.553604,-0.0028354659767690416,-0.02303200030545576,0.09720203344245934,40.106058693909645,-100.26678939585686,84.22370748782159
2024-09-23 14:38:27.372944,42.1,28.553604,-0.0028354659767690416,-0.023280723622328886,0.09670458680871308,32.08287849390507,-100.26678939585686,84.22370748782159
2024-09-23 14:38:27.384400,42.1,28.553699,-0.0028354659767690416,-0.023280723622328886,0.09670458680871308,32.08287849390507,-92.24360919585227,80.21211738781929
2024-09-23 14:38:27.428209,42.1,28.553699,-0.003382661564999035,-0.023230986250042305,0.09720203344245934,32.08287849390507,-96.25519929585457,76.200527287817
2024-09-23 14:38:27.470659,42.1,28.553751,-0.0035318979854855937,-0.02352945757203875,0.09720203344245934,32.08287849390507,-96.25519929585457,76.200527287817
2024-09-23 14:38:27.482208,42.1,28.553751,-0.0035318979854855937,-0.02352945757203875,0.09685382322919964,36.09446859390736,-92.24360919585227,76.200527287817
2024-09-23 14:38:27.525625,42.1,28.553801,-0.003631395514708897,-0.023230986250042305,0.09695331012558621,28.07457030097246,-92.24360919585227,80.21211738781929
2024-09-23 14:38:27.569449,42.1,28.553852,-0.003631395514708897,-0.023230986250042305,0.09695331012558621,28.07457030097246,-96.25519929585457,88.23529758782387
2024-09-23 14:38:27.582461,42.1,28.553852,-0.002586742470023829,-0.02362894446842532,0.09670458680871308,28.07457030097246,-96.25519929585457,88.23529758782387
2024-09-23 14:38:27.614615,42.1,28.553852,-0.002586742470023829,-0.02362894446842532,0.09670458680871308,32.08287849390507,-100.26678939585686,88.23529758782387
2024-09-23 14:38:27.626161,42.1,28.553903,-0.0031339382481259063,-0.0228827638849692,0.09670458680871308,32.08287849390507,-100.26678939585686,84.22370748782159
2024-09-23 14:38:27.668759,42.1,28.553903,-0.0031339382481259063,-0.0228827638849692,0.09715228999426605,36.09446859390736,-96.25519929585457,80.21211738781929
2024-09-23 14:38:27.679978,42.1,28.553953,-0.0033329230534799477,-0.0228827638849692,0.09715228999426605,36.09446859390736,-96.25519929585457,80.21211738781929
2024-09-23 14:38:27.711858,42.1,28.553953,-0.0033329230534799477,-0.023181236725942318,0.09715228999426605,36.09446859390736,-96.25519929585457,80.21211738781929
2024-09-23 14:38:27.723835,42.1,28.55404,-0.0033329230534799477,-0.023181236725942318,0.09715228999426605,32.08287849390507,-96.25519929585457,80.21211738781929
2024-09-23 14:38:27.766292,42.1,28.55404,-0.0029349636958644295,-0.023181236725942318,0.09715228999426605,32.08287849390507,-96.25519929585457,80.21211738781929
2024-09-23 14:38:27.809361,42.1,28.55404,-0.0029349636958644295,-0.023181236725942318,0.09715228999426605,32.08287849390507,-96.25519929585457,80.21211738781929
2024-09-23 14:38:27.821346,42.1,28.554092,-0.0029349636958644295,-0.023181236725942318,0.09640611396773996,36.09446859390736,-96.25519929585457,84.22370748782159
2024-09-23 14:38:27.865979,42.1,28.554092,-0.0033329230534799477,-0.02303200030545576,0.09759999317981902,36.09446859390736,-92.24360919585227,80.21211738781929
2024-09-23 14:38:27.908893,42.1,28.554143,-0.0035318979854855937,-0.02338022115155219,0.09759999317981902,36.09446859390736,-92.24360919585227,80.21211738781929
2024-09-23 14:38:27.920768,42.1,28.554143,-0.0035318979854855937,-0.02338022115155219,0.09740101331113918,32.08287849390507,-92.24360919585227,80.21211738781929
2024-09-23 14:38:27.963534,42.1,28.554193,-0.0028852147413806935,-0.023280723622328886,0.09740101331113918,32.08287849390507,-92.24360919585227,80.21211738781929
2024-09-23 14:38:28.006684,41.83,28.554244,-0.0028852147413806935,-0.023280723622328886,0.09740101331113918,32.08287849390507,-100.26678939585686,80.21211738781929
2024-09-23 14:38:28.018255,41.83,28.554244,-0.0031836870127375577,-0.022982261414192504,0.0973512698629459,32.08287849390507,-100.26678939585686,80.21211738781929
2024-09-23 14:38:28.060874,41.83,28.554335,-0.0032831742888682963,-0.02362894446842532,0.0973512698629459,36.09446859390736,-96.25519929585457,76.200527287817
2024-09-23 14:38:28.102921,41.83,28.554335,-0.0032831742888682963,-0.02362894446842532,0.09715228999426605,32.08287849390507,-96.25519929585457,76.200527287817
2024-09-23 14:38:28.115753,41.83,28.554386,-0.0029349636958644295,-0.02362894446842532,0.09715228999426605,32.08287849390507,-100.26678939585686,80.21211738781929
2024-09-23 14:38:28.158420,41.83,28.554479,-0.0029349636958644295,-0.023181236725942318,0.0976994861521123,32.08287849390507,-92.24360919585227,80.21211738781929
2024-09-23 14:38:28.203004,41.83,28.554479,-0.0031339382481259063,-0.023280723622328886,0.09745075675933246,32.08287849390507,-92.24360919585227,80.21211738781929
2024-09-23 14:38:28.214633,41.83,28.554479,-0.0031339382481259063,-0.023280723622328886,0.09745075675933246,44.11764879391193,-96.25519929585457,80.21211738781929
2024-09-23 14:38:28.247573,41.83,28.554531,-0.0031339382481259063,-0.023280723622328886,0.09745075675933246,44.11764879391193,-96.25519929585457,80.21211738781929
2024-09-23 14:38:28.259069,41.83,28.554531,-0.0030841997366068195,-0.023579196463302005,0.09705279702197278,40.106058693909645,-96.25519929585457,80.21211738781929
2024-09-23 14:38:28.300805,41.83,28.554581,-0.003233425524256645,-0.023330473146428877,0.09705279702197278,40.106058693909645,-96.25519929585457,76.200527287817
2024-09-23 14:38:28.312639,41.83,28.554581,-0.003233425524256645,-0.023330473146428877,0.0973512698629459,40.106058693909645,-96.25519929585457,76.200527287817
2024-09-23 14:38:28.344376,41.83,28.554581,-0.003233425524256645,-0.023330473146428877,0.0973512698629459,40.106058693909645,-104.27510100388527,76.200527287817
2024-09-23 14:38:28.355958,41.83,28.554632,-0.003233425524256645,-0.02362894446842532,0.09695331012558621,40.106058693909645,-104.27510100388527,76.200527287817
2024-09-23 14:38:28.400264,41.83,28.554683,-0.0032831742888682963,-0.02362894446842532,0.09695331012558621,40.106058693909645,-96.25519929585457,84.22370748782159
2024-09-23 14:38:28.412799,41.83,28.554683,-0.0032831742888682963,-0.02352945757203875,0.09695331012558621,40.106058693909645,-96.25519929585457,84.22370748782159
2024-09-23 14:38:28.444626,41.83,28.554683,-0.0032831742888682963,-0.02352945757203875,0.09715228999426605,40.106058693909645,-96.25519929585457,84.22370748782159
2024-09-23 14:38:28.497706,41.83,28.554733,-0.0030841997366068195,-0.02352945757203875,0.09715228999426605,36.09446859390736,-96.25519929585457,80.21211738781929
2024-09-23 14:38:28.509857,41.83,28.554733,-0.0030841997366068195,-0.022733528983459317,0.09715228999426605,36.09446859390736,-96.25519929585457,80.21211738781929
2024-09-23 14:38:28.542880,41.83,28.554733,-0.0030841997366068195,-0.022733528983459317,0.09690356060148622,32.08287849390507,-100.26678939585686,80.21211738781929
2024-09-23 14:38:28.554526,41.83,28.55482,-0.0035816467500972456,-0.022733528983459317,0.09690356060148622,32.08287849390507,-100.26678939585686,80.21211738781929
2024-09-23 14:38:28.596545,41.83,28.554872,-0.0035816467500972456,-0.02268379009219606,0.09695331012558621,28.07457030097246,-104.27510100388527,76.200527287817
2024-09-23 14:38:28.638427,41.83,28.554872,-0.0029349636958644295,-0.02308174982955575,0.09695331012558621,28.07457030097246,-104.27510100388527,76.200527287817
2024-09-23 14:38:28.649957,41.83,28.554872,-0.0029349636958644295,-0.02308174982955575,0.09710254654607277,32.08287849390507,-96.25519929585457,80.21211738781929
2024-09-23 14:38:28.693327,41.83,28.554923,-0.0034324103296106863,-0.023181236725942318,0.09725178296655933,32.08287849390507,-108.28669110388756,80.21211738781929
2024-09-23 14:38:28.736517,41.83,28.555016,-0.0034324103296106863,-0.023181236725942318,0.09725178296655933,32.08287849390507,-108.28669110388756,84.22370748782159
2024-09-23 14:38:28.747639,41.83,28.555016,-0.0035816467500972456,-0.02308174982955575,0.09685382322919964,28.07457030097246,-108.28669110388756,84.22370748782159
2024-09-23 14:38:28.790898,41.83,28.555068,-0.0030344509719951677,-0.023230986250042305,0.09695331012558621,28.07457030097246,-104.27510100388527,84.22370748782159
2024-09-23 14:38:28.833454,41.83,28.555068,-0.0030344509719951677,-0.023230986250042305,0.09695331012558621,32.08287849390507,-96.25519929585457,84.22370748782159
2024-09-23 14:38:28.845063,41.83,28.555118,-0.003382661564999035,-0.02308174982955575,0.09695331012558621,32.08287849390507,-96.25519929585457,80.21211738781929
2024-09-23 14:38:28.887636,41.83,28.555169,-0.003382661564999035,-0.02308174982955575,0.09665483728461309,32.08287849390507,-92.24360919585227,76.200527287817
2024-09-23 14:38:28.899507,41.83,28.555169,-0.0032831742888682963,-0.02308174982955575,0.09665483728461309,32.08287849390507,-92.24360919585227,76.200527287817
2024-09-23 14:38:28.931753,41.83,28.555169,-0.0032831742888682963,-0.02338022115155219,0.09675432418099966,32.08287849390507,-92.24360919585227,76.200527287817
2024-09-23 14:38:28.943740,41.83,28.555259,-0.0032831742888682963,-0.02338022115155219,0.09675432418099966,36.09446859390736,-92.24360919585227,80.21211738781929
2024-09-23 14:38:28.987319,41.83,28.555259,-0.0037308827908396356,-0.023429960042815445,0.0973512698629459,36.09446859390736,-100.26678939585686,76.200527287817
2024-09-23 14:38:29.081462,41.43,28.555311,-0.0035318979854855937,-0.02308174982955575,0.0970030596496862,32.08287849390507,-100.26678939585686,76.200527287817
2024-09-23 14:38:29.093821,41.43,28.555311,-0.0035318979854855937,-0.02308174982955575,0.0970030596496862,32.08287849390507,-104.27510100388527,76.200527287817
2024-09-23 14:38:29.126283,41.43,28.555362,-0.0035318979854855937,-0.02308174982955575,0.0970030596496862,32.08287849390507,-104.27510100388527,84.22370748782159
2024-09-23 14:38:29.137563,41.43,28.555362,-0.003233425524256645,-0.022982261414192504,0.09635636444363997,32.08287849390507,-104.27510100388527,84.22370748782159
2024-09-23 14:38:29.180112,41.43,28.555412,-0.0035318979854855937,-0.022982261414192504,0.09635636444363997,32.08287849390507,-100.26678939585686,80.21211738781929
2024-09-23 14:38:29.192330,41.43,28.555412,-0.0035318979854855937,-0.022982261414192504,0.09690356060148622,32.08287849390507,-100.26678939585686,80.21211738781929
2024-09-23 14:38:29.227135,41.43,28.555412,-0.0035318979854855937,-0.022982261414192504,0.09690356060148622,40.106058693909645,-104.27510100388527,80.21211738781929
2024-09-23 14:38:29.238677,41.43,28.555463,-0.0033329230534799477,-0.023728432883788564,0.09690356060148622,40.106058693909645,-104.27510100388527,80.21211738781929
2024-09-23 14:38:29.271633,41.43,28.555463,-0.0033329230534799477,-0.023728432883788564,0.0973015264147526,40.106058693909645,-104.27510100388527,80.21211738781929
2024-09-23 14:38:29.283363,41.43,28.555514,-0.0035318979854855937,-0.023728432883788564,0.0973015264147526,28.07457030097246,-96.25519929585457,76.200527287817
2024-09-23 14:38:29.326662,41.43,28.555514,-0.0035318979854855937,-0.023330473146428877,0.09725178296655933,36.09446859390736,-92.24360919585227,76.200527287817
2024-09-23 14:38:29.338967,41.43,28.555649,-0.0035318979854855937,-0.023330473146428877,0.09725178296655933,36.09446859390736,-92.24360919585227,76.200527287817
2024-09-23 14:38:29.370991,41.43,28.555649,-0.0028852147413806935,-0.02268379009219606,0.09725178296655933,36.09446859390736,-92.24360919585227,76.200527287817
2024-09-23 14:38:29.382558,41.43,28.555649,-0.0028852147413806935,-0.02268379009219606,0.0973015264147526,28.07457030097246,-104.27510100388527,76.200527287817
2024-09-23 14:38:29.425312,41.43,28.555701,-0.003482159473966507,-0.023330473146428877,0.09725178296655933,32.08287849390507,-96.25519929585457,76.200527287817
2024-09-23 14:38:29.467792,41.43,28.555751,-0.003482159473966507,-0.023330473146428877,0.09725178296655933,32.08287849390507,-96.25519929585457,76.200527287817
2024-09-23 14:38:29.479859,41.43,28.555751,-0.003382661564999035,-0.023330473146428877,0.09710254654607277,28.07457030097246,-96.25519929585457,76.200527287817
2024-09-23 14:38:29.523440,41.43,28.555802,-0.0034324103296106863,-0.02293251340906919,0.09759999317981902,28.07457030097246,-100.26678939585686,80.21211738781929
2024-09-23 14:38:29.566094,41.43,28.555802,-0.0034324103296106863,-0.02293251340906919,0.09759999317981902,36.09446859390736,-96.25519929585457,80.21211738781929
2024-09-23 14:38:29.578349,41.43,28.555853,-0.0033329230534799477,-0.02362894446842532,0.09759999317981902,36.09446859390736,-96.25519929585457,84.22370748782159
2024-09-23 14:38:29.621332,41.43,28.555903,-0.0029349636958644295,-0.02362894446842532,0.0973512698629459,32.08287849390507,-96.25519929585457,88.23529758782387
2024-09-23 14:38:29.663114,41.43,28.555903,-0.0029349636958644295,-0.023429960042815445,0.0973512698629459,32.08287849390507,-96.25519929585457,88.23529758782387
2024-09-23 14:38:29.715384,41.43,28.555903,-0.0029349636958644295,-0.023429960042815445,0.09745075675933246,40.106058693909645,-92.24360919585227,76.200527287817
2024-09-23 14:38:29.726904,41.43,28.55599,-0.0028852147413806935,-0.023429960042815445,0.09745075675933246,40.106058693909645,-92.24360919585227,76.200527287817
2024-09-23 14:38:29.759355,41.43,28.55599,-0.0028852147413806935,-0.02313149783467906,0.09745075675933246,40.106058693909645,-92.24360919585227,76.200527287817
2024-09-23 14:38:29.771339,41.43,28.556042,-0.0028852147413806935,-0.02313149783467906,0.09755024973162574,44.11764879391193,-104.27510100388527,76.200527287817
2024-09-23 14:38:29.813814,41.43,28.556042,-0.0033329230534799477,-0.023230986250042305,0.09715228999426605,32.08287849390507,-92.24360919585227,76.200527287817
2024-09-23 14:38:29.825772,41.43,28.556042,-0.0033329230534799477,-0.023230986250042305,0.09715228999426605,32.08287849390507,-92.24360919585227,76.200527287817
2024-09-23 14:38:29.857680,41.43,28.556093,-0.0029349636958644295,-0.023230986250042305,0.09715228999426605,32.08287849390507,-92.24360919585227,76.200527287817
2024-09-23 14:38:29.868953,41.43,28.556093,-0.0029349636958644295,-0.022982261414192504,0.09650560086412653,36.09446859390736,-100.26678939585686,76.200527287817
2024-09-23 14:38:29.911879,41.43,28.556144,-0.003631395514708897,-0.02293251340906919,0.09759999317981902,28.07457030097246,-100.26678939585686,76.200527287817
2024-09-23 14:38:29.954047,41.43,28.556144,-0.003631395514708897,-0.02293251340906919,0.09759999317981902,28.07457030097246,-96.25519929585457,76.200527287817
2024-09-23 14:38:29.965727,41.43,28.556236,-0.003482159473966507,-0.02338022115155219,0.0976994861521123,28.07457030097246,-96.25519929585457,84.22370748782159
2024-09-23 14:38:30.009309,41.43,28.556287,-0.003382661564999035,-0.02338022115155219,0.0976994861521123,28.07457030097246,-100.26678939585686,80.21211738781929
2024-09-23 14:38:30.021382,41.43,28.556287,-0.003382661564999035,-0.023927417309398437,0.0976994861521123,28.07457030097246,-100.26678939585686,80.21211738781929
2024-09-23 14:38:30.053623,41.43,28.556287,-0.003382661564999035,-0.023927417309398437,0.0976994861521123,32.08287849390507,-96.25519929585457,80.21211738781929
2024-09-23 14:38:30.064714,41.43,28.556337,-0.0031836870127375577,-0.023927417309398437,0.0976994861521123,32.08287849390507,-96.25519929585457,76.200527287817
2024-09-23 14:38:30.108302,41.61,28.556429,-0.0031836870127375577,-0.0228827638849692,0.09715228999426605,48.12595698684454,-100.26678939585686,72.1922225099802
2024-09-23 14:38:30.150182,41.61,28.556429,-0.003482159473966507,-0.023181236725942318,0.09715228999426605,48.12595698684454,-100.26678939585686,72.1922225099802
2024-09-23 14:38:30.161346,41.61,28.556429,-0.003482159473966507,-0.023181236725942318,0.0973015264147526,32.08287849390507,-92.24360919585227,76.200527287817
2024-09-23 14:38:30.203547,41.61,28.556481,-0.003631395514708897,-0.02238531725122294,0.09720203344245934,32.08287849390507,-92.24360919585227,76.200527287817
2024-09-23 14:38:30.216598,41.61,28.556481,-0.003631395514708897,-0.02238531725122294,0.09720203344245934,32.08287849390507,-92.24360919585227,76.200527287817
2024-09-23 14:38:30.248424,41.61,28.556531,-0.0029349636958644295,-0.02238531725122294,0.09720203344245934,32.08287849390507,-92.24360919585227,80.21211738781929
2024-09-23 14:38:30.259682,41.61,28.556531,-0.0029349636958644295,-0.022982261414192504,0.09705279702197278,36.09446859390736,-92.24360919585227,80.21211738781929
2024-09-23 14:38:30.302230,41.61,28.556582,-0.0032831742888682963,-0.022982261414192504,0.09705279702197278,36.09446859390736,-100.26678939585686,80.21211738781929
2024-09-23 14:38:30.345312,41.61,28.556582,-0.0032831742888682963,-0.023479709566915436,0.09680407370509965,36.09446859390736,-100.26678939585686,80.21211738781929
2024-09-23 14:38:30.357373,41.61,28.556633,-0.0032831742888682963,-0.023479709566915436,0.09680407370509965,44.11764879391193,-100.26678939585686,88.23529758782387
2024-09-23 14:38:30.400808,41.61,28.556633,-0.0029349636958644295,-0.02338022115155219,0.09670458680871308,40.106058693909645,-100.26678939585686,88.23529758782387
2024-09-23 14:38:30.412591,41.61,28.556633,-0.0029349636958644295,-0.02338022115155219,0.09670458680871308,40.106058693909645,-100.26678939585686,80.21211738781929
2024-09-23 14:38:30.444965,41.61,28.556684,-0.003382661564999035,-0.023579196463302005,0.09715228999426605,40.106058693909645,-100.26678939585686,80.21211738781929
2024-09-23 14:38:30.456628,41.61,28.556684,-0.003382661564999035,-0.023579196463302005,0.09715228999426605,36.09446859390736,-96.25519929585457,80.21211738781929
2024-09-23 14:38:30.488790,41.61,28.556684,-0.003382661564999035,-0.023579196463302005,0.09715228999426605,36.09446859390736,-96.25519929585457,76.200527287817
2024-09-23 14:38:30.500740,41.61,28.55677,-0.0030841997366068195,-0.023230986250042305,0.0973512698629459,28.07457030097246,-96.25519929585457,76.200527287817
2024-09-23 14:38:30.542579,41.61,28.556822,-0.0035816467500972456,-0.023230986250042305,0.0973512698629459,28.07457030097246,-96.25519929585457,84.22370748782159
2024-09-23 14:38:30.554071,41.61,28.556822,-0.0035816467500972456,-0.02303200030545576,0.09640611396773996,28.07457030097246,-96.25519929585457,84.22370748782159
2024-09-23 14:38:30.596537,41.61,28.556872,-0.0032831742888682963,-0.023181236725942318,0.09640611396773996,36.09446859390736,-92.24360919585227,84.22370748782159
2024-09-23 14:38:30.639134,41.61,28.556872,-0.0032831742888682963,-0.023181236725942318,0.09710254654607277,32.08287849390507,-96.25519929585457,84.22370748782159
2024-09-23 14:38:30.650524,41.61,28.556923,-0.0035318979854855937,-0.023181236725942318,0.09710254654607277,32.08287849390507,-96.25519929585457,80.21211738781929
2024-09-23 14:38:30.693234,41.61,28.557014,-0.0035318979854855937,-0.02367869399252531,0.09685382322919964,40.106058693909645,-96.25519929585457,84.22370748782159
2024-09-23 14:38:30.736536,41.61,28.557014,-0.0037308827908396356,-0.023877669304275123,0.09680407370509965,40.106058693909645,-96.25519929585457,84.22370748782159
2024-09-23 14:38:30.748159,41.61,28.557014,-0.0037308827908396356,-0.023877669304275123,0.09680407370509965,40.106058693909645,-96.25519929585457,80.21211738781929
2024-09-23 14:38:30.791074,41.61,28.557066,-0.003482159473966507,-0.02362894446842532,0.0970030596496862,36.09446859390736,-96.25519929585457,80.21211738781929
2024-09-23 14:38:30.834373,41.61,28.557116,-0.0028354659767690416,-0.02362894446842532,0.0970030596496862,36.09446859390736,-96.25519929585457,72.1922225099802
2024-09-23 14:38:30.845404,41.61,28.557116,-0.0028354659767690416,-0.023181236725942318,0.09740101331113918,40.106058693909645,-96.25519929585457,72.1922225099802
2024-09-23 14:38:30.888498,41.61,28.557167,-0.0033329230534799477,-0.02352945757203875,0.09789846602079214,40.106058693909645,-88.23529758782387,80.21211738781929
2024-09-23 14:38:30.930249,41.61,28.557167,-0.0033329230534799477,-0.02352945757203875,0.09789846602079214,44.11764879391193,-92.24360919585227,80.21211738781929
2024-09-23 14:38:30.941213,41.61,28.557218,-0.0033329230534799477,-0.02367869399252531,0.09789846602079214,44.11764879391193,-92.24360919585227,80.21211738781929
2024-09-23 14:38:30.982909,41.61,28.557268,-0.0033329230534799477,-0.02367869399252531,0.09680407370509965,48.12595698684454,-96.25519929585457,76.200527287817
2024-09-23 14:38:30.994854,41.61,28.557268,-0.002636491424507565,-0.02367869399252531,0.09680407370509965,48.12595698684454,-96.25519929585457,76.200527287817
2024-09-23 14:38:31.027242,41.61,28.557268,-0.002636491424507565,-0.023579196463302005,0.09645586349183995,48.12595698684454,-96.25519929585457,76.200527287817
2024-09-23 14:38:31.038412,41.61,28.557355,-0.002636491424507565,-0.023579196463302005,0.09645586349183995,44.11764879391193,-96.25519929585457,80.21211738781929
2024-09-23 14:38:31.080428,41.61,28.557355,-0.0031339382481259063,-0.023181236725942318,0.09680407370509965,24.06297849342227,-100.26678939585686,80.21211738781929
2024-09-23 14:38:31.092162,41.61,28.557355,-0.0031339382481259063,-0.023181236725942318,0.09680407370509965,24.06297849342227,-100.26678939585686,84.22370748782159
2024-09-23 14:38:31.124960,41.82,28.557407,-0.0031836870127375577,-0.023181236725942318,0.09680407370509965,24.06297849342227,-100.26678939585686,84.22370748782159
2024-09-23 14:38:31.136876,41.82,28.557407,-0.0031836870127375577,-0.023877669304275123,0.09675432418099966,32.08287849390507,-104.27510100388527,84.22370748782159
2024-09-23 14:38:31.179153,41.82,28.557458,-0.003233425524256645,-0.02362894446842532,0.09809744588947199,32.08287849390507,-104.27510100388527,84.22370748782159
2024-09-23 14:38:31.190948,41.82,28.557458,-0.003233425524256645,-0.02362894446842532,0.09809744588947199,32.08287849390507,-104.27510100388527,84.22370748782159
2024-09-23 14:38:31.222529,41.82,28.557458,-0.003233425524256645,-0.02362894446842532,0.09809744588947199,32.08287849390507,-96.25519929585457,88.23529758782387
2024-09-23 14:38:31.234266,41.82,28.557508,-0.003233425524256645,-0.023181236725942318,0.09809744588947199,32.08287849390507,-96.25519929585457,88.23529758782387
2024-09-23 14:38:31.276719,41.82,28.557559,-0.003233425524256645,-0.023181236725942318,0.09710254654607277,36.09446859390736,-100.26678939585686,80.21211738781929
2024-09-23 14:38:31.288431,41.82,28.557559,-0.0038303700669703737,-0.023181236725942318,0.09710254654607277,36.09446859390736,-100.26678939585686,80.21211738781929
2024-09-23 14:38:31.320217,41.82,28.557559,-0.0038303700669703737,-0.02338022115155219,0.09655535038822652,36.09446859390736,-100.26678939585686,80.21211738781929
2024-09-23 14:38:31.332125,41.82,28.55761,-0.0038303700669703737,-0.02338022115155219,0.09655535038822652,36.09446859390736,-100.26678939585686,80.21211738781929
2024-09-23 14:38:31.375617,41.82,28.55761,-0.0030841997366068195,-0.023280723622328886,0.09705279702197278,40.106058693909645,-104.27510100388527,80.21211738781929
2024-09-23 14:38:31.419464,41.82,28.557697,-0.0025369937054121774,-0.02293251340906919,0.09705279702197278,40.106058693909645,-104.27510100388527,80.21211738781929
2024-09-23 14:38:31.430993,41.82,28.557697,-0.0025369937054121774,-0.02293251340906919,0.09740101331113918,32.08287849390507,-100.26678939585686,80.21211738781929
2024-09-23 14:38:31.474317,41.82,28.557748,-0.0030344509719951677,-0.02352945757203875,0.09695331012558621,36.09446859390736,-100.26678939585686,80.21211738781929
2024-09-23 14:38:31.517420,41.82,28.557799,-0.0030344509719951677,-0.02352945757203875,0.09695331012558621,36.09446859390736,-100.26678939585686,80.21211738781929
2024-09-23 14:38:31.529008,41.82,28.557799,-0.0036811340262279837,-0.023579196463302005,0.09690356060148622,36.09446859390736,-100.26678939585686,80.21211738781929
2024-09-23 14:38:31.571847,41.82,28.55785,-0.003482159473966507,-0.023579196463302005,0.09690356060148622,32.08287849390507,-100.26678939585686,80.21211738781929
2024-09-23 14:38:31.613460,41.82,28.55785,-0.003482159473966507,-0.023479709566915436,0.09675432418099966,40.106058693909645,-100.26678939585686,80.21211738781929
2024-09-23 14:38:31.625791,41.82,28.5579,-0.003482159473966507,-0.023479709566915436,0.09675432418099966,40.106058693909645,-88.23529758782387,84.22370748782159
2024-09-23 14:38:31.668183,41.82,28.5579,-0.003482159473966507,-0.023479709566915436,0.09705279702197278,36.09446859390736,-96.25519929585457,80.21211738781929
2024-09-23 14:38:31.710782,41.82,28.557989,-0.0035318979854855937,-0.023479709566915436,0.09705279702197278,36.09446859390736,-96.25519929585457,80.21211738781929
2024-09-23 14:38:31.722653,41.82,28.557989,-0.0035318979854855937,-0.023181236725942318,0.09695331012558621,36.09446859390736,-104.27510100388527,80.21211738781929
2024-09-23 14:38:31.765234,41.82,28.558041,-0.0029349636958644295,-0.02352945757203875,0.09695331012558621,32.08287849390507,-104.27510100388527,84.22370748782159
2024-09-23 14:38:31.807650,41.82,28.558041,-0.0029349636958644295,-0.02352945757203875,0.09695331012558621,32.08287849390507,-96.25519929585457,84.22370748782159
2024-09-23 14:38:31.819474,41.82,28.558091,-0.0031836870127375577,-0.023181236725942318,0.09705279702197278,32.08287849390507,-96.25519929585457,84.22370748782159
2024-09-23 14:38:31.862715,41.82,28.558142,-0.0028354659767690416,-0.023429960042815445,0.09705279702197278,28.07457030097246,-96.25519929585457,84.22370748782159
2024-09-23 14:38:31.905929,41.82,28.558142,-0.0028354659767690416,-0.023429960042815445,0.09710254654607277,28.07457030097246,-96.25519929585457,84.22370748782159
2024-09-23 14:38:31.958511,41.82,28.558193,-0.003382661564999035,-0.023429960042815445,0.09710254654607277,36.09446859390736,-100.26678939585686,80.21211738781929
2024-09-23 14:38:31.970729,41.82,28.558193,-0.003382661564999035,-0.023181236725942318,0.09710254654607277,36.09446859390736,-100.26678939585686,80.21211738781929
2024-09-23 14:38:32.002803,41.82,28.558193,-0.003382661564999035,-0.023181236725942318,0.09685382322919964,28.07457030097246,-100.26678939585686,80.21211738781929
2024-09-23 14:38:32.014072,41.82,28.558282,-0.003482159473966507,-0.023181236725942318,0.09685382322919964,28.07457030097246,-100.26678939585686,80.21211738781929
2024-09-23 14:38:32.055698,41.82,28.558282,-0.003482159473966507,-0.023230986250042305,0.09675432418099966,24.06297849342227,-96.25519929585457,80.21211738781929
2024-09-23 14:38:32.066784,41.82,28.558333,-0.003482159473966507,-0.023230986250042305,0.09675432418099966,24.06297849342227,-96.25519929585457,80.21211738781929
2024-09-23 14:38:32.098807,41.82,28.558333,-0.0032831742888682963,-0.023230986250042305,0.09675432418099966,24.06297849342227,-96.25519929585457,80.21211738781929
2024-09-23 14:38:32.109991,41.82,28.558333,-0.0032831742888682963,-0.02268379009219606,0.09745075675933246,28.07457030097246,-108.28669110388756,80.21211738781929
2024-09-23 14:38:32.153664,41.8,28.558384,-0.0031339382481259063,-0.02278327698858263,0.09710254654607277,40.106058693909645,-108.28669110388756,80.21211738781929
2024-09-23 14:38:32.165176,41.8,28.558384,-0.0031339382481259063,-0.02278327698858263,0.09710254654607277,40.106058693909645,-92.24360919585227,80.21211738781929
2024-09-23 14:38:32.197121,41.8,28.558478,-0.0031339382481259063,-0.02278327698858263,0.09710254654607277,40.106058693909645,-92.24360919585227,84.22370748782159
2024-09-23 14:38:32.249963,41.8,28.558478,-0.003233425524256645,-0.023330473146428877,0.0973512698629459,40.106058693909645,-92.24360919585227,84.22370748782159
2024-09-23 14:38:32.292862,41.8,28.558478,-0.003233425524256645,-0.023330473146428877,0.0973512698629459,40.106058693909645,-92.24360919585227,84.22370748782159
2024-09-23 14:38:32.304865,41.8,28.558529,-0.0031836870127375577,-0.0228827638849692,0.0973512698629459,40.106058693909645,-96.25519929585457,84.22370748782159
2024-09-23 14:38:32.346827,41.8,28.558529,-0.0031836870127375577,-0.0228827638849692,0.09710254654607277,40.106058693909645,-100.26678939585686,76.200527287817
2024-09-23 14:38:32.357901,41.8,28.55858,-0.003979606107712764,-0.0228827638849692,0.09710254654607277,40.106058693909645,-100.26678939585686,76.200527287817
2024-09-23 14:38:32.390572,41.8,28.55858,-0.003979606107712764,-0.022833026512682618,0.09710254654607277,40.106058693909645,-100.26678939585686,76.200527287817
2024-09-23 14:38:32.401861,41.8,28.55863,-0.003979606107712764,-0.022833026512682618,0.09710254654607277,36.09446859390736,-96.25519929585457,84.22370748782159
2024-09-23 14:38:32.444523,41.8,28.55863,-0.003780631555451287,-0.023230986250042305,0.0973015264147526,40.106058693909645,-96.25519929585457,84.22370748782159
2024-09-23 14:38:32.455549,41.8,28.55863,-0.003780631555451287,-0.023230986250042305,0.0973015264147526,40.106058693909645,-92.24360919585227,80.21211738781929
2024-09-23 14:38:32.538910,41.8,28.55872,-0.0032831742888682963,-0.023230986250042305,0.0973015264147526,40.106058693909645,-92.24360919585227,80.21211738781929
2024-09-23 14:38:32.551251,41.8,28.55872,-0.0032831742888682963,-0.023230986250042305,0.0973512698629459,44.11764879391193,-96.25519929585457,80.21211738781929
2024-09-23 14:38:32.594448,41.8,28.558819,-0.003929857343101113,-0.02278327698858263,0.09745075675933246,36.09446859390736,-96.25519929585457,80.21211738781929
2024-09-23 14:38:32.636333,41.8,28.558819,-0.003929857343101113,-0.02278327698858263,0.09745075675933246,36.09446859390736,-100.26678939585686,80.21211738781929
2024-09-23 14:38:32.647561,41.8,28.55887,-0.0031339382481259063,-0.02338022115155219,0.09725178296655933,36.09446859390736,-100.26678939585686,80.21211738781929
2024-09-23 14:38:32.691337,41.8,28.558921,-0.0034324103296106863,-0.023230986250042305,0.09725178296655933,32.08287849390507,-96.25519929585457,76.200527287817
2024-09-23 14:38:32.733310,41.8,28.558921,-0.0034324103296106863,-0.023230986250042305,0.09620712802315341,44.11764879391193,-96.25519929585457,76.200527287817
2024-09-23 14:38:32.745005,41.8,28.558971,-0.0031836870127375577,-0.023230986250042305,0.09620712802315341,44.11764879391193,-100.26678939585686,84.22370748782159
2024-09-23 14:38:32.787391,41.8,28.558971,-0.0031836870127375577,-0.023181236725942318,0.09620712802315341,44.11764879391193,-100.26678939585686,84.22370748782159
2024-09-23 14:38:32.830709,41.8,28.558971,-0.0031836870127375577,-0.023181236725942318,0.09680407370509965,44.11764879391193,-100.26678939585686,84.22370748782159
2024-09-23 14:38:32.842416,41.8,28.55911,-0.0030841997366068195,-0.023181236725942318,0.09680407370509965,40.106058693909645,-96.25519929585457,76.200527287817
2024-09-23 14:38:32.885709,41.8,28.55911,-0.0030841997366068195,-0.023429960042815445,0.09750050628343246,44.11764879391193,-92.24360919585227,84.22370748782159
2024-09-23 14:38:32.897531,41.8,28.559162,-0.0030841997366068195,-0.023429960042815445,0.09750050628343246,44.11764879391193,-92.24360919585227,84.22370748782159
2024-09-23 14:38:32.930274,41.8,28.559162,-0.0031836870127375577,-0.023330473146428877,0.0973015264147526,44.11764879391193,-92.24360919585227,84.22370748782159
2024-09-23 14:38:32.942169,41.8,28.559162,-0.0031836870127375577,-0.023330473146428877,0.0973015264147526,40.106058693909645,-96.25519929585457,80.21211738781929
2024-09-23 14:38:32.984201,41.8,28.559213,-0.0031836870127375577,-0.023728432883788564,0.09695331012558621,32.08287849390507,-96.25519929585457,80.21211738781929
2024-09-23 14:38:33.026879,41.8,28.559263,-0.0031836870127375577,-0.023728432883788564,0.09695331012558621,32.08287849390507,-96.25519929585457,80.21211738781929
2024-09-23 14:38:33.038135,41.8,28.559263,-0.003233425524256645,-0.02308174982955575,0.0966050877605131,36.09446859390736,-96.25519929585457,80.21211738781929
2024-09-23 14:38:33.081236,41.8,28.559356,-0.003233425524256645,-0.02313149783467906,0.0966050877605131,36.09446859390736,-104.27510100388527,76.200527287817
2024-09-23 14:38:33.093118,41.8,28.559356,-0.003233425524256645,-0.02313149783467906,0.09784872257259886,36.09446859390736,-104.27510100388527,76.200527287817
2024-09-23 14:38:33.125315,41.8,28.559356,-0.003233425524256645,-0.02313149783467906,0.09784872257259886,44.11764879391193,-100.26678939585686,76.200527287817
2024-09-23 14:38:33.136773,41.8,28.559407,-0.0033329230534799477,-0.02308174982955575,0.09784872257259886,44.11764879391193,-100.26678939585686,76.200527287817
2024-09-23 14:38:33.179451,41.9,28.559457,-0.0033329230534799477,-0.02308174982955575,0.09705279702197278,36.09446859390736,-96.25519929585457,76.200527287817
2024-09-23 14:38:33.191225,41.9,28.559457,-0.0031836870127375577,-0.02308174982955575,0.09705279702197278,36.09446859390736,-96.25519929585457,76.200527287817
2024-09-23 14:38:33.223553,41.9,28.559457,-0.0031836870127375577,-0.023330473146428877,0.09759999317981902,32.08287849390507,-96.25519929585457,76.200527287817
2024-09-23 14:38:33.234662,41.9,28.559549,-0.0031836870127375577,-0.023330473146428877,0.09759999317981902,32.08287849390507,-100.26678939585686,72.1922225099802
2024-09-23 14:38:33.277463,41.9,28.559549,-0.0033329230534799477,-0.023280723622328886,0.09705279702197278,36.09446859390736,-100.26678939585686,76.200527287817
2024-09-23 14:38:33.320345,41.9,28.559601,-0.0034324103296106863,-0.023280723622328886,0.09705279702197278,36.09446859390736,-100.26678939585686,76.200527287817
2024-09-23 14:38:33.331260,41.9,28.559601,-0.0034324103296106863,-0.023728432883788564,0.09675432418099966,36.09446859390736,-100.26678939585686,76.200527287817
2024-09-23 14:38:33.374443,41.9,28.559652,-0.0031339382481259063,-0.023280723622328886,0.09690356060148622,28.07457030097246,-100.26678939585686,80.21211738781929
2024-09-23 14:38:33.416864,41.9,28.559652,-0.0031339382481259063,-0.023280723622328886,0.09690356060148622,28.07457030097246,-96.25519929585457,88.23529758782387
2024-09-23 14:38:33.429197,41.9,28.559703,-0.0030841997366068195,-0.02308174982955575,0.09715228999426605,28.07457030097246,-96.25519929585457,88.23529758782387
2024-09-23 14:38:33.513865,41.9,28.559703,-0.0030841997366068195,-0.02308174982955575,0.09715228999426605,40.106058693909645,-100.26678939585686,88.23529758782387
2024-09-23 14:38:33.525183,41.9,28.559753,-0.0035816467500972456,-0.02303200030545576,0.09715228999426605,40.106058693909645,-100.26678939585686,72.1922225099802
2024-09-23 14:38:33.567912,41.9,28.559804,-0.0035816467500972456,-0.02303200030545576,0.09715228999426605,36.09446859390736,-100.26678939585686,80.21211738781929
2024-09-23 14:38:33.579793,41.9,28.559804,-0.0030841997366068195,-0.02303200030545576,0.09715228999426605,36.09446859390736,-100.26678939585686,80.21211738781929
2024-09-23 14:38:33.612635,41.9,28.559804,-0.0030841997366068195,-0.022982261414192504,0.09690356060148622,36.09446859390736,-100.26678939585686,80.21211738781929
2024-09-23 14:38:33.624103,41.9,28.55989,-0.0030841997366068195,-0.022982261414192504,0.09690356060148622,36.09446859390736,-100.26678939585686,80.21211738781929
2024-09-23 14:38:33.666825,41.9,28.55989,-0.0031836870127375577,-0.023728432883788564,0.09685382322919964,44.11764879391193,-104.27510100388527,76.200527287817
2024-09-23 14:38:33.709938,41.9,28.559942,-0.003482159473966507,-0.023728432883788564,0.09685382322919964,44.11764879391193,-104.27510100388527,76.200527287817
2024-09-23 14:38:33.721611,41.9,28.559942,-0.003482159473966507,-0.023728432883788564,0.09725178296655933,36.09446859390736,-92.24360919585227,76.200527287817
2024-09-23 14:38:33.763295,41.9,28.560038,-0.0035318979854855937,-0.023479709566915436,0.09759999317981902,36.09446859390736,-92.24360919585227,80.21211738781929
2024-09-23 14:38:33.805763,41.9,28.560038,-0.0035318979854855937,-0.023479709566915436,0.09759999317981902,36.09446859390736,-96.25519929585457,72.1922225099802
2024-09-23 14:38:33.817028,41.9,28.560089,-0.0030344509719951677,-0.023280723622328886,0.0970030596496862,36.09446859390736,-96.25519929585457,72.1922225099802
2024-09-23 14:38:33.859983,41.9,28.56014,-0.003631395514708897,-0.023280723622328886,0.0970030596496862,36.09446859390736,-100.26678939585686,80.21211738781929
2024-09-23 14:38:33.871971,41.9,28.56014,-0.003631395514708897,-0.023280723622328886,0.0970030596496862,36.09446859390736,-100.26678939585686,80.21211738781929
2024-09-23 14:38:33.904158,41.9,28.56014,-0.003631395514708897,-0.023280723622328886,0.09670458680871308,40.106058693909645,-100.26678939585686,80.21211738781929
2024-09-23 14:38:33.916039,41.9,28.560191,-0.0035318979854855937,-0.023280723622328886,0.09670458680871308,40.106058693909645,-96.25519929585457,76.200527287817
2024-09-23 14:38:33.959340,41.9,28.56028,-0.0035318979854855937,-0.02362894446842532,0.09690356060148622,40.106058693909645,-104.27510100388527,84.22370748782159
2024-09-23 14:38:34.000992,41.9,28.56028,-0.0032831742888682963,-0.023330473146428877,0.09690356060148622,40.106058693909645,-104.27510100388527,84.22370748782159
2024-09-23 14:38:34.012664,41.9,28.56028,-0.0032831742888682963,-0.023330473146428877,0.09695331012558621,36.09446859390736,-96.25519929585457,80.21211738781929
2024-09-23 14:38:34.055668,41.9,28.560332,-0.002785727465249955,-0.02313149783467906,0.09655535038822652,28.07457030097246,-96.25519929585457,80.21211738781929
2024-09-23 14:38:34.098845,41.9,28.560332,-0.002785727465249955,-0.02313149783467906,0.09655535038822652,28.07457030097246,-88.23529758782387,80.21211738781929
2024-09-23 14:38:34.110613,41.9,28.560383,-0.0030344509719951677,-0.02313149783467906,0.09740101331113918,28.07457030097246,-88.23529758782387,76.200527287817
2024-09-23 14:38:34.152200,41.9,28.560433,-0.003482159473966507,-0.02313149783467906,0.09740101331113918,40.106058693909645,-92.24360919585227,80.21211738781929
2024-09-23 14:38:34.163938,41.9,28.560433,-0.003482159473966507,-0.02303200030545576,0.09740101331113918,40.106058693909645,-92.24360919585227,80.21211738781929
2024-09-23 14:38:34.196411,42.01,28.560433,-0.003482159473966507,-0.02303200030545576,0.0973015264147526,32.08287849390507,-92.24360919585227,80.21211738781929
2024-09-23 14:38:34.207786,42.01,28.560484,-0.003382661564999035,-0.02303200030545576,0.0973015264147526,32.08287849390507,-92.24360919585227,76.200527287817
2024-09-23 14:38:34.250385,42.01,28.560484,-0.003382661564999035,-0.023230986250042305,0.09695331012558621,32.08287849390507,-96.25519929585457,88.23529758782387
2024-09-23 14:38:34.262171,42.01,28.560535,-0.003382661564999035,-0.023230986250042305,0.09695331012558621,32.08287849390507,-96.25519929585457,88.23529758782387
2024-09-23 14:38:34.294427,42.01,28.560535,-0.0035318979854855937,-0.023479709566915436,0.09695331012558621,32.08287849390507,-96.25519929585457,88.23529758782387
2024-09-23 14:38:34.305825,42.01,28.560535,-0.0035318979854855937,-0.023479709566915436,0.09720203344245934,40.106058693909645,-92.24360919585227,80.21211738781929
2024-09-23 14:38:34.348867,42.01,28.560622,-0.0034324103296106863,-0.023230986250042305,0.09725178296655933,32.08287849390507,-96.25519929585457,80.21211738781929
2024-09-23 14:38:34.391307,42.01,28.560674,-0.0034324103296106863,-0.023230986250042305,0.09725178296655933,32.08287849390507,-96.25519929585457,84.22370748782159
2024-09-23 14:38:34.402732,42.01,28.560674,-0.002636491424507565,-0.02352945757203875,0.09750050628343246,36.09446859390736,-96.25519929585457,84.22370748782159
2024-09-23 14:38:34.447015,42.01,28.560724,-0.0034324103296106863,-0.022982261414192504,0.09764974270391902,36.09446859390736,-96.25519929585457,80.21211738781929
2024-09-23 14:38:34.490379,42.01,28.560724,-0.0034324103296106863,-0.022982261414192504,0.09764974270391902,44.11764879391193,-92.24360919585227,76.200527287817
2024-09-23 14:38:34.501840,42.01,28.560775,-0.0035318979854855937,-0.023579196463302005,0.09764974270391902,44.11764879391193,-92.24360919585227,76.200527287817
2024-09-23 14:38:34.545153,42.01,28.560826,-0.0035816467500972456,-0.023579196463302005,0.09759999317981902,36.09446859390736,-96.25519929585457,80.21211738781929
2024-09-23 14:38:34.589618,42.01,28.560826,-0.0035816467500972456,-0.023181236725942318,0.0973015264147526,32.08287849390507,-96.25519929585457,80.21211738781929
2024-09-23 14:38:34.600687,42.01,28.560914,-0.0035816467500972456,-0.023181236725942318,0.0973015264147526,32.08287849390507,-96.25519929585457,84.22370748782159
2024-09-23 14:38:34.634785,42.01,28.560914,-0.0028852147413806935,-0.0228827638849692,0.0973015264147526,32.08287849390507,-96.25519929585457,84.22370748782159
2024-09-23 14:38:34.646049,42.01,28.560914,-0.0028852147413806935,-0.0228827638849692,0.09670458680871308,40.106058693909645,-100.26678939585686,84.22370748782159
2024-09-23 14:38:34.688635,42.01,28.560966,-0.002586742470023829,-0.023479709566915436,0.0973512698629459,28.07457030097246,-100.26678939585686,84.22370748782159
2024-09-23 14:38:34.700386,42.01,28.560966,-0.002586742470023829,-0.023479709566915436,0.0973512698629459,28.07457030097246,-104.27510100388527,84.22370748782159
2024-09-23 14:38:34.732233,42.01,28.561016,-0.002586742470023829,-0.023479709566915436,0.0973512698629459,28.07457030097246,-104.27510100388527,80.21211738781929
2024-09-23 14:38:34.743932,42.01,28.561016,-0.0030344509719951677,-0.023479709566915436,0.0973512698629459,28.07457030097246,-104.27510100388527,80.21211738781929
2024-09-23 14:38:34.785591,42.01,28.561016,-0.0030344509719951677,-0.02313149783467906,0.09670458680871308,32.08287849390507,-104.27510100388527,80.21211738781929
2024-09-23 14:38:34.797664,42.01,28.561067,-0.0030344509719951677,-0.02313149783467906,0.09670458680871308,32.08287849390507,-104.27510100388527,80.21211738781929
2024-09-23 14:38:34.830504,42.01,28.561067,-0.0035318979854855937,-0.02268379009219606,0.09670458680871308,32.08287849390507,-104.27510100388527,80.21211738781929
2024-09-23 14:38:34.842440,42.01,28.561067,-0.0035318979854855937,-0.02268379009219606,0.09715228999426605,44.11764879391193,-100.26678939585686,80.21211738781929
2024-09-23 14:38:34.885902,42.01,28.561118,-0.0032831742888682963,-0.022484804147609512,0.09725178296655933,40.106058693909645,-100.26678939585686,80.21211738781929
2024-09-23 14:38:34.929224,42.01,28.561168,-0.0038303700669703737,-0.022484804147609512,0.09725178296655933,40.106058693909645,-100.26678939585686,80.21211738781929
2024-09-23 14:38:34.940388,42.01,28.561168,-0.0038303700669703737,-0.0228827638849692,0.09715228999426605,40.106058693909645,-100.26678939585686,80.21211738781929
2024-09-23 14:38:34.982586,42.01,28.561255,-0.0033329230534799477,-0.02313149783467906,0.09635636444363997,40.106058693909645,-88.23529758782387,80.21211738781929
2024-09-23 14:38:35.024913,42.01,28.561255,-0.0033329230534799477,-0.02313149783467906,0.09635636444363997,36.09446859390736,-96.25519929585457,80.21211738781929
2024-09-23 14:38:35.036467,42.01,28.561307,-0.0029349636958644295,-0.023181236725942318,0.09635636444363997,36.09446859390736,-96.25519929585457,76.200527287817
2024-09-23 14:38:35.079590,42.01,28.561358,-0.0029847020175114316,-0.023181236725942318,0.09710254654607277,40.106058693909645,-96.25519929585457,76.200527287817
2024-09-23 14:38:35.122102,42.01,28.561358,-0.0029847020175114316,-0.023479709566915436,0.09745075675933246,40.106058693909645,-96.25519929585457,76.200527287817
2024-09-23 14:38:35.133694,42.01,28.561451,-0.0029847020175114316,-0.023479709566915436,0.09745075675933246,40.106058693909645,-96.25519929585457,80.21211738781929
2024-09-23 14:38:35.176217,42.01,28.561451,-0.0035318979854855937,-0.02293251340906919,0.09759999317981902,40.106058693909645,-100.26678939585686,80.21211738781929
2024-09-23 14:38:35.187800,42.01,28.561451,-0.0035318979854855937,-0.02293251340906919,0.09759999317981902,40.106058693909645,-100.26678939585686,76.200527287817
2024-09-23 14:38:35.220259,42.23,28.561502,-0.0033329230534799477,-0.02293251340906919,0.09759999317981902,40.106058693909645,-100.26678939585686,76.200527287817
2024-09-23 14:38:35.231441,42.23,28.561502,-0.0033329230534799477,-0.023181236725942318,0.09705279702197278,40.106058693909645,-96.25519929585457,76.200527287817
2024-09-23 14:38:35.273024,42.23,28.561553,-0.0030841997366068195,-0.02362894446842532,0.0970030596496862,40.106058693909645,-96.25519929585457,76.200527287817
2024-09-23 14:38:35.285085,42.23,28.561553,-0.0030841997366068195,-0.02362894446842532,0.0970030596496862,36.09446859390736,-96.25519929585457,76.200527287817
2024-09-23 14:38:35.317280,42.23,28.561553,-0.0030841997366068195,-0.02362894446842532,0.0970030596496862,36.09446859390736,-96.25519929585457,80.21211738781929
2024-09-23 14:38:35.328616,42.23,28.561604,-0.0032831742888682963,-0.02352945757203875,0.09690356060148622,36.09446859390736,-96.25519929585457,80.21211738781929
2024-09-23 14:38:35.371397,42.23,28.561655,-0.0024872551938930902,-0.02352945757203875,0.09690356060148622,32.08287849390507,-96.25519929585457,76.200527287817
2024-09-23 14:38:35.383355,42.23,28.561655,-0.0024872551938930902,-0.02412639262114825,0.09690356060148622,32.08287849390507,-96.25519929585457,76.200527287817
2024-09-23 14:38:35.415479,42.23,28.561655,-0.0024872551938930902,-0.02412639262114825,0.09670458680871308,36.09446859390736,-96.25519929585457,76.200527287817
2024-09-23 14:38:35.427369,42.23,28.561705,-0.0037308827908396356,-0.02412639262114825,0.09670458680871308,36.09446859390736,-104.27510100388527,76.200527287817
2024-09-23 14:38:35.469561,42.23,28.561792,-0.0037308827908396356,-0.02313149783467906,0.09710254654607277,32.08287849390507,-100.26678939585686,76.200527287817
2024-09-23 14:38:35.512120,42.23,28.561792,-0.0030344509719951677,-0.02308174982955575,0.09710254654607277,32.08287849390507,-100.26678939585686,76.200527287817
2024-09-23 14:38:35.523723,42.23,28.561792,-0.0030344509719951677,-0.02308174982955575,0.09690356060148622,36.09446859390736,-100.26678939585686,76.200527287817
2024-09-23 14:38:35.566082,42.23,28.561843,-0.0035816467500972456,-0.02338022115155219,0.09680407370509965,36.09446859390736,-100.26678939585686,76.200527287817
2024-09-23 14:38:35.577947,42.23,28.561843,-0.0035816467500972456,-0.02338022115155219,0.09680407370509965,36.09446859390736,-104.27510100388527,76.200527287817
2024-09-23 14:38:35.611605,42.23,28.561894,-0.0035816467500972456,-0.02338022115155219,0.09680407370509965,36.09446859390736,-104.27510100388527,80.21211738781929
2024-09-23 14:38:35.622712,42.23,28.561894,-0.0029349636958644295,-0.0228827638849692,0.09745075675933246,36.09446859390736,-104.27510100388527,80.21211738781929
2024-09-23 14:38:35.665398,42.23,28.561945,-0.002636491424507565,-0.02293251340906919,0.09755024973162574,36.09446859390736,-108.28669110388756,68.18063240997792
2024-09-23 14:38:35.708946,42.23,28.561945,-0.002636491424507565,-0.02293251340906919,0.09755024973162574,36.09446859390736,-100.26678939585686,80.21211738781929
2024-09-23 14:38:35.719973,42.23,28.561995,-0.0034324103296106863,-0.023230986250042305,0.09755024973162574,36.09446859390736,-100.26678939585686,80.21211738781929
2024-09-23 14:38:35.761802,42.23,28.562046,-0.0034324103296106863,-0.023230986250042305,0.09685382322919964,40.106058693909645,-100.26678939585686,76.200527287817
2024-09-23 14:38:35.773884,42.23,28.562046,-0.002785727465249955,-0.023230986250042305,0.09685382322919964,40.106058693909645,-100.26678939585686,76.200527287817
2024-09-23 14:38:35.806689,42.23,28.562046,-0.002785727465249955,-0.023330473146428877,0.0973512698629459,28.07457030097246,-100.26678939585686,76.200527287817
2024-09-23 14:38:35.818181,42.23,28.562133,-0.002785727465249955,-0.023330473146428877,0.0973512698629459,28.07457030097246,-96.25519929585457,76.200527287817
2024-09-23 14:38:35.861229,42.23,28.562133,-0.0028354659767690416,-0.02303200030545576,0.09650560086412653,28.07457030097246,-100.26678939585686,80.21211738781929
2024-09-23 14:38:35.903739,42.23,28.562185,-0.003780631555451287,-0.02352945757203875,0.09650560086412653,28.07457030097246,-100.26678939585686,80.21211738781929
2024-09-23 14:38:35.915506,42.23,28.562185,-0.003780631555451287,-0.02352945757203875,0.09695331012558621,28.07457030097246,-100.26678939585686,80.21211738781929
2024-09-23 14:38:35.960136,42.23,28.562235,-0.0028852147413806935,-0.023230986250042305,0.09695331012558621,40.106058693909645,-96.25519929585457,76.200527287817
2024-09-23 14:38:36.002574,42.23,28.562235,-0.0028852147413806935,-0.023230986250042305,0.09784872257259886,52.137550501942634,-96.25519929585457,76.200527287817
2024-09-23 14:38:36.013816,42.23,28.562286,-0.003631395514708897,-0.023230986250042305,0.09784872257259886,52.137550501942634,-96.25519929585457,80.21211738781929
2024-09-23 14:38:36.056830,42.23,28.562337,-0.003631395514708897,-0.02308174982955575,0.0973512698629459,32.08287849390507,-96.25519929585457,80.21211738781929
2024-09-23 14:38:36.099687,42.23,28.562337,-0.003482159473966507,-0.023579196463302005,0.09715228999426605,32.08287849390507,-96.25519929585457,80.21211738781929
2024-09-23 14:38:36.111333,42.23,28.562337,-0.003482159473966507,-0.023579196463302005,0.09715228999426605,32.08287849390507,-100.26678939585686,80.21211738781929
2024-09-23 14:38:36.153715,42.23,28.562388,-0.003233425524256645,-0.023479709566915436,0.09740101331113918,36.09446859390736,-96.25519929585457,80.21211738781929
2024-09-23 14:38:36.195936,42.23,28.562475,-0.0036811340262279837,-0.023479709566915436,0.09740101331113918,36.09446859390736,-96.25519929585457,80.21211738781929
2024-09-23 14:38:36.206910,42.23,28.562475,-0.0036811340262279837,-0.02308174982955575,0.09725178296655933,28.07457030097246,-96.25519929585457,80.21211738781929
2024-09-23 14:38:36.249449,42.02,28.562526,-0.004079093383843503,-0.02308174982955575,0.09725178296655933,28.07457030097246,-92.24360919585227,76.200527287817
2024-09-23 14:38:36.261281,42.02,28.562526,-0.004079093383843503,-0.02308174982955575,0.09715228999426605,28.07457030097246,-92.24360919585227,76.200527287817
2024-09-23 14:38:36.294105,42.02,28.562526,-0.004079093383843503,-0.02308174982955575,0.09715228999426605,36.09446859390736,-100.26678939585686,80.21211738781929
2024-09-23 14:38:36.305939,42.02,28.562577,-0.0028354659767690416,-0.02313149783467906,0.09715228999426605,36.09446859390736,-100.26678939585686,80.21211738781929
2024-09-23 14:38:36.349765,42.02,28.562628,-0.0029349636958644295,-0.02313149783467906,0.09725178296655933,40.106058693909645,-100.26678939585686,84.22370748782159
2024-09-23 14:38:36.392710,42.02,28.562628,-0.0029349636958644295,-0.023429960042815445,0.09710254654607277,28.07457030097246,-92.24360919585227,84.22370748782159
2024-09-23 14:38:36.404092,42.02,28.562718,-0.0029349636958644295,-0.023429960042815445,0.09710254654607277,28.07457030097246,-92.24360919585227,84.22370748782159
2024-09-23 14:38:36.436313,42.02,28.562718,-0.0031836870127375577,-0.023429960042815445,0.09710254654607277,28.07457030097246,-92.24360919585227,84.22370748782159
2024-09-23 14:38:36.448080,42.02,28.562718,-0.0031836870127375577,-0.02362894446842532,0.09685382322919964,28.07457030097246,-100.26678939585686,80.21211738781929
2024-09-23 14:38:36.490070,42.02,28.562769,-0.0030344509719951677,-0.02362894446842532,0.09685382322919964,28.07457030097246,-100.26678939585686,80.21211738781929
2024-09-23 14:38:36.543110,42.02,28.56282,-0.0030344509719951677,-0.023181236725942318,0.09710254654607277,32.08287849390507,-104.27510100388527,72.1922225099802
2024-09-23 14:38:36.586770,42.02,28.56282,-0.0032831742888682963,-0.023429960042815445,0.09645586349183995,32.08287849390507,-104.27510100388527,72.1922225099802
2024-09-23 14:38:36.598172,42.02,28.56282,-0.0032831742888682963,-0.023429960042815445,0.09645586349183995,32.08287849390507,-100.26678939585686,88.23529758782387
2024-09-23 14:38:36.640762,42.02,28.562871,-0.003780631555451287,-0.02308174982955575,0.09725178296655933,40.106058693909645,-100.26678939585686,88.23529758782387
2024-09-23 14:38:36.684545,42.02,28.562921,-0.003233425524256645,-0.02308174982955575,0.09725178296655933,40.106058693909645,-100.26678939585686,80.21211738781929
2024-09-23 14:38:36.696709,42.02,28.562921,-0.003233425524256645,-0.023230986250042305,0.09695331012558621,44.11764879391193,-100.26678939585686,80.21211738781929
2024-09-23 14:38:36.729104,42.02,28.562921,-0.003233425524256645,-0.023230986250042305,0.09695331012558621,44.11764879391193,-100.26678939585686,80.21211738781929
2024-09-23 14:38:36.740374,42.02,28.562972,-0.003482159473966507,-0.023330473146428877,0.0976994861521123,44.11764879391193,-100.26678939585686,80.21211738781929
2024-09-23 14:38:36.783077,42.02,28.562972,-0.003482159473966507,-0.023330473146428877,0.0976994861521123,36.09446859390736,-104.27510100388527,80.21211738781929
2024-09-23 14:38:36.794349,42.02,28.563061,-0.0035816467500972456,-0.023181236725942318,0.0976994861521123,36.09446859390736,-104.27510100388527,80.21211738781929
2024-09-23 14:38:36.826696,42.02,28.563061,-0.0035816467500972456,-0.023181236725942318,0.09695331012558621,36.09446859390736,-104.27510100388527,80.21211738781929
2024-09-23 14:38:36.837829,42.02,28.563112,-0.0029349636958644295,-0.023181236725942318,0.09695331012558621,32.08287849390507,-100.26678939585686,80.21211738781929
2024-09-23 14:38:36.879801,42.02,28.563112,-0.0029349636958644295,-0.023230986250042305,0.09759999317981902,36.09446859390736,-100.26678939585686,80.21211738781929
2024-09-23 14:38:36.891799,42.02,28.563205,-0.0029349636958644295,-0.023230986250042305,0.09759999317981902,36.09446859390736,-92.24360919585227,84.22370748782159
2024-09-23 14:38:36.923885,42.02,28.563205,-0.0028354659767690416,-0.023230986250042305,0.09759999317981902,36.09446859390736,-92.24360919585227,84.22370748782159
2024-09-23 14:38:36.935410,42.02,28.563205,-0.0028354659767690416,-0.02313149783467906,0.09695331012558621,36.09446859390736,-100.26678939585686,80.21211738781929
2024-09-23 14:38:36.978047,42.02,28.563257,-0.003382661564999035,-0.023181236725942318,0.09705279702197278,36.09446859390736,-100.26678939585686,80.21211738781929
2024-09-23 14:38:36.989551,42.02,28.563257,-0.003382661564999035,-0.023181236725942318,0.09705279702197278,40.106058693909645,-96.25519929585457,80.21211738781929
2024-09-23 14:38:37.023457,42.02,28.563257,-0.003382661564999035,-0.023181236725942318,0.09705279702197278,40.106058693909645,-96.25519929585457,84.22370748782159
2024-09-23 14:38:37.034627,42.02,28.563308,-0.0031339382481259063,-0.02303200030545576,0.09715228999426605,44.11764879391193,-96.25519929585457,84.22370748782159
2024-09-23 14:38:37.078187,42.02,28.563358,-0.002785727465249955,-0.023330473146428877,0.09715228999426605,44.11764879391193,-96.25519929585457,84.22370748782159
2024-09-23 14:38:37.089827,42.02,28.563358,-0.002785727465249955,-0.023330473146428877,0.09710254654607277,44.11764879391193,-96.25519929585457,84.22370748782159
2024-09-23 14:38:37.123642,42.02,28.563358,-0.002785727465249955,-0.023330473146428877,0.09710254654607277,40.106058693909645,-96.25519929585457,80.21211738781929
2024-09-23 14:38:37.134880,42.02,28.563409,-0.002785727465249955,-0.023330473146428877,0.09710254654607277,40.106058693909645,-96.25519929585457,80.21211738781929
2024-09-23 14:38:37.218109,42.02,28.563409,-0.0029349636958644295,-0.023330473146428877,0.09710254654607277,40.106058693909645,-96.25519929585457,80.21211738781929
2024-09-23 14:38:37.230010,42.02,28.563409,-0.0029349636958644295,-0.0228827638849692,0.09725178296655933,32.08287849390507,-96.25519929585457,80.21211738781929
2024-09-23 14:38:37.274293,42.1,28.56346,-0.0029349636958644295,-0.0228827638849692,0.09710254654607277,40.106058693909645,-96.25519929585457,80.21211738781929
2024-09-23 14:38:37.286079,42.1,28.56346,-0.0029349636958644295,-0.0228827638849692,0.09710254654607277,40.106058693909645,-100.26678939585686,80.21211738781929
2024-09-23 14:38:37.317875,42.1,28.563547,-0.0034324103296106863,-0.0228827638849692,0.09710254654607277,40.106058693909645,-100.26678939585686,80.21211738781929
2024-09-23 14:38:37.329378,42.1,28.563547,-0.0034324103296106863,-0.023181236725942318,0.0966050877605131,36.09446859390736,-100.26678939585686,80.21211738781929
2024-09-23 14:38:37.372898,42.1,28.563598,-0.0031836870127375577,-0.022833026512682618,0.09650560086412653,36.09446859390736,-96.25519929585457,76.200527287817
2024-09-23 14:38:37.415534,42.1,28.563598,-0.0031836870127375577,-0.022833026512682618,0.09650560086412653,36.09446859390736,-96.25519929585457,80.21211738781929
2024-09-23 14:38:37.426775,42.1,28.563649,-0.003382661564999035,-0.023230986250042305,0.09650560086412653,36.09446859390736,-96.25519929585457,80.21211738781929
2024-09-23 14:38:37.469590,42.1,28.563744,-0.002785727465249955,-0.023230986250042305,0.09665483728461309,40.106058693909645,-96.25519929585457,80.21211738781929
2024-09-23 14:38:37.513206,42.1,28.563744,-0.002785727465249955,-0.023330473146428877,0.0976994861521123,40.106058693909645,-96.25519929585457,80.21211738781929
2024-09-23 14:38:37.524525,42.1,28.56384,-0.002785727465249955,-0.023330473146428877,0.0976994861521123,40.106058693909645,-96.25519929585457,76.200527287817
2024-09-23 14:38:37.569898,42.1,28.56384,-0.0030344509719951677,-0.02303200030545576,0.0973512698629459,48.12595698684454,-92.24360919585227,80.21211738781929
2024-09-23 14:38:37.612423,42.1,28.563891,-0.003382661564999035,-0.023330473146428877,0.09759999317981902,48.12595698684454,-92.24360919585227,80.21211738781929
2024-09-23 14:38:37.624688,42.1,28.563891,-0.003382661564999035,-0.023330473146428877,0.09759999317981902,48.12595698684454,-96.25519929585457,80.21211738781929
2024-09-23 14:38:37.658367,42.1,28.563942,-0.003382661564999035,-0.023330473146428877,0.09759999317981902,48.12595698684454,-96.25519929585457,80.21211738781929
2024-09-23 14:38:37.669201,42.1,28.563942,-0.0031339382481259063,-0.023230986250042305,0.09720203344245934,36.09446859390736,-96.25519929585457,80.21211738781929
2024-09-23 14:38:37.711285,42.1,28.563992,-0.0030841997366068195,-0.0228827638849692,0.09720203344245934,36.09446859390736,-88.23529758782387,80.21211738781929
2024-09-23 14:38:37.723378,42.1,28.563992,-0.0030841997366068195,-0.0228827638849692,0.09685382322919964,36.09446859390736,-88.23529758782387,80.21211738781929
2024-09-23 14:38:37.755062,42.1,28.563992,-0.0030841997366068195,-0.0228827638849692,0.09685382322919964,36.09446859390736,-96.25519929585457,80.21211738781929
2024-09-23 14:38:37.766842,42.1,28.564043,-0.0037308827908396356,-0.02308174982955575,0.09685382322919964,36.09446859390736,-96.25519929585457,80.21211738781929
2024-09-23 14:38:37.809411,42.1,28.564043,-0.0037308827908396356,-0.02308174982955575,0.0973512698629459,36.09446859390736,-96.25519929585457,80.21211738781929
2024-09-23 14:38:37.851615,42.1,28.564043,-0.0037308827908396356,-0.02308174982955575,0.0973512698629459,36.09446859390736,-96.25519929585457,80.21211738781929
2024-09-23 14:38:37.863106,42.1,28.564093,-0.0031339382481259063,-0.02338022115155219,0.09685382322919964,36.09446859390736,-96.25519929585457,76.200527287817
2024-09-23 14:38:37.906462,42.1,28.56418,-0.003233425524256645,-0.02338022115155219,0.09685382322919964,32.08287849390507,-104.27510100388527,76.200527287817
2024-09-23 14:38:37.918474,42.1,28.56418,-0.003233425524256645,-0.02352945757203875,0.09685382322919964,32.08287849390507,-104.27510100388527,76.200527287817
2024-09-23 14:38:37.950251,42.1,28.56418,-0.003233425524256645,-0.02352945757203875,0.09745075675933246,32.08287849390507,-104.27510100388527,76.200527287817
2024-09-23 14:38:37.962159,42.1,28.564232,-0.003382661564999035,-0.02352945757203875,0.09745075675933246,32.08287849390507,-100.26678939585686,76.200527287817
2024-09-23 14:38:38.004953,42.1,28.564283,-0.003382661564999035,-0.02303200030545576,0.09725178296655933,24.06297849342227,-96.25519929585457,76.200527287817
2024-09-23 14:38:38.047553,42.1,28.564283,-0.0028354659767690416,-0.023181236725942318,0.09725178296655933,24.06297849342227,-96.25519929585457,76.200527287817
2024-09-23 14:38:38.059454,42.1,28.564283,-0.0028354659767690416,-0.023181236725942318,0.09725178296655933,40.106058693909645,-96.25519929585457,76.200527287817
2024-09-23 14:38:38.101681,42.1,28.564376,-0.0031836870127375577,-0.02313149783467906,0.09715228999426605,28.07457030097246,-96.25519929585457,76.200527287817
2024-09-23 14:38:38.113852,42.1,28.564376,-0.0031836870127375577,-0.02313149783467906,0.09715228999426605,28.07457030097246,-92.24360919585227,76.200527287817
2024-09-23 14:38:38.148213,42.1,28.564427,-0.0031836870127375577,-0.02313149783467906,0.09715228999426605,28.07457030097246,-92.24360919585227,80.21211738781929
2024-09-23 14:38:38.160077,42.1,28.564427,-0.0031836870127375577,-0.023181236725942318,0.09600815423038027,40.106058693909645,-92.24360919585227,80.21211738781929
2024-09-23 14:38:38.191737,42.1,28.564427,-0.0031836870127375577,-0.023181236725942318,0.09600815423038027,40.106058693909645,-84.22370748782159,80.21211738781929
2024-09-23 14:38:38.202786,42.1,28.564478,-0.0032831742888682963,-0.023280723622328886,0.09655535038822652,40.106058693909645,-84.22370748782159,84.22370748782159
2024-09-23 14:38:38.245897,42.1,28.564529,-0.0032831742888682963,-0.023280723622328886,0.09655535038822652,28.07457030097246,-96.25519929585457,80.21211738781929
