Ayaan's Suite
Timestamp,Sample Rate (Hz),Time,Ax,Ay,Az,Gx,Gy,Gz
2024-09-23 23:36:30.189087,0,0.0,-2.1080760955810547,1.1976070404052734,9.565905570983887,0.016340000554919243,0.026342999190092087,-0.015042000450193882
2024-09-23 23:36:30.245734,0,0.0,-1.9639089107513428,1.1976070404052734,9.565905570983887,0.016340000554919243,0.026342999190092087,-0.015042000450193882
2024-09-23 23:36:30.256947,0,0.008005,-1.9639089107513428,1.022333025932312,9.424131393432617,-0.0004579999949783087,-0.015576999634504318,0.01802000030875206
2024-09-23 23:36:30.290416,0,0.008005,-1.962712049484253,1.0600199699401855,9.439684867858887,-0.0004579999949783087,-0.015576999634504318,0.01802000030875206
2024-09-23 23:36:30.301502,0,0.008056,-1.962712049484253,1.0600199699401855,9.439684867858887,0.005954999942332506,-0.02703000046312809,0.020692000165581703
2024-09-23 23:36:30.378357,0,0.008056,-1.8699899911880493,1.0600199699401855,9.439684867858887,0.005954999942332506,-0.02703000046312809,0.020692000165581703
2024-09-23 23:36:30.389587,0,0.008107,-1.8699899911880493,1.0055830478668213,9.265606880187988,0.0056500001810491085,-0.037415001541376114,0.017333000898361206
2024-09-23 23:36:30.400118,0,0.008158,-1.9286149740219116,0.9918239712715149,9.489336013793945,0.01802000030875206,-0.0055740000680089,0.019089000299572945
2024-09-23 23:36:30.443806,0,0.008209,-1.965703010559082,0.9936190247535706,9.35473918914795,0.0023670000955462456,-0.05352599918842316,0.02466299943625927
2024-09-23 23:36:30.498945,0,0.008209,-1.9088740348815918,1.0055830478668213,9.35473918914795,0.0023670000955462456,-0.05352599918842316,0.02466299943625927
2024-09-23 23:36:30.510210,0,0.00826,-1.9088740348815918,1.0055830478668213,9.355338096618652,0.010002000257372856,-0.037643998861312866,0.021151000633835793
2024-09-23 23:36:30.543276,0,0.00826,-1.9555339813232422,1.0055830478668213,9.355338096618652,0.010002000257372856,-0.037643998861312866,0.021151000633835793
2024-09-23 23:36:30.554320,0,0.008311,-1.9555339813232422,1.0743770599365234,9.348158836364746,0.01473699975758791,-0.030389999970793724,0.02038699947297573
2024-09-23 23:36:30.599305,0,0.008362,-1.8652050495147705,0.9326019883155823,9.483353614807129,0.02450999990105629,-0.05177000164985657,0.026724999770522118
2024-09-23 23:36:30.654467,0,0.008413,-1.995015025138855,0.9954140186309814,9.115456581115723,0.029092000797390938,-0.03405499830842018,0.019852999597787857
2024-09-23 23:36:30.698376,0,0.008464,-1.8610169887542725,1.0133600234985352,9.266204833984375,0.013667999766767025,-0.04413500055670738,0.0222960002720356
2024-09-23 23:36:30.754995,0,0.008464,-2.0051848888397217,1.0307079553604126,9.266204833984375,0.013667999766767025,-0.04413500055670738,0.0222960002720356
2024-09-23 23:36:30.766220,0,0.008515,-2.0051848888397217,1.0307079553604126,9.34457015991211,-0.0275650005787611,-0.0692560002207756,0.02061600051820278
2024-09-23 23:36:30.799444,0,0.008515,-1.7850450277328491,1.0307079553604126,9.34457015991211,-0.0275650005787611,-0.0692560002207756,0.02061600051820278
2024-09-23 23:36:30.810803,0,0.008566,-1.7850450277328491,0.9337990283966064,9.985247611999512,-0.13041900098323822,-0.08811700344085693,0.025273999199271202
2024-09-23 23:36:30.854576,0,0.008617,-1.8699899911880493,0.9948149919509888,10.3740816116333,-0.809548020362854,-0.47380200028419495,0.15622800588607788
2024-09-23 23:36:30.909838,0,0.008668,-2.4149560928344727,0.7609170079231262,12.103493690490723,-1.072983980178833,-0.3827829957008362,0.09063699841499329
2024-09-23 23:36:30.954063,0,0.008668,-3.0855441093444824,-0.6119639873504639,12.054442405700684,-0.6895130276679993,-0.3827829957008362,0.09063699841499329
2024-09-23 23:36:30.965114,0,0.008719,-3.0855441093444824,-0.6119639873504639,12.054442405700684,-0.6895130276679993,-0.8314629793167114,0.25946399569511414
2024-09-23 23:36:31.009975,0,0.008719,-3.046660900115967,-1.271785020828247,12.054442405700684,-0.6895130276679993,-0.8314629793167114,0.25946399569511414
2024-09-23 23:36:31.021526,0,0.00877,-3.046660900115967,-1.271785020828247,14.69133186340332,-0.24991999566555023,-1.829693078994751,0.2903890013694763
2024-09-23 23:36:31.055112,0,0.00877,-2.135593891143799,-6.1076788902282715,14.69133186340332,-0.24991999566555023,-1.829693078994751,0.2903890013694763
2024-09-23 23:36:31.066403,0,0.008821,-2.135593891143799,-6.1076788902282715,19.599609375,1.3132070302963257,-2.501797914505005,-0.1566859930753708
2024-09-23 23:36:31.099784,0,0.008821,-0.866798996925354,-5.367699146270752,19.599609375,1.3132070302963257,-2.501797914505005,-0.1566859930753708
2024-09-23 23:36:31.110773,0,0.008872,-0.866798996925354,-5.367699146270752,18.512670516967773,1.6187920570373535,-2.501797914505005,-0.21296200156211853
2024-09-23 23:36:31.165820,0,0.008923,0.5688930153846741,-6.39362096786499,15.209976196289062,-1.3507750034332275,-2.501797914505005,-1.9365179538726807
2024-09-23 23:36:31.209298,0,0.008975,-5.044069766998291,1.3016949892044067,-8.38325309753418,-2.3358709812164307,-2.501797914505005,-2.501797914505005
2024-09-23 23:36:31.265079,0,0.008975,0.3607180118560791,19.59123420715332,-8.38325309753418,-2.3358709812164307,-2.501797914505005,-2.501797914505005
2024-09-23 23:36:31.276511,0,0.009026,0.3607180118560791,19.59123420715332,-19.59123420715332,1.2509750127792358,1.2509750127792358,-1.044273018836975
2024-09-23 23:36:31.309877,0,0.009026,-17.972490310668945,17.101503372192383,-19.59123420715332,1.2509750127792358,1.2509750127792358,-1.044273018836975
2024-09-23 23:36:31.321278,0,0.009077,-17.972490310668945,17.101503372192383,-10.842476844787598,-1.2268459796905518,2.501797914505005,1.7369179725646973
2024-09-23 23:36:31.354807,0,0.009077,-4.206582069396973,-13.4823579788208,-10.842476844787598,-1.2268459796905518,2.501797914505005,1.7369179725646973
2024-09-23 23:36:31.366077,0,0.009128,-4.206582069396973,-13.4823579788208,-13.064212799072266,-2.501797914505005,2.501797914505005,2.501797914505005
2024-09-23 23:36:31.420939,0,0.009179,-9.098109245300293,-19.599609375,-4.7461628913879395,-2.501797914505005,2.501797914505005,2.2286648750305176
2024-09-23 23:36:31.464865,0,0.00923,-14.596816062927246,-19.599609375,2.2546370029449463,-2.501797914505005,2.501797914505005,-0.39530500769615173
2024-09-23 23:36:31.553483,0,0.009281,-15.881162643432617,-11.446664810180664,5.740979194641113,-0.47525298595428467,-1.6262750625610352,-0.5695549845695496
2024-09-23 23:36:31.564266,0,0.009281,-6.4307098388671875,-16.821542739868164,9.658029556274414,-0.47525298595428467,-1.6262750625610352,-0.5695549845695496
2024-09-23 23:36:31.575466,0,0.009332,-6.4307098388671875,-16.821542739868164,9.658029556274414,-0.8822410106658936,-0.6927210092544556,0.7942000031471252
2024-09-23 23:36:31.629132,0,0.009383,-10.38664436340332,-18.146568298339844,13.358530044555664,-0.09193500131368637,-1.899407982826233,-0.3268119990825653
2024-09-23 23:36:31.673551,0,0.009383,-9.504888534545898,-18.146568298339844,13.358530044555664,-0.09193500131368637,-1.899407982826233,-0.3268119990825653
2024-09-23 23:36:31.684055,0,0.009383,-9.504888534545898,-19.599609375,16.338790893554688,-0.09193500131368637,-1.899407982826233,-0.3268119990825653
2024-09-23 23:36:31.695254,0,0.009434,-9.504888534545898,-19.599609375,16.338790893554688,2.501797914505005,-2.501797914505005,-0.2771030068397522
2024-09-23 23:36:31.716682,0,0.009485,-3.6143579483032227,-19.599609375,6.916452884674072,2.501797914505005,-2.501797914505005,-1.8896340131759644
2024-09-23 23:36:31.781401,0,0.009536,-6.138187885284424,-19.16950035095215,-8.171488761901855,2.501797914505005,-2.501797914505005,-2.501797914505005
2024-09-23 23:36:31.836780,0,0.009536,0.8566300272941589,17.995222091674805,-19.59123420715332,2.03975510597229,1.253646969795227,0.6150640249252319
2024-09-23 23:36:31.847971,0,0.009587,0.8566300272941589,17.995222091674805,-19.59123420715332,2.03975510597229,1.253646969795227,0.6150640249252319
2024-09-23 23:36:31.868943,0,0.009638,3.0448660850524902,7.861020088195801,-16.329219818115234,-1.3615410327911377,2.501797914505005,1.1137590408325195
2024-09-23 23:36:31.935548,0,0.009689,-0.000598000013269484,0.39242199063301086,-18.128023147583008,-2.4875190258026123,2.501797914505005,1.3901760578155518
2024-09-23 23:36:31.967730,0,0.009689,-19.599609375,0.39242199063301086,-18.128023147583008,-2.4875190258026123,2.501797914505005,1.3901760578155518
2024-09-23 23:36:31.978702,0,0.00974,-19.599609375,-19.599609375,1.3956129550933838,-2.501797914505005,2.501797914505005,1.710574984550476
2024-09-23 23:36:32.036538,0,0.009791,-19.599609375,-19.599609375,19.599609375,-2.501797914505005,2.501797914505005,0.5626829862594604
2024-09-23 23:36:32.081345,0,0.009791,-12.658629417419434,-10.02891731262207,8.263611793518066,-1.136361002922058,2.501797914505005,0.5626829862594604
2024-09-23 23:36:32.091912,0,0.009842,-12.658629417419434,-10.02891731262207,8.263611793518066,-1.136361002922058,-1.2510509490966797,-1.8443539142608643
2024-09-23 23:36:32.124774,0,0.009893,-1.213758945465088,-19.599609375,12.867403030395508,0.030314000323414803,-1.9482009410858154,0.38713499903678894
2024-09-23 23:36:32.224159,0,0.009893,-9.126224517822266,-15.04068374633789,12.867403030395508,0.030314000323414803,-1.9482009410858154,0.38713499903678894
2024-09-23 23:36:32.235135,0,0.009995,-9.761519432067871,-12.700504302978516,5.4311089515686035,2.11000394821167,-2.501797914505005,-0.05390800163149834
2024-09-23 23:36:32.290170,0,0.010046,-2.9006991386413574,-19.599609375,4.576272964477539,2.501797914505005,-2.501797914505005,-1.254639983177185
2024-09-23 23:36:32.334157,0,0.010097,-2.688934087753296,-13.15394401550293,-4.270589828491211,2.501797914505005,-2.501797914505005,-2.393064022064209
2024-09-23 23:36:32.389818,0,0.010097,-3.3846468925476074,-13.15394401550293,-4.270589828491211,2.501797914505005,-2.501797914505005,-2.393064022064209
2024-09-23 23:36:32.400924,0,0.010148,-3.3846468925476074,-3.7848470211029053,-8.25164794921875,2.501797914505005,-2.501797914505005,-2.501797914505005
2024-09-23 23:36:32.444571,0,0.010199,4.3752760887146,2.914457082748413,-5.4514479637146,2.429563045501709,1.0483969449996948,-1.252426028251648
2024-09-23 23:36:32.533048,0,0.010301,5.80917501449585,1.8921239376068115,1.0187439918518066,0.7444149851799011,0.11972899734973907,-0.33162298798561096
2024-09-23 23:36:32.587879,0,0.010353,6.885944843292236,2.4329020977020264,5.391028881072998,-0.9810490012168884,0.5348880290985107,0.021302999928593636
2024-09-23 23:36:32.631880,0,0.010404,6.242275238037109,0.4450649917125702,5.548954963684082,0.003206999972462654,0.6672930121421814,0.32559099793434143
2024-09-23 23:36:32.697822,0,0.010455,6.742374897003174,0.11964099854230881,7.980660915374756,0.6898189783096313,1.0648900270462036,0.5481740236282349
2024-09-23 23:36:32.741976,0,0.010506,6.620340824127197,-0.39840400218963623,7.72283411026001,-0.014659999869763851,0.4914399981498718,0.30596598982810974
2024-09-23 23:36:32.829904,0,0.010557,5.918047904968262,-0.0634090006351471,7.874778747558594,0.615140974521637,0.5070940256118774,-0.0222960002720356
2024-09-23 23:36:32.841046,0,0.010557,5.44307279586792,0.5934200286865234,7.7306108474731445,0.4517340064048767,0.5070940256118774,-0.0222960002720356
2024-09-23 23:36:32.852259,0,0.010608,5.44307279586792,0.5934200286865234,7.7306108474731445,0.4517340064048767,0.32925599813461304,0.08330599963665009
2024-09-23 23:36:32.907534,0,0.010659,6.305087089538574,1.1096709966659546,8.133204460144043,1.068937063217163,0.6046800017356873,0.2160930037498474
2024-09-23 23:36:32.951741,0,0.01071,5.993422031402588,0.21834500133991241,9.017351150512695,0.43142300844192505,0.5445089936256409,0.19318599998950958
2024-09-23 23:36:32.996201,0,0.010761,5.364109992980957,0.5347949862480164,9.30329418182373,0.36720600724220276,0.20700600743293762,0.0016029999824240804
2024-09-23 23:36:33.051257,0,0.010761,5.743969917297363,2.303091049194336,6.525227069854736,0.6289610266685486,-0.07857199758291245,-0.027869999408721924
2024-09-23 23:36:33.062399,0,0.010812,5.743969917297363,2.303091049194336,6.525227069854736,0.6289610266685486,-0.07857199758291245,-0.027869999408721924
2024-09-23 23:36:33.128875,0,0.010812,4.6468610763549805,2.570488929748535,5.461019039154053,0.9611960053443909,-0.07857199758291245,-0.027869999408721924
2024-09-23 23:36:33.139598,0,0.010812,4.6468610763549805,2.570488929748535,5.461019039154053,0.9611960053443909,0.35804298520088196,-0.027869999408721924
2024-09-23 23:36:33.150423,0,0.010915,3.8997020721435547,3.531805992126465,5.8265228271484375,2.1332929134368896,1.9784389734268188,-0.2963449954986572
2024-09-23 23:36:33.204770,0,0.010915,3.681954860687256,2.54715895652771,3.41395902633667,0.6956220269203186,1.9784389734268188,-0.2963449954986572
2024-09-23 23:36:33.215343,0,0.010968,3.681954860687256,2.54715895652771,3.41395902633667,0.6956220269203186,1.1456769704818726,0.954704999923706
2024-09-23 23:36:33.248289,0,0.010968,3.8021950721740723,1.5720839500427246,7.073183059692383,-0.20288300514221191,1.1456769704818726,0.954704999923706
2024-09-23 23:36:33.259248,0,0.011019,3.8021950721740723,1.5720839500427246,7.073183059692383,-0.20288300514221191,1.3844490051269531,0.7684680223464966
2024-09-23 23:36:33.302916,0,0.011019,3.1680970191955566,1.5720839500427246,7.073183059692383,-0.20288300514221191,1.3844490051269531,0.7684680223464966
2024-09-23 23:36:33.313736,0,0.01107,3.1680970191955566,3.0957140922546387,10.76171875,-0.04871600121259689,1.8083889484405518,-0.13141199946403503
2024-09-23 23:36:33.358252,0,0.011122,2.578864097595215,3.8243279457092285,10.524829864501953,-0.3139840066432953,0.9065229892730713,-0.07941199839115143
2024-09-23 23:36:33.424920,0,0.011122,2.2881360054016113,4.965106010437012,10.524829864501953,-0.3139840066432953,0.9065229892730713,-0.07941199839115143
2024-09-23 23:36:33.436383,0,0.011173,2.2881360054016113,4.965106010437012,9.372087478637695,0.32795798778533936,0.8698710203170776,-0.44967201352119446
2024-09-23 23:36:33.457983,0,0.011173,1.9902300834655762,3.740579128265381,8.374279975891113,1.0131189823150635,0.8698710203170776,-0.44967201352119446
2024-09-23 23:36:33.479909,0,0.011224,1.9902300834655762,3.740579128265381,8.374279975891113,1.0131189823150635,0.694553017616272,-0.010002000257372856
2024-09-23 23:36:33.524612,0,0.011275,2.085344076156616,3.853640079498291,6.722634792327881,1.586874008178711,1.0511460304260254,0.08842200040817261
2024-09-23 23:36:33.569037,0,0.011326,0.681954026222229,5.063211917877197,9.037690162658691,1.0931429862976074,0.7132610082626343,-0.08101499825716019
2024-09-23 23:36:33.613773,0,0.011377,1.6809570789337158,4.936392784118652,8.764309883117676,0.16210800409317017,0.3409389853477478,-0.2812260091304779
2024-09-23 23:36:33.668980,0,0.011428,0.5605180263519287,5.074577808380127,8.879165649414062,0.31696200370788574,0.4317280054092407,-0.41691499948501587
2024-09-23 23:36:33.724117,0,0.011428,-0.7603189945220947,5.015356063842773,8.879165649414062,0.31696200370788574,0.4317280054092407,-0.41691499948501587
2024-09-23 23:36:33.735466,0,0.011479,-0.7603189945220947,5.015356063842773,8.485547065734863,0.09498900175094604,0.40400999784469604,-0.3754520118236542
2024-09-23 23:36:33.769121,0,0.011479,-0.24047799408435822,5.035096168518066,8.485547065734863,0.09498900175094604,0.40400999784469604,-0.3754520118236542
2024-09-23 23:36:33.780355,0,0.01153,-0.24047799408435822,5.035096168518066,9.377470970153809,-0.4963270127773285,0.13736799359321594,-0.3751470148563385
2024-09-23 23:36:33.813859,0,0.01153,-0.781853973865509,5.207977771759033,9.377470970153809,-0.4963270127773285,0.13736799359321594,-0.3751470148563385
2024-09-23 23:36:33.824933,0,0.011581,-0.781853973865509,5.207977771759033,9.016753196716309,-0.417602002620697,0.08613099902868271,-0.35941699147224426
2024-09-23 23:36:33.869713,0,0.011632,1.1270190477371216,5.672184944152832,9.328417778015137,-0.7210490107536316,0.6263650059700012,-0.4408150017261505
2024-09-23 23:36:33.924086,0,0.011683,3.380460023880005,5.281557083129883,9.812965393066406,-1.6416230201721191,0.3230710029602051,-0.838487982749939
2024-09-23 23:36:33.967937,0,0.011683,3.3499510288238525,4.482354164123535,10.295119285583496,-1.5816819667816162,0.42684099078178406,-1.3922369480133057
2024-09-23 23:36:33.979333,0,0.011734,3.3499510288238525,4.482354164123535,10.295119285583496,-1.5816819667816162,0.42684099078178406,-1.3922369480133057
2024-09-23 23:36:34.035251,0,0.011734,2.458026885986328,1.0205379724502563,10.567301750183105,-1.5816819667816162,0.42684099078178406,-1.3922369480133057
2024-09-23 23:36:34.046173,0,0.011734,2.458026885986328,1.0205379724502563,10.567301750183105,-0.032756999135017395,0.4859429895877838,-1.3922369480133057
2024-09-23 23:36:34.056545,0,0.011734,2.458026885986328,1.0205379724502563,10.567301750183105,-0.032756999135017395,0.4859429895877838,-1.9461389780044556
2024-09-23 23:36:34.078511,0,0.011836,0.33140501379966736,0.25603199005126953,9.364909172058105,-0.0468829981982708,-0.22388200461864471,-2.0840420722961426
2024-09-23 23:36:34.112310,0,0.011836,-1.2305090427398682,0.25603199005126953,9.364909172058105,-0.0468829981982708,-0.22388200461864471,-2.0840420722961426
2024-09-23 23:36:34.123347,0,0.011887,-1.2305090427398682,0.9092720150947571,6.692724227905273,0.6459890007972717,-0.6541600227355957,-2.1444408893585205
2024-09-23 23:36:34.209976,0,0.011887,-5.903092861175537,0.9092720150947571,6.692724227905273,0.6459890007972717,-0.6541600227355957,-2.1444408893585205
2024-09-23 23:36:34.255309,0,0.011887,-5.903092861175537,2.6039891242980957,6.692724227905273,0.6459890007972717,-0.6541600227355957,-2.1444408893585205
2024-09-23 23:36:34.343279,0,0.011938,-5.903092861175537,2.6039891242980957,4.49850606918335,1.6313910484313965,-0.6207150220870972,-2.0308969020843506
2024-09-23 23:36:34.354134,0,0.011989,-4.4542388916015625,1.095911979675293,6.607779026031494,0.5129730105400085,-0.12858699262142181,-1.1275039911270142
2024-09-23 23:36:34.386672,0,0.011989,-4.4542388916015625,1.095911979675293,6.607779026031494,0.5129730105400085,-0.2984069883823395,-1.1275039911270142
2024-09-23 23:36:34.397922,0,0.01209,-3.063410997390747,1.6755740642547607,4.9190449714660645,1.9180400371551514,-0.37858301401138306,-0.2448039948940277
2024-09-23 23:36:34.429575,0,0.01209,-0.665802001953125,2.4394819736480713,9.54796028137207,1.9180400371551514,-0.37858301401138306,-0.2448039948940277
2024-09-23 23:36:34.440842,0,0.012166,-0.665802001953125,2.4394819736480713,9.54796028137207,0.33788400888442993,-0.27336201071739197,0.6989820003509521
2024-09-23 23:36:34.474112,0,0.012166,0.1447650045156479,3.0849459171295166,9.54796028137207,0.33788400888442993,-0.27336201071739197,0.6989820003509521
2024-09-23 23:36:34.485887,0,0.012217,0.1447650045156479,3.0849459171295166,11.711669921875,-0.04848700016736984,-0.47471800446510315,0.5639039874076843
2024-09-23 23:36:34.520081,0,0.012217,1.6797609329223633,3.0849459171295166,11.711669921875,-0.04848700016736984,-0.47471800446510315,0.5639039874076843
2024-09-23 23:36:34.531341,0,0.012268,1.6797609329223633,1.5649049282073975,10.105487823486328,-0.8135949969291687,-0.6492729783058167,0.6994400024414062
2024-09-23 23:36:34.578032,0,0.012319,-4.202991962432861,0.35174399614334106,8.782257080078125,0.35078901052474976,-0.06314799934625626,1.1848490238189697
2024-09-23 23:36:34.655367,0,0.012319,-1.3914259672164917,4.829314231872559,11.921042442321777,0.11659800261259079,0.17623400688171387,1.1848490238189697
2024-09-23 23:36:34.666413,0,0.012421,-0.3284139931201935,4.511667251586914,12.337392807006836,-0.3366619944572449,-0.2703070044517517,0.21212199330329895
2024-09-23 23:36:34.699158,0,0.012421,-0.3864400088787079,4.146162986755371,12.337392807006836,-0.3366619944572449,-0.2703070044517517,0.21212199330329895
2024-09-23 23:36:34.710466,0,0.012472,-0.3864400088787079,4.146162986755371,8.520840644836426,-0.9724199771881104,0.5025119781494141,0.5581769943237305
2024-09-23 23:36:34.788642,0,0.012472,-0.381056010723114,4.566102981567383,8.520840644836426,-0.9724199771881104,0.5025119781494141,0.5581769943237305
2024-09-23 23:36:34.799777,0,0.012523,-0.381056010723114,4.566102981567383,9.552745819091797,-1.5489239692687988,-0.33337900042533875,0.41080600023269653
2024-09-23 23:36:34.833041,0,0.012523,-0.9206380248069763,4.566102981567383,9.552745819091797,-1.5489239692687988,-0.33337900042533875,0.41080600023269653
2024-09-23 23:36:34.844021,0,0.012574,-0.9206380248069763,3.145962953567505,6.375675201416016,-2.2637128829956055,-0.6352229714393616,0.5570319890975952
2024-09-23 23:36:34.932910,0,0.012676,1.0283149480819702,1.2167500257492065,8.775675773620605,-1.4198789596557617,0.13003699481487274,0.2863430082798004
2024-09-23 23:36:34.977804,0,0.012726,0.6083750128746033,2.0709869861602783,10.220342636108398,-1.25341796875,0.10529699921607971,0.4472289979457855
2024-09-23 23:36:35.022752,0,0.012726,1.182054042816162,1.8903290033340454,10.677969932556152,-0.9201909899711609,0.10529699921607971,0.4472289979457855
2024-09-23 23:36:35.067938,0,0.012828,0.8799600005149841,-0.7292119860649109,8.074579238891602,-1.7792199850082397,0.05085400119423866,-0.4582250118255615
2024-09-23 23:36:35.113827,0,0.012879,-1.4512460231781006,0.6610170006752014,11.20798110961914,-0.7084500193595886,1.8214470148086548,-0.8520039916038513
2024-09-23 23:36:35.247020,0,0.012983,-0.10887300223112106,-2.0398809909820557,7.7144598960876465,-0.2853499948978424,-0.0519229993224144,0.08964399993419647
2024-09-23 23:36:35.282915,0,0.012983,-0.5892320275306702,-2.0398809909820557,7.7144598960876465,-0.2853499948978424,-0.0519229993224144,0.08964399993419647
2024-09-23 23:36:35.294211,0,0.013033,-0.5892320275306702,-1.820936918258667,8.271986961364746,0.14339999854564667,0.5362629890441895,-0.17577600479125977
2024-09-23 23:36:35.338007,0,0.013084,-1.8388839960098267,-1.2502490282058716,8.472386360168457,-0.8985059857368469,1.1994329690933228,-0.41409000754356384
2024-09-23 23:36:35.383374,0,0.013135,0.223130002617836,-3.589232921600342,8.861220359802246,-0.7691550254821777,-0.04757099971175194,-0.33124101161956787
2024-09-23 23:36:35.426222,0,0.013186,-0.9302089810371399,-1.9310070276260376,8.654838562011719,-0.32940900325775146,0.4114930033683777,-0.17264500260353088
2024-09-23 23:36:35.470628,0,0.013237,-1.252642035484314,-2.4771690368652344,7.433900833129883,-0.6317099928855896,0.29833099246025085,-0.09895999729633331
2024-09-23 23:36:35.558352,0,0.013288,-1.759321928024292,-3.1764719486236572,8.922835350036621,-1.093677043914795,-0.3738490045070648,0.21930000185966492
2024-09-23 23:36:35.602425,0,0.013339,-1.738982915878296,-3.3391830921173096,8.605188369750977,-0.3640750050544739,-0.41500601172447205,0.27695000171661377
2024-09-23 23:36:35.691836,0,0.013339,-1.5397809743881226,-3.554537057876587,8.959325790405273,-0.3640750050544739,-0.41500601172447205,0.27695000171661377
2024-09-23 23:36:35.703226,0,0.013441,-1.2131609916687012,-4.159922122955322,7.752147197723389,-0.2521339952945709,-0.6528609991073608,-0.37896499037742615
2024-09-23 23:36:35.735049,0,0.013441,-0.6556329727172852,-4.800600051879883,7.752147197723389,-0.2521339952945709,-0.6528609991073608,-0.37896499037742615
2024-09-23 23:36:35.824579,0,0.013441,-0.6556329727172852,-4.800600051879883,8.678169250488281,-1.4026219844818115,-0.6806560158729553,-0.37896499037742615
2024-09-23 23:36:35.835374,0,0.013543,-0.7238280177116394,-4.829912185668945,8.263611793518066,-0.004046000074595213,-0.18348799645900726,-0.1267540007829666
2024-09-23 23:36:35.868569,0,0.013543,-0.7238280177116394,-4.829912185668945,8.263611793518066,-0.004046000074595213,-0.030618999153375626,-0.1267540007829666
2024-09-23 23:36:35.879559,0,0.013644,-0.7292119860649109,-4.795216083526611,8.284549713134766,0.020082000643014908,-0.0250450000166893,0.0222960002720356
2024-09-23 23:36:35.968732,0,0.013695,-0.7280160188674927,-4.799403190612793,8.302495956420898,0.01794400066137314,-0.026114000007510185,0.023900000378489494
2024-09-23 23:36:36.012251,0,0.013695,-0.7208369970321655,-4.814359188079834,8.313262939453125,0.008016999810934067,-0.026114000007510185,0.023900000378489494
2024-09-23 23:36:36.056635,0,0.013797,-0.7645059823989868,-4.8077778816223145,8.26121997833252,0.011988000012934208,-0.023593999445438385,0.02214300073683262
2024-09-23 23:36:36.144821,0,0.013848,-0.7525420188903809,-4.8562331199646,8.316253662109375,0.019317999482154846,-0.025120999664068222,0.020082000643014908
2024-09-23 23:36:36.155258,0,0.013848,-0.7088729739189148,-4.794618129730225,8.292325973510742,0.01992899924516678,-0.02450999990105629,0.020082000643014908
2024-09-23 23:36:36.187960,0,0.01395,-0.6191419959068298,-4.762314796447754,8.258827209472656,0.021302999928593636,-0.024739999324083328,0.022830000147223473
2024-09-23 23:36:36.231565,0,0.014001,-0.7046859860420227,-4.888535976409912,8.305486679077148,0.017255999147892,-0.026419000700116158,0.022830000147223473
2024-09-23 23:36:36.320013,0,0.014001,-0.7375869750976562,-4.791626930236816,8.305486679077148,0.017255999147892,-0.026419000700116158,0.022830000147223473
2024-09-23 23:36:36.331726,0,0.014051,-0.7375869750976562,-4.791626930236816,8.304888725280762,0.01549999974668026,-0.023900000378489494,0.021913999691605568
2024-09-23 23:36:36.364361,0,0.014051,-0.7106680274009705,-4.791626930236816,8.304888725280762,0.01549999974668026,-0.023900000378489494,0.021913999691605568
2024-09-23 23:36:36.375403,0,0.014102,-0.7106680274009705,-4.822134971618652,8.276174545288086,0.01320900022983551,-0.026724999770522118,0.021761000156402588
2024-09-23 23:36:36.464185,0,0.014204,-0.8027909994125366,-5.075774192810059,9.104090690612793,0.13003699481487274,-0.014201999641954899,0.01779099926352501
2024-09-23 23:36:36.508815,0,0.014255,-0.6622130274772644,-4.762912750244141,8.775077819824219,-0.02993199974298477,-0.022982999682426453,0.021913999691605568
2024-09-23 23:36:36.553196,0,0.014306,-0.7920240163803101,-4.925624847412109,8.333003997802734,0.05955899879336357,-0.011988000012934208,0.021455999463796616
2024-09-23 23:36:36.597354,0,0.014357,-0.710070013999939,-4.865804195404053,8.077569961547852,-0.03787299990653992,-0.025961000472307205,0.022830000147223473
2024-09-23 23:36:36.641993,0,0.014408,-0.765703022480011,-4.850251197814941,8.288737297058105,-0.04069799929857254,-0.03344399854540825,0.02305999957025051
2024-09-23 23:36:36.774761,0,0.014459,-0.7531399726867676,-4.883749961853027,8.343771934509277,-0.02496900036931038,-0.028710000216960907,0.023212000727653503
2024-09-23 23:36:36.786217,0,0.01451,-0.7531399726867676,-4.883749961853027,8.285147666931152,0.016568999737501144,-0.0250450000166893,0.02267800085246563
2024-09-23 23:36:36.819360,0,0.014561,-0.7256230115890503,-4.831707000732422,8.169095993041992,0.02290700003504753,-0.02450999990105629,0.019089000299572945
2024-09-23 23:36:36.862715,0,0.014612,-0.7082750201225281,-4.8975090980529785,8.286343574523926,0.009085999801754951,-0.02695400081574917,0.021685000509023666
2024-09-23 23:36:36.906610,0,0.014663,-0.6915249824523926,-4.810769081115723,8.263611793518066,0.017333000898361206,-0.02237199991941452,0.023365000262856483
2024-09-23 23:36:36.950562,0,0.014663,-0.7226319909095764,-4.810769081115723,8.263611793518066,0.017333000898361206,-0.02237199991941452,0.023365000262856483
2024-09-23 23:36:36.961803,0,0.014714,-0.7226319909095764,-4.841876029968262,8.26421070098877,0.024204999208450317,-0.02214300073683262,0.023212000727653503
2024-09-23 23:36:37.039410,0,0.014714,-0.6993020176887512,-4.841876029968262,8.14157772064209,0.024204999208450317,-0.02214300073683262,0.023212000727653503
2024-09-23 23:36:37.050129,0,0.014816,-0.7244269847869873,-4.868196964263916,8.405386924743652,0.004656999837607145,-0.027793999761343002,0.02076900005340576
2024-09-23 23:36:37.137811,0,0.014868,-0.6909270286560059,-4.9459638595581055,8.371289253234863,0.014049000106751919,-0.025885000824928284,0.022066999226808548
2024-09-23 23:36:37.181344,0,0.014919,-0.7298099994659424,-4.841278076171875,8.262415885925293,0.01779099926352501,-0.023670999333262444,0.023823000490665436
2024-09-23 23:36:37.224926,0,0.01497,-0.7016950249671936,-4.850849151611328,8.23848819732666,0.014355000108480453,-0.0225249994546175,0.023517999798059464
2024-09-23 23:36:37.268335,0,0.01497,-0.7148550152778625,-4.865804195404053,8.26839828491211,0.016416000202298164,-0.025578999891877174,0.02237199991941452
2024-09-23 23:36:37.279628,0,0.015021,-0.7148550152778625,-4.865804195404053,8.26839828491211,0.016416000202298164,-0.025578999891877174,0.02237199991941452
2024-09-23 23:36:37.356726,0,0.015021,-0.720238983631134,-4.843670845031738,8.258228302001953,0.01565299928188324,-0.026496000587940216,0.02237199991941452
2024-09-23 23:36:37.400685,0,0.015021,-0.720238983631134,-4.843670845031738,8.258228302001953,0.01565299928188324,-0.026496000587940216,0.021761000156402588
2024-09-23 23:36:37.411536,0,0.015173,-0.7190430164337158,-4.867001056671143,8.249255180358887,0.02000500075519085,-0.024358000606298447,0.024739999324083328
2024-09-23 23:36:37.490387,0,0.015173,-0.7058820128440857,-4.861019134521484,8.286343574523926,0.02000500075519085,-0.024358000606298447,0.024739999324083328
2024-09-23 23:36:37.501191,0,0.015173,-0.7058820128440857,-4.861019134521484,8.286343574523926,0.02267800085246563,-0.024358000606298447,0.024739999324083328
2024-09-23 23:36:37.535004,0,0.015173,-0.7058820128440857,-4.861019134521484,8.286343574523926,0.02267800085246563,-0.02466299943625927,0.02519799955189228
2024-09-23 23:36:37.545828,0,0.015275,-0.720238983631134,-4.83649206161499,8.205586433410645,0.013667999766767025,-0.025885000824928284,0.0250450000166893
2024-09-23 23:36:37.634523,0,0.015377,-0.7178459763526917,-4.8562331199646,8.261817932128906,0.015118000097572803,-0.025120999664068222,0.02237199991941452
2024-09-23 23:36:37.679421,0,0.015427,-0.7010970115661621,-4.8466620445251465,8.288737297058105,0.018783999606966972,-0.02466299943625927,0.02260199934244156
2024-09-23 23:36:37.723657,0,0.015478,-0.7310069799423218,-4.841876029968262,8.255236625671387,0.019547000527381897,-0.027716999873518944,0.023440999910235405
2024-09-23 23:36:37.768036,0,0.015529,-0.720238983631134,-4.845465183258057,8.295914649963379,0.016721999272704124,-0.02466299943625927,0.022220000624656677
2024-09-23 23:36:37.857427,0,0.01558,-0.698104977607727,-4.864009857177734,8.253442764282227,0.015118000097572803,-0.024128999561071396,0.02275400049984455
2024-09-23 23:36:37.946015,0,0.015682,-0.6795610189437866,-4.837090015411377,8.287541389465332,0.01572900079190731,-0.02703000046312809,0.021761000156402588
2024-09-23 23:36:37.990227,0,0.015733,-0.7262210249900818,-4.878366947174072,8.277371406555176,0.016721999272704124,-0.02489200048148632,0.0225249994546175
2024-09-23 23:36:38.034033,0,0.015784,-0.7339980006217957,-4.852046012878418,8.310272216796875,0.017179999500513077,-0.025273999199271202,0.02305999957025051
2024-09-23 23:36:38.078035,0,0.015784,-0.7345960140228271,-4.855635166168213,8.291728019714355,0.017026999965310097,-0.0222960002720356,0.024051999673247337
2024-09-23 23:36:38.089586,0,0.015835,-0.7345960140228271,-4.855635166168213,8.291728019714355,0.017026999965310097,-0.0222960002720356,0.024051999673247337
2024-09-23 23:36:38.122393,0,0.015835,-0.698104977607727,-4.856831073760986,8.276174545288086,0.01565299928188324,-0.024434000253677368,0.024051999673247337
2024-09-23 23:36:38.133679,0,0.015886,-0.698104977607727,-4.856831073760986,8.276174545288086,0.01565299928188324,-0.024434000253677368,0.023670999333262444
2024-09-23 23:36:38.166306,0,0.015937,-0.7471579909324646,-4.848455905914307,8.24686336517334,0.014201999641954899,-0.02275400049984455,0.024128999561071396
2024-09-23 23:36:38.255446,0,0.015937,-0.7375869750976562,-4.855036735534668,8.299505233764648,0.014201999641954899,-0.02275400049984455,0.024128999561071396
2024-09-23 23:36:38.266984,0,0.015987,-0.7375869750976562,-4.855036735534668,8.299505233764648,0.015424000099301338,-0.02450999990105629,0.021761000156402588
2024-09-23 23:36:38.300481,0,0.015987,-0.7196409702301025,-4.872982978820801,8.306084632873535,0.01794400066137314,-0.02450999990105629,0.021761000156402588
2024-09-23 23:36:38.311804,0,0.016038,-0.7196409702301025,-4.872982978820801,8.306084632873535,0.01794400066137314,-0.025273999199271202,0.02237199991941452
2024-09-23 23:36:38.344514,0,0.016038,-0.715453028678894,-4.872982978820801,8.306084632873535,0.01794400066137314,-0.025273999199271202,0.02237199991941452
2024-09-23 23:36:38.355528,0,0.016089,-0.715453028678894,-4.84785795211792,8.271986961364746,0.0197759997099638,-0.024739999324083328,0.023440999910235405
2024-09-23 23:36:38.399930,0,0.01614,-0.7393820285797119,-4.855635166168213,8.288737297058105,0.015424000099301338,-0.027716999873518944,0.02214300073683262
2024-09-23 23:36:38.444977,0,0.01614,-0.6969090104103088,-4.847259998321533,8.345566749572754,0.017026999965310097,-0.027716999873518944,0.02214300073683262
2024-09-23 23:36:38.533764,0,0.016242,-0.7190430164337158,-4.849653244018555,8.267800331115723,0.016568999737501144,-0.02466299943625927,0.021990999579429626
2024-09-23 23:36:38.578009,0,0.016344,-0.7274180054664612,-4.8466620445251465,8.285745620727539,0.016721999272704124,-0.023440999910235405,0.02214300073683262
2024-09-23 23:36:38.667009,0,0.016394,-0.7274180054664612,-4.84785795211792,8.286941528320312,0.014507999643683434,-0.023593999445438385,0.023365000262856483
2024-09-23 23:36:38.711608,0,0.016445,-0.7250249981880188,-4.861617088317871,8.269594192504883,0.007864000275731087,-0.025503000244498253,0.024358000606298447
2024-09-23 23:36:38.755731,0,0.016496,-0.7286139726638794,-4.833500862121582,8.273781776428223,0.01030800025910139,-0.024204999208450317,0.02290700003504753
2024-09-23 23:36:38.844663,0,0.016547,-0.7322030067443848,-4.82632303237915,8.266603469848633,0.015118000097572803,-0.026189999654889107,0.0222960002720356
2024-09-23 23:36:38.856176,0,0.016598,-0.7322030067443848,-4.82632303237915,8.280362129211426,0.019547000527381897,-0.025961000472307205,0.02275400049984455
2024-09-23 23:36:38.888725,0,0.016649,-0.7489529848098755,-4.843071937561035,8.284549713134766,0.017103999853134155,-0.025578999891877174,0.021838000044226646
2024-09-23 23:36:38.932668,0,0.0167,-0.7220339775085449,-4.844268798828125,8.280362129211426,0.01779099926352501,-0.026038000360131264,0.023747000843286514
2024-09-23 23:36:39.021579,0,0.0167,-0.7489529848098755,-4.839483261108398,8.250452041625977,0.014201999641954899,-0.026038000360131264,0.023747000843286514
2024-09-23 23:36:39.032812,0,0.016751,-0.7489529848098755,-4.839483261108398,8.250452041625977,0.014201999641954899,-0.025885000824928284,0.024204999208450317
2024-09-23 23:36:39.066072,0,0.016802,-0.7208369970321655,-4.865205764770508,8.270193099975586,0.01809599995613098,-0.023670999333262444,0.02244899980723858
2024-09-23 23:36:39.154038,0,0.016802,-0.7016950249671936,-4.865205764770508,8.270193099975586,0.01809599995613098,-0.023670999333262444,0.02244899980723858
2024-09-23 23:36:39.198512,0,0.016802,-0.7016950249671936,-4.753940105438232,8.270193099975586,0.01809599995613098,-0.023670999333262444,0.02244899980723858
2024-09-23 23:36:39.252509,0,0.016904,-0.7513459920883179,-4.831707000732422,8.301299095153809,0.015194999985396862,-0.02450999990105629,0.023135999217629433
2024-09-23 23:36:39.428829,0,0.016954,-0.7190430164337158,-4.820939064025879,8.277371406555176,0.01794400066137314,-0.021761000156402588,0.02466299943625927
2024-09-23 23:36:39.440179,0,0.017005,-0.7238280177116394,-4.856831073760986,8.277371406555176,0.01794400066137314,-0.023670999333262444,0.024051999673247337
2024-09-23 23:36:39.472684,0,0.017005,-0.7238280177116394,-4.856831073760986,8.290532112121582,0.013590999878942966,-0.025503000244498253,0.023670999333262444
2024-09-23 23:36:39.483993,0,0.017071,-0.714257001876831,-4.855635166168213,8.279166221618652,0.018554000183939934,-0.025503000244498253,0.023670999333262444
2024-09-23 23:36:39.516467,0,0.017122,-0.7447659969329834,-4.855635166168213,8.279166221618652,0.018554000183939934,-0.026572000235319138,0.0250450000166893
2024-09-23 23:36:39.527542,0,0.017252,-0.7447659969329834,-4.840680122375488,8.236693382263184,0.015576999634504318,-0.025578999891877174,0.022982999682426453
2024-09-23 23:36:39.560556,0,0.017252,-0.6699900031089783,-4.822134971618652,8.324030876159668,0.015576999634504318,-0.025578999891877174,0.022982999682426453
2024-09-23 23:36:39.571235,0,0.017252,-0.6699900031089783,-4.822134971618652,8.324030876159668,0.017103999853134155,-0.025578999891877174,0.022982999682426453
2024-09-23 23:36:39.604961,0,0.017252,-0.6699900031089783,-4.822134971618652,8.324030876159668,0.017103999853134155,-0.025578999891877174,0.024128999561071396
2024-09-23 23:36:39.615934,0,0.017354,-0.7537389993667603,-4.829912185668945,8.25703239440918,0.01779099926352501,-0.026342999190092087,0.022830000147223473
2024-09-23 23:36:39.649751,0,0.017354,-0.6933199763298035,-4.829912185668945,8.25703239440918,0.01779099926352501,-0.026342999190092087,0.022830000147223473
2024-09-23 23:36:39.661028,0,0.017405,-0.6933199763298035,-4.822134971618652,8.303691864013672,0.02000500075519085,-0.025503000244498253,0.023289000615477562
2024-09-23 23:36:39.738500,0,0.017405,-0.6681950092315674,-4.822134971618652,8.303691864013672,0.02000500075519085,-0.025503000244498253,0.023289000615477562
2024-09-23 23:36:39.749602,0,0.017405,-0.6681950092315674,-4.769493103027344,8.221139907836914,0.020844999700784683,-0.02542700059711933,0.021913999691605568
2024-09-23 23:36:39.793717,0,0.017557,-0.7124620079994202,-4.820341110229492,8.222933769226074,0.01786700077354908,-0.02519799955189228,0.0225249994546175
2024-09-23 23:36:39.882507,0,0.017608,-0.7381849884986877,-4.825724124908447,8.283950805664062,0.01603499986231327,-0.025808999314904213,0.023747000843286514
2024-09-23 23:36:39.926710,0,0.017659,-0.7136589884757996,-4.846063137054443,8.273781776428223,0.015042000450193882,-0.025578999891877174,0.021990999579429626
2024-09-23 23:36:39.970684,0,0.01771,-0.7010970115661621,-4.837090015411377,8.321638107299805,0.012521999888122082,-0.023212000727653503,0.023747000843286514
2024-09-23 23:36:40.059116,0,0.017812,-0.7130609750747681,-4.813161849975586,8.273183822631836,0.017333000898361206,-0.026496000587940216,0.02305999957025051
2024-09-23 23:36:40.103232,0,0.017863,-0.7310069799423218,-4.828715801239014,8.254040718078613,0.016110999509692192,-0.02519799955189228,0.023747000843286514
2024-09-23 23:36:40.146242,0,0.017863,-0.7106680274009705,-4.765305995941162,8.255236625671387,0.01809599995613098,-0.02305999957025051,0.02214300073683262
2024-09-23 23:36:40.157478,0,0.017913,-0.7106680274009705,-4.765305995941162,8.255236625671387,0.01809599995613098,-0.02305999957025051,0.02214300073683262
2024-09-23 23:36:40.190108,0,0.017913,-0.7226319909095764,-4.765305995941162,8.255236625671387,0.01809599995613098,-0.02305999957025051,0.02214300073683262
2024-09-23 23:36:40.235016,0,0.017913,-0.7226319909095764,-4.831707000732422,8.283950805664062,0.01809599995613098,-0.02305999957025051,0.02214300073683262
2024-09-23 23:36:40.246204,0,0.017964,-0.7226319909095764,-4.831707000732422,8.283950805664062,0.01473699975758791,-0.02290700003504753,0.024204999208450317
2024-09-23 23:36:40.324630,0,0.017964,-0.7328010201454163,-4.831707000732422,8.283950805664062,0.01473699975758791,-0.02290700003504753,0.024204999208450317
2024-09-23 23:36:40.335505,0,0.018067,-0.7441669702529907,-4.867001056671143,8.282156944274902,0.017179999500513077,-0.026877999305725098,0.021990999579429626
2024-09-23 23:36:40.369755,0,0.018067,-0.6885340213775635,-4.813759803771973,8.282156944274902,0.017179999500513077,-0.026877999305725098,0.021990999579429626
2024-09-23 23:36:40.381003,0,0.018117,-0.6885340213775635,-4.813759803771973,8.26421070098877,0.017409000545740128,-0.0248160008341074,0.02267800085246563
2024-09-23 23:36:40.414072,0,0.018117,-0.7124620079994202,-4.813759803771973,8.26421070098877,0.017409000545740128,-0.0248160008341074,0.02267800085246563
2024-09-23 23:36:40.424979,0,0.018168,-0.7124620079994202,-4.823331832885742,8.27138900756836,0.016340000554919243,-0.02489200048148632,0.02214300073683262
2024-09-23 23:36:40.513494,0,0.018168,-0.7004979848861694,-4.844268798828125,8.303691864013672,0.017255999147892,-0.02489200048148632,0.02214300073683262
2024-09-23 23:36:40.557672,0,0.01827,-0.7627120018005371,-4.8664021492004395,8.302495956420898,0.01748500019311905,-0.025655999779701233,0.02267800085246563
2024-09-23 23:36:40.645723,0,0.018372,-0.6975070238113403,-4.855036735534668,8.318049430847168,0.01534700021147728,-0.02725899964570999,0.021990999579429626
2024-09-23 23:36:40.689445,0,0.018422,-0.7016950249671936,-4.7359938621521,8.250452041625977,0.01580600067973137,-0.025885000824928284,0.021609000861644745
2024-09-23 23:36:40.733300,0,0.018473,-0.6873379945755005,-4.933401107788086,8.321040153503418,0.016568999737501144,-0.024128999561071396,0.02267800085246563
2024-09-23 23:36:40.776613,0,0.018524,-0.6412760019302368,-4.800600051879883,8.270193099975586,0.01748500019311905,-0.023747000843286514,0.02290700003504753
2024-09-23 23:36:40.820410,0,0.018524,-0.7459620237350464,-4.856831073760986,8.270791053771973,0.01565299928188324,-0.025961000472307205,0.02290700003504753
2024-09-23 23:36:40.832114,0,0.018575,-0.7459620237350464,-4.856831073760986,8.270791053771973,0.01565299928188324,-0.025961000472307205,0.026496000587940216
2024-09-23 23:36:40.864922,0,0.018575,-0.7507479786872864,-4.858625888824463,8.256434440612793,0.01626400090754032,-0.025961000472307205,0.026496000587940216
2024-09-23 23:36:40.876207,0,0.018626,-0.7507479786872864,-4.858625888824463,8.256434440612793,0.01626400090754032,-0.026038000360131264,0.023212000727653503
2024-09-23 23:36:40.964170,0,0.018728,-0.7136589884757996,-4.84785795211792,8.292325973510742,0.015270999632775784,-0.02275400049984455,0.021838000044226646
2024-09-23 23:36:41.051671,0,0.018779,-0.7357919812202454,-4.809573173522949,8.279764175415039,0.01626400090754032,-0.023747000843286514,0.023440999910235405
2024-09-23 23:36:41.094337,0,0.01883,-0.7214360237121582,-4.835296154022217,8.283352851867676,0.015270999632775784,-0.025885000824928284,0.02260199934244156
2024-09-23 23:36:41.137602,0,0.018881,-0.7417749762535095,-4.844866752624512,8.285147666931152,0.016416000202298164,-0.02519799955189228,0.023517999798059464
2024-09-23 23:36:41.226298,0,0.018881,-0.7280160188674927,-4.848455905914307,8.286343574523926,0.014888999983668327,-0.02519799955189228,0.023517999798059464
2024-09-23 23:36:41.237169,0,0.018983,-0.7256230115890503,-4.802393913269043,8.281558990478516,0.016110999509692192,-0.021685000509023666,0.023670999333262444
2024-09-23 23:36:41.269870,0,0.018983,-0.7322030067443848,-4.807179927825928,8.281558990478516,0.016110999509692192,-0.021685000509023666,0.023670999333262444
2024-09-23 23:36:41.281199,0,0.019033,-0.7322030067443848,-4.807179927825928,8.276174545288086,0.018554000183939934,-0.025273999199271202,0.022066999226808548
2024-09-23 23:36:41.314062,0,0.019033,-0.7250249981880188,-4.807179927825928,8.276174545288086,0.018554000183939934,-0.025273999199271202,0.022066999226808548
2024-09-23 23:36:41.324564,0,0.019084,-0.7250249981880188,-4.785046100616455,8.294120788574219,0.01824899949133396,-0.026419000700116158,0.022066999226808548
2024-09-23 23:36:41.413072,0,0.019135,-0.743569016456604,-4.848455905914307,8.287541389465332,0.01603499986231327,-0.0250450000166893,0.023670999333262444
2024-09-23 23:36:41.457338,0,0.019186,-0.7106680274009705,-4.823929786682129,8.254638671875,0.01817299984395504,-0.025885000824928284,0.022220000624656677
2024-09-23 23:36:41.545920,0,0.019237,-0.7345960140228271,-4.813759803771973,8.303691864013672,0.01763799972832203,-0.024128999561071396,0.02260199934244156
2024-09-23 23:36:41.556980,0,0.019288,-0.7345960140228271,-4.813759803771973,8.303691864013672,0.018631000071763992,-0.02489200048148632,0.024434000253677368
2024-09-23 23:36:41.589872,0,0.019339,-0.6957129836082458,-4.83768892288208,8.280960083007812,0.014965999871492386,-0.025885000824928284,0.023212000727653503
2024-09-23 23:36:41.633587,0,0.01939,-0.6747750043869019,-4.8089752197265625,8.261817932128906,0.018859999254345894,-0.026877999305725098,0.023593999445438385
2024-09-23 23:36:41.676595,0,0.01939,-0.7322030067443848,-4.8089752197265625,8.261817932128906,0.018859999254345894,-0.026877999305725098,0.023593999445438385
2024-09-23 23:36:41.720717,0,0.01939,-0.7322030067443848,-4.813759803771973,8.261817932128906,0.018859999254345894,-0.026877999305725098,0.023593999445438385
2024-09-23 23:36:41.765010,0,0.01939,-0.7322030067443848,-4.813759803771973,8.283950805664062,0.009162000380456448,-0.026877999305725098,0.023593999445438385
2024-09-23 23:36:41.775611,0,0.019492,-0.7501490116119385,-4.845465183258057,8.253442764282227,0.022220000624656677,-0.026342999190092087,0.021685000509023666
2024-09-23 23:36:41.809134,0,0.019492,-0.7501490116119385,-4.845465183258057,8.253442764282227,0.022220000624656677,-0.021990999579429626,0.023976000025868416
2024-09-23 23:36:41.819843,0,0.019543,-0.7501490116119385,-4.845465183258057,8.253442764282227,0.022220000624656677,-0.021990999579429626,0.023976000025868416
2024-09-23 23:36:41.907860,0,0.019645,-0.7322030067443848,-4.867001056671143,8.233701705932617,0.011528999544680119,-0.0248160008341074,0.02260199934244156
2024-09-23 23:36:41.951757,0,0.019696,-0.6849449872970581,-4.772483825683594,8.286343574523926,-0.023900000378489494,-0.02878599986433983,0.023440999910235405
2024-09-23 23:36:41.995929,0,0.019747,-0.6975070238113403,-4.859821796417236,8.200800895690918,-0.017255999147892,-0.029245000332593918,0.025350000709295273
2024-09-23 23:36:42.039970,0,0.019798,-0.6394810080528259,-4.7772698402404785,8.319844245910645,0.019700000062584877,-0.025120999664068222,0.023517999798059464
2024-09-23 23:36:42.083793,0,0.019849,-0.775871992111206,-4.912464141845703,8.23848819732666,0.02519799955189228,-0.026877999305725098,0.023212000727653503
2024-09-23 23:36:42.217021,0,0.019849,-0.6580259799957275,-4.784448146820068,8.240880966186523,0.02519799955189228,-0.026877999305725098,0.023212000727653503
2024-09-23 23:36:42.228234,0,0.019951,-0.7304090261459351,-4.829314231872559,8.24686336517334,0.023365000262856483,-0.02267800085246563,0.021685000509023666
2024-09-23 23:36:42.261146,0,0.019951,-0.7333999872207642,-4.829314231872559,8.24686336517334,0.023365000262856483,-0.02267800085246563,0.021685000509023666
2024-09-23 23:36:42.272345,0,0.020002,-0.7333999872207642,-4.8281168937683105,8.272584915161133,0.018324999138712883,-0.025885000824928284,0.0222960002720356
2024-09-23 23:36:42.305133,0,0.020002,-0.7262210249900818,-4.831108093261719,8.274977684020996,0.020692000165581703,-0.02489200048148632,0.0222960002720356
2024-09-23 23:36:42.316150,0,0.020053,-0.7262210249900818,-4.831108093261719,8.274977684020996,0.020692000165581703,-0.02489200048148632,0.022982999682426453
2024-09-23 23:36:42.349546,0,0.020053,-0.7190430164337158,-4.831108093261719,8.274977684020996,0.020692000165581703,-0.02489200048148632,0.022982999682426453
2024-09-23 23:36:42.360910,0,0.020104,-0.7190430164337158,-4.828715801239014,8.267800331115723,0.012980000115931034,-0.02680099941790104,0.024051999673247337
2024-09-23 23:36:42.404718,0,0.020155,-0.7028909921646118,-4.800002098083496,8.272584915161133,0.017255999147892,-0.02710700035095215,0.022220000624656677
2024-09-23 23:36:42.449269,0,0.020205,-0.7190430164337158,-4.810769081115723,8.283950805664062,0.01572900079190731,-0.02542700059711933,0.024204999208450317
2024-09-23 23:36:42.537486,0,0.020256,-0.7357919812202454,-4.815555095672607,8.258827209472656,0.0111480001360178,-0.026724999770522118,0.023289000615477562
2024-09-23 23:36:42.581162,0,0.020308,-0.687936007976532,-4.821537017822266,8.288737297058105,0.01206399966031313,-0.023670999333262444,0.022066999226808548
2024-09-23 23:36:42.625345,0,0.020359,-0.7645059823989868,-4.8388848304748535,8.287541389465332,0.01549999974668026,-0.025808999314904213,0.023289000615477562
2024-09-23 23:36:42.669275,0,0.02041,-0.6897310018539429,-4.8047871589660645,8.285147666931152,0.021379999816417694,-0.023747000843286514,0.025273999199271202
2024-09-23 23:36:42.713020,0,0.02041,-0.7004979848861694,-4.840081214904785,8.315655708312988,0.017714999616146088,-0.025350000709295273,0.023900000378489494
2024-09-23 23:36:42.756900,0,0.020461,-0.6885340213775635,-4.831108093261719,8.325227737426758,0.017714999616146088,-0.025350000709295273,0.023900000378489494
2024-09-23 23:36:42.768022,0,0.020512,-0.6885340213775635,-4.831108093261719,8.325227737426758,0.015576999634504318,-0.02718299999833107,0.02275400049984455
2024-09-23 23:36:42.800621,0,0.020512,-0.7549350261688232,-4.838286876678467,8.325227737426758,0.015576999634504318,-0.02718299999833107,0.02275400049984455
2024-09-23 23:36:42.811090,0,0.020512,-0.7549350261688232,-4.838286876678467,8.251049995422363,0.01458400022238493,-0.024281000718474388,0.02275400049984455
2024-09-23 23:36:42.844646,0,0.020563,-0.7106680274009705,-4.838286876678467,8.251049995422363,0.01458400022238493,-0.024281000718474388,0.022982999682426453
2024-09-23 23:36:42.855890,0,0.020614,-0.7106680274009705,-4.858625888824463,8.311469078063965,0.012903999537229538,-0.025350000709295273,0.023670999333262444
2024-09-23 23:36:42.888405,0,0.020614,-0.7064800262451172,-4.858625888824463,8.311469078063965,0.012903999537229538,-0.025350000709295273,0.023670999333262444
2024-09-23 23:36:42.943861,0,0.020664,-0.7064800262451172,-4.861019134521484,8.288737297058105,0.014125999994575977,-0.026724999770522118,0.02260199934244156
2024-09-23 23:36:42.988479,0,0.020716,-0.7525420188903809,-4.872982978820801,8.279166221618652,0.030084999278187752,-0.025350000709295273,0.023212000727653503
2024-09-23 23:36:43.032529,0,0.020767,-0.7052839994430542,-4.793420791625977,8.284549713134766,0.013515000231564045,-0.026572000235319138,0.024204999208450317
2024-09-23 23:36:43.165772,0,0.020818,-0.7166500091552734,-4.853241920471191,8.249255180358887,0.014888999983668327,-0.02450999990105629,0.023440999910235405
2024-09-23 23:36:43.209700,0,0.020869,-0.7639080286026001,-4.853241920471191,8.249255180358887,0.014888999983668327,-0.02496900036931038,0.0225249994546175
2024-09-23 23:36:43.253114,0,0.020919,-0.7639080286026001,-4.803590774536133,8.303691864013672,0.014355000108480453,-0.02496900036931038,0.0225249994546175
2024-09-23 23:36:43.264125,0,0.02097,-0.7214360237121582,-4.77128791809082,8.289933204650879,0.01107100024819374,-0.025808999314904213,0.023747000843286514
2024-09-23 23:36:43.296888,0,0.021021,-0.7214360237121582,-4.77128791809082,8.289933204650879,0.018324999138712883,-0.025273999199271202,0.021990999579429626
2024-09-23 23:36:43.340576,0,0.021021,-0.7567300200462341,-4.849653244018555,8.295914649963379,0.013744000345468521,-0.0248160008341074,0.021990999579429626
2024-09-23 23:36:43.351917,0,0.021071,-0.7567300200462341,-4.849653244018555,8.295914649963379,0.013744000345468521,-0.0248160008341074,0.02305999957025051
2024-09-23 23:36:43.429280,0,0.021071,-0.7220339775085449,-4.849653244018555,8.295914649963379,0.013744000345468521,-0.0248160008341074,0.02305999957025051
2024-09-23 23:36:43.440016,0,0.021173,-0.7124620079994202,-4.800002098083496,8.301898002624512,0.017333000898361206,-0.02305999957025051,0.023593999445438385
2024-09-23 23:36:43.484841,0,0.021173,-0.714257001876831,-4.797608852386475,8.259425163269043,0.01549999974668026,-0.02305999957025051,0.023593999445438385
2024-09-23 23:36:43.572246,0,0.021275,-0.7316049933433533,-4.786840915679932,8.295914649963379,0.0222960002720356,-0.0250450000166893,0.023670999333262444
2024-09-23 23:36:43.616118,0,0.021376,-0.7501490116119385,-4.829314231872559,8.291728019714355,0.018554000183939934,-0.02466299943625927,0.023747000843286514
2024-09-23 23:36:43.659895,0,0.021427,-0.6921229958534241,-4.819742202758789,8.283950805664062,0.016110999509692192,-0.0248160008341074,0.023517999798059464
2024-09-23 23:36:43.748657,0,0.021478,-0.7178459763526917,-4.812563896179199,8.294120788574219,0.015194999985396862,-0.024128999561071396,0.021685000509023666
2024-09-23 23:36:43.792559,0,0.021478,-0.6969090104103088,-4.820939064025879,8.256434440612793,0.015042000450193882,-0.024128999561071396,0.021685000509023666
2024-09-23 23:36:43.803870,0,0.021529,-0.6969090104103088,-4.820939064025879,8.256434440612793,0.015042000450193882,-0.025350000709295273,0.02489200048148632
2024-09-23 23:36:43.836869,0,0.02158,-0.7447659969329834,-4.822732925415039,8.234299659729004,0.015270999632775784,-0.024434000253677368,0.023670999333262444
2024-09-23 23:36:43.880479,0,0.02158,-0.743569016456604,-4.829912185668945,8.250452041625977,0.018936000764369965,-0.02542700059711933,0.023670999333262444
2024-09-23 23:36:43.892051,0,0.021631,-0.743569016456604,-4.829912185668945,8.250452041625977,0.018936000764369965,-0.02542700059711933,0.023517999798059464
2024-09-23 23:36:43.925408,0,0.021631,-0.6963109970092773,-4.816751003265381,8.25164794921875,0.018936000764369965,-0.02542700059711933,0.023517999798059464
2024-09-23 23:36:43.936713,0,0.021682,-0.6963109970092773,-4.816751003265381,8.25164794921875,0.01458400022238493,-0.025120999664068222,0.023900000378489494
2024-09-23 23:36:44.013720,0,0.021682,-0.7190430164337158,-4.82632303237915,8.25164794921875,0.01458400022238493,-0.025120999664068222,0.023900000378489494
2024-09-23 23:36:44.024459,0,0.021784,-0.749550998210907,-4.8281168937683105,8.265406608581543,0.012675000354647636,-0.024358000606298447,0.023670999333262444
2024-09-23 23:36:44.112356,0,0.021835,-0.7136589884757996,-4.802992820739746,8.274977684020996,0.013973000459372997,-0.025273999199271202,0.023747000843286514
2024-09-23 23:36:44.156601,0,0.021886,-0.7316049933433533,-4.797010898590088,8.292923927307129,0.01794400066137314,-0.024128999561071396,0.023365000262856483
2024-09-23 23:36:44.200948,0,0.021937,-0.720238983631134,-4.83649206161499,8.300103187561035,0.01748500019311905,-0.02450999990105629,0.023900000378489494
2024-09-23 23:36:44.244871,0,0.021988,-0.7214360237121582,-4.8388848304748535,8.286941528320312,0.017409000545740128,-0.024586999788880348,0.02260199934244156
2024-09-23 23:36:44.333187,0,0.021988,-0.7459620237350464,-4.782054901123047,8.294718742370605,0.01534700021147728,-0.024128999561071396,0.023593999445438385
2024-09-23 23:36:44.344442,0,0.02209,-0.6933199763298035,-4.816751003265381,8.292325973510742,0.014659999869763851,-0.024434000253677368,0.02267800085246563
2024-09-23 23:36:44.377164,0,0.022141,-0.7441669702529907,-4.840680122375488,8.262415885925293,0.01626400090754032,-0.025731999427080154,0.0248160008341074
2024-09-23 23:36:44.420720,0,0.022141,-0.7190430164337158,-4.792224884033203,8.293522834777832,0.02244899980723858,-0.023823000490665436,0.0248160008341074
2024-09-23 23:36:44.464294,0,0.022191,-0.7190430164337158,-4.792224884033203,8.293522834777832,0.02244899980723858,-0.023823000490665436,0.023823000490665436
2024-09-23 23:36:44.509279,0,0.022191,-0.7112659811973572,-4.829314231872559,8.293522834777832,0.02244899980723858,-0.023823000490665436,0.023823000490665436
2024-09-23 23:36:44.520516,0,0.022191,-0.7112659811973572,-4.829314231872559,8.297111511230469,0.02244899980723858,-0.023823000490665436,0.023823000490665436
2024-09-23 23:36:44.554076,0,0.022191,-0.7112659811973572,-4.829314231872559,8.297111511230469,0.02305999957025051,-0.02733599953353405,0.023823000490665436
2024-09-23 23:36:44.609135,0,0.022344,0.10408700257539749,-5.675775051116943,8.788837432861328,0.5665000081062317,-0.08720000088214874,0.23373199999332428
2024-09-23 23:36:44.653656,0,0.022395,-0.6574280261993408,-4.650449752807617,9.047860145568848,0.2702310085296631,-0.03611699864268303,0.092010997235775
2024-09-23 23:36:44.697973,0,0.022446,-0.7381849884986877,-4.7635111808776855,8.169693946838379,0.04741799831390381,-0.024358000606298447,0.02260199934244156
2024-09-23 23:36:44.741995,0,0.022497,-0.7124620079994202,-4.788636207580566,8.247461318969727,-0.014659999869763851,-0.029015999287366867,0.021761000156402588
2024-09-23 23:36:44.786457,0,0.022548,-0.7190430164337158,-4.831108093261719,8.340781211853027,-0.012675000354647636,-0.031076999381184578,0.021074000746011734
2024-09-23 23:36:44.830062,0,0.022598,-0.7645059823989868,-4.770689964294434,8.308478355407715,0.018706999719142914,-0.025578999891877174,0.021609000861644745
2024-09-23 23:36:44.918222,0,0.022649,-0.7184439897537231,-4.731805801391602,8.313861846923828,0.01549999974668026,-0.026419000700116158,0.020921999588608742
2024-09-23 23:36:44.961375,0,0.0227,-0.6664010286331177,-4.755733966827393,8.337789535522461,0.013744000345468521,-0.026419000700116158,0.021455999463796616
2024-09-23 23:36:45.005165,0,0.0227,-0.7633100152015686,-4.755733966827393,8.337789535522461,0.013744000345468521,-0.026419000700116158,0.021455999463796616
2024-09-23 23:36:45.016238,0,0.022751,-0.7633100152015686,-4.786840915679932,8.305486679077148,0.013973000459372997,-0.02466299943625927,0.025655999779701233
2024-09-23 23:36:45.049942,0,0.022751,-0.20996999740600586,-3.789033889770508,8.305486679077148,0.013973000459372997,-0.02466299943625927,0.025655999779701233
2024-09-23 23:36:45.061145,0,0.022802,-0.20996999740600586,-3.789033889770508,10.03310489654541,-0.6036869883537292,-0.9535599946975708,-0.35521799325942993
2024-09-23 23:36:45.095169,0,0.022802,-2.331207036972046,-7.464409828186035,10.03310489654541,-0.6036869883537292,-0.9535599946975708,-0.35521799325942993
2024-09-23 23:36:45.106415,0,0.022853,-2.331207036972046,-7.464409828186035,19.599609375,1.4918090105056763,0.26687100529670715,0.6011670231819153
2024-09-23 23:36:45.139960,0,0.022853,-0.2673969864845276,-8.447260856628418,2.303091049194336,1.4918090105056763,0.26687100529670715,0.6011670231819153
2024-09-23 23:36:45.150849,0,0.022904,-0.2673969864845276,-8.447260856628418,2.303091049194336,-1.3110690116882324,0.18257200717926025,0.3846150040626526
2024-09-23 23:36:45.239644,0,0.023006,1.6133599281311035,-6.94217586517334,12.171689987182617,1.5790090560913086,-0.90904301404953,1.6659049987792969
2024-09-23 23:36:45.328607,0,0.023058,3.287738084793091,-8.815755844116211,11.7385892868042,2.258596897125244,-0.8729259967803955,0.8055779933929443
2024-09-23 23:36:45.372976,0,0.023109,3.4319050312042236,-1.4428720474243164,7.470392227172852,2.501797914505005,-1.7401249408721924,-1.1684319972991943
2024-09-23 23:36:45.417155,0,0.02316,0.7603189945220947,2.172682046890259,4.338785171508789,1.3157269954681396,-1.5624399185180664,-1.6336820125579834
2024-09-23 23:36:45.461153,0,0.023211,-0.11305999755859375,3.423530101776123,4.164707183837891,0.8872810006141663,-0.5742130279541016,-1.922239065170288
2024-09-23 23:36:45.505784,0,0.023262,0.4791620075702667,2.9216361045837402,4.697110176086426,1.178892970085144,0.13561199605464935,-1.666592001914978
2024-09-23 23:36:45.549781,0,0.023313,-12.650254249572754,19.271194458007812,12.79202938079834,-2.2915070056915283,-1.5026509761810303,2.4966049194335938
2024-09-23 23:36:45.593057,0,0.023313,-1.6875380277633667,-19.599609375,2.1188440322875977,-2.501797914505005,-1.5026509761810303,2.4966049194335938
2024-09-23 23:36:45.637226,0,0.023364,-1.6875380277633667,-19.599609375,2.1188440322875977,-2.501797914505005,-2.1328349113464355,2.190408945083618
2024-09-23 23:36:45.725504,0,0.023364,-0.29551300406455994,-7.026523113250732,5.188835144042969,-2.501797914505005,-2.1328349113464355,2.190408945083618
2024-09-23 23:36:45.736608,0,0.023466,-2.5070791244506836,-4.6845479011535645,6.990033149719238,1.8293880224227905,0.07994599640369415,2.4087929725646973
2024-09-23 23:36:45.813936,0,0.023466,2.399401903152466,-10.931011199951172,6.990033149719238,1.8293880224227905,0.07994599640369415,2.4087929725646973
2024-09-23 23:36:45.824473,0,0.023568,-0.9631109833717346,-6.80937385559082,13.720443725585938,2.501797914505005,0.9860889911651611,-0.24174900352954865
2024-09-23 23:36:45.869132,0,0.023619,-0.8542370200157166,-5.114059925079346,1.7982059717178345,2.2669200897216797,-0.8263469934463501,-0.3126859962940216
2024-09-23 23:36:45.913433,0,0.023669,-0.693917989730835,-5.565704822540283,8.001598358154297,-0.6509529948234558,0.05245700106024742,-0.7872520089149475
2024-09-23 23:36:45.956407,0,0.02372,-0.6035889983177185,-4.896313190460205,7.956134796142578,1.4753910303115845,-0.0710889995098114,0.6478980183601379
2024-09-23 23:36:46.045369,0,0.023771,-2.618943929672241,-3.8691940307617188,11.891131401062012,0.7244859933853149,0.39270898699760437,-0.4358519911766052
2024-09-23 23:36:46.134182,0,0.023822,-2.045264959335327,-1.2598209381103516,10.168298721313477,-0.17974700033664703,0.5648970007896423,-0.7347180247306824
2024-09-23 23:36:46.145422,0,0.023873,-2.045264959335327,-1.2598209381103516,10.168298721313477,1.4490480422973633,0.8352050185203552,-0.4887680113315582
2024-09-23 23:36:46.177722,0,0.023924,-0.6496509909629822,2.5968098640441895,11.044072151184082,-1.384220004081726,-0.6036109924316406,-1.0273220539093018
2024-09-23 23:36:46.221704,0,0.023975,-0.9655029773712158,-1.4877369403839111,9.495318412780762,-0.9292780160903931,-0.44608399271965027,-0.5319100022315979
2024-09-23 23:36:46.265169,0,0.023975,-0.917048990726471,-1.867598056793213,9.707680702209473,-0.4666999876499176,-0.23945899307727814,-0.5319100022315979
2024-09-23 23:36:46.276448,0,0.024026,-0.917048990726471,-1.867598056793213,9.707680702209473,-0.4666999876499176,-0.23945899307727814,-0.3996579945087433
2024-09-23 23:36:46.309024,0,0.024026,0.9942169785499573,4.49850606918335,9.707680702209473,-0.4666999876499176,-0.23945899307727814,-0.3996579945087433
2024-09-23 23:36:46.320338,0,0.024077,0.9942169785499573,4.49850606918335,9.442675590515137,-0.6726379990577698,-0.3836989998817444,-0.6911929845809937
2024-09-23 23:36:46.364921,0,0.024077,1.5146560668945312,11.415557861328125,7.323831081390381,-0.3026829957962036,-0.3836989998817444,-0.6911929845809937
2024-09-23 23:36:46.453802,0,0.024179,0.7573279738426208,7.539185047149658,11.337791442871094,-0.2515229880809784,0.027716999873518944,-0.9343940019607544
2024-09-23 23:36:46.498030,0,0.024229,1.1210370063781738,-1.807776927947998,16.376476287841797,1.8005239963531494,-0.08208400011062622,-0.5578719973564148
2024-09-23 23:36:46.541953,0,0.02428,0.837486982345581,-1.1922229528427124,6.1465630531311035,2.5007290840148926,0.09865400195121765,-0.18165500462055206
2024-09-23 23:36:46.585787,0,0.024331,-1.3932199478149414,-2.1152548789978027,10.205986022949219,0.6586650013923645,0.04611999914050102,0.0111480001360178
2024-09-23 23:36:46.630107,0,0.024382,0.1411760002374649,-0.6203389763832092,9.570093154907227,0.0053449999541044235,-0.018631000071763992,0.07452499866485596
2024-09-23 23:36:46.718459,0,0.024433,-0.04905200004577637,-0.6825519800186157,9.57248592376709,0.010002000257372856,0.022066999226808548,-0.48708799481391907
2024-09-23 23:36:46.729672,0,0.024484,-0.04905200004577637,-0.6825519800186157,9.57248592376709,0.002747999969869852,0.023135999217629433,-0.3112350106239319
2024-09-23 23:36:46.806377,0,0.024535,1.6725819110870361,-0.29571300745010376,9.377470970153809,-0.0405460000038147,0.17127099633216858,0.1823430061340332
2024-09-23 23:36:46.849762,0,0.024535,-0.02871299907565117,-0.29571300745010376,9.377470970153809,-0.0405460000038147,0.17127099633216858,0.1823430061340332
2024-09-23 23:36:46.860880,0,0.024586,-0.02871299907565117,-0.6747750043869019,9.574280738830566,-0.0012209999840706587,0.02031099982559681,0.011377000249922276
2024-09-23 23:36:46.894709,0,0.024586,-0.2644059956073761,-0.1627109944820404,9.574280738830566,-0.0012209999840706587,0.02031099982559681,0.011377000249922276
2024-09-23 23:36:46.905737,0,0.024637,-0.2644059956073761,-0.1627109944820404,9.480960845947266,0.030389999970793724,0.010383999906480312,-0.01824899949133396
2024-09-23 23:36:46.939527,0,0.024637,0.04785599932074547,-0.5742769837379456,9.480960845947266,0.030389999970793724,0.010383999906480312,-0.01824899949133396
2024-09-23 23:36:46.950760,0,0.024688,0.04785599932074547,-0.5742769837379456,9.56231689453125,-0.006719000171869993,-0.10010500252246857,-0.026496000587940216
2024-09-23 23:36:47.038509,0,0.02479,-0.07058800011873245,-0.6927220225334167,9.622137069702148,0.015424000099301338,-0.0468829981982708,0.09178200364112854
2024-09-23 23:36:47.082798,0,0.024841,-0.18005900084972382,-0.6005979776382446,9.611968040466309,0.060474999248981476,0.05673399940133095,0.05230500176548958
2024-09-23 23:36:47.127252,0,0.024892,-0.11126600205898285,-0.6693919897079468,9.524031639099121,0.02695400081574917,-0.009468000382184982,0.02450999990105629
2024-09-23 23:36:47.215161,0,0.024943,-0.13758699595928192,-0.6771680116653442,9.589834213256836,0.03680400177836418,0.007253000047057867,0.022982999682426453
2024-09-23 23:36:47.258496,0,0.024943,-0.07298099994659424,-0.6813560128211975,9.594619750976562,0.01786700077354908,-0.021990999579429626,0.023976000025868416
2024-09-23 23:36:47.269711,0,0.024994,-0.07298099994659424,-0.6813560128211975,9.594619750976562,0.01786700077354908,-0.021990999579429626,0.023976000025868416
2024-09-23 23:36:47.302697,0,0.024994,-0.09810499846935272,-0.6490529775619507,9.597013473510742,0.025120999664068222,-0.012751000002026558,0.024434000253677368
2024-09-23 23:36:47.313920,0,0.025045,-0.09810499846935272,-0.6490529775619507,9.597013473510742,0.025120999664068222,-0.012751000002026558,0.024434000253677368
2024-09-23 23:36:47.346287,0,0.025096,-0.10947100073099136,-0.6233299970626831,9.5653076171875,0.025503000244498253,-0.010537000373005867,0.02267800085246563
2024-09-23 23:36:47.390258,0,0.025096,-0.11724799871444702,-0.6059820055961609,9.568897247314453,0.025503000244498253,-0.010537000373005867,0.02267800085246563
2024-09-23 23:36:47.401481,0,0.025147,-0.11724799871444702,-0.6059820055961609,9.568897247314453,0.04466899856925011,0.011682000011205673,0.025655999779701233
2024-09-23 23:36:47.434165,0,0.025147,-0.1417739987373352,-0.6059820055961609,9.568897247314453,0.04466899856925011,0.011682000011205673,0.025655999779701233
2024-09-23 23:36:47.444624,0,0.025198,-0.1417739987373352,-0.5922229886054993,9.571290016174316,0.023900000378489494,-0.016568999737501144,0.021302999928593636
2024-09-23 23:36:47.488925,0,0.025249,-0.15313999354839325,-0.6317049860954285,9.611968040466309,0.05841299891471863,0.02718299999833107,0.02290700003504753
2024-09-23 23:36:47.532228,0,0.025249,-0.1854429990053177,-0.6317049860954285,9.611968040466309,0.05841299891471863,0.02718299999833107,0.02290700003504753
2024-09-23 23:36:47.620945,0,0.025351,-0.186040997505188,-0.6317049860954285,9.56231689453125,0.005038999952375889,-0.03863700106739998,0.021302999928593636
2024-09-23 23:36:47.665567,0,0.025402,-0.182451993227005,-0.602990984916687,9.592824935913086,0.032680999487638474,-0.004656999837607145,0.023212000727653503
2024-09-23 23:36:47.708917,0,0.025453,-0.19561299681663513,-0.5946159958839417,9.610173225402832,0.03497200086712837,-0.0015269999857991934,0.023135999217629433
2024-09-23 23:36:47.752765,0,0.025504,-0.22911199927330017,-0.5892320275306702,9.586244583129883,0.03344399854540825,-0.007482999935746193,0.02290700003504753
2024-09-23 23:36:47.796759,0,0.025554,-0.2225320041179657,-0.5641070008277893,9.564709663391113,0.01259899977594614,-0.030772000551223755,0.021379999816417694
2024-09-23 23:36:47.840212,0,0.025554,-0.17587199807167053,-0.6269189715385437,9.602994918823242,0.014049000106751919,-0.028099000453948975,0.021379999816417694
2024-09-23 23:36:47.851456,0,0.025605,-0.17587199807167053,-0.6269189715385437,9.602994918823242,0.014049000106751919,-0.028099000453948975,0.020082000643014908
2024-09-23 23:36:47.929054,0,0.025605,-0.2835490107536316,-0.5784639716148376,9.602994918823242,0.014049000106751919,-0.028099000453948975,0.020082000643014908
2024-09-23 23:36:47.940606,0,0.025656,-0.2835490107536316,-0.5784639716148376,9.591629028320312,0.06902699917554855,0.03985799849033356,0.025120999664068222
2024-09-23 23:36:47.984712,0,0.025707,-0.2650049924850464,-0.554535984992981,9.610771179199219,0.06933300197124481,0.03680400177836418,0.023670999333262444
2024-09-23 23:36:48.029079,0,0.025759,-0.2596209943294525,-0.5108669996261597,9.571290016174316,0.09773799777030945,0.0633770003914833,0.028023000806570053
2024-09-23 23:36:48.072353,0,0.025809,-0.3822529911994934,-0.4199399948120117,9.582655906677246,0.14614899456501007,0.10819900035858154,0.030772000551223755
2024-09-23 23:36:48.116678,0,0.02586,-0.3840480148792267,-0.4049850106239319,9.571290016174316,0.06505700200796127,0.0222960002720356,0.024051999673247337
2024-09-23 23:36:48.160995,0,0.025911,-0.4205380082130432,-0.4193420112133026,9.596414566040039,0.02680099941790104,-0.014507999643683434,0.02305999957025051
2024-09-23 23:36:48.204598,0,0.025962,-0.39481499791145325,-0.39601200819015503,9.625726699829102,0.014278000220656395,-0.030237000435590744,0.021913999691605568
2024-09-23 23:36:48.292783,0,0.026013,-0.3672980070114136,-0.4265199899673462,9.593423843383789,0.01565299928188324,-0.030161000788211823,0.021074000746011734
2024-09-23 23:36:48.303903,0,0.026064,-0.3672980070114136,-0.4265199899673462,9.605985641479492,0.013744000345468521,-0.03176400065422058,0.021455999463796616
2024-09-23 23:36:48.381162,0,0.026064,-0.39840400218963623,-0.4265199899673462,9.605985641479492,0.013744000345468521,-0.03176400065422058,0.021455999463796616
2024-09-23 23:36:48.392548,0,0.026115,-0.39840400218963623,-0.37447598576545715,9.582655906677246,0.01320900022983551,-0.03145899996161461,0.022066999226808548
2024-09-23 23:36:48.425292,0,0.026115,-0.381056010723114,-0.43309998512268066,9.634699821472168,0.01320900022983551,-0.03145899996161461,0.022066999226808548
2024-09-23 23:36:48.436432,0,0.026166,-0.381056010723114,-0.43309998512268066,9.634699821472168,-0.020921999588608742,-0.06467500329017639,0.019013000652194023
2024-09-23 23:36:48.515221,0,0.026166,-0.3194409906864166,-0.4570290148258209,9.634699821472168,-0.020921999588608742,-0.06467500329017639,0.019013000652194023
2024-09-23 23:36:48.526339,0,0.026268,-0.3828510046005249,-0.5012959837913513,9.55633544921875,-0.053220998495817184,-0.09918899834156036,0.01458400022238493
2024-09-23 23:36:48.560046,0,0.026268,-0.2877359986305237,-0.5120639801025391,9.55633544921875,-0.053220998495817184,-0.09918899834156036,0.01458400022238493
2024-09-23 23:36:48.571352,0,0.026319,-0.2877359986305237,-0.5120639801025391,9.622735977172852,-0.06635499745607376,-0.11186400055885315,0.01458400022238493
2024-09-23 23:36:48.604358,0,0.026319,-0.29431700706481934,-0.5144559741020203,9.622735977172852,-0.06635499745607376,-0.11186400055885315,0.01458400022238493
2024-09-23 23:36:48.614760,0,0.02637,-0.29431700706481934,-0.5144559741020203,9.601798057556152,0.012675000354647636,-0.021913999691605568,0.02237199991941452
2024-09-23 23:36:48.659151,0,0.026421,-0.3044860064983368,-0.5431699752807617,9.709474563598633,0.001373999984934926,-0.03794899955391884,0.020921999588608742
2024-09-23 23:36:48.748066,0,0.026421,-0.262611985206604,-0.5341969728469849,9.709474563598633,0.001373999984934926,-0.03794899955391884,0.020921999588608742
2024-09-23 23:36:48.836617,0,0.026472,-0.2422730028629303,-0.5796610116958618,9.516255378723145,-0.04237800091505051,-0.09712699800729752,0.01840200088918209
2024-09-23 23:36:48.848064,0,0.026523,-0.17946100234985352,-0.5880360007286072,9.590432167053223,-0.04497399926185608,-0.09712699800729752,0.0003809999907389283
2024-09-23 23:36:48.881027,0,0.026624,-0.12562300264835358,-0.6233299970626831,9.608977317810059,0.030389999970793724,-0.006947999820113182,0.02076900005340576
2024-09-23 23:36:48.924007,0,0.026675,-0.17228299379348755,-0.591027021408081,9.590432167053223,0.03649900108575821,0.0023670000955462456,0.024051999673247337
2024-09-23 23:36:48.967855,0,0.026726,-0.18843400478363037,-0.6311060190200806,9.634100914001465,0.035048000514507294,0.0015269999857991934,0.023900000378489494
2024-09-23 23:36:49.011668,0,0.026777,-0.23868399858474731,-0.5216349959373474,9.620343208312988,0.07498300075531006,0.04993800073862076,0.028099000453948975
2024-09-23 23:36:49.055262,0,0.026777,-0.260219007730484,-0.5455629825592041,9.57069206237793,0.023517999798059464,-0.012903999537229538,0.028099000453948975
2024-09-23 23:36:49.066585,0,0.026827,-0.260219007730484,-0.5455629825592041,9.57069206237793,0.023517999798059464,-0.012903999537229538,0.023900000378489494
2024-09-23 23:36:49.144391,0,0.026827,-0.23569299280643463,-0.5455629825592041,9.57069206237793,0.023517999798059464,-0.012903999537229538,0.023900000378489494
2024-09-23 23:36:49.156535,0,0.026878,-0.23569299280643463,-0.5814549922943115,9.638887405395508,-0.049479998648166656,-0.10506799817085266,0.016645999625325203
2024-09-23 23:36:49.190244,0,0.026878,-0.13040800392627716,-0.6544359922409058,9.638887405395508,-0.049479998648166656,-0.10506799817085266,0.016645999625325203
2024-09-23 23:36:49.201359,0,0.026929,-0.13040800392627716,-0.6544359922409058,9.5922269821167,-0.026114000007510185,-0.07918299734592438,0.01809599995613098
2024-09-23 23:36:49.234461,0,0.026929,-0.14655999839305878,-0.652642011642456,9.5922269821167,-0.026114000007510185,-0.07918299734592438,0.01809599995613098
2024-09-23 23:36:49.245452,0,0.02698,-0.14655999839305878,-0.652642011642456,9.547362327575684,0.023900000378489494,-0.016416000202298164,0.021609000861644745
2024-09-23 23:36:49.289567,0,0.027031,-0.1615149974822998,-0.6412760019302368,9.629316329956055,0.026342999190092087,-0.013667999766767025,0.022830000147223473
2024-09-23 23:36:49.333799,0,0.027082,-0.09391800314188004,-0.6370890140533447,9.57667350769043,0.011223999783396721,-0.03145899996161461,0.02015800029039383
2024-09-23 23:36:49.421598,0,0.027133,-0.13459600508213043,-0.6245260238647461,9.644270896911621,0.037032999098300934,-0.019700000062584877,0.021455999463796616
2024-09-23 23:36:49.433074,0,0.027184,-0.13459600508213043,-0.6245260238647461,9.644270896911621,0.037032999098300934,0.0002280000044265762,0.023976000025868416
2024-09-23 23:36:49.466732,0,0.027184,-0.2446659952402115,-0.6245260238647461,9.644270896911621,0.037032999098300934,0.0002280000044265762,0.023976000025868416
2024-09-23 23:36:49.511067,0,0.027184,-0.2446659952402115,-0.5730810165405273,9.568299293518066,0.11774399876594543,0.10193800181150436,0.023976000025868416
2024-09-23 23:36:49.555033,0,0.027235,-0.24885299801826477,-0.5557330250740051,9.607780456542969,0.0605509988963604,0.0275650005787611,0.030007999390363693
2024-09-23 23:36:49.566480,0,0.027286,-0.24885299801826477,-0.5557330250740051,9.607780456542969,0.0605509988963604,0.0275650005787611,0.02489200048148632
2024-09-23 23:36:49.598828,0,0.027337,-0.266200989484787,-0.5437679886817932,9.622735977172852,0.02466299943625927,-0.014888999983668327,0.02290700003504753
2024-09-23 23:36:49.641710,0,0.027388,-0.25363901257514954,-0.5593219995498657,9.606583595275879,0.012292999774217606,-0.02703000046312809,0.021761000156402588
2024-09-23 23:36:49.730293,0,0.027388,-0.25184398889541626,-0.5617150068283081,9.588040351867676,0.012292999774217606,-0.02703000046312809,0.021761000156402588
2024-09-23 23:36:49.741712,0,0.027388,-0.25184398889541626,-0.5617150068283081,9.588040351867676,0.01534700021147728,-0.02703000046312809,0.021761000156402588
2024-09-23 23:36:49.775245,0,0.027388,-0.25184398889541626,-0.5617150068283081,9.588040351867676,0.01534700021147728,-0.025808999314904213,0.021761000156402588
2024-09-23 23:36:49.785994,0,0.02749,-0.27038800716400146,-0.5581250190734863,9.58086109161377,0.014355000108480453,-0.026724999770522118,0.022066999226808548
2024-09-23 23:36:49.820090,0,0.02754,-0.2596209943294525,-0.5635089874267578,9.58086109161377,0.014355000108480453,-0.026724999770522118,0.022066999226808548
2024-09-23 23:36:49.831437,0,0.027591,-0.2596209943294525,-0.5635089874267578,9.608379364013672,0.007788000162690878,-0.03634599968791008,0.019164999946951866
2024-09-23 23:36:49.909087,0,0.027591,-0.25543299317359924,-0.5635089874267578,9.608379364013672,0.007788000162690878,-0.03634599968791008,0.019164999946951866
2024-09-23 23:36:49.919680,0,0.027642,-0.25543299317359924,-0.5688930153846741,9.649057388305664,0.00901000015437603,-0.03558199852705002,0.018631000071763992
2024-09-23 23:36:49.963284,0,0.027693,-0.23987999558448792,-0.5449650287628174,9.601798057556152,0.020692000165581703,-0.02054000087082386,0.010842000134289265
2024-09-23 23:36:50.007196,0,0.027744,-0.20039799809455872,-0.5491520166397095,9.595815658569336,-0.0017559999832883477,-0.046959999948740005,0.007559000048786402
2024-09-23 23:36:50.051241,0,0.027795,-0.24945099651813507,-0.5736789703369141,9.5922269821167,0.011223999783396721,-0.025350000709295273,0.017255999147892
2024-09-23 23:36:50.094677,0,0.027846,-0.20039799809455872,-0.5838479995727539,9.631110191345215,0.02214300073683262,-0.01794400066137314,0.021990999579429626
2024-09-23 23:36:50.138952,0,0.027897,-0.21834500133991241,-0.6071779727935791,9.601200103759766,0.007712000049650669,-0.03497200086712837,0.020844999700784683
2024-09-23 23:36:50.182626,0,0.027948,-0.2051839977502823,-0.5880360007286072,9.610771179199219,0.013819999992847443,-0.028099000453948975,0.01565299928188324
2024-09-23 23:36:50.225646,0,0.027948,-0.21714800596237183,-0.5712860226631165,9.600602149963379,0.027793999761343002,-0.028099000453948975,0.01565299928188324
2024-09-23 23:36:50.236910,0,0.027999,-0.21714800596237183,-0.5712860226631165,9.600602149963379,0.027793999761343002,-0.008399000391364098,0.01809599995613098
2024-09-23 23:36:50.315066,0,0.027999,-0.25184398889541626,-0.5856429934501648,9.600602149963379,0.027793999761343002,-0.008399000391364098,0.01809599995613098
2024-09-23 23:36:50.326437,0,0.02805,-0.25184398889541626,-0.5856429934501648,9.616154670715332,0.016721999272704124,-0.0248160008341074,0.021151000633835793
2024-09-23 23:36:50.359325,0,0.02805,-0.25603199005126953,-0.5856429934501648,9.616154670715332,0.016721999272704124,-0.0248160008341074,0.021151000633835793
2024-09-23 23:36:50.370555,0,0.02805,-0.25603199005126953,-0.5276169776916504,9.634699821472168,0.016721999272704124,-0.0248160008341074,0.021151000633835793
2024-09-23 23:36:50.459322,0,0.028152,-0.2243269979953766,-0.5551339983940125,9.69691276550293,0.023517999798059464,-0.01824899949133396,0.0197759997099638
2024-09-23 23:36:50.547484,0,0.028304,-0.2063799947500229,-0.5802590250968933,9.574280738830566,0.007176999934017658,-0.037415001541376114,0.021531999111175537
2024-09-23 23:36:50.590352,0,0.028354,-0.23210300505161285,-0.5557330250740051,9.599406242370605,0.03627000004053116,-0.0003809999907389283,0.023670999333262444
2024-09-23 23:36:50.679304,0,0.028354,-0.24765700101852417,-0.5377860069274902,9.620343208312988,0.033291999250650406,-0.0003809999907389283,0.023670999333262444
2024-09-23 23:36:50.767715,0,0.028405,-0.25064799189567566,-0.5467590093612671,9.639485359191895,0.033291999250650406,-0.0061079999431967735,0.02275400049984455
2024-09-23 23:36:50.779020,0,0.028456,-0.25184398889541626,-0.5497499704360962,9.54796028137207,0.005497000180184841,-0.04222499951720238,0.019852999597787857
2024-09-23 23:36:50.855767,0,0.028507,-0.21834500133991241,-0.5497499704360962,9.601798057556152,0.02695400081574917,-0.04222499951720238,0.019852999597787857
2024-09-23 23:36:50.866927,0,0.028558,-0.2620140016078949,-0.5539379715919495,9.601798057556152,0.02695400081574917,-0.014430999755859375,0.021761000156402588
2024-09-23 23:36:50.899917,0,0.028558,-0.2620140016078949,-0.5539379715919495,9.632905006408691,0.017409000545740128,-0.023670999333262444,0.021074000746011734
2024-09-23 23:36:50.911203,0,0.028609,-0.21774600446224213,-0.5802590250968933,9.691529273986816,-0.02061600051820278,-0.07620500028133392,0.021074000746011734
2024-09-23 23:36:50.944181,0,0.028659,-0.21774600446224213,-0.5802590250968933,9.691529273986816,-0.02061600051820278,-0.07620500028133392,0.014049000106751919
2024-09-23 23:36:50.955205,0,0.02871,-0.17347900569438934,-0.5754730105400085,9.594021797180176,-0.0035119999665766954,-0.0519229993224144,-0.007406000047922134
2024-09-23 23:36:50.998308,0,0.028761,-0.1830500066280365,-0.5904279947280884,9.616753578186035,0.005497000180184841,-0.03840800002217293,-0.006566000171005726
2024-09-23 23:36:51.085768,0,0.028812,-0.1411760002374649,-0.6233299970626831,9.629914283752441,0.023747000843286514,-0.012369999662041664,0.013744000345468521
2024-09-23 23:36:51.128894,0,0.028863,-0.24705800414085388,-0.5700889825820923,9.620343208312988,0.048868998885154724,0.01565299928188324,0.01992899924516678
2024-09-23 23:36:51.172991,0,0.028914,-0.23808500170707703,-0.58085697889328,9.59521770477295,0.04115600138902664,0.006184000056236982,0.020082000643014908
2024-09-23 23:36:51.217482,0,0.028914,-0.2434689998626709,-0.5341969728469849,9.583253860473633,0.035200998187065125,0.001373999984934926,0.020082000643014908
2024-09-23 23:36:51.228934,0,0.028965,-0.2434689998626709,-0.5341969728469849,9.583253860473633,0.035200998187065125,0.001373999984934926,0.02054000087082386
2024-09-23 23:36:51.350740,0,0.028965,-0.23688900470733643,-0.5724819898605347,9.625726699829102,0.023135999217629433,0.001373999984934926,0.02054000087082386
2024-09-23 23:36:51.361479,0,0.029067,-0.24586200714111328,-0.541375994682312,9.614958763122559,0.019471000880002975,-0.01572900079190731,0.021609000861644745
2024-09-23 23:36:51.404543,0,0.029168,-0.2781650125980377,-0.5108669996261597,9.610771179199219,0.019547000527381897,-0.02023399993777275,0.021609000861644745
2024-09-23 23:36:51.492544,0,0.029219,-0.266200989484787,-0.5479559898376465,9.589834213256836,0.01840200088918209,-0.01840200088918209,0.021379999816417694
2024-09-23 23:36:51.537172,0,0.02927,-0.26978999376296997,-0.5258219838142395,9.617950439453125,0.02054000087082386,-0.019164999946951866,0.021227000281214714
2024-09-23 23:36:51.581160,0,0.029321,-0.2614150047302246,-0.5605180263519287,9.610771179199219,0.018631000071763992,-0.022830000147223473,0.021761000156402588
2024-09-23 23:36:51.670615,0,0.029321,-0.27098700404167175,-0.5605180263519287,9.610771179199219,0.018631000071763992,-0.022830000147223473,0.021761000156402588
2024-09-23 23:36:51.715521,0,0.029321,-0.27098700404167175,-0.5036889910697937,9.610771179199219,0.018631000071763992,-0.022830000147223473,0.021761000156402588
2024-09-23 23:36:51.758906,0,0.029372,-0.2608169913291931,-0.5270190238952637,9.591031074523926,0.00901000015437603,-0.035200998187065125,0.02267800085246563
2024-09-23 23:36:51.770147,0,0.029423,-0.19740700721740723,-0.5682950019836426,9.593423843383789,-0.03237500041723251,-0.035200998187065125,0.021379999816417694
2024-09-23 23:36:51.846321,0,0.029473,-0.20996999740600586,-0.5682950019836426,9.603592872619629,-0.03237500041723251,-0.0897969976067543,0.01817299984395504
2024-09-23 23:36:51.857298,0,0.029524,-0.13579200208187103,-0.6173480153083801,9.591031074523926,-0.05299200117588043,-0.11552900075912476,0.015270999632775784
2024-09-23 23:36:51.889517,0,0.029582,-0.09690900146961212,-0.6173480153083801,9.591031074523926,-0.05299200117588043,-0.11552900075912476,0.015270999632775784
2024-09-23 23:36:51.900672,0,0.029632,-0.09690900146961212,-0.6011959910392761,9.632307052612305,0.007329999934881926,-0.037338998168706894,0.021609000861644745
2024-09-23 23:36:51.944635,0,0.029683,-0.15433700382709503,-0.6137580275535583,9.603592872619629,0.03222300112247467,-0.004656999837607145,0.0248160008341074
2024-09-23 23:36:51.987920,0,0.029734,-0.17168499529361725,-0.5880360007286072,9.588638305664062,0.06352899968624115,0.03352100029587746,0.025885000824928284
2024-09-23 23:36:52.032500,0,0.029785,-0.20817500352859497,-0.6077759861946106,9.627520561218262,0.04787600040435791,0.019471000880002975,0.024128999561071396
2024-09-23 23:36:52.076099,0,0.029836,-0.21056799590587616,-0.554535984992981,9.628118515014648,0.04772299900650978,0.01809599995613098,0.025503000244498253
2024-09-23 23:36:52.120008,0,0.029887,-0.21834500133991241,-0.5611159801483154,9.667600631713867,0.028634000569581985,-0.009850000031292439,0.023900000378489494
2024-09-23 23:36:52.252822,0,0.029938,-0.18843400478363037,-0.5419740080833435,9.613762855529785,0.0076350001618266106,-0.03955300152301788,0.020997999235987663
2024-09-23 23:36:52.264176,0,0.029989,-0.18843400478363037,-0.5419740080833435,9.613762855529785,-0.0061079999431967735,-0.05490100011229515,0.02054000087082386
2024-09-23 23:36:52.296406,0,0.03004,-0.2027910053730011,-0.5724819898605347,9.605387687683105,-0.008781000040471554,-0.058642998337745667,0.018783999606966972
2024-09-23 23:36:52.339645,0,0.03004,-0.1854429990053177,-0.5653039813041687,9.631709098815918,-0.008781000040471554,-0.058642998337745667,0.018783999606966972
2024-09-23 23:36:52.350882,0,0.030091,-0.1854429990053177,-0.5653039813041687,9.631709098815918,0.01626400090754032,-0.026572000235319138,0.021151000633835793
2024-09-23 23:36:52.384709,0,0.030091,-0.17467600107192993,-0.6059820055961609,9.631709098815918,0.01626400090754032,-0.026572000235319138,0.021151000633835793
2024-09-23 23:36:52.396074,0,0.030091,-0.17467600107192993,-0.6059820055961609,9.617351531982422,-0.025885000824928284,-0.026572000235319138,0.021151000633835793
2024-09-23 23:36:52.429736,0,0.030141,-0.17467600107192993,-0.6059820055961609,9.617351531982422,-0.025885000824928284,-0.0810920000076294,0.01802000030875206
2024-09-23 23:36:52.440463,0,0.030192,-0.1411760002374649,-0.6221330165863037,9.643074989318848,-0.023212000727653503,-0.07666300237178802,0.018324999138712883
2024-09-23 23:36:52.474013,0,0.030192,-0.12921200692653656,-0.6221330165863037,9.643074989318848,-0.023212000727653503,-0.07666300237178802,0.018324999138712883
2024-09-23 23:36:52.485063,0,0.030192,-0.12921200692653656,-0.6604189872741699,9.584449768066406,-0.002747999969869852,-0.07666300237178802,0.018324999138712883
2024-09-23 23:36:52.573665,0,0.030294,-0.14775599539279938,-0.6269189715385437,9.628118515014648,0.016186999157071114,-0.023365000262856483,0.021074000746011734
2024-09-23 23:36:52.618017,0,0.030345,-0.12382800132036209,-0.6400799751281738,9.618548393249512,-0.008093000389635563,-0.05429000034928322,0.01817299984395504
2024-09-23 23:36:52.661701,0,0.030396,-0.08913200348615646,-0.6311060190200806,9.586843490600586,0.005954999942332506,-0.03909499943256378,0.021685000509023666
2024-09-23 23:36:52.705050,0,0.030447,-0.13160499930381775,-0.6352940201759338,9.566503524780273,0.014201999641954899,-0.028099000453948975,0.02038699947297573
2024-09-23 23:36:52.748116,0,0.030498,-0.09750699996948242,-0.6329010128974915,9.634699821472168,0.014507999643683434,-0.028710000216960907,0.021609000861644745
2024-09-23 23:36:52.791636,0,0.030498,-0.10767699778079987,-0.6329010128974915,9.634699821472168,0.014507999643683434,-0.028710000216960907,0.021609000861644745
2024-09-23 23:36:52.802997,0,0.030548,-0.10767699778079987,-0.636489987373352,9.641280174255371,0.017103999853134155,-0.024586999788880348,0.021990999579429626
2024-09-23 23:36:52.836136,0,0.030548,-0.12741699814796448,-0.6574280261993408,9.58385181427002,0.017103999853134155,-0.024586999788880348,0.021990999579429626
2024-09-23 23:36:52.847345,0,0.030599,-0.12741699814796448,-0.6574280261993408,9.58385181427002,0.01580600067973137,-0.025578999891877174,0.021151000633835793
2024-09-23 23:36:52.880527,0,0.030599,-0.09391800314188004,-0.6478559970855713,9.598209381103516,0.01580600067973137,-0.025578999891877174,0.021151000633835793
2024-09-23 23:36:52.891764,0,0.03065,-0.09391800314188004,-0.6478559970855713,9.598209381103516,0.01588200032711029,-0.026189999654889107,0.021302999928593636
2024-09-23 23:36:52.969167,0,0.03065,-0.1405780017375946,-0.6340969800949097,9.598209381103516,0.01588200032711029,-0.026189999654889107,0.021302999928593636
2024-09-23 23:36:52.980489,0,0.030701,-0.1405780017375946,-0.6340969800949097,9.594021797180176,0.012521999888122082,-0.03245199844241142,0.022830000147223473
2024-09-23 23:36:53.014194,0,0.030701,-0.11365900188684464,-0.6340969800949097,9.594021797180176,0.012521999888122082,-0.03245199844241142,0.022830000147223473
2024-09-23 23:36:53.025527,0,0.030753,-0.11365900188684464,-0.6502490043640137,9.59521770477295,0.013973000459372997,-0.027946999296545982,0.020692000165581703
2024-09-23 23:36:53.059040,0,0.030753,-0.0843459963798523,-0.6502490043640137,9.59521770477295,0.013973000459372997,-0.027946999296545982,0.020692000165581703
2024-09-23 23:36:53.070267,0,0.030804,-0.0843459963798523,-0.6484540104866028,9.584449768066406,0.017409000545740128,-0.022220000624656677,0.021302999928593636
2024-09-23 23:36:53.158071,0,0.030906,-0.11724799871444702,-0.6293119788169861,9.641878128051758,0.02023399993777275,-0.021074000746011734,0.020997999235987663
2024-09-23 23:36:53.202464,0,0.030956,-0.07178399711847305,-0.6454629898071289,9.598209381103516,0.016340000554919243,-0.021455999463796616,0.022066999226808548
2024-09-23 23:36:53.247225,0,0.031007,-0.12741699814796448,-0.6436690092086792,9.594619750976562,0.01603499986231327,-0.021302999928593636,0.02305999957025051
2024-09-23 23:36:53.291462,0,0.031058,-0.1621129959821701,-0.6352940201759338,9.602994918823242,0.018783999606966972,-0.022830000147223473,0.021990999579429626
2024-09-23 23:36:53.379716,0,0.031109,-0.1016940027475357,-0.6580259799957275,9.636493682861328,0.013286000117659569,-0.02916800044476986,0.023517999798059464
2024-09-23 23:36:53.467319,0,0.03116,-0.0819540023803711,-0.6496509909629822,9.524031639099121,0.01473699975758791,-0.03229900076985359,0.021379999816417694
2024-09-23 23:36:53.478149,0,0.031211,-0.0819540023803711,-0.6496509909629822,9.610771179199219,0.018706999719142914,-0.026342999190092087,0.02305999957025051
2024-09-23 23:36:53.511045,0,0.031211,-0.11186400055885315,-0.6209369897842407,9.583253860473633,0.019164999946951866,-0.021685000509023666,0.02305999957025051
2024-09-23 23:36:53.522264,0,0.031262,-0.11186400055885315,-0.6209369897842407,9.583253860473633,0.019164999946951866,-0.021685000509023666,0.023900000378489494
2024-09-23 23:36:53.554879,0,0.031262,-0.12562300264835358,-0.6466599702835083,9.643672943115234,0.019164999946951866,-0.021685000509023666,0.023900000378489494
2024-09-23 23:36:53.565993,0,0.031313,-0.12562300264835358,-0.6466599702835083,9.643672943115234,0.016340000554919243,-0.02542700059711933,0.022066999226808548
2024-09-23 23:36:53.598804,0,0.031313,-0.09989999979734421,-0.665802001953125,9.643672943115234,0.016340000554919243,-0.02542700059711933,0.022066999226808548
2024-09-23 23:36:53.609983,0,0.031364,-0.09989999979734421,-0.665802001953125,9.622735977172852,0.016798000782728195,-0.02680099941790104,0.02076900005340576
2024-09-23 23:36:53.643764,0,0.031364,-0.10109599679708481,-0.63230299949646,9.622735977172852,0.016798000782728195,-0.02680099941790104,0.02076900005340576
2024-09-23 23:36:53.655004,0,0.031414,-0.10109599679708481,-0.63230299949646,9.617950439453125,0.017409000545740128,-0.02710700035095215,0.02267800085246563
2024-09-23 23:36:53.733156,0,0.031414,-0.09989999979734421,-0.63230299949646,9.617950439453125,0.017409000545740128,-0.02710700035095215,0.02267800085246563
2024-09-23 23:36:53.744379,0,0.031465,-0.09989999979734421,-0.6765699982643127,9.604190826416016,0.01779099926352501,-0.02664799988269806,0.021531999111175537
2024-09-23 23:36:53.788878,0,0.031516,-0.0843459963798523,-0.6448649764060974,9.643074989318848,0.013744000345468521,-0.026342999190092087,0.022220000624656677
2024-09-23 23:36:53.833479,0,0.031567,-0.09511400014162064,-0.6652039885520935,9.600004196166992,0.013132999651134014,-0.029092000797390938,0.02275400049984455
2024-09-23 23:36:53.877862,0,0.031618,-0.10707800090312958,-0.6299099922180176,9.559924125671387,0.01206399966031313,-0.027946999296545982,0.023517999798059464
2024-09-23 23:36:53.921561,0,0.031669,-0.11365900188684464,-0.686739981174469,9.595815658569336,0.019164999946951866,-0.02275400049984455,0.01992899924516678
2024-09-23 23:36:53.964625,0,0.03172,-0.13399800658226013,-0.6179460287094116,9.621539115905762,0.02015800029039383,-0.02023399993777275,0.0222960002720356
2024-09-23 23:36:54.051401,0,0.03172,-0.13280099630355835,-0.6179460287094116,9.621539115905762,0.02015800029039383,-0.02023399993777275,0.0222960002720356
2024-09-23 23:36:54.062300,0,0.031822,-0.11066800355911255,-0.664605975151062,9.608977317810059,0.017333000898361206,-0.019164999946951866,0.021685000509023666
2024-09-23 23:36:54.139978,0,0.031822,-0.11904200166463852,-0.6550350189208984,9.608977317810059,0.017333000898361206,-0.019164999946951866,0.021685000509023666
2024-09-23 23:36:54.151393,0,0.031822,-0.11904200166463852,-0.6550350189208984,9.622735977172852,0.03863700106739998,-0.019164999946951866,0.021685000509023666
2024-09-23 23:36:54.183934,0,0.031822,-0.11904200166463852,-0.6550350189208984,9.622735977172852,0.03863700106739998,0.005421000067144632,0.023593999445438385
2024-09-23 23:36:54.229279,0,0.031873,-0.11904200166463852,-0.6550350189208984,9.622735977172852,0.03863700106739998,0.005421000067144632,0.023593999445438385
2024-09-23 23:36:54.274426,0,0.031873,-0.13938100636005402,-0.6550350189208984,9.622735977172852,0.03863700106739998,0.005421000067144632,0.023593999445438385
2024-09-23 23:36:54.285075,0,0.031974,-0.13758699595928192,-0.6197410225868225,9.601200103759766,0.020921999588608742,-0.02038699947297573,0.021455999463796616
2024-09-23 23:36:54.371871,0,0.032076,-0.14895300567150116,-0.6329010128974915,9.586843490600586,-0.0044280001893639565,-0.035429999232292175,0.020844999700784683
2024-09-23 23:36:54.415539,0,0.032177,-0.11545299738645554,-0.6203389763832092,9.619745254516602,0.0044280001893639565,-0.0368800014257431,0.021761000156402588
2024-09-23 23:36:54.458582,0,0.032228,-0.0831499993801117,-0.6640080213546753,9.637092590332031,0.006413999944925308,-0.035277001559734344,0.021990999579429626
2024-09-23 23:36:54.546587,0,0.032279,-0.1405780017375946,-0.6406779885292053,9.614958763122559,0.01030800025910139,-0.032910000532865524,0.023900000378489494
2024-09-23 23:36:54.590474,0,0.032279,-0.0843459963798523,-0.6622130274772644,9.619146347045898,0.016340000554919243,-0.02214300073683262,0.04573800042271614
2024-09-23 23:36:54.601682,0,0.03233,-0.0843459963798523,-0.6622130274772644,9.619146347045898,0.016340000554919243,-0.02214300073683262,0.04573800042271614
2024-09-23 23:36:54.634118,0,0.03233,-0.09870299696922302,-0.6622130274772644,9.619146347045898,0.016340000554919243,-0.02214300073683262,0.04573800042271614
2024-09-23 23:36:54.645163,0,0.032381,-0.09870299696922302,-0.6652039885520935,9.59521770477295,0.018706999719142914,-0.017409000545740128,0.04382900148630142
2024-09-23 23:36:54.689661,0,0.032432,-0.11066800355911255,-0.6652039885520935,9.617950439453125,0.01992899924516678,-0.01473699975758791,0.04436299949884415
2024-09-23 23:36:54.733753,0,0.032483,-0.17347900569438934,-0.6329010128974915,9.632905006408691,0.07964099943637848,0.05520600080490112,0.060322001576423645
2024-09-23 23:36:54.777892,0,0.032534,-0.7950149774551392,-0.005382999777793884,9.82373332977295,0.035429999232292175,0.010689999908208847,0.020921999588608742
2024-09-23 23:36:54.822382,0,0.032584,-0.6221330165863037,0.7800599932670593,8.3419771194458,-0.12797600030899048,-0.07475399971008301,-0.13782599568367004
2024-09-23 23:36:54.955600,0,0.032635,0.02632099948823452,-3.0275180339813232,9.312865257263184,-0.017562000080943108,-0.049479998648166656,-0.1380549967288971
2024-09-23 23:36:54.966915,0,0.032686,0.02632099948823452,-0.6400799751281738,9.609575271606445,0.018783999606966972,-0.028099000453948975,0.07918299734592438
2024-09-23 23:36:54.999349,0,0.032737,-0.13160499930381775,-0.6616150140762329,9.626324653625488,0.12873899936676025,0.10957299917936325,0.13652800023555756
2024-09-23 23:36:55.043331,0,0.032788,-0.200996994972229,-0.5796610116958618,9.610173225402832,0.06612599641084671,0.03336799889802933,0.046654000878334045
2024-09-23 23:36:55.087557,0,0.032788,-0.19979999959468842,-0.5401790142059326,9.57667350769043,0.012369999662041664,0.03336799889802933,0.046654000878334045
2024-09-23 23:36:55.099025,0,0.032839,-0.19979999959468842,-0.5401790142059326,9.57667350769043,0.012369999662041664,-0.028251999989151955,0.03436100110411644
2024-09-23 23:36:55.131784,0,0.03289,-0.21834500133991241,-0.5216349959373474,9.601798057556152,0.0248160008341074,-0.013132999651134014,0.030007999390363693
2024-09-23 23:36:55.176096,0,0.03289,-0.2578260004520416,-0.5276169776916504,9.683154106140137,0.01802000030875206,-0.023670999333262444,0.030007999390363693
2024-09-23 23:36:55.187329,0,0.032941,-0.2578260004520416,-0.5276169776916504,9.683154106140137,0.01802000030875206,-0.023670999333262444,0.02878599986433983
2024-09-23 23:36:55.264581,0,0.032941,-0.27337899804115295,-0.5276169776916504,9.683154106140137,0.01802000030875206,-0.023670999333262444,0.02878599986433983
2024-09-23 23:36:55.275814,0,0.032992,-0.27337899804115295,-0.5258219838142395,9.606583595275879,0.0076350001618266106,-0.03497200086712837,0.025808999314904213
2024-09-23 23:36:55.308631,0,0.032992,-0.25423699617385864,-0.5258219838142395,9.606583595275879,0.0076350001618266106,-0.03497200086712837,0.025808999314904213
2024-09-23 23:36:55.319219,0,0.033043,-0.25423699617385864,-0.5581250190734863,9.610173225402832,0.02023399993777275,-0.021838000044226646,0.0250450000166893
2024-09-23 23:36:55.363976,0,0.033094,-0.29132598638534546,-0.547357976436615,9.651449203491211,0.024128999561071396,-0.01572900079190731,0.024739999324083328
2024-09-23 23:36:55.408406,0,0.033145,-0.2829509973526001,-0.5228310227394104,9.57069206237793,0.017562000080943108,-0.02542700059711933,0.02275400049984455
2024-09-23 23:36:55.451414,0,0.033196,-0.2967100143432617,-0.535394012928009,9.652048110961914,0.025578999891877174,-0.01320900022983551,0.0250450000166893
2024-09-23 23:36:55.495461,0,0.033247,-0.2805579900741577,-0.5306079983711243,9.58385181427002,0.025655999779701233,-0.014201999641954899,0.024204999208450317
2024-09-23 23:36:55.539395,0,0.033247,-0.2859419882297516,-0.5395810008049011,9.67717170715332,0.01603499986231327,-0.014201999641954899,0.024204999208450317
2024-09-23 23:36:55.583390,0,0.033298,-0.2584240138530731,-0.5407770276069641,9.527023315429688,0.014813000336289406,-0.03145899996161461,0.021151000633835793
2024-09-23 23:36:55.594662,0,0.033349,-0.2584240138530731,-0.5407770276069641,9.527023315429688,0.014813000336289406,-0.03145899996161461,0.021151000633835793
2024-09-23 23:36:55.627212,0,0.033399,-0.30927199125289917,-0.5186439752578735,9.629914283752441,0.017714999616146088,-0.026038000360131264,0.02267800085246563
2024-09-23 23:36:55.715433,0,0.033399,-0.27696898579597473,-0.5509470105171204,9.629914283752441,0.017714999616146088,-0.026038000360131264,0.02267800085246563
2024-09-23 23:36:55.726787,0,0.033399,-0.27696898579597473,-0.5509470105171204,9.57906723022461,0.01473699975758791,-0.030389999970793724,0.020692000165581703
2024-09-23 23:36:55.759670,0,0.033452,-0.2811560034751892,-0.5246260166168213,9.57906723022461,0.01473699975758791,-0.030389999970793724,0.020692000165581703
2024-09-23 23:36:55.770664,0,0.033503,-0.2811560034751892,-0.5246260166168213,9.602396965026855,0.01794400066137314,-0.02489200048148632,0.021685000509023666
2024-09-23 23:36:55.858178,0,0.033605,-0.29551300406455994,-0.5246260166168213,9.68375301361084,0.014049000106751919,-0.026189999654889107,0.0225249994546175
2024-09-23 23:36:55.902477,0,0.033656,-0.25064799189567566,-0.5312060117721558,9.626922607421875,0.01320900022983551,-0.02878599986433983,0.02054000087082386
2024-09-23 23:36:55.946671,0,0.033707,-0.2650049924850464,-0.5006979703903198,9.651449203491211,0.014430999755859375,-0.02741199918091297,0.021379999816417694
2024-09-23 23:36:55.991158,0,0.033758,-0.29611098766326904,-0.4582250118255615,9.664609909057617,0.010383999906480312,-0.026342999190092087,0.02023399993777275
2024-09-23 23:36:56.078772,0,0.033809,-0.3409770131111145,-0.4636090099811554,9.623333930969238,0.02237199991941452,-0.0035119999665766954,-0.032756999135017395
2024-09-23 23:36:56.167379,0,0.03386,-0.4989030063152313,-0.4043869972229004,9.533602714538574,0.15149399638175964,0.10430499911308289,-0.27366700768470764
2024-09-23 23:36:56.178409,0,0.033911,-0.8315050005912781,-2.1475579738616943,10.950154304504395,-0.006566000171005726,0.05482500046491623,0.046730998903512955
2024-09-23 23:36:56.211170,0,0.033911,-0.29252201318740845,-0.6089730262756348,9.505487442016602,-0.36659500002861023,-0.05070099979639053,0.20021100342273712
2024-09-23 23:36:56.255209,0,0.033961,-0.9541379809379578,-0.6089730262756348,9.505487442016602,-0.36659500002861023,-0.05070099979639053,0.20021100342273712
2024-09-23 23:36:56.266368,0,0.034012,-0.9541379809379578,-0.3595210015773773,8.763113975524902,-0.7321209907531738,0.217849001288414,0.21357299387454987
2024-09-23 23:36:56.300091,0,0.034012,-0.9954140186309814,-1.4045859575271606,8.763113975524902,-0.7321209907531738,0.217849001288414,0.21357299387454987
2024-09-23 23:36:56.310981,0,0.034063,-0.9954140186309814,-1.4045859575271606,9.001797676086426,-0.21593999862670898,0.5384770035743713,0.3223069906234741
2024-09-23 23:36:56.355308,0,0.034114,-0.827318012714386,-1.45244300365448,10.1605224609375,0.2866480052471161,0.5521450042724609,-0.4736489951610565
2024-09-23 23:36:56.488240,0,0.034216,-1.0821540355682373,-1.8119640350341797,10.41236686706543,-0.539546012878418,-0.38224801421165466,-0.2979489862918854
2024-09-23 23:36:56.532559,0,0.034267,-0.9936190247535706,-1.411167025566101,10.38664436340332,0.13645100593566895,-0.6467530131340027,-0.4812079966068268
2024-09-23 23:36:56.576883,0,0.034318,-0.9595209956169128,-1.6600199937820435,9.67836856842041,-0.017562000080943108,-1.1465929746627808,-0.730135977268219
2024-09-23 23:36:56.621098,0,0.034369,0.43728798627853394,-3.200998067855835,6.967300891876221,-2.2257630825042725,-0.761443018913269,-1.0751980543136597
2024-09-23 23:36:56.665524,0,0.034369,-0.49471598863601685,-3.200998067855835,6.967300891876221,-2.2257630825042725,-0.761443018913269,-1.0751980543136597
2024-09-23 23:36:56.754288,0,0.034369,-0.49471598863601685,-2.0542380809783936,6.967300891876221,-2.2257630825042725,-0.761443018913269,-1.0751980543136597
2024-09-23 23:36:56.798302,0,0.03442,0.17288100719451904,-2.076970100402832,8.484350204467773,-2.501797914505005,-0.45463600754737854,-0.9097300171852112
2024-09-23 23:36:56.809449,0,0.034471,0.8973079919815063,-3.230907917022705,7.846065044403076,-0.315434992313385,0.24594900012016296,-0.4849500060081482
2024-09-23 23:36:56.842781,0,0.034522,1.456629991531372,-5.0703911781311035,10.153942108154297,-0.315434992313385,-0.19356699287891388,-0.3568210005760193
2024-09-23 23:36:56.854024,0,0.034572,1.456629991531372,-5.0703911781311035,10.153942108154297,-0.5837569832801819,-0.10506799817085266,-0.12965600192546844
2024-09-23 23:36:56.886269,0,0.034624,1.1700899600982666,-5.727220058441162,6.157927989959717,-2.05617094039917,-0.3365100026130676,-0.25870099663734436
2024-09-23 23:36:56.930302,0,0.034624,1.3501499891281128,-8.02074146270752,5.721837043762207,-2.501797914505005,-0.3365100026130676,-0.25870099663734436
2024-09-23 23:36:56.941581,0,0.034675,1.3501499891281128,-8.02074146270752,5.721837043762207,-2.501797914505005,0.9071339964866638,-0.9275979995727539
2024-09-23 23:36:56.974305,0,0.034675,1.132403016090393,-7.753343105316162,5.721837043762207,-2.501797914505005,0.9071339964866638,-0.9275979995727539
2024-09-23 23:36:56.985393,0,0.034726,1.132403016090393,-7.753343105316162,3.3014960289001465,-2.501797914505005,0.6140720248222351,-0.8544470071792603
2024-09-23 23:36:57.074440,0,0.034828,1.2370890378952026,-9.960124015808105,-1.220339059829712,-1.7793729305267334,0.2387710064649582,-0.35834801197052
2024-09-23 23:36:57.118357,0,0.034879,2.032104015350342,-10.65224838256836,-1.263409972190857,-1.7153849601745605,0.22120900452136993,-0.3869830071926117
2024-09-23 23:36:57.163275,0,0.03493,2.0841479301452637,-8.898906707763672,-1.5337989330291748,-1.91246497631073,0.657060980796814,-0.6627879738807678
2024-09-23 23:36:57.252821,0,0.034982,2.4251251220703125,-10.414161682128906,-2.2259230613708496,-0.9447020292282104,0.5335900187492371,-0.3067300021648407
2024-09-23 23:36:57.296731,0,0.035033,2.715852975845337,-8.534001350402832,-2.7367899417877197,-0.6676750183105469,0.6272050142288208,-0.4394409954547882
2024-09-23 23:36:57.340742,0,0.035033,2.967698097229004,-9.650851249694824,-1.716252088546753,1.0596979856491089,0.6272050142288208,-0.4394409954547882
2024-09-23 23:36:57.384601,0,0.035135,3.6699910163879395,-8.318049430847168,1.0683950185775757,2.501797914505005,0.7376949787139893,-1.63795804977417
2024-09-23 23:36:57.428622,0,0.035186,3.448056936264038,-7.214958190917969,3.452842950820923,2.501797914505005,-0.010919000022113323,-1.5504519939422607
2024-09-23 23:36:57.472359,0,0.035237,3.5910279750823975,-5.640480995178223,5.185245990753174,2.501797914505005,-0.05413699895143509,-1.2673150300979614
2024-09-23 23:36:57.516029,0,0.035237,4.817349910736084,-6.250649929046631,7.197609901428223,1.5464050769805908,-0.05413699895143509,-1.2673150300979614
2024-09-23 23:36:57.527799,0,0.035288,4.817349910736084,-6.250649929046631,7.197609901428223,1.5464050769805908,0.1326330006122589,-0.9456949830055237
2024-09-23 23:36:57.650335,0,0.035288,4.950150966644287,-4.609173774719238,7.096512794494629,1.5464050769805908,0.1326330006122589,-0.9456949830055237
2024-09-23 23:36:57.661123,0,0.03539,4.48714017868042,-3.6179471015930176,6.586244106292725,2.1465799808502197,0.9698240160942078,-0.5837569832801819
2024-09-23 23:36:57.694675,0,0.03539,3.6352949142456055,-3.6179471015930176,6.586244106292725,2.1465799808502197,0.9698240160942078,-0.5837569832801819
2024-09-23 23:36:57.705734,0,0.035441,3.6352949142456055,-2.4729819297790527,6.057429790496826,1.692249059677124,1.936824083328247,-0.9550870060920715
2024-09-23 23:36:57.739706,0,0.035441,3.093919038772583,-0.6340969800949097,6.057429790496826,1.692249059677124,1.936824083328247,-0.9550870060920715
2024-09-23 23:36:57.750009,0,0.035492,3.093919038772583,-0.6340969800949097,8.61475944519043,1.6604070663452148,0.9430990219116211,-0.8635339736938477
2024-09-23 23:36:57.793949,0,0.035543,2.410170078277588,-0.32961100339889526,7.69412088394165,0.7585409879684448,0.6049090027809143,-0.2888619899749756
2024-09-23 23:36:57.837511,0,0.035594,2.9383859634399414,-1.9639089107513428,9.93320369720459,-0.10522100329399109,0.8220710158348083,-0.2110529989004135
2024-09-23 23:36:57.881249,0,0.035594,2.061415910720825,-0.6849449872970581,9.93320369720459,-0.10522100329399109,0.8220710158348083,-0.2110529989004135
2024-09-23 23:36:57.970490,0,0.035644,2.18943190574646,-0.6849449872970581,8.03988265991211,-0.3955349922180176,0.1699730008840561,0.20754100382328033
2024-09-23 23:36:58.014698,0,0.035695,2.471187114715576,-1.6277170181274414,9.894919395446777,-0.9622650146484375,0.35483598709106445,0.8985819816589355
2024-09-23 23:36:58.026053,0,0.035746,2.471187114715576,-1.6277170181274414,9.894919395446777,-0.5657370090484619,0.33696800470352173,1.2020289897918701
2024-09-23 23:36:58.058966,0,0.035797,1.7754740715026855,-3.330209970474243,11.869596481323242,0.5199980139732361,1.262963056564331,1.9530119895935059
2024-09-23 23:36:58.102101,0,0.035848,0.616150975227356,-1.9920239448547363,10.377073287963867,0.24006900191307068,0.6032289862632751,1.8587089776992798
2024-09-23 23:36:58.146075,0,0.035848,-0.7387830018997192,-1.9920239448547363,10.377073287963867,0.24006900191307068,0.6032289862632751,1.8587089776992798
2024-09-23 23:36:58.157323,0,0.035899,-0.7387830018997192,-0.4462609887123108,6.21535587310791,0.8353580236434937,0.22548499703407288,2.0036370754241943
2024-09-23 23:36:58.190254,0,0.035899,-0.7531399726867676,-2.8067798614501953,14.870794296264648,0.8353580236434937,0.22548499703407288,2.0036370754241943
2024-09-23 23:36:58.201322,0,0.03595,-0.7531399726867676,-2.8067798614501953,14.870794296264648,0.8659769892692566,1.8671090602874756,1.6035969257354736
2024-09-23 23:36:58.234662,0,0.03595,-2.230708122253418,0.22671900689601898,14.870794296264648,0.8659769892692566,1.8671090602874756,1.6035969257354736
2024-09-23 23:36:58.246085,0,0.03595,-2.230708122253418,0.22671900689601898,7.204189777374268,-0.34712401032447815,1.8671090602874756,1.6035969257354736
2024-09-23 23:36:58.278821,0,0.03595,-2.230708122253418,0.22671900689601898,7.204189777374268,-0.34712401032447815,0.9151520133018494,1.6035969257354736
2024-09-23 23:36:58.289837,0,0.036052,-0.8464599847793579,-0.6023929715156555,10.940583229064941,1.4928009510040283,2.043571949005127,2.134208917617798
2024-09-23 23:36:58.379000,0,0.036102,-3.1292130947113037,-0.8237289786338806,9.199804306030273,-2.445215940475464,-0.37766700983047485,-0.2551119923591614
2024-09-23 23:36:58.413279,0,0.036102,-7.360919952392578,-1.8801599740982056,9.199804306030273,-2.445215940475464,-0.37766700983047485,-0.2551119923591614
2024-09-23 23:36:58.424508,0,0.036153,-7.360919952392578,-1.8801599740982056,19.599609375,1.2509750127792358,-0.15569399297237396,0.7648029923439026
2024-09-23 23:36:58.458594,0,0.036153,-2.980259895324707,-1.8801599740982056,19.599609375,1.2509750127792358,-0.15569399297237396,0.7648029923439026
2024-09-23 23:36:58.469719,0,0.036204,-2.980259895324707,0.5036889910697937,9.093921661376953,1.3781869411468506,-0.30062100291252136,1.0878740549087524
2024-09-23 23:36:58.558649,0,0.036306,-0.2249249964952469,-1.4488539695739746,11.395816802978516,-0.7734310030937195,-0.43547001481056213,0.08208400011062622
2024-09-23 23:36:58.603607,0,0.036357,-2.168494939804077,-0.8632100224494934,9.776473999023438,-0.49747300148010254,-0.3533090054988861,0.04970899969339371
2024-09-23 23:36:58.647912,0,0.036408,-0.7040879726409912,-1.6683950424194336,9.288936614990234,0.03611699864268303,-0.5266410112380981,-0.3815610110759735
2024-09-23 23:36:58.692396,0,0.036459,-2.556730031967163,-1.1012959480285645,9.32901668548584,-0.17951700091362,-0.8588759899139404,-0.4208090007305145
2024-09-23 23:36:58.780263,0,0.03651,-1.1868400573730469,-0.8721830248832703,9.343374252319336,-0.9359980225563049,-0.9129369854927063,-0.20845699310302734
2024-09-23 23:36:58.868256,0,0.036561,-1.8430709838867188,-1.8227319717407227,9.273383140563965,-0.679282009601593,-0.6185770034790039,-0.13370299339294434
2024-09-23 23:36:58.912164,0,0.036561,-1.1599199771881104,-1.8173480033874512,9.30209732055664,0.03191699832677841,0.21907100081443787,-0.13370299339294434
2024-09-23 23:36:58.923189,0,0.036662,-0.9900299906730652,-2.4346959590911865,9.568299293518066,-0.19020800292491913,-0.0897969976067543,-0.07177600264549255
2024-09-23 23:36:58.956069,0,0.036713,-0.9224330186843872,-2.041675090789795,9.214160919189453,-0.28786998987197876,-0.18073900043964386,-0.10331200063228607
2024-09-23 23:36:58.999833,0,0.036713,-1.1557329893112183,-2.0195419788360596,9.214160919189453,-0.28786998987197876,-0.18073900043964386,-0.10331200063228607
2024-09-23 23:36:59.011136,0,0.036764,-1.1557329893112183,-2.0195419788360596,9.191429138183594,-0.012292999774217606,-0.10720600187778473,0.04864000156521797
2024-09-23 23:36:59.044313,0,0.036764,-0.9930210113525391,-2.0195419788360596,9.191429138183594,-0.012292999774217606,-0.10720600187778473,0.04864000156521797
2024-09-23 23:36:59.055457,0,0.036815,-0.9930210113525391,-2.0871388912200928,9.276374816894531,-0.03161200135946274,-0.035353001207113266,0.0022140000946819782
2024-09-23 23:36:59.144328,0,0.036815,-0.9894319772720337,-2.118246078491211,9.305686950683594,-0.049479998648166656,-0.035353001207113266,0.0022140000946819782
2024-09-23 23:36:59.189203,0,0.036815,-0.9894319772720337,-2.118246078491211,9.305686950683594,-0.049479998648166656,-0.019852999597787857,0.01626400090754032
2024-09-23 23:36:59.233949,0,0.036866,-0.9894319772720337,-2.118246078491211,9.305686950683594,-0.049479998648166656,-0.019852999597787857,0.01626400090754032
2024-09-23 23:36:59.277153,0,0.036968,-0.9984049797058105,-2.1427719593048096,9.272187232971191,-0.017409000545740128,-0.02237199991941452,0.019241999834775925
2024-09-23 23:36:59.288666,0,0.036968,-1.0133600234985352,-2.1672990322113037,9.272187232971191,-0.017409000545740128,-0.02237199991941452,0.019241999834775925
2024-09-23 23:36:59.320670,0,0.037069,-0.9744769930839539,-2.2462620735168457,9.281758308410645,-0.05062500014901161,-0.012292999774217606,0.014659999869763851
2024-09-23 23:36:59.364626,0,0.03712,-1.0103689432144165,-2.2420740127563477,9.2919282913208,-0.03252800181508064,-0.008856999687850475,0.012292999774217606
2024-09-23 23:36:59.452378,0,0.03712,-0.9924229979515076,-2.216949939727783,9.276972770690918,-0.004581000190228224,-0.018936000764369965,0.01802000030875206
2024-09-23 23:36:59.463525,0,0.037222,-0.9984049797058105,-2.204986095428467,9.299105644226074,0.027869999408721924,-0.027869999408721924,0.016340000554919243
2024-09-23 23:36:59.540190,0,0.037222,-1.0438679456710815,-2.2504489421844482,9.101099967956543,0.027869999408721924,-0.027869999408721924,0.016340000554919243
2024-09-23 23:36:59.551387,0,0.037272,-1.0438679456710815,-2.2504489421844482,9.101099967956543,0.013515000231564045,-0.030618999153375626,0.01626400090754032
2024-09-23 23:36:59.585108,0,0.037272,-0.9810569882392883,-2.213360071182251,9.270991325378418,0.013515000231564045,-0.030618999153375626,0.01626400090754032
2024-09-23 23:36:59.596582,0,0.037323,-0.9810569882392883,-2.213360071182251,9.270991325378418,0.008245999924838543,-0.026572000235319138,0.023593999445438385
2024-09-23 23:36:59.674652,0,0.037323,-0.9984049797058105,-2.213360071182251,9.270991325378418,0.008245999924838543,-0.026572000235319138,0.023593999445438385
2024-09-23 23:36:59.685270,0,0.037425,-0.9966099858283997,-2.2277169227600098,9.245267868041992,0.005268000066280365,-0.023670999333262444,0.02489200048148632
2024-09-23 23:36:59.818968,0,0.037425,-0.9894319772720337,-2.2354938983917236,9.278168678283691,-0.00030499999411404133,-0.023670999333262444,0.02489200048148632
2024-09-23 23:36:59.861941,0,0.037527,-0.9678959846496582,-2.2157530784606934,9.29491901397705,0.009239000268280506,-0.026114000007510185,0.022830000147223473
2024-09-23 23:36:59.905310,0,0.037628,-1.0121630430221558,-2.231307029724121,9.271589279174805,0.012521999888122082,-0.025731999427080154,0.022220000624656677
2024-09-23 23:36:59.948604,0,0.037681,-1.004984974861145,-2.2247259616851807,9.270392417907715,0.01809599995613098,-0.0248160008341074,0.023670999333262444
2024-09-23 23:36:59.992671,0,0.037681,-1.053439974784851,-2.236690044403076,9.305686950683594,0.013744000345468521,-0.02733599953353405,0.023670999333262444
2024-09-23 23:37:00.003930,0,0.037732,-1.053439974784851,-2.236690044403076,9.305686950683594,0.013744000345468521,-0.02733599953353405,0.02267800085246563
2024-09-23 23:37:00.036543,0,0.037732,-0.9888330101966858,-2.2115659713745117,9.276374816894531,0.011223999783396721,-0.02733599953353405,0.02267800085246563
2024-09-23 23:37:00.080419,0,0.037732,-0.9888330101966858,-2.2115659713745117,9.276374816894531,0.011223999783396721,-0.02290700003504753,0.028862999752163887
2024-09-23 23:37:00.091544,0,0.037834,-1.0097709894180298,-2.2331008911132812,9.267999649047852,0.0111480001360178,-0.0248160008341074,0.02061600051820278
2024-09-23 23:37:00.125034,0,0.037834,-0.9750750064849854,-2.23429799079895,9.267999649047852,0.0111480001360178,-0.0248160008341074,0.02061600051820278
2024-09-23 23:37:00.136318,0,0.037885,-0.9750750064849854,-2.23429799079895,9.30807876586914,0.014201999641954899,-0.023747000843286514,0.02290700003504753
2024-09-23 23:37:00.169471,0,0.037885,-0.9960119724273682,-2.2450649738311768,9.30807876586914,0.014201999641954899,-0.023747000843286514,0.02290700003504753
2024-09-23 23:37:00.180668,0,0.037935,-0.9960119724273682,-2.2450649738311768,9.32303524017334,0.0197759997099638,-0.02725899964570999,0.0197759997099638
2024-09-23 23:37:00.214464,0,0.037935,-0.9978070259094238,-2.1948161125183105,9.32303524017334,0.0197759997099638,-0.02725899964570999,0.0197759997099638
2024-09-23 23:37:00.225714,0,0.037986,-0.9978070259094238,-2.1948161125183105,9.265606880187988,0.03153499960899353,-0.026189999654889107,0.016875000670552254
2024-09-23 23:37:00.358894,0,0.038089,-0.9906280040740967,-2.1870388984680176,9.287141799926758,0.03947699815034866,-0.026114000007510185,0.026496000587940216
2024-09-23 23:37:00.403733,0,0.038139,-1.0121630430221558,-2.214556932449341,9.30209732055664,0.016493000090122223,-0.024739999324083328,0.026724999770522118
2024-09-23 23:37:00.448014,0,0.03819,-1.0169490575790405,-2.2085750102996826,9.250053405761719,-0.02000500075519085,-0.020082000643014908,0.02260199934244156
2024-09-23 23:37:00.492235,0,0.038241,-1.01814603805542,-2.2372889518737793,9.275775909423828,-0.008399000391364098,-0.021761000156402588,0.021531999111175537
2024-09-23 23:37:00.536633,0,0.038292,-1.0133600234985352,-2.225325107574463,9.315855979919434,0.011377000249922276,-0.025655999779701233,0.023517999798059464
2024-09-23 23:37:00.580436,0,0.038343,-0.9930210113525391,-2.2247259616851807,9.315855979919434,0.014813000336289406,-0.023365000262856483,0.021531999111175537
2024-09-23 23:37:00.669070,0,0.038394,-0.9912260174751282,-2.247457981109619,9.340980529785156,0.014659999869763851,-0.0250450000166893,0.023670999333262444
2024-09-23 23:37:00.712589,0,0.038445,-1.0438679456710815,-2.207977056503296,9.29491901397705,0.006947999820113182,-0.024739999324083328,0.025120999664068222
2024-09-23 23:37:00.756405,0,0.038445,-1.0067800283432007,-2.2462620735168457,9.270392417907715,0.022066999226808548,-0.022830000147223473,0.02305999957025051
2024-09-23 23:37:00.767647,0,0.038496,-1.0067800283432007,-2.2462620735168457,9.270392417907715,0.022066999226808548,-0.022830000147223473,0.02305999957025051
2024-09-23 23:37:00.800234,0,0.038496,-1.054636001586914,-2.2420740127563477,9.364311218261719,0.016798000782728195,-0.024281000718474388,0.02305999957025051
2024-09-23 23:37:00.811622,0,0.038547,-1.054636001586914,-2.2420740127563477,9.364311218261719,0.016798000782728195,-0.024281000718474388,0.024739999324083328
2024-09-23 23:37:00.844601,0,0.038547,-0.9954140186309814,-2.2468600273132324,9.188438415527344,0.016798000782728195,-0.024281000718474388,0.024739999324083328
2024-09-23 23:37:00.855929,0,0.038598,-0.9954140186309814,-2.2468600273132324,9.188438415527344,0.003894000081345439,-0.024434000253677368,0.028404999524354935
2024-09-23 23:37:00.888771,0,0.038598,-1.0193419456481934,-2.276171922683716,9.188438415527344,0.003894000081345439,-0.024434000253677368,0.028404999524354935
2024-09-23 23:37:00.900005,0,0.038649,-1.0193419456481934,-2.276171922683716,9.259027481079102,-0.01817299984395504,-0.02466299943625927,0.025655999779701233
2024-09-23 23:37:00.933806,0,0.038649,-1.000797986984253,-2.2402799129486084,9.259027481079102,-0.01817299984395504,-0.02466299943625927,0.025655999779701233
2024-09-23 23:37:00.944949,0,0.0387,-1.000797986984253,-2.2402799129486084,9.251848220825195,-0.0025190000887960196,-0.023135999217629433,0.025120999664068222
2024-09-23 23:37:00.989291,0,0.038751,-1.3417749404907227,-2.1152548789978027,9.007780075073242,0.26236599683761597,0.04314199835062027,0.12003400176763535
