Ayaan's Suite
Timestamp,Sample Rate (Hz),Time,Ax,Ay,Az,Gx,Gy,Gz
2024-09-27 23:18:37.163830,0,1.705302,-0.08614099770784378,0.02691899985074997,-9.887741088867188,0.0068720001727342606,-0.02000500075519085,0.0016789999790489674
2024-09-27 23:18:37.175247,0,1.705302,-0.08614099770784378,0.07298099994659424,-9.887741088867188,0.0068720001727342606,-0.02000500075519085,0.0016789999790489674
2024-09-27 23:18:37.219617,0,1.705302,-0.08614099770784378,0.07298099994659424,-9.859624862670898,0.00572599982842803,-0.01779099926352501,0.0011449999874457717
2024-09-27 23:18:37.231209,0,1.713137,-0.058024998754262924,0.07298099994659424,-9.859624862670898,0.00572599982842803,-0.01779099926352501,0.0011449999874457717
2024-09-27 23:18:37.262638,0,1.713137,-0.058024998754262924,0.10588199645280838,-9.833902359008789,0.006947999820113182,-0.01779099926352501,0.0011449999874457717
2024-09-27 23:18:37.274379,0,1.713188,-0.058024998754262924,0.10588199645280838,-9.833902359008789,0.006947999820113182,-0.019547000527381897,0.0022140000946819782
2024-09-27 23:18:37.306789,0,1.713188,-0.07776600122451782,0.10588199645280838,-9.833902359008789,0.006947999820113182,-0.019547000527381897,0.0022140000946819782
2024-09-27 23:18:37.318100,0,1.713188,-0.07776600122451782,0.09212300181388855,-9.862615585327148,0.006031999830156565,-0.018706999719142914,0.0024429999757558107
2024-09-27 23:18:37.360482,0,1.713239,-0.06101600080728531,0.0825520008802414,-9.829116821289062,0.005497000180184841,-0.018706999719142914,0.0024429999757558107
2024-09-27 23:18:37.371867,0,1.713239,-0.06101600080728531,0.0825520008802414,-9.829116821289062,0.005497000180184841,-0.01794400066137314,0.0024429999757558107
2024-09-27 23:18:37.403000,10.78,1.713239,-0.06101600080728531,0.0825520008802414,-9.829116821289062,0.005497000180184841,-0.01794400066137314,0.0012209999840706587
2024-09-27 23:18:37.414482,10.78,1.713289,-0.11186400055885315,0.06580200046300888,-9.824331283569336,0.007329999934881926,-0.01794400066137314,0.0012209999840706587
2024-09-27 23:18:37.456691,10.78,1.71334,-0.0843459963798523,0.06580200046300888,-9.824331283569336,0.007329999934881926,-0.018478000536561012,0.0003809999907389283
2024-09-27 23:18:37.469163,10.78,1.71334,-0.0843459963798523,0.06400799751281738,-9.863812446594238,0.007329999934881926,-0.018478000536561012,0.0003809999907389283
2024-09-27 23:18:37.512813,10.78,1.713391,-0.08913200348615646,0.07537300139665604,-9.863812446594238,0.007023999933153391,-0.019471000880002975,0.0006099999882280827
2024-09-27 23:18:37.558647,10.78,1.713441,-0.08913200348615646,0.07537300139665604,-9.898508071899414,0.004656999837607145,-0.01840200088918209,-0.0003809999907389283
2024-09-27 23:18:37.570415,10.78,1.713441,-0.09870299696922302,0.07537300139665604,-9.898508071899414,0.004656999837607145,-0.01840200088918209,-0.0003809999907389283
2024-09-27 23:18:37.603565,10.78,1.713441,-0.09870299696922302,0.08075699955224991,-9.800402641296387,0.006490000057965517,-0.018324999138712883,-0.0004579999949783087
2024-09-27 23:18:37.615720,10.78,1.713492,-0.09870299696922302,0.08075699955224991,-9.800402641296387,0.006490000057965517,-0.018324999138712883,-0.0004579999949783087
2024-09-27 23:18:37.648163,10.78,1.713492,-0.07597199827432632,0.06879299879074097,-9.800402641296387,0.006490000057965517,-0.018324999138712883,-0.0004579999949783087
2024-09-27 23:18:37.659681,10.78,1.713492,-0.07597199827432632,0.06879299879074097,-9.82552719116211,0.007941000163555145,-0.018859999254345894,0.0004579999949783087
2024-09-27 23:18:37.752206,10.78,1.713543,-0.06699900329113007,0.06041799858212471,-9.842276573181152,0.00572599982842803,-0.01840200088918209,0.0004579999949783087
2024-09-27 23:18:37.793865,10.78,1.713543,-0.06699900329113007,0.06041799858212471,-9.842276573181152,0.00572599982842803,-0.01840200088918209,0.0009159999899566174
2024-09-27 23:18:37.805643,10.78,1.713594,-0.09032899886369705,0.08793599903583527,-9.870990753173828,0.007941000163555145,-0.01840200088918209,0.0009159999899566174
2024-09-27 23:18:37.847416,10.78,1.713644,-0.0634090006351471,0.04366900026798248,-9.870990753173828,0.007941000163555145,-0.018706999719142914,0.001449999981559813
2024-09-27 23:18:37.859342,10.78,1.713644,-0.0634090006351471,0.04366900026798248,-9.867402076721191,0.007941000163555145,-0.018706999719142914,0.001449999981559813
2024-09-27 23:18:37.891727,10.78,1.713644,-0.0634090006351471,0.04366900026798248,-9.867402076721191,0.006719000171869993,-0.017562000080943108,0.001449999981559813
2024-09-27 23:18:37.903467,10.78,1.713695,-0.07178399711847305,0.10707800090312958,-9.867402076721191,0.006719000171869993,-0.017562000080943108,-0.0011449999874457717
2024-09-27 23:18:37.945593,10.78,1.713746,-0.07178399711847305,0.10707800090312958,-9.853044509887695,0.0034360000863671303,-0.01748500019311905,0.0004579999949783087
2024-09-27 23:18:37.956733,10.78,1.713746,-0.1214350014925003,0.10707800090312958,-9.853044509887695,0.0034360000863671303,-0.01748500019311905,0.0004579999949783087
2024-09-27 23:18:37.989862,10.78,1.713746,-0.1214350014925003,0.07716800272464752,-9.841080665588379,0.0034360000863671303,-0.01748500019311905,0.0004579999949783087
2024-09-27 23:18:38.000951,10.78,1.713845,-0.1214350014925003,0.07716800272464752,-9.841080665588379,0.006947999820113182,-0.019317999482154846,0.00076299998909235
2024-09-27 23:18:38.043287,10.78,1.713845,-0.08673900365829468,0.0412760004401207,-9.847661018371582,0.005038999952375889,-0.018478000536561012,0.0011449999874457717
2024-09-27 23:18:38.085350,10.78,1.713897,-0.08673900365829468,0.0412760004401207,-9.847661018371582,0.005038999952375889,-0.018478000536561012,0.0011449999874457717
2024-09-27 23:18:38.096716,10.78,1.713897,-0.0831499993801117,0.08793599903583527,-9.857830047607422,0.005878999829292297,-0.019241999834775925,0.0011449999874457717
2024-09-27 23:18:38.138611,10.78,1.713948,-0.08673900365829468,0.08853399753570557,-9.857830047607422,0.005878999829292297,-0.019241999834775925,-0.0004579999949783087
2024-09-27 23:18:38.151217,10.78,1.713948,-0.08673900365829468,0.08853399753570557,-9.850053787231445,0.006031999830156565,-0.019241999834775925,-0.0004579999949783087
2024-09-27 23:18:38.184220,10.78,1.713948,-0.08673900365829468,0.08853399753570557,-9.850053787231445,0.006031999830156565,-0.01809599995613098,-0.0004579999949783087
2024-09-27 23:18:38.195951,10.78,1.713998,-0.09511400014162064,0.07776600122451782,-9.842874526977539,0.006031999830156565,-0.01809599995613098,-0.0009919999865815043
2024-09-27 23:18:38.238353,10.78,1.714049,-0.10707800090312958,0.03948099911212921,-9.842874526977539,0.006184000056236982,-0.018783999606966972,0.0010689999908208847
2024-09-27 23:18:38.280368,10.78,1.714049,-0.10707800090312958,0.03948099911212921,-9.842276573181152,0.006184000056236982,-0.018783999606966972,0.0010689999908208847
2024-09-27 23:18:38.291750,10.78,1.7141,-0.09690900146961212,0.03948099911212921,-9.842276573181152,0.006719000171869993,-0.01809599995613098,-7.599999662488699e-05
2024-09-27 23:18:38.334694,10.78,1.7141,-0.09690900146961212,0.0819540023803711,-9.853044509887695,0.0055740000680089,-0.017409000545740128,0.0024429999757558107
2024-09-27 23:18:38.346156,10.78,1.714186,-0.09690900146961212,0.0819540023803711,-9.853044509887695,0.0055740000680089,-0.017409000545740128,0.0024429999757558107
2024-09-27 23:18:38.377805,10.78,1.714186,-0.08673900365829468,0.0819540023803711,-9.853044509887695,0.0055740000680089,-0.017409000545740128,0.0024429999757558107
2024-09-27 23:18:38.431810,22.4,1.714186,-0.08673900365829468,0.07776600122451782,-9.840481758117676,0.0055740000680089,-0.017409000545740128,0.0024429999757558107
2024-09-27 23:18:38.442922,22.4,1.714238,-0.08673900365829468,0.07776600122451782,-9.840481758117676,0.007559000048786402,-0.01809599995613098,0.0005339999916031957
2024-09-27 23:18:38.475746,22.4,1.714238,-0.06819500029087067,0.07776600122451782,-9.840481758117676,0.007559000048786402,-0.01809599995613098,0.0005339999916031957
2024-09-27 23:18:38.487199,22.4,1.714238,-0.06819500029087067,0.05144499987363815,-9.801000595092773,0.007253000047057867,-0.01794400066137314,-0.0004579999949783087
2024-09-27 23:18:38.529462,22.4,1.714289,-0.05264199897646904,0.08015900105237961,-9.851249694824219,0.007253000047057867,-0.01794400066137314,-0.0004579999949783087
2024-09-27 23:18:38.541779,22.4,1.714289,-0.05264199897646904,0.08015900105237961,-9.851249694824219,0.00633700005710125,-0.02015800029039383,-0.0004579999949783087
2024-09-27 23:18:38.573506,22.4,1.714289,-0.05264199897646904,0.08015900105237961,-9.851249694824219,0.00633700005710125,-0.02015800029039383,0.000838999985717237
2024-09-27 23:18:38.585304,22.4,1.714339,-0.08614099770784378,0.1016940027475357,-9.829116821289062,0.005191999953240156,-0.02015800029039383,0.000838999985717237
2024-09-27 23:18:38.628988,22.4,1.71439,-0.09032899886369705,0.04785599932074547,-9.829116821289062,0.005191999953240156,-0.019241999834775925,0.001297999988310039
2024-09-27 23:18:38.640882,22.4,1.71439,-0.09032899886369705,0.04785599932074547,-9.849455833435059,0.005191999953240156,-0.019241999834775925,0.001297999988310039
2024-09-27 23:18:38.673408,22.4,1.71439,-0.09032899886369705,0.04785599932074547,-9.849455833435059,0.005268000066280365,-0.01817299984395504,0.0003809999907389283
2024-09-27 23:18:38.685147,22.4,1.714481,-0.056829001754522324,0.0825520008802414,-9.849455833435059,0.005268000066280365,-0.01817299984395504,0.0003809999907389283
2024-09-27 23:18:38.726992,22.4,1.714532,-0.07716800272464752,0.0825520008802414,-9.852446556091309,0.004734000191092491,-0.01802000030875206,-0.00076299998909235
2024-09-27 23:18:38.769688,22.4,1.714532,-0.07716800272464752,0.04905200004577637,-9.870392799377441,0.004734000191092491,-0.01802000030875206,-0.00076299998909235
2024-09-27 23:18:38.780762,22.4,1.714625,-0.07716800272464752,0.04905200004577637,-9.870392799377441,0.007176999934017658,-0.01786700077354908,0.001373999984934926
2024-09-27 23:18:38.822253,22.4,1.714625,-0.07776600122451782,0.062212999910116196,-9.864411354064941,0.007253000047057867,-0.01779099926352501,0.001373999984934926
2024-09-27 23:18:38.833811,22.4,1.714625,-0.07776600122451782,0.062212999910116196,-9.864411354064941,0.007253000047057867,-0.01779099926352501,0.000686999992467463
2024-09-27 23:18:38.865494,22.4,1.714677,-0.07776600122451782,0.062212999910116196,-9.864411354064941,0.007253000047057867,-0.01779099926352501,0.000686999992467463
2024-09-27 23:18:38.876691,22.4,1.714677,-0.13758699595928192,0.08015900105237961,-9.841678619384766,0.007253000047057867,-0.01786700077354908,0.000686999992467463
2024-09-27 23:18:38.918714,22.4,1.714727,-0.09032899886369705,0.08673900365829468,-9.841678619384766,0.007253000047057867,-0.01786700077354908,0.001297999988310039
2024-09-27 23:18:38.931073,22.4,1.714727,-0.09032899886369705,0.08673900365829468,-9.856036186218262,0.006566000171005726,-0.01786700077354908,0.001297999988310039
2024-09-27 23:18:38.973289,22.4,1.714778,-0.07357899844646454,0.10767699778079987,-9.865607261657715,0.006566000171005726,-0.019852999597787857,0.0012209999840706587
2024-09-27 23:18:39.015223,22.4,1.714778,-0.07357899844646454,0.10767699778079987,-9.865607261657715,0.004581000190228224,-0.017255999147892,0.0016789999790489674
2024-09-27 23:18:39.026186,22.4,1.714829,-0.05922200158238411,0.06939099729061127,-9.865607261657715,0.004581000190228224,-0.017255999147892,0.0016789999790489674
2024-09-27 23:18:39.068548,22.4,1.71488,-0.07238200306892395,0.06939099729061127,-9.844670295715332,0.007253000047057867,-0.016875000670552254,0.001297999988310039
2024-09-27 23:18:39.111318,22.4,1.71488,-0.07238200306892395,0.061615001410245895,-9.81416130065918,0.007253000047057867,-0.016875000670552254,0.001297999988310039
2024-09-27 23:18:39.122538,22.4,1.714967,-0.07238200306892395,0.061615001410245895,-9.81416130065918,0.005497000180184841,-0.019471000880002975,0.0005339999916031957
2024-09-27 23:18:39.164851,22.4,1.714967,0.024526000022888184,0.0059819999150931835,-10.354939460754395,0.014278000220656395,-0.015194999985396862,-7.599999662488699e-05
2024-09-27 23:18:39.206545,22.4,1.715018,0.024526000022888184,0.0059819999150931835,-10.354939460754395,0.014278000220656395,-0.015194999985396862,-7.599999662488699e-05
2024-09-27 23:18:39.217507,22.4,1.715018,-0.11784599721431732,0.1226319968700409,-10.221538543701172,0.004505000077188015,-0.01992899924516678,-7.599999662488699e-05
2024-09-27 23:18:39.259692,22.4,1.715069,-0.08554299920797348,0.035891998559236526,-10.221538543701172,0.004505000077188015,-0.01992899924516678,7.599999662488699e-05
2024-09-27 23:18:39.270559,22.4,1.715069,-0.08554299920797348,0.035891998559236526,-9.742377281188965,0.003283000085502863,-0.01992899924516678,7.599999662488699e-05
2024-09-27 23:18:39.314788,22.4,1.715069,-0.08554299920797348,0.035891998559236526,-9.742377281188965,0.003283000085502863,-0.020082000643014908,7.599999662488699e-05
2024-09-27 23:18:39.357039,22.4,1.715069,-0.08554299920797348,0.035891998559236526,-9.742377281188965,0.003283000085502863,-0.020082000643014908,-0.0005339999916031957
2024-09-27 23:18:39.409669,22.4,1.715119,-0.08554299920797348,0.035891998559236526,-9.742377281188965,0.003283000085502863,-0.020082000643014908,-0.0005339999916031957
2024-09-27 23:18:39.453284,26.35,1.715119,-0.10588199645280838,0.08853399753570557,-9.742377281188965,0.003283000085502863,-0.020082000643014908,-0.0005339999916031957
2024-09-27 23:18:39.464174,26.35,1.715119,-0.10588199645280838,0.08853399753570557,-9.92183780670166,0.007864000275731087,-0.017562000080943108,0.0010689999908208847
2024-09-27 23:18:39.505998,26.35,1.71517,-0.08853399753570557,0.03409700095653534,-9.757331848144531,0.006490000057965517,-0.017714999616146088,0.0010689999908208847
2024-09-27 23:18:39.547795,26.35,1.71517,-0.08853399753570557,0.03409700095653534,-9.757331848144531,0.006490000057965517,-0.017714999616146088,0.001373999984934926
2024-09-27 23:18:39.558743,26.35,1.715221,-0.05922200158238411,0.050248999148607254,-9.933802604675293,0.007406000047922134,-0.017714999616146088,0.001373999984934926
2024-09-27 23:18:39.600847,26.35,1.715308,-0.09511400014162064,0.050248999148607254,-9.933802604675293,0.007406000047922134,-0.019471000880002975,0.000686999992467463
2024-09-27 23:18:39.611795,26.35,1.715308,-0.09511400014162064,0.06041799858212471,-9.860222816467285,0.007406000047922134,-0.019471000880002975,0.000686999992467463
2024-09-27 23:18:39.653533,26.35,1.715405,-0.017347000539302826,0.07058800011873245,-9.860222816467285,0.0076350001618266106,-0.01817299984395504,0.0021379999816417694
2024-09-27 23:18:39.695950,26.35,1.715405,-0.017347000539302826,0.07058800011873245,-9.800402641296387,0.006947999820113182,-0.01817299984395504,0.0021379999816417694
2024-09-27 23:18:39.707598,26.35,1.715505,-0.21355900168418884,0.07058800011873245,-9.800402641296387,0.006947999820113182,-0.019089000299572945,0.0023670000955462456
2024-09-27 23:18:39.749848,26.35,1.715505,-0.21355900168418884,0.05144499987363815,-10.04447078704834,0.006947999820113182,-0.019089000299572945,0.0023670000955462456
2024-09-27 23:18:39.802975,26.35,1.7156,-0.12023899704217911,0.10887300223112106,-10.04447078704834,0.007941000163555145,-0.0022899999748915434,0.001984999980777502
2024-09-27 23:18:39.845908,26.35,1.7156,-0.12023899704217911,0.10887300223112106,-9.849455833435059,0.007788000162690878,-0.016416000202298164,0.001984999980777502
2024-09-27 23:18:39.857198,26.35,1.715652,-0.08494500070810318,0.10887300223112106,-9.849455833435059,0.007788000162690878,-0.016416000202298164,0.0005339999916031957
2024-09-27 23:18:39.900294,26.35,1.715703,-0.08494500070810318,0.037087999284267426,-10.068399429321289,0.003206999972462654,-0.019164999946951866,0.00076299998909235
2024-09-27 23:18:39.944106,26.35,1.715703,-0.1405780017375946,0.07477500289678574,-9.556933403015137,0.003206999972462654,-0.019164999946951866,0.00076299998909235
2024-09-27 23:18:39.955765,26.35,1.715703,-0.1405780017375946,0.07477500289678574,-9.556933403015137,0.006413999944925308,-0.019393999129533768,0.0023670000955462456
2024-09-27 23:18:39.987432,26.35,1.715753,-0.1405780017375946,0.07477500289678574,-9.556933403015137,0.006413999944925308,-0.019393999129533768,0.0023670000955462456
2024-09-27 23:18:39.999168,26.35,1.715753,-0.04785599932074547,0.08913200348615646,-10.01635456085205,0.0061079999431967735,-0.018783999606966972,0.0023670000955462456
2024-09-27 23:18:40.041364,26.35,1.715845,-0.07656999677419662,0.04486500099301338,-10.01635456085205,0.0061079999431967735,-0.018783999606966972,0.001449999981559813
2024-09-27 23:18:40.052559,26.35,1.715845,-0.07656999677419662,0.04486500099301338,-9.736394882202148,0.007253000047057867,-0.018783999606966972,0.001449999981559813
2024-09-27 23:18:40.094984,26.35,1.715896,-0.08733800053596497,0.11844400316476822,-9.875178337097168,0.007253000047057867,-0.01779099926352501,0.00015199999324977398
2024-09-27 23:18:40.137332,26.35,1.715896,-0.08733800053596497,0.11844400316476822,-9.875178337097168,0.0055740000680089,-0.018554000183939934,0.001297999988310039
2024-09-27 23:18:40.148890,26.35,1.715947,-0.08494500070810318,0.08015900105237961,-9.875178337097168,0.0055740000680089,-0.018554000183939934,0.001297999988310039
2024-09-27 23:18:40.191363,26.35,1.715998,-0.07118599861860275,0.08015900105237961,-9.754341125488281,0.005954999942332506,-0.017409000545740128,0.0017559999832883477
2024-09-27 23:18:40.235065,26.35,1.715998,-0.07118599861860275,0.07836399972438812,-9.835099220275879,0.005954999942332506,-0.017409000545740128,0.0017559999832883477
2024-09-27 23:18:40.247275,26.35,1.716088,-0.07118599861860275,0.07836399972438812,-9.835099220275879,0.006413999944925308,-0.016798000782728195,0.000838999985717237
2024-09-27 23:18:40.290081,26.35,1.716088,-0.07477500289678574,0.09750699996948242,-9.83150863647461,0.005954999942332506,-0.018706999719142914,-7.599999662488699e-05
2024-09-27 23:18:40.333431,26.35,1.716139,-0.07597199827432632,0.08614099770784378,-9.83150863647461,0.005954999942332506,-0.018706999719142914,-7.599999662488699e-05
2024-09-27 23:18:40.344985,26.35,1.716139,-0.07597199827432632,0.08614099770784378,-9.871588706970215,0.00496299983933568,-0.01824899949133396,-7.599999662488699e-05
2024-09-27 23:18:40.387744,26.35,1.71619,-0.07118599861860275,0.07656999677419662,-9.873982429504395,0.005268000066280365,-0.01824899949133396,0.000838999985717237
2024-09-27 23:18:40.430824,26.35,1.716241,-0.07118599861860275,0.07656999677419662,-9.873982429504395,0.005268000066280365,-0.01824899949133396,0.0009159999899566174
2024-09-27 23:18:40.442516,26.35,1.716241,-0.056829001754522324,0.0819540023803711,-9.82851791381836,0.005268000066280365,-0.01824899949133396,0.0009159999899566174
2024-09-27 23:18:40.485628,27.76,1.716241,-0.056829001754522324,0.0819540023803711,-9.82851791381836,0.005954999942332506,-0.019471000880002975,0.0009159999899566174
2024-09-27 23:18:40.528905,27.76,1.716291,-0.08135499805212021,0.0819540023803711,-9.82851791381836,0.005954999942332506,-0.019471000880002975,0.0010689999908208847
2024-09-27 23:18:40.540813,27.76,1.716291,-0.08135499805212021,0.08015900105237961,-9.869794845581055,0.006031999830156565,-0.019471000880002975,0.0010689999908208847
2024-09-27 23:18:40.573911,27.76,1.716291,-0.08135499805212021,0.08015900105237961,-9.869794845581055,0.006031999830156565,-0.020082000643014908,0.0010689999908208847
2024-09-27 23:18:40.585165,27.76,1.716342,-0.09331999719142914,0.08853399753570557,-9.869794845581055,0.006031999830156565,-0.020082000643014908,0.0003809999907389283
2024-09-27 23:18:40.627503,27.76,1.716342,-0.09331999719142914,0.08853399753570557,-9.857232093811035,0.006031999830156565,-0.020082000643014908,0.0003809999907389283
2024-09-27 23:18:40.670072,27.76,1.716342,-0.09331999719142914,0.08853399753570557,-9.857232093811035,0.006260999944061041,-0.020082000643014908,0.0003809999907389283
2024-09-27 23:18:40.723082,27.76,1.716429,-0.09331999719142914,0.08853399753570557,-9.857232093811035,0.006260999944061041,-0.017409000545740128,-0.00030499999411404133
2024-09-27 23:18:40.734638,27.76,1.716429,-0.09272100031375885,0.05204299837350845,-9.857232093811035,0.006260999944061041,-0.017409000545740128,-0.00030499999411404133
2024-09-27 23:18:40.777117,27.76,1.716429,-0.09272100031375885,0.05204299837350845,-9.857232093811035,0.0056500001810491085,-0.018478000536561012,-0.00030499999411404133
2024-09-27 23:18:40.819613,27.76,1.716481,-0.09272100031375885,0.05204299837350845,-9.857232093811035,0.0056500001810491085,-0.018478000536561012,0.00015199999324977398
2024-09-27 23:18:40.831502,27.76,1.716481,-0.07298099994659424,0.062212999910116196,-9.868597984313965,0.006643000058829784,-0.018478000536561012,0.00015199999324977398
2024-09-27 23:18:40.874006,27.76,1.716531,-0.0825520008802414,0.09331999719142914,-9.868597984313965,0.006643000058829784,-0.019700000062584877,0.001373999984934926
2024-09-27 23:18:40.885954,27.76,1.716531,-0.0825520008802414,0.09331999719142914,-9.848258972167969,0.006643000058829784,-0.019700000062584877,0.001373999984934926
2024-09-27 23:18:40.958483,27.76,1.716625,-0.0825520008802414,0.09331999719142914,-9.848258972167969,0.006413999944925308,-0.01786700077354908,0.0017559999832883477
2024-09-27 23:18:40.970276,27.76,1.716625,-0.06759700179100037,0.05862399935722351,-9.848258972167969,0.006413999944925308,-0.01786700077354908,0.0017559999832883477
2024-09-27 23:18:41.005274,27.76,1.716625,-0.06759700179100037,0.05862399935722351,-9.832107543945312,0.0068720001727342606,-0.01786700077354908,0.0017559999832883477
2024-09-27 23:18:41.016979,27.76,1.716771,-0.07656999677419662,0.05862399935722351,-9.832107543945312,0.0068720001727342606,-0.019089000299572945,0.0009159999899566174
2024-09-27 23:18:41.060339,27.76,1.716822,-0.07656999677419662,0.06460600346326828,-9.839883804321289,0.005803000181913376,-0.018478000536561012,0.0015269999857991934
2024-09-27 23:18:41.103711,27.76,1.716822,-0.06999000161886215,0.08075699955224991,-9.864411354064941,0.007100999820977449,-0.018478000536561012,0.0015269999857991934
2024-09-27 23:18:41.115573,27.76,1.716822,-0.06999000161886215,0.08075699955224991,-9.864411354064941,0.007100999820977449,-0.01809599995613098,0.002061000093817711
2024-09-27 23:18:41.147882,27.76,1.716917,-0.06999000161886215,0.08075699955224991,-9.864411354064941,0.007100999820977449,-0.01809599995613098,0.002061000093817711
2024-09-27 23:18:41.159030,27.76,1.716917,-0.11545299738645554,0.083747997879982,-9.870392799377441,0.006413999944925308,-0.018631000071763992,0.002061000093817711
2024-09-27 23:18:41.201732,27.76,1.717005,-0.0628110021352768,0.10049799829721451,-9.870392799377441,0.006413999944925308,-0.018631000071763992,0.0004579999949783087
2024-09-27 23:18:41.213431,27.76,1.717005,-0.0628110021352768,0.10049799829721451,-9.867402076721191,0.00572599982842803,-0.018631000071763992,0.0004579999949783087
2024-09-27 23:18:41.246499,27.76,1.717005,-0.0628110021352768,0.10049799829721451,-9.867402076721191,0.00572599982842803,-0.018324999138712883,0.0004579999949783087
2024-09-27 23:18:41.258175,27.76,1.717056,-0.08793599903583527,0.08015900105237961,-9.839883804321289,0.00572599982842803,-0.018324999138712883,0.0010689999908208847
2024-09-27 23:18:41.300857,27.76,1.717107,-0.08793599903583527,0.08015900105237961,-9.839883804321289,0.00572599982842803,-0.018478000536561012,0.0015269999857991934
2024-09-27 23:18:41.313894,27.76,1.717107,-0.041873998939991,0.06580200046300888,-9.839883804321289,0.00572599982842803,-0.018478000536561012,0.0015269999857991934
2024-09-27 23:18:41.345914,27.76,1.717107,-0.041873998939991,0.06580200046300888,-9.803394317626953,0.006643000058829784,-0.018478000536561012,0.0015269999857991934
2024-09-27 23:18:41.357865,27.76,1.717107,-0.041873998939991,0.06580200046300888,-9.803394317626953,0.006643000058829784,-0.02038699947297573,0.0015269999857991934
2024-09-27 23:18:41.402044,27.76,1.717158,-0.09511400014162064,0.06400799751281738,-9.827322006225586,0.006719000171869993,-0.02038699947297573,0.000686999992467463
2024-09-27 23:18:41.445348,27.76,1.717248,-0.09511400014162064,0.06400799751281738,-9.827322006225586,0.006719000171869993,-0.018554000183939934,0.002595999976620078
2024-09-27 23:18:41.457553,27.76,1.717248,-0.05443599820137024,0.05084700137376785,-9.742377281188965,0.006719000171869993,-0.018554000183939934,0.002595999976620078
2024-09-27 23:18:41.489732,28.98,1.717248,-0.05443599820137024,0.05084700137376785,-9.742377281188965,0.006260999944061041,-0.019164999946951866,0.002595999976620078
2024-09-27 23:18:41.500617,28.98,1.717299,-0.07178399711847305,0.0819540023803711,-9.742377281188965,0.006260999944061041,-0.019164999946951866,0.0021379999816417694
2024-09-27 23:18:41.542513,28.98,1.71735,-0.07178399711847305,0.0819540023803711,-9.856036186218262,0.0044280001893639565,-0.017714999616146088,0.0005339999916031957
2024-09-27 23:18:41.553896,28.98,1.71735,-0.09331999719142914,0.0819540023803711,-9.856036186218262,0.0044280001893639565,-0.017714999616146088,0.0005339999916031957
2024-09-27 23:18:41.585483,28.98,1.71735,-0.09331999719142914,0.10827499628067017,-9.856036186218262,0.0044280001893639565,-0.017714999616146088,0.0005339999916031957
2024-09-27 23:18:41.597055,28.98,1.717443,-0.09331999719142914,0.10827499628067017,-9.813563346862793,0.007023999933153391,-0.02015800029039383,0.00030499999411404133
2024-09-27 23:18:41.638721,28.98,1.717443,-0.0825520008802414,0.09690900146961212,-9.813563346862793,0.007023999933153391,-0.02015800029039383,0.00030499999411404133
2024-09-27 23:18:41.690872,28.98,1.717494,-0.07836399972438812,0.09690900146961212,-9.845268249511719,0.0061079999431967735,-0.019013000652194023,0.0003809999907389283
2024-09-27 23:18:41.734098,28.98,1.717494,-0.07836399972438812,0.08733800053596497,-9.826126098632812,0.0061079999431967735,-0.019013000652194023,0.0003809999907389283
2024-09-27 23:18:41.745024,28.98,1.717545,-0.07836399972438812,0.08733800053596497,-9.826126098632812,0.007329999934881926,-0.019471000880002975,0.00015199999324977398
2024-09-27 23:18:41.787233,28.98,1.717545,-0.02751700021326542,0.05144499987363815,-9.841080665588379,0.007559000048786402,-0.02061600051820278,-7.599999662488699e-05
2024-09-27 23:18:41.829342,28.98,1.717596,-0.02751700021326542,0.05144499987363815,-9.841080665588379,0.007559000048786402,-0.02061600051820278,-7.599999662488699e-05
2024-09-27 23:18:41.841199,28.98,1.717596,-0.062212999910116196,0.11605100333690643,-9.838089942932129,0.006566000171005726,-0.018936000764369965,-7.599999662488699e-05
2024-09-27 23:18:41.882779,28.98,1.717646,-0.0412760004401207,0.07956100255250931,-9.838089942932129,0.006566000171005726,-0.018936000764369965,0.0019079999765381217
2024-09-27 23:18:41.894252,28.98,1.717646,-0.0412760004401207,0.07956100255250931,-9.865607261657715,0.006566000171005726,-0.018936000764369965,0.0019079999765381217
2024-09-27 23:18:41.936084,28.98,1.717737,-0.055633001029491425,0.043069999665021896,-9.865607261657715,0.005497000180184841,-0.017409000545740128,0.001449999981559813
2024-09-27 23:18:41.978390,28.98,1.717737,-0.055633001029491425,0.043069999665021896,-9.832706451416016,0.0044280001893639565,-0.017562000080943108,0.001449999981559813
2024-09-27 23:18:41.989736,28.98,1.717788,-0.035891998559236526,0.043069999665021896,-9.832706451416016,0.0044280001893639565,-0.017562000080943108,0.000686999992467463
2024-09-27 23:18:42.031729,28.98,1.717838,-0.035891998559236526,0.07776600122451782,-9.789036750793457,0.004505000077188015,-0.019393999129533768,0.0010689999908208847
2024-09-27 23:18:42.074440,28.98,1.717838,-0.08733800053596497,0.08913200348615646,-9.789036750793457,0.004505000077188015,-0.019393999129533768,0.0010689999908208847
2024-09-27 23:18:42.085949,28.98,1.717838,-0.08733800053596497,0.08913200348615646,-9.887142181396484,0.006260999944061041,-0.01809599995613098,0.0011449999874457717
2024-09-27 23:18:42.128366,28.98,1.71793,-0.07537300139665604,0.06759700179100037,-9.845866203308105,0.007100999820977449,-0.018936000764369965,0.0011449999874457717
2024-09-27 23:18:42.170311,28.98,1.71793,-0.07537300139665604,0.06759700179100037,-9.845866203308105,0.007100999820977449,-0.018936000764369965,0.0004579999949783087
2024-09-27 23:18:42.181069,28.98,1.717982,-0.05982000008225441,0.10947100073099136,-9.82014274597168,0.006643000058829784,-0.018936000764369965,0.0004579999949783087
2024-09-27 23:18:42.223415,28.98,1.718033,-0.07716800272464752,0.10947100073099136,-9.82014274597168,0.006643000058829784,-0.01809599995613098,0.0029009999707341194
2024-09-27 23:18:42.234319,28.98,1.718033,-0.07716800272464752,0.09571199864149094,-9.881159782409668,0.006643000058829784,-0.01809599995613098,0.0029009999707341194
2024-09-27 23:18:42.276614,28.98,1.718083,-0.09511400014162064,0.07417699694633484,-9.881159782409668,0.005803000181913376,-0.019089000299572945,0.0018319999799132347
2024-09-27 23:18:42.318402,28.98,1.718083,-0.09511400014162064,0.07417699694633484,-9.855438232421875,0.00633700005710125,-0.019089000299572945,0.0018319999799132347
2024-09-27 23:18:42.330635,28.98,1.718134,-0.07716800272464752,0.07417699694633484,-9.855438232421875,0.00633700005710125,-0.018936000764369965,0.0024429999757558107
2024-09-27 23:18:42.372161,28.98,1.718223,-0.07716800272464752,0.062212999910116196,-9.796215057373047,0.007100999820977449,-0.019241999834775925,0.0016029999824240804
2024-09-27 23:18:42.414236,28.98,1.718223,-0.09331999719142914,0.062212999910116196,-9.796215057373047,0.007100999820977449,-0.019241999834775925,0.0016029999824240804
2024-09-27 23:18:42.425626,28.98,1.718223,-0.09331999719142914,0.05982000008225441,-9.842874526977539,0.007329999934881926,-0.018783999606966972,0.00076299998909235
2024-09-27 23:18:42.466887,28.98,1.718274,-0.07298099994659424,0.07776600122451782,-9.859624862670898,0.007329999934881926,-0.018783999606966972,0.00076299998909235
2024-09-27 23:18:42.478195,28.98,1.718274,-0.07298099994659424,0.07776600122451782,-9.859624862670898,0.006260999944061041,-0.016340000554919243,0.00076299998909235
2024-09-27 23:18:42.520597,29.65,1.718325,-0.09092699736356735,0.08733800053596497,-9.860820770263672,0.005268000066280365,-0.016340000554919243,0.0009919999865815043
2024-09-27 23:18:42.562599,29.65,1.718325,-0.09092699736356735,0.08733800053596497,-9.860820770263672,0.005268000066280365,-0.019393999129533768,0.0010689999908208847
2024-09-27 23:18:42.574290,29.65,1.718376,-0.09272100031375885,0.06639999896287918,-9.807580947875977,0.005268000066280365,-0.019393999129533768,0.0010689999908208847
2024-09-27 23:18:42.615734,29.65,1.718376,-0.09272100031375885,0.06639999896287918,-9.807580947875977,0.006260999944061041,-0.018631000071763992,0.0010689999908208847
2024-09-27 23:18:42.667547,29.65,1.718426,-0.04067699983716011,0.06759700179100037,-9.82133960723877,0.007253000047057867,-0.018631000071763992,0.003664999967440963
2024-09-27 23:18:42.759851,29.65,1.718477,-0.07537300139665604,0.06759700179100037,-9.82133960723877,0.007253000047057867,-0.01817299984395504,0.0003809999907389283
2024-09-27 23:18:42.770832,29.65,1.718477,-0.07537300139665604,0.08554299920797348,-9.827322006225586,0.007253000047057867,-0.01817299984395504,0.0003809999907389283
2024-09-27 23:18:42.812338,29.65,1.718564,-0.07597199827432632,0.09212300181388855,-9.827322006225586,0.006490000057965517,-0.018324999138712883,0.0010689999908208847
2024-09-27 23:18:42.854402,29.65,1.718564,-0.07597199827432632,0.09212300181388855,-9.850053787231445,0.005115000065416098,-0.018324999138712883,0.0010689999908208847
2024-09-27 23:18:42.865537,29.65,1.718616,-0.07597199827432632,0.09212300181388855,-9.850053787231445,0.005115000065416098,-0.017562000080943108,0.002747999969869852
2024-09-27 23:18:42.906872,29.65,1.718616,-0.08973000198602676,0.06819500029087067,-9.840481758117676,0.0061079999431967735,-0.018706999719142914,0.002747999969869852
2024-09-27 23:18:42.918298,29.65,1.718616,-0.08973000198602676,0.06819500029087067,-9.840481758117676,0.0061079999431967735,-0.018706999719142914,0.0006099999882280827
2024-09-27 23:18:42.960690,29.65,1.718667,-0.05503400042653084,0.06759700179100037,-9.895517349243164,0.005878999829292297,-0.018478000536561012,0.0006099999882280827
2024-09-27 23:18:43.002311,29.65,1.718808,-0.05982000008225441,0.06759700179100037,-9.895517349243164,0.005878999829292297,-0.018478000536561012,0.002672000089660287
2024-09-27 23:18:43.013431,29.65,1.718808,-0.05982000008225441,0.06699900329113007,-9.808178901672363,0.007712000049650669,-0.018478000536561012,0.002672000089660287
2024-09-27 23:18:43.055661,29.65,1.71886,-0.06819500029087067,0.056829001754522324,-9.887741088867188,0.007712000049650669,-0.01802000030875206,0.001984999980777502
2024-09-27 23:18:43.098102,29.65,1.71886,-0.06819500029087067,0.056829001754522324,-9.887741088867188,0.006031999830156565,-0.018478000536561012,0.001984999980777502
2024-09-27 23:18:43.109407,29.65,1.71891,-0.06520400196313858,0.07238200306892395,-9.887741088867188,0.006031999830156565,-0.018478000536561012,0.0016029999824240804
2024-09-27 23:18:43.151895,29.65,1.718961,-0.06520400196313858,0.07238200306892395,-9.879365921020508,0.0068720001727342606,-0.019852999597787857,0.0035119999665766954
2024-09-27 23:18:43.162999,29.65,1.718961,-0.0628110021352768,0.07238200306892395,-9.879365921020508,0.0068720001727342606,-0.019852999597787857,0.0035119999665766954
2024-09-27 23:18:43.194140,29.65,1.718961,-0.0628110021352768,0.09092699736356735,-9.879365921020508,0.0068720001727342606,-0.019852999597787857,0.0035119999665766954
2024-09-27 23:18:43.207475,29.65,1.718961,-0.0628110021352768,0.09092699736356735,-9.872785568237305,0.005038999952375889,-0.019852999597787857,0.0035119999665766954
2024-09-27 23:18:43.249729,29.65,1.719052,-0.05084700137376785,0.07776600122451782,-9.872785568237305,0.005038999952375889,-0.018783999606966972,-0.000686999992467463
2024-09-27 23:18:43.261190,29.65,1.719052,-0.05084700137376785,0.07776600122451782,-9.838687896728516,0.005038999952375889,-0.018783999606966972,-0.000686999992467463
2024-09-27 23:18:43.293753,29.65,1.719052,-0.05084700137376785,0.07776600122451782,-9.838687896728516,0.005803000181913376,-0.019089000299572945,-0.000686999992467463
2024-09-27 23:18:43.304828,29.65,1.719103,-0.05922200158238411,0.09092699736356735,-9.838687896728516,0.005803000181913376,-0.019089000299572945,0.0006099999882280827
2024-09-27 23:18:43.347275,29.65,1.719154,-0.05922200158238411,0.09092699736356735,-9.82133960723877,0.005954999942332506,-0.018936000764369965,0.0012209999840706587
2024-09-27 23:18:43.358306,29.65,1.719154,-0.08673900365829468,0.09092699736356735,-9.82133960723877,0.005954999942332506,-0.018936000764369965,0.0012209999840706587
2024-09-27 23:18:43.390649,29.65,1.719154,-0.08673900365829468,0.06580200046300888,-9.821937561035156,0.005954999942332506,-0.018936000764369965,0.0012209999840706587
2024-09-27 23:18:43.402305,29.65,1.719205,-0.08673900365829468,0.06580200046300888,-9.821937561035156,0.006413999944925308,-0.018783999606966972,0.0017559999832883477
2024-09-27 23:18:43.444999,29.65,1.719205,-0.06520400196313858,0.10468500107526779,-9.836295127868652,0.006031999830156565,-0.017714999616146088,-7.599999662488699e-05
2024-09-27 23:18:43.486670,29.65,1.719296,-0.06520400196313858,0.10468500107526779,-9.836295127868652,0.006031999830156565,-0.017714999616146088,-7.599999662488699e-05
2024-09-27 23:18:43.497475,29.65,1.719296,-0.0634090006351471,0.08733800053596497,-9.871588706970215,0.006719000171869993,-0.01840200088918209,-7.599999662488699e-05
2024-09-27 23:18:43.540215,30.03,1.719347,-0.08853399753570557,0.09511400014162064,-9.871588706970215,0.006719000171869993,-0.01840200088918209,-0.0009919999865815043
2024-09-27 23:18:43.551180,30.03,1.719347,-0.08853399753570557,0.09511400014162064,-9.862615585327148,0.0055740000680089,-0.01840200088918209,-0.0009919999865815043
2024-09-27 23:18:43.593134,30.03,1.719398,-0.06699900329113007,0.08135499805212021,-9.842276573181152,0.0055740000680089,-0.019393999129533768,-0.00030499999411404133
2024-09-27 23:18:43.634423,30.03,1.719398,-0.06699900329113007,0.08135499805212021,-9.842276573181152,0.005954999942332506,-0.01794400066137314,-0.00030499999411404133
2024-09-27 23:18:43.645806,30.03,1.719449,-0.041873998939991,0.07896299660205841,-9.842276573181152,0.005954999942332506,-0.01794400066137314,0.0003809999907389283
2024-09-27 23:18:43.688017,30.03,1.719449,-0.041873998939991,0.07896299660205841,-9.871588706970215,0.006947999820113182,-0.019089000299572945,0.000686999992467463
2024-09-27 23:18:43.740245,30.03,1.719499,-0.07058800011873245,0.06759700179100037,-9.871588706970215,0.005878999829292297,-0.019700000062584877,0.000686999992467463
2024-09-27 23:18:43.782790,30.03,1.719588,-0.05084700137376785,0.06759700179100037,-9.871588706970215,0.005878999829292297,-0.019700000062584877,0.0006099999882280827
2024-09-27 23:18:43.794097,30.03,1.719588,-0.05084700137376785,0.09331999719142914,-9.824331283569336,0.008245999924838543,-0.019700000062584877,0.0006099999882280827
2024-09-27 23:18:43.836012,30.03,1.719639,-0.09272100031375885,0.07477500289678574,-9.806385040283203,0.008245999924838543,-0.021227000281214714,0.0010689999908208847
2024-09-27 23:18:43.878213,30.03,1.719639,-0.09272100031375885,0.07477500289678574,-9.806385040283203,0.008245999924838543,-0.020844999700784683,0.0010689999908208847
2024-09-27 23:18:43.889819,30.03,1.71969,-0.02751700021326542,0.1034889966249466,-9.806385040283203,0.008245999924838543,-0.020844999700784683,0.0022140000946819782
2024-09-27 23:18:43.932244,30.03,1.719741,-0.09391800314188004,0.1034889966249466,-9.856634140014648,0.006719000171869993,-0.019852999597787857,-0.0002280000044265762
2024-09-27 23:18:43.974199,30.03,1.719741,-0.09391800314188004,0.07118599861860275,-9.856634140014648,0.006719000171869993,-0.019852999597787857,-0.0002280000044265762
2024-09-27 23:18:43.985743,30.03,1.719832,-0.09391800314188004,0.07118599861860275,-9.837491035461426,0.005803000181913376,-0.019393999129533768,-7.599999662488699e-05
2024-09-27 23:18:44.027205,30.03,1.719832,-0.06939099729061127,0.09571199864149094,-9.846464157104492,0.0068720001727342606,-0.019393999129533768,-7.599999662488699e-05
2024-09-27 23:18:44.038095,30.03,1.719832,-0.06939099729061127,0.09571199864149094,-9.846464157104492,0.0068720001727342606,-0.019013000652194023,0.00076299998909235
2024-09-27 23:18:44.079446,30.03,1.719883,-0.06101600080728531,0.037686001509428024,-9.878169059753418,0.006719000171869993,-0.02076900005340576,0.00076299998909235
2024-09-27 23:18:44.121390,30.03,1.719934,-0.06101600080728531,0.037686001509428024,-9.878169059753418,0.006719000171869993,-0.02076900005340576,0.00076299998909235
2024-09-27 23:18:44.132689,30.03,1.719934,-0.056230999529361725,0.09750699996948242,-9.833902359008789,0.0056500001810491085,-0.02076900005340576,0.00076299998909235
2024-09-27 23:18:44.174153,30.03,1.719934,-0.056230999529361725,0.09750699996948242,-9.833902359008789,0.0056500001810491085,-0.01763799972832203,0.00076299998909235
2024-09-27 23:18:44.228749,30.03,1.719985,-0.06400799751281738,0.06759700179100037,-9.840481758117676,0.007406000047922134,-0.01763799972832203,0.0017559999832883477
2024-09-27 23:18:44.272069,30.03,1.719985,-0.06400799751281738,0.06759700179100037,-9.840481758117676,0.007406000047922134,-0.017333000898361206,0.0017559999832883477
2024-09-27 23:18:44.325679,30.03,1.720035,-0.07956100255250931,0.03230300173163414,-9.874580383300781,0.007023999933153391,-0.017333000898361206,-0.0006099999882280827
2024-09-27 23:18:44.369438,30.03,1.720086,-0.07956100255250931,0.03230300173163414,-9.874580383300781,0.007023999933153391,-0.018478000536561012,0.001373999984934926
2024-09-27 23:18:44.380317,30.03,1.720086,-0.05383799970149994,0.07118599861860275,-9.835099220275879,0.007023999933153391,-0.018478000536561012,0.001373999984934926
2024-09-27 23:18:44.424014,30.03,1.720173,-0.061615001410245895,0.07357899844646454,-9.835099220275879,0.004809999838471413,-0.01794400066137314,0.0016789999790489674
2024-09-27 23:18:44.467326,30.03,1.720173,-0.061615001410245895,0.07357899844646454,-9.827322006225586,0.008399000391364098,-0.01802000030875206,0.0021379999816417694
2024-09-27 23:18:44.480843,30.03,1.720223,-0.07118599861860275,0.07357899844646454,-9.827322006225586,0.008399000391364098,-0.01802000030875206,0.0021379999816417694
2024-09-27 23:18:44.513928,30.03,1.720223,-0.07118599861860275,0.00837399996817112,-9.815956115722656,0.007482999935746193,-0.01802000030875206,0.0021379999816417694
2024-09-27 23:18:44.525478,30.03,1.72032,-0.07118599861860275,0.00837399996817112,-9.815956115722656,0.007482999935746193,-0.019241999834775925,0.003206999972462654
2024-09-27 23:18:44.567482,30.05,1.72032,-0.07896299660205841,0.06041799858212471,-9.836295127868652,0.007559000048786402,-0.01809599995613098,0.0004579999949783087
2024-09-27 23:18:44.610202,30.05,1.720417,-0.09092699736356735,0.06041799858212471,-9.836295127868652,0.007559000048786402,-0.01809599995613098,0.0004579999949783087
2024-09-27 23:18:44.621777,30.05,1.720417,-0.09092699736356735,0.08494500070810318,-9.821937561035156,0.006184000056236982,-0.019241999834775925,0.0004579999949783087
2024-09-27 23:18:44.664251,30.05,1.720468,-0.049651000648736954,0.07776600122451782,-9.896116256713867,0.005878999829292297,-0.019241999834775925,0.0009159999899566174
2024-09-27 23:18:44.706778,30.05,1.720468,-0.049651000648736954,0.07776600122451782,-9.896116256713867,0.005878999829292297,-0.018936000764369965,0.001449999981559813
2024-09-27 23:18:44.717938,30.05,1.720519,-0.083747997879982,0.06101600080728531,-9.860222816467285,0.005878999829292297,-0.018936000764369965,0.001449999981559813
2024-09-27 23:18:44.759433,30.05,1.72057,-0.05922200158238411,0.06101600080728531,-9.860222816467285,0.006260999944061041,-0.018783999606966972,0.001449999981559813
2024-09-27 23:18:44.770955,30.05,1.72057,-0.05922200158238411,0.07298099994659424,-9.860222816467285,0.006260999944061041,-0.018783999606966972,0.001449999981559813
2024-09-27 23:18:44.813094,30.05,1.720621,-0.0843459963798523,0.07298099994659424,-9.839883804321289,0.006184000056236982,-0.01809599995613098,0.0025190000887960196
2024-09-27 23:18:44.855575,30.05,1.720621,-0.0843459963798523,0.08673900365829468,-9.864411354064941,0.007176999934017658,-0.01809599995613098,0.0025190000887960196
2024-09-27 23:18:44.866896,30.05,1.720709,-0.0843459963798523,0.08673900365829468,-9.864411354064941,0.007176999934017658,-0.01809599995613098,0.0003809999907389283
2024-09-27 23:18:44.908703,30.05,1.720709,-0.08015900105237961,0.07118599861860275,-9.847661018371582,0.005878999829292297,-0.019013000652194023,0.0017559999832883477
2024-09-27 23:18:44.952123,30.05,1.720761,-0.09092699736356735,0.09032899886369705,-9.847661018371582,0.005878999829292297,-0.019013000652194023,0.0017559999832883477
2024-09-27 23:18:44.963481,30.05,1.720761,-0.09092699736356735,0.09032899886369705,-9.863812446594238,0.006643000058829784,-0.01809599995613098,0.0017559999832883477
2024-09-27 23:18:45.005569,30.05,1.720811,-0.029910000041127205,0.11186400055885315,-9.81715202331543,0.004656999837607145,-0.01809599995613098,0.002595999976620078
2024-09-27 23:18:45.048720,30.05,1.720811,-0.029910000041127205,0.11186400055885315,-9.81715202331543,0.004656999837607145,-0.01809599995613098,0.0004579999949783087
2024-09-27 23:18:45.059950,30.05,1.720862,-0.056230999529361725,0.09272100031375885,-9.82552719116211,0.004656999837607145,-0.01809599995613098,0.0004579999949783087
2024-09-27 23:18:45.102664,30.05,1.720913,-0.06999000161886215,0.08015900105237961,-9.82552719116211,0.008170000277459621,-0.019393999129533768,0.0009159999899566174
2024-09-27 23:18:45.144963,30.05,1.720913,-0.06999000161886215,0.08015900105237961,-9.866205215454102,0.008170000277459621,-0.019393999129533768,0.0009159999899566174
2024-09-27 23:18:45.155994,30.05,1.720963,-0.06939099729061127,0.08015900105237961,-9.866205215454102,0.007406000047922134,-0.020692000165581703,0.0002280000044265762
2024-09-27 23:18:45.198369,30.05,1.720963,-0.06939099729061127,0.06101600080728531,-9.870990753173828,0.007329999934881926,-0.020082000643014908,0.0006099999882280827
2024-09-27 23:18:45.209607,30.05,1.721051,-0.06939099729061127,0.06101600080728531,-9.870990753173828,0.007329999934881926,-0.020082000643014908,0.0006099999882280827
2024-09-27 23:18:45.251400,30.05,1.721051,-0.04486500099301338,0.10947100073099136,-9.801599502563477,0.008321999572217464,-0.018631000071763992,0.0029009999707341194
2024-09-27 23:18:45.294436,30.05,1.721102,-0.02751700021326542,0.02811500057578087,-9.801599502563477,0.008321999572217464,-0.018631000071763992,0.0029009999707341194
2024-09-27 23:18:45.305788,30.05,1.721102,-0.02751700021326542,0.02811500057578087,-9.834500312805176,0.008093000389635563,-0.019241999834775925,0.0029009999707341194
2024-09-27 23:18:45.347805,30.05,1.721153,-0.1250240057706833,0.11126600205898285,-9.845268249511719,0.006794999819248915,-0.019241999834775925,0.002595999976620078
2024-09-27 23:18:45.390407,30.05,1.721153,-0.1250240057706833,0.11126600205898285,-9.845268249511719,0.006794999819248915,-0.021531999111175537,0.003283000085502863
2024-09-27 23:18:45.401474,30.05,1.721203,-0.12981000542640686,-0.017945999279618263,-9.904489517211914,0.006794999819248915,-0.021531999111175537,0.003283000085502863
2024-09-27 23:18:45.443577,30.05,1.721203,-0.12981000542640686,-0.017945999279618263,-9.904489517211914,0.007253000047057867,-0.021531999111175537,0.003283000085502863
2024-09-27 23:18:45.485435,30.05,1.721203,-0.12981000542640686,-0.017945999279618263,-9.904489517211914,0.007253000047057867,-0.017026999965310097,0.003283000085502863
2024-09-27 23:18:45.496586,30.05,1.721254,-0.013757999986410141,0.1220329999923706,-9.867402076721191,0.007253000047057867,-0.017026999965310097,-0.000838999985717237
2024-09-27 23:18:45.539501,30.05,1.721305,-0.061615001410245895,0.1220329999923706,-9.867402076721191,0.006490000057965517,-0.018783999606966972,0.003358999965712428
2024-09-27 23:18:45.551071,30.05,1.721305,-0.061615001410245895,0.0819540023803711,-9.867402076721191,0.006490000057965517,-0.018783999606966972,0.003358999965712428
2024-09-27 23:18:45.583927,30.32,1.721305,-0.061615001410245895,0.0819540023803711,-9.848258972167969,0.006490000057965517,-0.018783999606966972,0.003358999965712428
2024-09-27 23:18:45.595669,30.32,1.721391,-0.07776600122451782,0.0819540023803711,-9.848258972167969,0.007864000275731087,-0.018706999719142914,0.0023670000955462456
2024-09-27 23:18:45.637313,30.32,1.721391,-0.07776600122451782,0.02632099948823452,-9.836893081665039,0.006947999820113182,-0.01817299984395504,0.0021379999816417694
2024-09-27 23:18:45.648682,30.32,1.721443,-0.07776600122451782,0.02632099948823452,-9.836893081665039,0.006947999820113182,-0.01817299984395504,0.0021379999816417694
2024-09-27 23:18:45.680599,30.32,1.721443,-0.0634090006351471,0.02632099948823452,-9.836893081665039,0.006947999820113182,-0.01817299984395504,0.0021379999816417694
2024-09-27 23:18:45.691861,30.32,1.721443,-0.0634090006351471,0.06759700179100037,-9.833902359008789,0.007406000047922134,-0.017409000545740128,0.0025190000887960196
2024-09-27 23:18:45.733722,30.32,1.721538,-0.07357899844646454,0.07238200306892395,-9.82552719116211,0.007406000047922134,-0.017409000545740128,0.0025190000887960196
2024-09-27 23:18:45.744741,30.32,1.721538,-0.07357899844646454,0.07238200306892395,-9.82552719116211,0.007100999820977449,-0.018324999138712883,0.0025190000887960196
2024-09-27 23:18:45.786830,30.32,1.72159,-0.04426699876785278,0.07836399972438812,-9.876375198364258,0.007559000048786402,-0.018324999138712883,0.000686999992467463
2024-09-27 23:18:45.828661,30.32,1.72159,-0.04426699876785278,0.07836399972438812,-9.876375198364258,0.007559000048786402,-0.019164999946951866,0.002672000089660287
2024-09-27 23:18:45.839969,30.32,1.72164,-0.06460600346326828,0.07357899844646454,-9.810571670532227,0.007559000048786402,-0.019164999946951866,0.002672000089660287
2024-09-27 23:18:45.882258,30.32,1.721691,-0.11126600205898285,0.07357899844646454,-9.810571670532227,0.008093000389635563,-0.017714999616146088,0.0021379999816417694
2024-09-27 23:18:45.894341,30.32,1.721691,-0.11126600205898285,0.056829001754522324,-9.810571670532227,0.008093000389635563,-0.017714999616146088,0.0021379999816417694
2024-09-27 23:18:45.926212,30.32,1.721691,-0.11126600205898285,0.056829001754522324,-9.847661018371582,0.007406000047922134,-0.017714999616146088,0.0021379999816417694
2024-09-27 23:18:45.937508,30.32,1.721742,-0.09032899886369705,0.056829001754522324,-9.847661018371582,0.007406000047922134,-0.01840200088918209,0.0009159999899566174
2024-09-27 23:18:45.979490,30.32,1.721831,-0.09032899886369705,0.09152500331401825,-9.844072341918945,0.005954999942332506,-0.01824899949133396,-0.0009159999899566174
2024-09-27 23:18:46.021530,30.32,1.721831,-0.06041799858212471,0.09152500331401825,-9.844072341918945,0.005954999942332506,-0.01824899949133396,-0.0009159999899566174
2024-09-27 23:18:46.032374,30.32,1.721831,-0.06041799858212471,0.07058800011873245,-9.783653259277344,0.00633700005710125,-0.01572900079190731,-7.599999662488699e-05
2024-09-27 23:18:46.074435,30.32,1.721882,-0.04665999859571457,0.08075699955224991,-9.82373332977295,0.00633700005710125,-0.01572900079190731,-7.599999662488699e-05
2024-09-27 23:18:46.087223,30.32,1.721882,-0.04665999859571457,0.08075699955224991,-9.82373332977295,0.006643000058829784,-0.01824899949133396,-7.599999662488699e-05
2024-09-27 23:18:46.120172,30.32,1.721882,-0.04665999859571457,0.08075699955224991,-9.82373332977295,0.006643000058829784,-0.01824899949133396,0.0009159999899566174
2024-09-27 23:18:46.131786,30.32,1.721933,-0.08614099770784378,0.07537300139665604,-9.82971477508545,0.006413999944925308,-0.01824899949133396,0.0009159999899566174
2024-09-27 23:18:46.176015,30.32,1.721983,-0.08614099770784378,0.07537300139665604,-9.82971477508545,0.006413999944925308,-0.018936000764369965,0.002061000093817711
2024-09-27 23:18:46.188828,30.32,1.721983,-0.055633001029491425,0.09750699996948242,-9.848856925964355,0.006413999944925308,-0.018936000764369965,0.002061000093817711
2024-09-27 23:18:46.225488,30.32,1.722034,-0.04007900133728981,0.07058800011873245,-9.848856925964355,0.006719000171869993,-0.018859999254345894,0.0016029999824240804
2024-09-27 23:18:46.273152,30.32,1.722085,-0.04007900133728981,0.07058800011873245,-9.860222816467285,0.007176999934017658,-0.018324999138712883,0.0021379999816417694
2024-09-27 23:18:46.284889,30.32,1.722085,-0.043069999665021896,0.07058800011873245,-9.860222816467285,0.007176999934017658,-0.018324999138712883,0.0021379999816417694
2024-09-27 23:18:46.319313,30.32,1.722085,-0.043069999665021896,0.09212300181388855,-9.877571105957031,0.007406000047922134,-0.01817299984395504,0.0021379999816417694
2024-09-27 23:18:46.330221,30.32,1.722172,-0.043069999665021896,0.09212300181388855,-9.877571105957031,0.007406000047922134,-0.01817299984395504,0.0004579999949783087
2024-09-27 23:18:46.363903,30.32,1.722172,-0.06999000161886215,0.10408700257539749,-9.877571105957031,0.007406000047922134,-0.01817299984395504,0.0004579999949783087
2024-09-27 23:18:46.375360,30.32,1.722172,-0.06999000161886215,0.10408700257539749,-9.832107543945312,0.005191999953240156,-0.018936000764369965,0.0017559999832883477
2024-09-27 23:18:46.419363,30.32,1.722223,-0.0634090006351471,0.07656999677419662,-9.850053787231445,0.004734000191092491,-0.019164999946951866,0.0017559999832883477
2024-09-27 23:18:46.462667,30.32,1.722274,-0.0634090006351471,0.07656999677419662,-9.850053787231445,0.004734000191092491,-0.019164999946951866,0.0022140000946819782
2024-09-27 23:18:46.473752,30.32,1.722274,-0.07956100255250931,0.08554299920797348,-9.873982429504395,0.006643000058829784,-0.019164999946951866,0.0022140000946819782
2024-09-27 23:18:46.515915,30.32,1.722325,-0.06999000161886215,0.08554299920797348,-9.873982429504395,0.006643000058829784,-0.018324999138712883,0.0009919999865815043
2024-09-27 23:18:46.527474,30.32,1.722325,-0.06999000161886215,0.05503400042653084,-9.832706451416016,0.006643000058829784,-0.018324999138712883,0.0009919999865815043
2024-09-27 23:18:46.561482,30.32,1.722325,-0.06999000161886215,0.05503400042653084,-9.832706451416016,0.005878999829292297,-0.018706999719142914,0.0009919999865815043
2024-09-27 23:18:46.573280,30.32,1.722375,-0.06999000161886215,0.0825520008802414,-9.832706451416016,0.005878999829292297,-0.018706999719142914,0.0
2024-09-27 23:18:46.617325,30.97,1.722426,-0.05982000008225441,0.0825520008802414,-9.868597984313965,0.006566000171005726,-0.01786700077354908,0.0011449999874457717
2024-09-27 23:18:46.659935,30.97,1.722426,-0.05982000008225441,0.05922200158238411,-9.851249694824219,0.007100999820977449,-0.01786700077354908,0.0011449999874457717
2024-09-27 23:18:46.670926,30.97,1.722513,-0.05982000008225441,0.05922200158238411,-9.851249694824219,0.007100999820977449,-0.020462999120354652,0.0012209999840706587
2024-09-27 23:18:46.714464,30.97,1.722513,-0.08015900105237961,0.09032899886369705,-9.862615585327148,0.007100999820977449,-0.019393999129533768,-0.0005339999916031957
2024-09-27 23:18:46.758334,30.97,1.722564,-0.10947100073099136,0.08554299920797348,-9.862615585327148,0.007100999820977449,-0.019393999129533768,-0.0005339999916031957
2024-09-27 23:18:46.770031,30.97,1.722564,-0.10947100073099136,0.08554299920797348,-9.808178901672363,0.007176999934017658,-0.019013000652194023,-0.0005339999916031957
2024-09-27 23:18:46.812865,30.97,1.722615,-0.08494500070810318,0.08494500070810318,-9.896714210510254,0.006794999819248915,-0.019013000652194023,0.0018319999799132347
2024-09-27 23:18:46.855030,30.97,1.722666,-0.08494500070810318,0.08494500070810318,-9.896714210510254,0.006794999819248915,-0.019547000527381897,0.0010689999908208847
2024-09-27 23:18:46.866427,30.97,1.722666,-0.06879299879074097,0.11665000021457672,-9.841678619384766,0.006794999819248915,-0.019547000527381897,0.0010689999908208847
2024-09-27 23:18:46.909020,30.97,1.722716,-0.06819500029087067,0.07836399972438812,-9.841678619384766,0.006413999944925308,-0.018859999254345894,0.0006099999882280827
2024-09-27 23:18:46.951636,30.97,1.722716,-0.06819500029087067,0.07836399972438812,-9.877571105957031,0.006947999820113182,-0.018859999254345894,0.0006099999882280827
2024-09-27 23:18:46.962929,30.97,1.722767,-0.09870299696922302,0.07836399972438812,-9.877571105957031,0.006947999820113182,-0.01748500019311905,0.0029009999707341194
2024-09-27 23:18:47.006255,30.97,1.722854,-0.09870299696922302,0.06699900329113007,-9.839285850524902,0.007100999820977449,-0.019013000652194023,0.0006099999882280827
2024-09-27 23:18:47.048206,30.97,1.722854,-0.055633001029491425,0.07776600122451782,-9.839285850524902,0.007100999820977449,-0.019013000652194023,0.0006099999882280827
2024-09-27 23:18:47.060244,30.97,1.722854,-0.055633001029491425,0.07776600122451782,-9.857232093811035,0.007176999934017658,-0.019317999482154846,0.0002280000044265762
2024-09-27 23:18:47.103729,30.97,1.722906,-0.07118599861860275,0.07537300139665604,-9.868597984313965,0.007406000047922134,-0.019317999482154846,0.0002280000044265762
2024-09-27 23:18:47.146278,30.97,1.722956,-0.07118599861860275,0.07537300139665604,-9.868597984313965,0.007406000047922134,-0.019317999482154846,0.0018319999799132347
2024-09-27 23:18:47.157613,30.97,1.722956,-0.08973000198602676,0.07896299660205841,-9.844072341918945,0.007253000047057867,-0.019317999482154846,0.0018319999799132347
2024-09-27 23:18:47.202036,30.97,1.723007,-0.07477500289678574,0.07716800272464752,-9.844072341918945,0.007253000047057867,-0.01779099926352501,0.0
2024-09-27 23:18:47.213604,30.97,1.723007,-0.07477500289678574,0.07716800272464752,-9.872785568237305,0.007253000047057867,-0.01779099926352501,0.0
2024-09-27 23:18:47.245066,30.97,1.723007,-0.07477500289678574,0.07716800272464752,-9.872785568237305,0.007253000047057867,-0.018936000764369965,0.0021379999816417694
2024-09-27 23:18:47.256762,30.97,1.723058,-0.07597199827432632,0.05922200158238411,-9.872785568237305,0.007253000047057867,-0.018936000764369965,0.0021379999816417694
2024-09-27 23:18:47.299286,30.97,1.723108,-0.09810499846935272,0.05922200158238411,-9.853643417358398,0.005191999953240156,-0.018324999138712883,0.0022140000946819782
2024-09-27 23:18:47.344066,30.97,1.723108,-0.09810499846935272,0.07417699694633484,-9.877571105957031,0.007176999934017658,-0.018324999138712883,0.0022140000946819782
2024-09-27 23:18:47.357462,30.97,1.723195,-0.09810499846935272,0.07417699694633484,-9.877571105957031,0.007176999934017658,-0.018324999138712883,0.0012209999840706587
2024-09-27 23:18:47.389731,30.97,1.723195,-0.058024998754262924,0.05982000008225441,-9.877571105957031,0.007176999934017658,-0.018324999138712883,0.0012209999840706587
2024-09-27 23:18:47.401370,30.97,1.723195,-0.058024998754262924,0.05982000008225441,-9.835697174072266,0.0061079999431967735,-0.01962300017476082,0.0015269999857991934
2024-09-27 23:18:47.444838,30.97,1.723247,-0.06999000161886215,0.05922200158238411,-9.835697174072266,0.008093000389635563,-0.01962300017476082,0.0015269999857991934
2024-09-27 23:18:47.457225,30.97,1.723247,-0.06999000161886215,0.05922200158238411,-9.835697174072266,0.008093000389635563,-0.0197759997099638,0.0015269999857991934
2024-09-27 23:18:47.489508,30.97,1.723298,-0.06879299879074097,0.05922200158238411,-9.835697174072266,0.008093000389635563,-0.0197759997099638,0.000686999992467463
2024-09-27 23:18:47.501317,30.97,1.723298,-0.06879299879074097,0.07298099994659424,-9.847063064575195,0.007253000047057867,-0.0197759997099638,0.000686999992467463
2024-09-27 23:18:47.534481,30.97,1.723298,-0.06879299879074097,0.07298099994659424,-9.847063064575195,0.007253000047057867,-0.019547000527381897,0.000686999992467463
2024-09-27 23:18:47.546366,30.97,1.723348,-0.06999000161886215,0.12681899964809418,-9.847063064575195,0.007253000047057867,-0.019547000527381897,0.001297999988310039
2024-09-27 23:18:47.589655,30.97,1.723399,-0.06999000161886215,0.12681899964809418,-9.847063064575195,0.005954999942332506,-0.016798000782728195,0.0021379999816417694
2024-09-27 23:18:47.600803,30.97,1.723399,-0.0634090006351471,0.08793599903583527,-9.847063064575195,0.005954999942332506,-0.016798000782728195,0.0021379999816417694
2024-09-27 23:18:47.632265,33.34,1.723399,-0.0634090006351471,0.08793599903583527,-9.855438232421875,0.005954999942332506,-0.016798000782728195,0.0021379999816417694
2024-09-27 23:18:47.643381,33.34,1.72345,-0.06939099729061127,0.08793599903583527,-9.855438232421875,0.005497000180184841,-0.018631000071763992,0.001373999984934926
2024-09-27 23:18:47.689219,33.34,1.72345,-0.06939099729061127,0.09032899886369705,-9.830910682678223,0.005878999829292297,-0.017714999616146088,0.001297999988310039
2024-09-27 23:18:47.700931,33.34,1.723537,-0.06939099729061127,0.09032899886369705,-9.830910682678223,0.005878999829292297,-0.017714999616146088,0.001297999988310039
2024-09-27 23:18:47.789961,33.34,1.723537,-0.0843459963798523,0.0843459963798523,-9.833902359008789,0.00496299983933568,-0.016645999625325203,0.001297999988310039
2024-09-27 23:18:47.802233,33.34,1.723537,-0.0843459963798523,0.0843459963798523,-9.833902359008789,0.00496299983933568,-0.016645999625325203,0.0023670000955462456
2024-09-27 23:18:47.836348,33.34,1.723589,-0.07836399972438812,0.08973000198602676,-9.848258972167969,0.005497000180184841,-0.016645999625325203,0.0023670000955462456
2024-09-27 23:18:47.847800,33.34,1.723589,-0.07836399972438812,0.08973000198602676,-9.848258972167969,0.005497000180184841,-0.018783999606966972,0.0023670000955462456
2024-09-27 23:18:47.879900,33.34,1.723639,-0.08554299920797348,0.04665999859571457,-9.833902359008789,0.005497000180184841,-0.018783999606966972,0.0028250000905245543
2024-09-27 23:18:47.891396,33.34,1.723639,-0.08554299920797348,0.04665999859571457,-9.833902359008789,0.006413999944925308,-0.018783999606966972,0.0028250000905245543
2024-09-27 23:18:47.922751,33.34,1.723639,-0.08554299920797348,0.04665999859571457,-9.833902359008789,0.006413999944925308,-0.01817299984395504,0.0028250000905245543
2024-09-27 23:18:47.934361,33.34,1.72369,-0.08554299920797348,0.04665999859571457,-9.833902359008789,0.006413999944925308,-0.01817299984395504,0.001373999984934926
2024-09-27 23:18:47.976069,33.34,1.72369,-0.04546299949288368,0.06460600346326828,-9.835099220275879,0.006413999944925308,-0.01817299984395504,0.001373999984934926
2024-09-27 23:18:47.987422,33.34,1.72369,-0.04546299949288368,0.06460600346326828,-9.835099220275879,0.005115000065416098,-0.01572900079190731,0.002747999969869852
2024-09-27 23:18:48.029596,33.34,1.723741,-0.07238200306892395,0.07118599861860275,-9.830910682678223,0.005115000065416098,-0.01572900079190731,0.002747999969869852
2024-09-27 23:18:48.072590,33.34,1.723741,-0.07238200306892395,0.07118599861860275,-9.830910682678223,0.006947999820113182,-0.019164999946951866,0.00030499999411404133
2024-09-27 23:18:48.083838,33.34,1.723832,-0.035891998559236526,0.08673900365829468,-9.830910682678223,0.006947999820113182,-0.019164999946951866,0.00030499999411404133
2024-09-27 23:18:48.129223,33.34,1.723927,-0.056230999529361725,0.08673900365829468,-9.851249694824219,0.005115000065416098,-0.017714999616146088,0.002061000093817711
2024-09-27 23:18:48.174728,33.34,1.723927,-0.056230999529361725,0.10049799829721451,-9.807580947875977,0.008016999810934067,-0.018859999254345894,0.002061000093817711
2024-09-27 23:18:48.187578,33.34,1.723978,-0.056230999529361725,0.10049799829721451,-9.807580947875977,0.008016999810934067,-0.018859999254345894,0.0015269999857991934
2024-09-27 23:18:48.220876,33.34,1.723978,-0.08973000198602676,0.0819540023803711,-9.843473434448242,0.0068720001727342606,-0.018859999254345894,0.0015269999857991934
2024-09-27 23:18:48.233571,33.34,1.723978,-0.08973000198602676,0.0819540023803711,-9.843473434448242,0.0068720001727342606,-0.01840200088918209,0.00015199999324977398
2024-09-27 23:18:48.266235,33.34,1.724028,-0.08973000198602676,0.0819540023803711,-9.843473434448242,0.0068720001727342606,-0.01840200088918209,0.00015199999324977398
2024-09-27 23:18:48.277884,33.34,1.724028,-0.0819540023803711,0.0843459963798523,-9.917651176452637,0.006490000057965517,-0.019089000299572945,0.00015199999324977398
2024-09-27 23:18:48.320119,33.34,1.724123,-0.05922200158238411,0.0831499993801117,-9.801000595092773,0.006260999944061041,-0.019089000299572945,0.0016029999824240804
2024-09-27 23:18:48.361540,33.34,1.724123,-0.05922200158238411,0.0831499993801117,-9.801000595092773,0.006260999944061041,-0.02038699947297573,0.0016029999824240804
2024-09-27 23:18:48.373296,33.34,1.724174,-0.0825520008802414,0.10408700257539749,-9.850053787231445,0.006260999944061041,-0.02038699947297573,0.0005339999916031957
2024-09-27 23:18:48.414690,33.34,1.724224,-0.0825520008802414,0.10408700257539749,-9.850053787231445,0.008475000038743019,-0.018554000183939934,0.0012209999840706587
2024-09-27 23:18:48.425595,33.34,1.724224,-0.04486500099301338,0.06759700179100037,-9.850053787231445,0.008475000038743019,-0.018554000183939934,0.0012209999840706587
2024-09-27 23:18:48.467956,33.34,1.724275,-0.08015900105237961,0.06759700179100037,-9.854839324951172,0.008093000389635563,-0.019241999834775925,-0.00015199999324977398
2024-09-27 23:18:48.509310,33.34,1.724275,-0.08015900105237961,0.0628110021352768,-9.82971477508545,0.008093000389635563,-0.019241999834775925,-0.00015199999324977398
2024-09-27 23:18:48.520093,33.34,1.724365,-0.08015900105237961,0.0628110021352768,-9.82971477508545,0.00496299983933568,-0.01779099926352501,0.000838999985717237
2024-09-27 23:18:48.561995,33.34,1.724365,-0.09391800314188004,0.06879299879074097,-9.875777244567871,0.0044280001893639565,-0.01817299984395504,0.000838999985717237
2024-09-27 23:18:48.573446,33.34,1.724365,-0.09391800314188004,0.06879299879074097,-9.875777244567871,0.0044280001893639565,-0.01817299984395504,0.0018319999799132347
2024-09-27 23:18:48.605208,33.34,1.724417,-0.09391800314188004,0.06879299879074097,-9.875777244567871,0.0044280001893639565,-0.01817299984395504,0.0018319999799132347
2024-09-27 23:18:48.616498,33.34,1.724417,-0.041873998939991,0.05204299837350845,-9.81834888458252,0.0048859999515116215,-0.017409000545740128,0.0018319999799132347
2024-09-27 23:18:48.658518,33.44,1.724468,-0.0825520008802414,0.09391800314188004,-9.81834888458252,0.0048859999515116215,-0.017409000545740128,0.002672000089660287
2024-09-27 23:18:48.670351,33.44,1.724468,-0.0825520008802414,0.09391800314188004,-9.869794845581055,0.006184000056236982,-0.017409000545740128,0.002672000089660287
2024-09-27 23:18:48.712716,33.44,1.724518,-0.049651000648736954,0.09631100296974182,-9.813563346862793,0.006184000056236982,-0.019393999129533768,0.0015269999857991934
2024-09-27 23:18:48.754456,33.44,1.724518,-0.049651000648736954,0.09631100296974182,-9.813563346862793,0.0048859999515116215,-0.019164999946951866,0.0006099999882280827
2024-09-27 23:18:48.765286,33.44,1.724569,-0.08733800053596497,0.09032899886369705,-9.813563346862793,0.0048859999515116215,-0.019164999946951866,0.0006099999882280827
2024-09-27 23:18:48.807293,33.44,1.724569,-0.08733800053596497,0.09032899886369705,-9.835697174072266,0.0048859999515116215,-0.019164999946951866,0.0006099999882280827
2024-09-27 23:18:48.849288,33.44,1.724569,-0.08733800053596497,0.09032899886369705,-9.835697174072266,0.007176999934017658,-0.019164999946951866,0.0006099999882280827
2024-09-27 23:18:48.860320,33.44,1.72462,-0.09331999719142914,0.07537300139665604,-9.835697174072266,0.007176999934017658,-0.018936000764369965,0.00076299998909235
2024-09-27 23:18:48.902732,33.44,1.72462,-0.09331999719142914,0.07537300139665604,-9.845268249511719,0.007788000162690878,-0.01779099926352501,0.0
2024-09-27 23:18:48.915000,33.44,1.724707,-0.07298099994659424,0.07537300139665604,-9.845268249511719,0.007788000162690878,-0.01779099926352501,0.0
2024-09-27 23:18:48.946837,33.44,1.724707,-0.07298099994659424,0.06101600080728531,-9.845268249511719,0.007788000162690878,-0.01779099926352501,0.0
2024-09-27 23:18:48.958021,33.44,1.724758,-0.07298099994659424,0.06101600080728531,-9.841080665588379,0.0055740000680089,-0.018631000071763992,0.00015199999324977398
2024-09-27 23:18:49.001751,33.44,1.724758,-0.07836399972438812,0.09571199864149094,-9.895517349243164,0.006719000171869993,-0.01824899949133396,0.00015199999324977398
2024-09-27 23:18:49.012958,33.44,1.724758,-0.07836399972438812,0.09571199864149094,-9.895517349243164,0.006719000171869993,-0.01824899949133396,0.000838999985717237
2024-09-27 23:18:49.046211,33.44,1.724809,-0.07058800011873245,0.09571199864149094,-9.895517349243164,0.006719000171869993,-0.01824899949133396,0.000838999985717237
2024-09-27 23:18:49.057797,33.44,1.724809,-0.07058800011873245,0.06819500029087067,-9.853044509887695,0.007100999820977449,-0.018478000536561012,0.000838999985717237
2024-09-27 23:18:49.099866,33.44,1.724903,-0.07058800011873245,0.08793599903583527,-9.850053787231445,0.007329999934881926,-0.018478000536561012,0.0017559999832883477
2024-09-27 23:18:49.143392,33.44,1.724903,-0.07058800011873245,0.08793599903583527,-9.850053787231445,0.007329999934881926,-0.01817299984395504,0.0017559999832883477
2024-09-27 23:18:49.154606,33.44,1.724954,-0.06699900329113007,0.06819500029087067,-9.824331283569336,0.007329999934881926,-0.01817299984395504,-0.0002280000044265762
2024-09-27 23:18:49.197060,33.44,1.725004,-0.08913200348615646,0.09152500331401825,-9.824331283569336,0.008399000391364098,-0.01786700077354908,0.001449999981559813
2024-09-27 23:18:49.238917,33.44,1.725004,-0.08913200348615646,0.09152500331401825,-9.805188179016113,0.008399000391364098,-0.01786700077354908,0.001449999981559813
2024-09-27 23:18:49.251251,33.44,1.725055,-0.11066800355911255,0.09152500331401825,-9.805188179016113,0.006794999819248915,-0.017409000545740128,0.0009159999899566174
2024-09-27 23:18:49.344192,33.44,1.725146,-0.11066800355911255,0.05204299837350845,-9.799803733825684,0.007329999934881926,-0.019393999129533768,0.0016029999824240804
2024-09-27 23:18:49.387440,33.44,1.725146,-0.08673900365829468,0.08853399753570557,-9.799803733825684,0.007329999934881926,-0.019393999129533768,0.0016029999824240804
2024-09-27 23:18:49.400047,33.44,1.725146,-0.08673900365829468,0.08853399753570557,-9.835697174072266,0.0055740000680089,-0.01763799972832203,7.599999662488699e-05
2024-09-27 23:18:49.441580,33.44,1.725197,-0.08015900105237961,0.0819540023803711,-9.832107543945312,0.006947999820113182,-0.018554000183939934,7.599999662488699e-05
2024-09-27 23:18:49.485286,33.44,1.725248,-0.08853399753570557,0.0819540023803711,-9.832107543945312,0.006947999820113182,-0.018554000183939934,0.00030499999411404133
2024-09-27 23:18:49.496657,33.44,1.725248,-0.08853399753570557,0.07417699694633484,-9.863214492797852,0.008016999810934067,-0.018554000183939934,0.00030499999411404133
2024-09-27 23:18:49.538511,33.44,1.725298,-0.083747997879982,0.09571199864149094,-9.844670295715332,0.008016999810934067,-0.01817299984395504,-0.001449999981559813
2024-09-27 23:18:49.580263,33.44,1.725298,-0.083747997879982,0.09571199864149094,-9.844670295715332,0.005497000180184841,-0.01817299984395504,-0.001449999981559813
2024-09-27 23:18:49.591904,33.44,1.725391,-0.0831499993801117,0.08793599903583527,-9.844670295715332,0.005497000180184841,-0.01817299984395504,0.0019079999765381217
2024-09-27 23:18:49.633344,33.44,1.725391,-0.0831499993801117,0.08793599903583527,-9.856036186218262,0.00633700005710125,-0.018478000536561012,0.000686999992467463
2024-09-27 23:18:49.644266,33.44,1.725442,-0.06400799751281738,0.08793599903583527,-9.856036186218262,0.00633700005710125,-0.018478000536561012,0.000686999992467463
2024-09-27 23:18:49.686450,33.23,1.725536,-0.06400799751281738,0.05922200158238411,-9.818946838378906,0.006184000056236982,-0.018783999606966972,0.0015269999857991934
2024-09-27 23:18:49.729329,33.23,1.725536,-0.07836399972438812,0.09631100296974182,-9.818946838378906,0.006184000056236982,-0.018783999606966972,0.0015269999857991934
2024-09-27 23:18:49.740795,33.23,1.725536,-0.07836399972438812,0.09631100296974182,-9.851847648620605,0.0068720001727342606,-0.019089000299572945,0.0016029999824240804
2024-09-27 23:18:49.783025,33.23,1.725587,-0.102292999625206,0.09032899886369705,-9.856634140014648,0.008627999573946,-0.019089000299572945,0.0016029999824240804
2024-09-27 23:18:49.876050,33.23,1.725638,-0.07178399711847305,0.09032899886369705,-9.856634140014648,0.008627999573946,-0.019089000299572945,7.599999662488699e-05
2024-09-27 23:18:49.887254,33.23,1.725638,-0.07178399711847305,0.07417699694633484,-9.852446556091309,0.006719000171869993,-0.019089000299572945,7.599999662488699e-05
2024-09-27 23:18:49.972902,33.23,1.725638,-0.07178399711847305,0.07417699694633484,-9.852446556091309,0.006719000171869993,-0.01786700077354908,0.0022899999748915434
2024-09-27 23:18:49.983931,33.23,1.725688,-0.07357899844646454,0.09810499846935272,-9.853044509887695,0.006719000171869993,-0.01786700077354908,0.0022899999748915434
2024-09-27 23:18:50.067760,33.23,1.725688,-0.07357899844646454,0.09810499846935272,-9.853044509887695,0.006566000171005726,-0.01786700077354908,0.0022899999748915434
2024-09-27 23:18:50.078921,33.23,1.725739,-0.056230999529361725,0.09810499846935272,-9.853044509887695,0.006566000171005726,-0.0197759997099638,-7.599999662488699e-05
2024-09-27 23:18:50.121352,33.23,1.725739,-0.056230999529361725,0.04067699983716011,-9.835099220275879,0.006184000056236982,-0.0197759997099638,-7.599999662488699e-05
2024-09-27 23:18:50.132277,33.23,1.72579,-0.056230999529361725,0.04067699983716011,-9.835099220275879,0.006184000056236982,-0.0197759997099638,0.00076299998909235
2024-09-27 23:18:50.174236,33.23,1.72579,-0.102292999625206,0.08494500070810318,-9.823134422302246,0.005191999953240156,-0.018478000536561012,0.0005339999916031957
2024-09-27 23:18:50.215910,33.23,1.725877,-0.06759700179100037,0.08494500070810318,-9.823134422302246,0.005191999953240156,-0.018478000536561012,0.0005339999916031957
2024-09-27 23:18:50.227741,33.23,1.725877,-0.06759700179100037,0.07058800011873245,-9.844072341918945,0.006643000058829784,-0.01779099926352501,0.0005339999916031957
2024-09-27 23:18:50.269777,33.23,1.726023,-0.08793599903583527,0.09750699996948242,-9.854839324951172,0.005115000065416098,-0.01779099926352501,0.0016029999824240804
2024-09-27 23:18:50.312938,33.23,1.726023,-0.08793599903583527,0.09750699996948242,-9.854839324951172,0.005115000065416098,-0.017103999853134155,0.002595999976620078
2024-09-27 23:18:50.324706,33.23,1.726122,-0.083747997879982,0.05503400042653084,-9.821937561035156,0.005115000065416098,-0.017103999853134155,0.002595999976620078
2024-09-27 23:18:50.367484,33.23,1.726172,-0.06400799751281738,0.08494500070810318,-9.821937561035156,0.005038999952375889,-0.018478000536561012,0.001373999984934926
2024-09-27 23:18:50.409449,33.23,1.726172,-0.06400799751281738,0.08494500070810318,-9.863214492797852,0.005038999952375889,-0.018478000536561012,0.001373999984934926
2024-09-27 23:18:50.420892,33.23,1.726223,-0.05204299837350845,0.08494500070810318,-9.863214492797852,0.00572599982842803,-0.018783999606966972,0.0009159999899566174
2024-09-27 23:18:50.463770,33.23,1.726223,-0.05204299837350845,0.10588199645280838,-9.82133960723877,0.00572599982842803,-0.017255999147892,0.0009159999899566174
2024-09-27 23:18:50.474737,33.23,1.726316,-0.05204299837350845,0.10588199645280838,-9.82133960723877,0.00572599982842803,-0.017255999147892,0.0012209999840706587
2024-09-27 23:18:50.507784,33.23,1.726316,-0.08793599903583527,0.10588199645280838,-9.82133960723877,0.00572599982842803,-0.017255999147892,0.0012209999840706587
2024-09-27 23:18:50.519134,33.23,1.726316,-0.08793599903583527,0.06101600080728531,-9.81535816192627,0.0053449999541044235,-0.019471000880002975,0.0016029999824240804
2024-09-27 23:18:50.561987,33.23,1.726367,-0.06101600080728531,0.0843459963798523,-9.847063064575195,0.007100999820977449,-0.019471000880002975,0.0016029999824240804
2024-09-27 23:18:50.573086,33.23,1.726367,-0.06101600080728531,0.0843459963798523,-9.847063064575195,0.007100999820977449,-0.019164999946951866,0.0016029999824240804
2024-09-27 23:18:50.605530,33.23,1.726418,-0.06101600080728531,0.0843459963798523,-9.847063064575195,0.007100999820977449,-0.019164999946951866,0.0019079999765381217
2024-09-27 23:18:50.617029,33.23,1.726418,-0.08673900365829468,0.0628110021352768,-9.807580947875977,0.0068720001727342606,-0.019164999946951866,0.0019079999765381217
2024-09-27 23:18:50.658977,33.23,1.726468,-0.06699900329113007,0.0628110021352768,-9.807580947875977,0.0068720001727342606,-0.019471000880002975,0.0017559999832883477
2024-09-27 23:18:50.711173,32.96,1.726519,-0.06699900329113007,0.06819500029087067,-9.844670295715332,0.007482999935746193,-0.019471000880002975,7.599999662488699e-05
2024-09-27 23:18:50.753423,32.96,1.726519,-0.09511400014162064,0.07956100255250931,-9.857232093811035,0.007482999935746193,-0.019471000880002975,7.599999662488699e-05
2024-09-27 23:18:50.764469,32.96,1.726519,-0.09511400014162064,0.07956100255250931,-9.857232093811035,0.004581000190228224,-0.0197759997099638,0.0024429999757558107
2024-09-27 23:18:50.805744,32.96,1.72657,-0.08075699955224991,0.05443599820137024,-9.852446556091309,0.006719000171869993,-0.018706999719142914,0.0024429999757558107
2024-09-27 23:18:50.849961,32.96,1.726657,-0.08075699955224991,0.05443599820137024,-9.852446556091309,0.006719000171869993,-0.018706999719142914,0.002061000093817711
2024-09-27 23:18:50.861090,32.96,1.726657,-0.07956100255250931,0.07477500289678574,-9.844670295715332,0.006260999944061041,-0.018706999719142914,0.002061000093817711
2024-09-27 23:18:50.902747,32.96,1.726708,-0.06460600346326828,0.06699900329113007,-9.844670295715332,0.006260999944061041,-0.019547000527381897,0.0024429999757558107
2024-09-27 23:18:50.914259,32.96,1.726708,-0.06460600346326828,0.06699900329113007,-9.848856925964355,0.006260999944061041,-0.019547000527381897,0.0024429999757558107
2024-09-27 23:18:50.946491,32.96,1.726708,-0.06460600346326828,0.06699900329113007,-9.848856925964355,0.005115000065416098,-0.019547000527381897,0.0024429999757558107
2024-09-27 23:18:50.957913,32.96,1.726759,-0.07656999677419662,0.07238200306892395,-9.848856925964355,0.005115000065416098,-0.01748500019311905,0.00076299998909235
2024-09-27 23:18:51.000733,32.96,1.726809,-0.07656999677419662,0.07238200306892395,-9.838687896728516,0.007176999934017658,-0.018783999606966972,0.001984999980777502
2024-09-27 23:18:51.012266,32.96,1.726809,-0.09631100296974182,0.07238200306892395,-9.838687896728516,0.007176999934017658,-0.018783999606966972,0.001984999980777502
2024-09-27 23:18:51.044305,32.96,1.726809,-0.09631100296974182,0.09032899886369705,-9.81715202331543,0.007176999934017658,-0.018783999606966972,0.001984999980777502
2024-09-27 23:18:51.057060,32.96,1.7269,-0.09631100296974182,0.09032899886369705,-9.81715202331543,0.006184000056236982,-0.019241999834775925,-0.00076299998909235
2024-09-27 23:18:51.098361,32.96,1.7269,-0.09810499846935272,0.0843459963798523,-9.847661018371582,0.004275999963283539,-0.01779099926352501,0.000686999992467463
2024-09-27 23:18:51.140246,32.96,1.726952,-0.09810499846935272,0.0843459963798523,-9.847661018371582,0.004275999963283539,-0.01779099926352501,0.000686999992467463
2024-09-27 23:18:51.151515,32.96,1.726952,-0.07597199827432632,0.09451600164175034,-9.855438232421875,0.007406000047922134,-0.01779099926352501,0.000686999992467463
2024-09-27 23:18:51.193448,32.96,1.727003,-0.0628110021352768,0.09451600164175034,-9.855438232421875,0.007406000047922134,-0.01779099926352501,0.0024429999757558107
2024-09-27 23:18:51.206084,32.96,1.727003,-0.0628110021352768,0.0628110021352768,-9.839883804321289,0.007406000047922134,-0.01779099926352501,0.0024429999757558107
2024-09-27 23:18:51.237978,32.96,1.727003,-0.0628110021352768,0.0628110021352768,-9.839883804321289,0.007712000049650669,-0.01779099926352501,0.0024429999757558107
2024-09-27 23:18:51.249058,32.96,1.727053,-0.09511400014162064,0.062212999910116196,-9.839883804321289,0.007712000049650669,-0.01817299984395504,0.0018319999799132347
2024-09-27 23:18:51.291284,32.96,1.727053,-0.09511400014162064,0.062212999910116196,-9.879365921020508,0.006413999944925308,-0.02000500075519085,0.0016029999824240804
2024-09-27 23:18:51.302394,32.96,1.727104,-0.08494500070810318,0.062212999910116196,-9.879365921020508,0.006413999944925308,-0.02000500075519085,0.0016029999824240804
2024-09-27 23:18:51.344689,32.96,1.727155,-0.08494500070810318,0.08554299920797348,-9.860222816467285,0.006566000171005726,-0.019317999482154846,0.0009159999899566174
2024-09-27 23:18:51.390242,32.96,1.727155,-0.06639999896287918,0.08913200348615646,-9.858428955078125,0.006947999820113182,-0.019317999482154846,0.0009159999899566174
2024-09-27 23:18:51.401830,32.96,1.727155,-0.06639999896287918,0.08913200348615646,-9.858428955078125,0.006947999820113182,-0.017409000545740128,0.0006099999882280827
2024-09-27 23:18:51.434363,32.96,1.727242,-0.06639999896287918,0.08913200348615646,-9.858428955078125,0.006947999820113182,-0.017409000545740128,0.0006099999882280827
2024-09-27 23:18:51.445929,32.96,1.727242,-0.06639999896287918,0.09750699996948242,-9.867402076721191,0.0056500001810491085,-0.01786700077354908,0.0006099999882280827
2024-09-27 23:18:51.488116,32.96,1.727293,-0.0628110021352768,0.07896299660205841,-9.833304405212402,0.008093000389635563,-0.01786700077354908,-0.0002280000044265762
2024-09-27 23:18:51.530249,32.96,1.727293,-0.0628110021352768,0.07896299660205841,-9.833304405212402,0.008093000389635563,-0.018631000071763992,-0.0002280000044265762
2024-09-27 23:18:51.541257,32.96,1.727344,-0.08015900105237961,0.07178399711847305,-9.889534950256348,0.008093000389635563,-0.018631000071763992,-0.0005339999916031957
2024-09-27 23:18:51.586745,32.96,1.727395,-0.08015900105237961,0.07178399711847305,-9.889534950256348,0.006794999819248915,-0.018478000536561012,0.0009919999865815043
2024-09-27 23:18:51.598391,32.96,1.727395,-0.09631100296974182,0.08554299920797348,-9.889534950256348,0.006794999819248915,-0.018478000536561012,0.0009919999865815043
2024-09-27 23:18:51.633446,32.96,1.727395,-0.09631100296974182,0.08554299920797348,-9.845268249511719,0.0061079999431967735,-0.018478000536561012,0.0009919999865815043
2024-09-27 23:18:51.644926,32.96,1.727446,-0.06400799751281738,0.08554299920797348,-9.845268249511719,0.0061079999431967735,-0.016568999737501144,0.0022140000946819782
2024-09-27 23:18:51.681460,32.96,1.727446,-0.06400799751281738,0.07357899844646454,-9.810571670532227,0.005878999829292297,-0.016568999737501144,0.0022140000946819782
2024-09-27 23:18:51.692951,32.96,1.727534,-0.06400799751281738,0.07357899844646454,-9.810571670532227,0.005878999829292297,-0.019241999834775925,0.0003809999907389283
2024-09-27 23:18:51.735359,33.18,1.727534,-0.058024998754262924,0.09152500331401825,-9.887142181396484,0.006643000058829784,-0.018936000764369965,0.0002280000044265762
2024-09-27 23:18:51.778725,33.18,1.727586,-0.09212300181388855,0.09571199864149094,-9.889534950256348,0.006643000058829784,-0.018936000764369965,0.0002280000044265762
2024-09-27 23:18:51.792766,33.18,1.727586,-0.09212300181388855,0.09571199864149094,-9.889534950256348,0.007864000275731087,-0.019317999482154846,0.0002280000044265762
2024-09-27 23:18:51.825252,33.18,1.727636,-0.09212300181388855,0.09571199864149094,-9.889534950256348,0.007864000275731087,-0.019317999482154846,0.0009159999899566174
2024-09-27 23:18:51.836635,33.18,1.727636,-0.07238200306892395,0.04606100171804428,-9.82014274597168,0.008399000391364098,-0.019317999482154846,0.0009159999899566174
2024-09-27 23:18:51.878695,33.18,1.727687,-0.09272100031375885,0.06699900329113007,-9.854241371154785,0.008399000391364098,-0.018554000183939934,0.0012209999840706587
2024-09-27 23:18:51.922078,33.18,1.727687,-0.09272100031375885,0.06699900329113007,-9.854241371154785,0.0076350001618266106,-0.01809599995613098,0.0012209999840706587
2024-09-27 23:18:51.933352,33.18,1.727738,-0.07357899844646454,0.06819500029087067,-9.854241371154785,0.0076350001618266106,-0.01809599995613098,0.0015269999857991934
2024-09-27 23:18:51.976514,33.18,1.727788,-0.08913200348615646,0.06819500029087067,-9.79860782623291,0.006947999820113182,-0.017255999147892,0.0004579999949783087
2024-09-27 23:18:52.018172,33.18,1.727788,-0.08913200348615646,0.08793599903583527,-9.79860782623291,0.006947999820113182,-0.017255999147892,0.0004579999949783087
2024-09-27 23:18:52.029683,33.18,1.727875,-0.08913200348615646,0.08793599903583527,-9.833902359008789,0.006260999944061041,-0.01779099926352501,0.002672000089660287
2024-09-27 23:18:52.070902,33.18,1.727875,-0.07956100255250931,0.062212999910116196,-9.856036186218262,0.006566000171005726,-0.01779099926352501,0.002672000089660287
2024-09-27 23:18:52.081879,33.18,1.727875,-0.07956100255250931,0.062212999910116196,-9.856036186218262,0.006566000171005726,-0.017409000545740128,0.0009919999865815043
2024-09-27 23:18:52.124168,33.18,1.727927,-0.055633001029491425,0.0843459963798523,-9.845268249511719,0.005954999942332506,-0.019089000299572945,0.0009919999865815043
2024-09-27 23:18:52.166310,33.18,1.727978,-0.055633001029491425,0.0843459963798523,-9.845268249511719,0.005954999942332506,-0.019089000299572945,0.00030499999411404133
2024-09-27 23:18:52.177927,33.18,1.727978,-0.0831499993801117,0.09511400014162064,-9.864411354064941,0.007023999933153391,-0.019089000299572945,0.00030499999411404133
2024-09-27 23:18:52.219832,33.18,1.728028,-0.09032899886369705,0.07776600122451782,-9.852446556091309,0.007023999933153391,-0.018859999254345894,-0.0003809999907389283
2024-09-27 23:18:52.262857,33.18,1.728028,-0.09032899886369705,0.07776600122451782,-9.852446556091309,0.00633700005710125,-0.018859999254345894,-0.0003809999907389283
2024-09-27 23:18:52.274656,33.18,1.728079,-0.07357899844646454,0.06460600346326828,-9.852446556091309,0.00633700005710125,-0.018859999254345894,0.0002280000044265762
2024-09-27 23:18:52.317739,33.18,1.72813,-0.0628110021352768,0.06460600346326828,-9.860222816467285,0.006260999944061041,-0.02015800029039383,0.0016789999790489674
2024-09-27 23:18:52.361518,33.18,1.72813,-0.0628110021352768,0.08733800053596497,-9.869794845581055,0.006260999944061041,-0.02015800029039383,0.0016789999790489674
2024-09-27 23:18:52.372957,33.18,1.728216,-0.0628110021352768,0.08733800053596497,-9.869794845581055,0.005497000180184841,-0.01603499986231327,0.0022899999748915434
2024-09-27 23:18:52.415619,33.18,1.728216,-0.0209369994699955,0.06939099729061127,-9.843473434448242,0.005268000066280365,-0.018936000764369965,0.0022899999748915434
2024-09-27 23:18:52.426817,33.18,1.728216,-0.0209369994699955,0.06939099729061127,-9.843473434448242,0.005268000066280365,-0.018936000764369965,0.00030499999411404133
2024-09-27 23:18:52.459402,33.18,1.728268,-0.10947100073099136,0.09511400014162064,-9.843473434448242,0.005268000066280365,-0.018936000764369965,0.00030499999411404133
2024-09-27 23:18:52.470404,33.18,1.728268,-0.10947100073099136,0.09511400014162064,-9.862017631530762,0.0055740000680089,-0.019164999946951866,0.00030499999411404133
2024-09-27 23:18:52.512932,33.18,1.728319,-0.0843459963798523,0.1226319968700409,-9.827322006225586,0.006719000171869993,-0.019164999946951866,0.0028250000905245543
2024-09-27 23:18:52.556071,33.18,1.728319,-0.0843459963798523,0.1226319968700409,-9.827322006225586,0.006719000171869993,-0.019241999834775925,0.001984999980777502
2024-09-27 23:18:52.567544,33.18,1.728369,-0.11485499888658524,0.07178399711847305,-9.871588706970215,0.006719000171869993,-0.019241999834775925,0.001984999980777502
2024-09-27 23:18:52.661013,33.18,1.72842,-0.08554299920797348,0.10468500107526779,-9.871588706970215,0.006184000056236982,-0.018859999254345894,0.000686999992467463
2024-09-27 23:18:52.703643,33.18,1.72842,-0.08554299920797348,0.10468500107526779,-9.856634140014648,0.006031999830156565,-0.018859999254345894,0.000686999992467463
2024-09-27 23:18:52.714465,33.18,1.728471,-0.06999000161886215,0.10468500107526779,-9.856634140014648,0.006031999830156565,-0.018859999254345894,-7.599999662488699e-05
2024-09-27 23:18:52.756063,33.02,1.728558,-0.06999000161886215,0.07058800011873245,-9.839883804321289,0.007712000049650669,-0.019317999482154846,0.001984999980777502
2024-09-27 23:18:52.797728,33.02,1.728558,-0.08793599903583527,0.07058800011873245,-9.839883804321289,0.007712000049650669,-0.019317999482154846,0.001984999980777502
2024-09-27 23:18:52.809063,33.02,1.728558,-0.08793599903583527,0.055633001029491425,-9.841080665588379,0.008093000389635563,-0.019089000299572945,0.0018319999799132347
2024-09-27 23:18:52.851810,33.02,1.728609,-0.058024998754262924,0.07716800272464752,-9.841080665588379,0.008093000389635563,-0.019089000299572945,0.0018319999799132347
2024-09-27 23:18:52.863760,33.02,1.728609,-0.058024998754262924,0.07716800272464752,-9.879365921020508,0.006794999819248915,-0.019241999834775925,0.0018319999799132347
2024-09-27 23:18:52.906216,33.02,1.728705,-0.06759700179100037,0.058024998754262924,-9.808178901672363,0.008170000277459621,-0.019241999834775925,0.0011449999874457717
2024-09-27 23:18:52.950084,33.02,1.728756,-0.06759700179100037,0.058024998754262924,-9.808178901672363,0.008170000277459621,-0.01962300017476082,0.0006099999882280827
2024-09-27 23:18:52.961876,33.02,1.728756,-0.0825520008802414,0.06759700179100037,-9.835697174072266,0.008170000277459621,-0.01962300017476082,0.0006099999882280827
2024-09-27 23:18:52.993757,33.02,1.728756,-0.0825520008802414,0.06759700179100037,-9.835697174072266,0.007253000047057867,-0.01962300017476082,0.0006099999882280827
2024-09-27 23:18:53.005419,33.02,1.728807,-0.06999000161886215,0.09571199864149094,-9.835697174072266,0.007253000047057867,-0.01817299984395504,-7.599999662488699e-05
2024-09-27 23:18:53.048239,33.02,1.728807,-0.06999000161886215,0.09571199864149094,-9.835697174072266,0.006947999820113182,-0.019013000652194023,0.000838999985717237
2024-09-27 23:18:53.060116,33.02,1.728858,-0.06639999896287918,0.09571199864149094,-9.835697174072266,0.006947999820113182,-0.019013000652194023,0.000838999985717237
2024-09-27 23:18:53.093055,33.02,1.728858,-0.06639999896287918,0.0628110021352768,-9.835697174072266,0.006947999820113182,-0.019013000652194023,0.000838999985717237
2024-09-27 23:18:53.104774,33.02,1.728948,-0.06639999896287918,0.0628110021352768,-9.890731811523438,0.005878999829292297,-0.016645999625325203,0.0017559999832883477
2024-09-27 23:18:53.146931,33.02,1.728948,-0.0628110021352768,0.09631100296974182,-9.870392799377441,0.0056500001810491085,-0.017333000898361206,0.0017559999832883477
2024-09-27 23:18:53.158737,33.02,1.728948,-0.0628110021352768,0.09631100296974182,-9.870392799377441,0.0056500001810491085,-0.017333000898361206,0.0018319999799132347
2024-09-27 23:18:53.190780,33.02,1.729,-0.0628110021352768,0.09631100296974182,-9.870392799377441,0.0056500001810491085,-0.017333000898361206,0.0018319999799132347
2024-09-27 23:18:53.201920,33.02,1.729,-0.06759700179100037,0.0843459963798523,-9.815956115722656,0.005954999942332506,-0.017409000545740128,0.0018319999799132347
2024-09-27 23:18:53.244322,33.02,1.72905,-0.09451600164175034,0.0634090006351471,-9.862615585327148,0.005954999942332506,-0.017409000545740128,0.0018319999799132347
2024-09-27 23:18:53.257138,33.02,1.72905,-0.09451600164175034,0.0634090006351471,-9.862615585327148,0.006794999819248915,-0.017409000545740128,0.0018319999799132347
2024-09-27 23:18:53.290011,33.02,1.729101,-0.09451600164175034,0.0634090006351471,-9.862615585327148,0.006794999819248915,-0.019317999482154846,0.0015269999857991934
2024-09-27 23:18:53.301708,33.02,1.729101,-0.05862399935722351,0.07238200306892395,-9.860222816467285,0.006794999819248915,-0.019317999482154846,0.0015269999857991934
2024-09-27 23:18:53.343981,33.02,1.729152,-0.07178399711847305,0.0825520008802414,-9.860222816467285,0.0076350001618266106,-0.018859999254345894,0.003358999965712428
2024-09-27 23:18:53.388511,33.02,1.729152,-0.07178399711847305,0.0825520008802414,-9.869794845581055,0.007864000275731087,-0.01840200088918209,0.003358999965712428
2024-09-27 23:18:53.400365,33.02,1.729203,-0.05862399935722351,0.0825520008802414,-9.869794845581055,0.007864000275731087,-0.01840200088918209,0.0009919999865815043
2024-09-27 23:18:53.437672,33.02,1.729203,-0.05862399935722351,0.07178399711847305,-9.896116256713867,0.00572599982842803,-0.01840200088918209,0.0009919999865815043
2024-09-27 23:18:53.448613,33.02,1.729289,-0.05862399935722351,0.07178399711847305,-9.896116256713867,0.00572599982842803,-0.017714999616146088,0.0025190000887960196
2024-09-27 23:18:53.480093,33.02,1.729289,-0.08913200348615646,0.07178399711847305,-9.896116256713867,0.00572599982842803,-0.017714999616146088,0.0025190000887960196
2024-09-27 23:18:53.491118,33.02,1.729289,-0.08913200348615646,0.10109599679708481,-9.835697174072266,0.006947999820113182,-0.019317999482154846,0.0015269999857991934
2024-09-27 23:18:53.533192,33.02,1.729341,-0.0628110021352768,0.06999000161886215,-9.865607261657715,0.006947999820113182,-0.019317999482154846,0.0015269999857991934
2024-09-27 23:18:53.544214,33.02,1.729341,-0.0628110021352768,0.06999000161886215,-9.865607261657715,0.006566000171005726,-0.01824899949133396,0.0015269999857991934
2024-09-27 23:18:53.585846,33.02,1.729391,-0.07118599861860275,0.08075699955224991,-9.870990753173828,0.006031999830156565,-0.01824899949133396,0.0017559999832883477
2024-09-27 23:18:53.627982,33.02,1.729391,-0.07118599861860275,0.08075699955224991,-9.870990753173828,0.006031999830156565,-0.018478000536561012,-0.000838999985717237
2024-09-27 23:18:53.638763,33.02,1.729442,-0.06879299879074097,0.09511400014162064,-9.8267240524292,0.006031999830156565,-0.018478000536561012,-0.000838999985717237
2024-09-27 23:18:53.681178,33.02,1.729493,-0.07836399972438812,0.09511400014162064,-9.8267240524292,0.007100999820977449,-0.01962300017476082,0.0006099999882280827
2024-09-27 23:18:53.693087,33.02,1.729493,-0.07836399972438812,0.05264199897646904,-9.8267240524292,0.007100999820977449,-0.01962300017476082,0.0006099999882280827
2024-09-27 23:18:53.725327,33.02,1.729493,-0.07836399972438812,0.05264199897646904,-9.868597984313965,0.006566000171005726,-0.01962300017476082,0.0006099999882280827
2024-09-27 23:18:53.737084,33.02,1.729543,-0.0843459963798523,0.05264199897646904,-9.868597984313965,0.006566000171005726,-0.019471000880002975,0.0016789999790489674
2024-09-27 23:18:53.779556,33.5,1.72963,-0.0843459963798523,0.0634090006351471,-9.852446556091309,0.005954999942332506,-0.01840200088918209,0.0005339999916031957
2024-09-27 23:18:53.822452,33.5,1.72963,-0.07716800272464752,0.0634090006351471,-9.852446556091309,0.005954999942332506,-0.01840200088918209,0.0005339999916031957
2024-09-27 23:18:53.834144,33.5,1.72963,-0.07716800272464752,0.07836399972438812,-9.811169624328613,0.007023999933153391,-0.01817299984395504,0.0006099999882280827
2024-09-27 23:18:53.876178,33.5,1.729682,-0.10109599679708481,0.09511400014162064,-9.836295127868652,0.006260999944061041,-0.01817299984395504,0.0006099999882280827
2024-09-27 23:18:53.887673,33.5,1.729682,-0.10109599679708481,0.09511400014162064,-9.836295127868652,0.006260999944061041,-0.017179999500513077,0.0006099999882280827
2024-09-27 23:18:53.918995,33.5,1.729682,-0.10109599679708481,0.09511400014162064,-9.836295127868652,0.006260999944061041,-0.017179999500513077,-0.00015199999324977398
2024-09-27 23:18:53.930028,33.5,1.729733,-0.07417699694633484,0.05204299837350845,-9.834500312805176,0.0076350001618266106,-0.017179999500513077,-0.00015199999324977398
2024-09-27 23:18:53.972790,33.5,1.729783,-0.07417699694633484,0.05204299837350845,-9.834500312805176,0.0076350001618266106,-0.019013000652194023,0.00015199999324977398
2024-09-27 23:18:53.984490,33.5,1.729783,-0.08075699955224991,0.09451600164175034,-9.891927719116211,0.0076350001618266106,-0.019013000652194023,0.00015199999324977398
2024-09-27 23:18:54.028139,33.5,1.729834,-0.08793599903583527,0.08973000198602676,-9.891927719116211,0.004656999837607145,-0.018478000536561012,0.0002280000044265762
2024-09-27 23:18:54.070136,33.5,1.729834,-0.08793599903583527,0.08973000198602676,-9.829116821289062,0.00633700005710125,-0.019317999482154846,0.0011449999874457717
2024-09-27 23:18:54.082758,33.5,1.729885,-0.08614099770784378,0.08973000198602676,-9.829116821289062,0.00633700005710125,-0.019317999482154846,0.0011449999874457717
2024-09-27 23:18:54.113899,33.5,1.729885,-0.08614099770784378,0.07298099994659424,-9.829116821289062,0.00633700005710125,-0.019317999482154846,0.0011449999874457717
2024-09-27 23:18:54.124781,33.5,1.729972,-0.08614099770784378,0.07298099994659424,-9.864411354064941,0.004809999838471413,-0.01817299984395504,-0.00015199999324977398
2024-09-27 23:18:54.166109,33.5,1.729972,-0.1034889966249466,0.04845400154590607,-9.872785568237305,0.004809999838471413,-0.01817299984395504,-0.00015199999324977398
2024-09-27 23:18:54.177543,33.5,1.729972,-0.1034889966249466,0.04845400154590607,-9.872785568237305,0.005803000181913376,-0.017562000080943108,0.0025190000887960196
2024-09-27 23:18:54.218880,33.5,1.730023,-0.08853399753570557,0.08015900105237961,-9.837491035461426,0.006490000057965517,-0.016875000670552254,0.0025190000887960196
2024-09-27 23:18:54.262181,33.5,1.730074,-0.08853399753570557,0.08015900105237961,-9.837491035461426,0.006490000057965517,-0.016875000670552254,0.003358999965712428
2024-09-27 23:18:54.274335,33.5,1.730074,-0.1028909981250763,0.056230999529361725,-9.837491035461426,0.006490000057965517,-0.016875000670552254,0.003358999965712428
2024-09-27 23:18:54.316182,33.5,1.730124,-0.07656999677419662,0.056230999529361725,-9.862017631530762,0.006413999944925308,-0.018706999719142914,0.0019079999765381217
2024-09-27 23:18:54.357783,33.5,1.730124,-0.07656999677419662,0.05084700137376785,-9.862017631530762,0.006413999944925308,-0.018706999719142914,0.0019079999765381217
2024-09-27 23:18:54.369463,33.5,1.730175,-0.07656999677419662,0.05084700137376785,-9.846464157104492,0.006260999944061041,-0.019852999597787857,0.0022899999748915434
2024-09-27 23:18:54.411739,33.5,1.730175,-0.07118599861860275,0.08913200348615646,-9.897910118103027,0.008551999926567078,-0.019852999597787857,0.0022899999748915434
2024-09-27 23:18:54.423656,33.5,1.730175,-0.07118599861860275,0.08913200348615646,-9.897910118103027,0.008551999926567078,-0.017333000898361206,0.0028250000905245543
2024-09-27 23:18:54.455059,33.5,1.730226,-0.07118599861860275,0.08913200348615646,-9.897910118103027,0.008551999926567078,-0.017333000898361206,0.0028250000905245543
2024-09-27 23:18:54.466356,33.5,1.730226,-0.08015900105237961,0.09930200129747391,-9.872785568237305,0.006794999819248915,-0.01802000030875206,0.0028250000905245543
2024-09-27 23:18:54.508893,33.5,1.730313,-0.05922200158238411,0.06699900329113007,-9.872785568237305,0.006794999819248915,-0.01802000030875206,0.0015269999857991934
2024-09-27 23:18:54.520042,33.5,1.730313,-0.05922200158238411,0.06699900329113007,-9.833902359008789,0.007100999820977449,-0.01802000030875206,0.0015269999857991934
2024-09-27 23:18:54.562410,33.5,1.730364,-0.07118599861860275,0.07238200306892395,-9.823134422302246,0.007100999820977449,-0.017562000080943108,0.00030499999411404133
2024-09-27 23:18:54.604210,33.5,1.730364,-0.07118599861860275,0.07238200306892395,-9.823134422302246,0.007253000047057867,-0.019089000299572945,0.00015199999324977398
2024-09-27 23:18:54.615103,33.5,1.730415,-0.07058800011873245,0.07656999677419662,-9.823134422302246,0.007253000047057867,-0.019089000299572945,0.00015199999324977398
2024-09-27 23:18:54.656875,33.5,1.730415,-0.07058800011873245,0.07656999677419662,-9.853044509887695,0.00633700005710125,-0.019089000299572945,0.00015199999324977398
2024-09-27 23:18:54.709677,33.5,1.730466,-0.09212300181388855,0.07118599861860275,-9.838089942932129,0.00633700005710125,-0.018706999719142914,-0.00015199999324977398
2024-09-27 23:18:54.752145,33.5,1.730557,-0.09212300181388855,0.07118599861860275,-9.838089942932129,0.004809999838471413,-0.019241999834775925,0.0006099999882280827
2024-09-27 23:18:54.764777,33.5,1.730557,-0.05982000008225441,0.10588199645280838,-9.838089942932129,0.004809999838471413,-0.019241999834775925,0.0006099999882280827
2024-09-27 23:18:54.846824,33.76,1.730557,-0.05982000008225441,0.10588199645280838,-9.857830047607422,0.007023999933153391,-0.019241999834775925,0.0006099999882280827
2024-09-27 23:18:54.858477,33.76,1.730608,-0.10468500107526779,0.10588199645280838,-9.857830047607422,0.007023999933153391,-0.018783999606966972,0.0022899999748915434
2024-09-27 23:18:54.900766,33.76,1.730659,-0.10468500107526779,0.09810499846935272,-9.837491035461426,0.0076350001618266106,-0.02031099982559681,0.0022140000946819782
2024-09-27 23:18:54.942728,33.76,1.730659,-0.08135499805212021,0.09810499846935272,-9.837491035461426,0.0076350001618266106,-0.02031099982559681,0.0022140000946819782
2024-09-27 23:18:54.953967,33.76,1.730659,-0.08135499805212021,0.11186400055885315,-9.841678619384766,0.007100999820977449,-0.019089000299572945,0.0006099999882280827
2024-09-27 23:18:55.046417,33.76,1.730752,-0.07836399972438812,0.09212300181388855,-9.857232093811035,0.007329999934881926,-0.019089000299572945,0.0006099999882280827
2024-09-27 23:18:55.058246,33.76,1.730752,-0.07836399972438812,0.09212300181388855,-9.857232093811035,0.007329999934881926,-0.01763799972832203,0.0006099999882280827
2024-09-27 23:18:55.090929,33.76,1.730804,-0.07836399972438812,0.09212300181388855,-9.857232093811035,0.007329999934881926,-0.01763799972832203,0.0011449999874457717
2024-09-27 23:18:55.101805,33.76,1.730804,-0.049651000648736954,0.07178399711847305,-9.854241371154785,0.008093000389635563,-0.01763799972832203,0.0011449999874457717
2024-09-27 23:18:55.194406,33.76,1.730899,-0.031106000766158104,0.09631100296974182,-9.821937561035156,0.008093000389635563,-0.018859999254345894,0.000686999992467463
2024-09-27 23:18:55.236267,33.76,1.730899,-0.031106000766158104,0.09631100296974182,-9.821937561035156,0.006719000171869993,-0.018631000071763992,0.000686999992467463
2024-09-27 23:18:55.248028,33.76,1.73095,-0.07477500289678574,0.07896299660205841,-9.821937561035156,0.006719000171869993,-0.018631000071763992,0.0019079999765381217
2024-09-27 23:18:55.289656,33.76,1.731001,-0.07477500289678574,0.07896299660205841,-9.859026908874512,0.007253000047057867,-0.019241999834775925,-0.00076299998909235
2024-09-27 23:18:55.301365,33.76,1.731001,-0.07716800272464752,0.07896299660205841,-9.859026908874512,0.007253000047057867,-0.019241999834775925,-0.00076299998909235
2024-09-27 23:18:55.335028,33.76,1.731001,-0.07716800272464752,0.07537300139665604,-9.866803169250488,0.007253000047057867,-0.019241999834775925,-0.00076299998909235
2024-09-27 23:18:55.346049,33.76,1.731141,-0.07716800272464752,0.07537300139665604,-9.866803169250488,0.005954999942332506,-0.0197759997099638,-0.0005339999916031957
2024-09-27 23:18:55.387798,33.76,1.731141,-0.07537300139665604,0.0843459963798523,-9.843473434448242,0.006413999944925308,-0.01748500019311905,0.000838999985717237
2024-09-27 23:18:55.440810,33.76,1.73124,-0.07178399711847305,0.056230999529361725,-9.834500312805176,0.007100999820977449,-0.017562000080943108,0.000838999985717237
2024-09-27 23:18:55.484326,33.76,1.731291,-0.05862399935722351,0.055633001029491425,-9.834500312805176,0.007100999820977449,-0.017562000080943108,0.001449999981559813
2024-09-27 23:18:55.495750,33.76,1.731291,-0.05862399935722351,0.055633001029491425,-9.833902359008789,0.007941000163555145,-0.017562000080943108,0.001449999981559813
2024-09-27 23:18:55.538074,33.76,1.731342,-0.08075699955224991,0.08075699955224991,-9.847063064575195,0.007941000163555145,-0.017714999616146088,-0.00030499999411404133
2024-09-27 23:18:55.579891,33.76,1.731342,-0.08075699955224991,0.08075699955224991,-9.847063064575195,0.007788000162690878,-0.020082000643014908,0.0
2024-09-27 23:18:55.591708,33.76,1.731393,-0.06580200046300888,0.09331999719142914,-9.847063064575195,0.007788000162690878,-0.020082000643014908,0.0
2024-09-27 23:18:55.634095,33.76,1.731443,-0.07417699694633484,0.09331999719142914,-9.871588706970215,0.006566000171005726,-0.020844999700784683,-0.0009919999865815043
2024-09-27 23:18:55.675796,33.76,1.731443,-0.07417699694633484,0.08673900365829468,-9.845866203308105,0.006566000171005726,-0.020844999700784683,-0.0009919999865815043
2024-09-27 23:18:55.686705,33.76,1.731531,-0.07417699694633484,0.08673900365829468,-9.845866203308105,0.006184000056236982,-0.01824899949133396,0.000838999985717237
2024-09-27 23:18:55.728347,33.76,1.731531,-0.03290100023150444,0.10648000240325928,-9.805188179016113,0.006031999830156565,-0.01824899949133396,0.000838999985717237
2024-09-27 23:18:55.739848,33.76,1.731531,-0.03290100023150444,0.10648000240325928,-9.805188179016113,0.006031999830156565,-0.01824899949133396,0.0010689999908208847
2024-09-27 23:18:55.771206,33.76,1.731583,-0.03290100023150444,0.10648000240325928,-9.805188179016113,0.006031999830156565,-0.01824899949133396,0.0010689999908208847
2024-09-27 23:18:55.782786,33.76,1.731583,-0.0825520008802414,0.07537300139665604,-9.82373332977295,0.005115000065416098,-0.018706999719142914,0.0010689999908208847
2024-09-27 23:18:55.824169,33.76,1.731634,-0.08913200348615646,0.09032899886369705,-9.82373332977295,0.005115000065416098,-0.018706999719142914,0.001984999980777502
2024-09-27 23:18:55.835312,33.76,1.731634,-0.08913200348615646,0.09032899886369705,-9.850651741027832,0.0055740000680089,-0.018706999719142914,0.001984999980777502
2024-09-27 23:18:55.877440,33.62,1.731684,-0.08075699955224991,0.09451600164175034,-9.810571670532227,0.0055740000680089,-0.017562000080943108,0.0003809999907389283
2024-09-27 23:18:55.920619,33.62,1.731684,-0.08075699955224991,0.09451600164175034,-9.810571670532227,0.006719000171869993,-0.019013000652194023,0.00015199999324977398
2024-09-27 23:18:55.931367,33.62,1.731735,-0.04067699983716011,0.07776600122451782,-9.810571670532227,0.006719000171869993,-0.019013000652194023,0.00015199999324977398
2024-09-27 23:18:55.973571,33.62,1.731786,-0.09272100031375885,0.07776600122451782,-9.863812446594238,0.005038999952375889,-0.019089000299572945,-0.0002280000044265762
2024-09-27 23:18:56.015310,33.62,1.731786,-0.09272100031375885,0.07956100255250931,-9.863812446594238,0.005038999952375889,-0.019089000299572945,-0.0002280000044265762
2024-09-27 23:18:56.026758,33.62,1.731873,-0.09272100031375885,0.07956100255250931,-9.826126098632812,0.007482999935746193,-0.019241999834775925,0.0019079999765381217
2024-09-27 23:18:56.068346,33.62,1.731873,-0.06400799751281738,0.09989999979734421,-9.81834888458252,0.008627999573946,-0.019241999834775925,0.0019079999765381217
2024-09-27 23:18:56.081176,33.62,1.731873,-0.06400799751281738,0.09989999979734421,-9.81834888458252,0.008627999573946,-0.01809599995613098,0.0015269999857991934
2024-09-27 23:18:56.112895,33.62,1.731924,-0.06400799751281738,0.09989999979734421,-9.81834888458252,0.008627999573946,-0.01809599995613098,0.0015269999857991934
2024-09-27 23:18:56.124032,33.62,1.731924,-0.056829001754522324,0.07956100255250931,-9.844670295715332,0.006947999820113182,-0.01817299984395504,0.0015269999857991934
2024-09-27 23:18:56.167151,33.62,1.731975,-0.08075699955224991,0.07537300139665604,-9.866803169250488,0.006947999820113182,-0.01817299984395504,0.0017559999832883477
2024-09-27 23:18:56.178756,33.62,1.731975,-0.08075699955224991,0.07537300139665604,-9.866803169250488,0.005954999942332506,-0.01817299984395504,0.0017559999832883477
2024-09-27 23:18:56.210248,33.62,1.731975,-0.08075699955224991,0.07537300139665604,-9.866803169250488,0.005954999942332506,-0.01817299984395504,0.0017559999832883477
2024-09-27 23:18:56.221886,33.62,1.732026,-0.057427000254392624,0.08793599903583527,-9.872785568237305,0.005954999942332506,-0.01817299984395504,0.0021379999816417694
2024-09-27 23:18:56.263816,33.62,1.732076,-0.057427000254392624,0.08793599903583527,-9.872785568237305,0.006719000171869993,-0.019164999946951866,0.0011449999874457717
2024-09-27 23:18:56.276299,33.62,1.732076,-0.04486500099301338,0.09391800314188004,-9.872785568237305,0.006719000171869993,-0.019164999946951866,0.0011449999874457717
2024-09-27 23:18:56.307849,33.62,1.732076,-0.04486500099301338,0.09391800314188004,-9.854839324951172,0.006719000171869993,-0.019164999946951866,0.0011449999874457717
2024-09-27 23:18:56.318736,33.62,1.732127,-0.09152500331401825,0.09391800314188004,-9.854839324951172,0.0053449999541044235,-0.02031099982559681,0.00030499999411404133
2024-09-27 23:18:56.360374,33.62,1.732127,-0.09152500331401825,0.09212300181388855,-9.857830047607422,0.008093000389635563,-0.018631000071763992,0.00030499999411404133
2024-09-27 23:18:56.371579,33.62,1.732214,-0.09152500331401825,0.09212300181388855,-9.857830047607422,0.008093000389635563,-0.018631000071763992,0.000686999992467463
2024-09-27 23:18:56.413265,33.62,1.732214,-0.08075699955224991,0.0819540023803711,-9.798009872436523,0.0068720001727342606,-0.01802000030875206,0.00030499999411404133
2024-09-27 23:18:56.455200,33.62,1.732266,-0.10049799829721451,0.0819540023803711,-9.798009872436523,0.0068720001727342606,-0.01802000030875206,0.00030499999411404133
2024-09-27 23:18:56.466981,33.62,1.732266,-0.10049799829721451,0.0831499993801117,-9.878767967224121,0.006184000056236982,-0.019089000299572945,0.00030499999411404133
2024-09-27 23:18:56.508994,33.62,1.732316,-0.10049799829721451,0.0831499993801117,-9.878767967224121,0.006184000056236982,-0.019089000299572945,0.000686999992467463
2024-09-27 23:18:56.561695,33.62,1.732316,-0.07716800272464752,0.10707800090312958,-9.868000030517578,0.006794999819248915,-0.01840200088918209,0.0010689999908208847
2024-09-27 23:18:56.604353,33.62,1.732367,-0.05922200158238411,0.08793599903583527,-9.824929237365723,0.006794999819248915,-0.01840200088918209,0.0010689999908208847
2024-09-27 23:18:56.615542,33.62,1.732367,-0.05922200158238411,0.08793599903583527,-9.824929237365723,0.0055740000680089,-0.01779099926352501,0.0010689999908208847
2024-09-27 23:18:56.697815,33.62,1.732367,-0.05922200158238411,0.08793599903583527,-9.824929237365723,0.0055740000680089,-0.01779099926352501,0.0005339999916031957
2024-09-27 23:18:56.708785,33.62,1.732418,-0.049651000648736954,0.08853399753570557,-9.866803169250488,0.0061079999431967735,-0.01779099926352501,0.0005339999916031957
2024-09-27 23:18:56.751366,33.62,1.732469,-0.05144499987363815,0.08853399753570557,-9.866803169250488,0.0061079999431967735,-0.018783999606966972,0.00076299998909235
2024-09-27 23:18:56.764004,33.62,1.732469,-0.05144499987363815,0.07656999677419662,-9.860820770263672,0.0061079999431967735,-0.018783999606966972,0.00076299998909235
2024-09-27 23:18:56.795173,33.62,1.732469,-0.05144499987363815,0.07656999677419662,-9.860820770263672,0.0068720001727342606,-0.018783999606966972,0.00076299998909235
2024-09-27 23:18:56.805961,33.62,1.732555,-0.07896299660205841,0.07716800272464752,-9.860820770263672,0.0068720001727342606,-0.019013000652194023,-0.000686999992467463
2024-09-27 23:18:56.847262,33.62,1.732555,-0.07896299660205841,0.07716800272464752,-9.860222816467285,0.007023999933153391,-0.018859999254345894,-0.000686999992467463
2024-09-27 23:18:56.858742,33.62,1.732607,-0.022133000195026398,0.07716800272464752,-9.860222816467285,0.007023999933153391,-0.018859999254345894,0.0004579999949783087
2024-09-27 23:18:56.900116,33.36,1.732702,-0.022133000195026398,0.058024998754262924,-9.811169624328613,0.007176999934017658,-0.018324999138712883,0.000686999992467463
2024-09-27 23:18:56.941949,33.36,1.732702,-0.09272100031375885,0.058024998754262924,-9.811169624328613,0.007176999934017658,-0.018324999138712883,0.000686999992467463
2024-09-27 23:18:56.953459,33.36,1.732702,-0.09272100031375885,0.08075699955224991,-9.873982429504395,0.0076350001618266106,-0.018631000071763992,-0.00030499999411404133
2024-09-27 23:18:56.994655,33.36,1.7328,-0.04905200004577637,0.08135499805212021,-9.847063064575195,0.0076350001618266106,-0.018631000071763992,-0.00030499999411404133
2024-09-27 23:18:57.005556,33.36,1.7328,-0.04905200004577637,0.08135499805212021,-9.847063064575195,0.006947999820113182,-0.018478000536561012,-0.00030499999411404133
2024-09-27 23:18:57.089144,33.36,1.732851,-0.04905200004577637,0.08135499805212021,-9.847063064575195,0.006947999820113182,-0.018478000536561012,0.0016029999824240804
2024-09-27 23:18:57.100033,33.36,1.732851,-0.05383799970149994,0.10767699778079987,-9.847063064575195,0.006947999820113182,-0.018478000536561012,0.0016029999824240804
2024-09-27 23:18:57.142022,33.36,1.732902,-0.05383799970149994,0.10767699778079987,-9.866803169250488,0.006719000171869993,-0.019164999946951866,0.000838999985717237
2024-09-27 23:18:57.153395,33.36,1.732902,-0.06400799751281738,0.10767699778079987,-9.866803169250488,0.006719000171869993,-0.019164999946951866,0.000838999985717237
2024-09-27 23:18:57.196045,33.36,1.732952,-0.06400799751281738,0.09989999979734421,-9.81535816192627,0.008093000389635563,-0.019471000880002975,0.0021379999816417694
2024-09-27 23:18:57.237794,33.36,1.732952,-0.057427000254392624,0.13160499930381775,-9.851847648620605,0.007941000163555145,-0.019471000880002975,0.0021379999816417694
2024-09-27 23:18:57.248725,33.36,1.732952,-0.057427000254392624,0.13160499930381775,-9.851847648620605,0.007941000163555145,-0.019547000527381897,0.0021379999816417694
2024-09-27 23:18:57.289898,33.36,1.733003,-0.13698899745941162,0.05144499987363815,-9.81715202331543,0.0061079999431967735,-0.021531999111175537,0.0021379999816417694
2024-09-27 23:18:57.331397,33.36,1.733003,-0.13698899745941162,0.05144499987363815,-9.81715202331543,0.0061079999431967735,-0.021531999111175537,0.0024429999757558107
2024-09-27 23:18:57.342151,33.36,1.733092,-0.10827499628067017,0.05324000120162964,-9.841080665588379,0.006566000171005726,-0.021531999111175537,0.0024429999757558107
2024-09-27 23:18:57.383474,33.36,1.733191,-0.10827499628067017,0.05324000120162964,-9.841080665588379,0.006566000171005726,-0.020692000165581703,-0.00030499999411404133
2024-09-27 23:18:57.394689,33.36,1.733191,-0.08554299920797348,0.03230300173163414,-9.823134422302246,0.006566000171005726,-0.020692000165581703,-0.00030499999411404133
2024-09-27 23:18:57.436328,33.36,1.733242,-0.08554299920797348,0.09690900146961212,-9.823134422302246,0.006719000171869993,-0.021151000633835793,0.0012209999840706587
2024-09-27 23:18:57.478969,33.36,1.733242,-0.08554299920797348,0.09690900146961212,-9.881758689880371,0.006719000171869993,-0.021151000633835793,0.0012209999840706587
2024-09-27 23:18:57.490193,33.36,1.733292,-0.0831499993801117,0.09690900146961212,-9.881758689880371,0.0061079999431967735,-0.021531999111175537,0.000686999992467463
2024-09-27 23:18:57.532061,33.36,1.733292,-0.0831499993801117,0.07896299660205841,-9.82253646850586,0.007864000275731087,-0.018706999719142914,0.0011449999874457717
2024-09-27 23:18:57.543589,33.36,1.733384,-0.0831499993801117,0.07896299660205841,-9.82253646850586,0.007864000275731087,-0.018706999719142914,0.0011449999874457717
2024-09-27 23:18:57.575211,33.36,1.733384,-0.07656999677419662,0.07896299660205841,-9.82253646850586,0.007864000275731087,-0.018706999719142914,0.0011449999874457717
2024-09-27 23:18:57.586502,33.36,1.733384,-0.07656999677419662,0.09690900146961212,-9.853044509887695,0.007329999934881926,-0.01794400066137314,0.001297999988310039
2024-09-27 23:18:57.627986,33.36,1.733436,-0.06879299879074097,0.07058800011873245,-9.819544792175293,0.007329999934881926,-0.01794400066137314,0.001297999988310039
2024-09-27 23:18:57.638813,33.36,1.733436,-0.06879299879074097,0.07058800011873245,-9.819544792175293,0.005268000066280365,-0.017714999616146088,0.001297999988310039
2024-09-27 23:18:57.680573,33.36,1.733486,-0.06699900329113007,0.07178399711847305,-9.839883804321289,0.006031999830156565,-0.017714999616146088,0.0018319999799132347
2024-09-27 23:18:57.722722,33.36,1.733486,-0.06699900329113007,0.07178399711847305,-9.839883804321289,0.006031999830156565,-0.017409000545740128,0.00015199999324977398
2024-09-27 23:18:57.733491,33.36,1.733537,-0.09631100296974182,0.06819500029087067,-9.873982429504395,0.006031999830156565,-0.017409000545740128,0.00015199999324977398
2024-09-27 23:18:57.775683,33.36,1.733588,-0.07238200306892395,0.06819500029087067,-9.873982429504395,0.0076350001618266106,-0.01794400066137314,0.0019079999765381217
2024-09-27 23:18:57.787243,33.36,1.733588,-0.07238200306892395,0.0831499993801117,-9.873982429504395,0.0076350001618266106,-0.01794400066137314,0.0019079999765381217
2024-09-27 23:18:57.828953,33.36,1.733638,-0.08135499805212021,0.0831499993801117,-9.888339042663574,0.007100999820977449,-0.018783999606966972,0.0011449999874457717
2024-09-27 23:18:57.872680,33.36,1.733638,-0.08135499805212021,0.07836399972438812,-9.82552719116211,0.003894000081345439,-0.01779099926352501,0.0011449999874457717
2024-09-27 23:18:57.884568,33.36,1.733725,-0.08135499805212021,0.07836399972438812,-9.82552719116211,0.003894000081345439,-0.01779099926352501,0.0003809999907389283
2024-09-27 23:18:57.916520,33.26,1.733725,-0.07178399711847305,0.07836399972438812,-9.82552719116211,0.003894000081345439,-0.01779099926352501,0.0003809999907389283
2024-09-27 23:18:57.928045,33.26,1.733725,-0.07178399711847305,0.10468500107526779,-9.82552719116211,0.003894000081345439,-0.01779099926352501,0.0003809999907389283
2024-09-27 23:18:57.970764,33.26,1.733777,-0.07178399711847305,0.10468500107526779,-9.80698299407959,0.006719000171869993,-0.01786700077354908,0.0009919999865815043
2024-09-27 23:18:57.982349,33.26,1.733777,-0.09092699736356735,0.10468500107526779,-9.80698299407959,0.006719000171869993,-0.01786700077354908,0.0009919999865815043
2024-09-27 23:18:58.025082,33.26,1.733828,-0.09092699736356735,0.05443599820137024,-9.860222816467285,0.007559000048786402,-0.019089000299572945,0.0002280000044265762
2024-09-27 23:18:58.066879,33.26,1.733828,-0.10408700257539749,0.09810499846935272,-9.943971633911133,0.006794999819248915,-0.019089000299572945,0.0002280000044265762
2024-09-27 23:18:58.077854,33.26,1.733828,-0.10408700257539749,0.09810499846935272,-9.943971633911133,0.006794999819248915,-0.017333000898361206,0.0004579999949783087
2024-09-27 23:18:58.119526,33.26,1.733878,-0.10109599679708481,0.07836399972438812,-9.877571105957031,0.006794999819248915,-0.017333000898361206,0.0004579999949783087
2024-09-27 23:18:58.162493,33.26,1.733878,-0.10109599679708481,0.07836399972438812,-9.877571105957031,0.005878999829292297,-0.01840200088918209,0.0004579999949783087
2024-09-27 23:18:58.173975,33.26,1.733929,-0.09511400014162064,0.06101600080728531,-9.877571105957031,0.005878999829292297,-0.01840200088918209,0.00030499999411404133
2024-09-27 23:18:58.216374,33.26,1.73402,-0.08793599903583527,0.06101600080728531,-9.81236743927002,0.005954999942332506,-0.014965999871492386,-0.0002280000044265762
2024-09-27 23:18:58.257986,33.26,1.73402,-0.08793599903583527,0.0843459963798523,-9.81236743927002,0.005954999942332506,-0.014965999871492386,-0.0002280000044265762
2024-09-27 23:18:58.269223,33.26,1.734071,-0.08793599903583527,0.0843459963798523,-9.775278091430664,0.007329999934881926,-0.021227000281214714,0.001449999981559813
2024-09-27 23:18:58.311408,33.26,1.734071,-0.0831499993801117,0.07656999677419662,-9.82253646850586,0.007176999934017658,-0.021227000281214714,0.001449999981559813
2024-09-27 23:18:58.324810,33.26,1.734071,-0.0831499993801117,0.07656999677419662,-9.82253646850586,0.007176999934017658,-0.019317999482154846,0.001373999984934926
2024-09-27 23:18:58.356764,33.26,1.734121,-0.08673900365829468,0.07656999677419662,-9.82253646850586,0.007176999934017658,-0.019317999482154846,0.001373999984934926
2024-09-27 23:18:58.367861,33.26,1.734121,-0.08673900365829468,0.08135499805212021,-9.859026908874512,0.006260999944061041,-0.01794400066137314,0.001373999984934926
2024-09-27 23:18:58.410895,33.26,1.734214,-0.1034889966249466,0.1016940027475357,-9.823134422302246,0.006260999944061041,-0.01794400066137314,0.0009159999899566174
2024-09-27 23:18:58.421935,33.26,1.734214,-0.1034889966249466,0.1016940027475357,-9.823134422302246,0.006566000171005726,-0.01794400066137314,0.0009159999899566174
2024-09-27 23:18:58.453994,33.26,1.734214,-0.1034889966249466,0.1016940027475357,-9.823134422302246,0.006566000171005726,-0.017562000080943108,0.0009159999899566174
2024-09-27 23:18:58.465909,33.26,1.734265,-0.07956100255250931,0.07836399972438812,-9.895517349243164,0.006566000171005726,-0.017562000080943108,0.002061000093817711
2024-09-27 23:18:58.508228,33.26,1.734316,-0.07956100255250931,0.07836399972438812,-9.895517349243164,0.005115000065416098,-0.01824899949133396,0.00030499999411404133
2024-09-27 23:18:58.519770,33.26,1.734316,-0.10648000240325928,0.05383799970149994,-9.895517349243164,0.005115000065416098,-0.01824899949133396,0.00030499999411404133
2024-09-27 23:18:58.551445,33.26,1.734316,-0.10648000240325928,0.05383799970149994,-9.823134422302246,0.005115000065416098,-0.01824899949133396,0.00030499999411404133
2024-09-27 23:18:58.563051,33.26,1.734366,-0.07118599861860275,0.05383799970149994,-9.823134422302246,0.007864000275731087,-0.01824899949133396,0.0022140000946819782
