Ayaan's Suite
Timestamp,Sample Rate (Hz),Time,Ax,Ay,Az,Gx,Gy,Gz
2024-09-20 10:52:55.243968,0,0.0,-0.06939429148013924,0.03646544420998638,1.010668654446694,0.3062460483703762,-1.1374934943549335,-1.697445409335941
2024-09-20 10:52:55.255627,0,0.0,-0.06927227512169078,0.037380223609621004,1.0133517748475924,0.40685746554275976,-1.2862334031555802,-1.697445409335941
2024-09-20 10:52:55.300652,0,3.412411,-0.06725994089692375,0.03774607521799848,1.0102418827597397,0.40685746554275976,-1.2862334031555802,-1.798114109404385
2024-09-20 10:52:55.312844,0,3.412411,-0.06725994089692375,0.03774607521799848,1.0102418827597397,0.37620423259790986,-1.2862334031555802,-1.798114109404385
2024-09-20 10:52:55.345118,5.86,3.412462,-0.06725994089692375,0.03774607521799848,1.0102418827597397,0.37620423259790986,-1.1637349838074296,-1.671203919883445
2024-09-20 10:52:55.357715,5.86,3.412462,-0.06628430217777917,0.036404484638015794,1.0153641151482662,0.37620423259790986,-1.1637349838074296,-1.671203919883445
2024-09-20 10:52:55.393812,5.86,3.412462,-0.06628430217777917,0.036404484638015794,1.0153641151482662,0.42433269754573705,-1.0805987452771515,-1.671203919883445
2024-09-20 10:52:55.405014,5.86,3.412513,-0.06628430217777917,0.036404484638015794,1.0153641151482662,0.42433269754573705,-1.0805987452771515,-1.7718153103753924
2024-09-20 10:52:55.441486,5.86,3.412513,-0.06756482989537728,0.03683139607082449,1.0153641151482662,0.42433269754573705,-1.0805987452771515,-1.7718153103753924
2024-09-20 10:52:55.453960,5.86,3.412513,-0.06756482989537728,0.03683139607082449,1.00969310686615,0.3368419984191656,-1.1199610328167677,-1.73245312955752
2024-09-20 10:52:55.488172,5.86,3.412564,-0.06756482989537728,0.03683139607082449,1.00969310686615,0.3368419984191656,-1.1199610328167677,-1.73245312955752
2024-09-20 10:52:55.500032,5.86,3.412564,-0.06591844753144835,0.038721713937143055,1.01426646614658,0.2143435924112331,-1.1199610328167677,-1.73245312955752
2024-09-20 10:52:55.511723,5.86,3.412564,-0.06591844753144835,0.038721713937143055,1.01426646614658,0.2143435924112331,-1.203097164625302,-1.73245312955752
2024-09-20 10:52:55.545185,5.86,3.412615,-0.06884546090338937,0.03859979479320188,1.011095523348156,0.2143435924112331,-1.203097164625302,-1.741219360326603
2024-09-20 10:52:55.557972,5.86,3.412615,-0.06884546090338937,0.03859979479320188,1.011095523348156,0.29306802074806765,-1.203097164625302,-1.741219360326603
2024-09-20 10:52:55.592702,5.86,3.412666,-0.06988205919450455,0.03756309928757943,1.011095523348156,0.29306802074806765,-1.1111946953259408,-1.7455738209228964
2024-09-20 10:52:55.606260,5.86,3.412666,-0.06988205919450455,0.03756309928757943,1.011095523348156,0.29306802074806765,-1.1111946953259408,-1.7455738209228964
2024-09-20 10:52:55.639222,5.86,3.412717,-0.07116258691210266,0.03756309928757943,1.011095523348156,0.38061600277069957,-1.1156065722204744,-1.6887363814216108
2024-09-20 10:52:55.682260,5.86,3.412717,-0.07116258691210266,0.04085596426789792,1.0094490984528801,0.38061600277069957,-1.1156065722204744,-1.6887363814216108
2024-09-20 10:52:55.694003,5.86,3.412767,-0.07116258691210266,0.04085596426789792,1.0094490984528801,0.40685746554275976,-1.0412365644592791,-1.7762270805481821
2024-09-20 10:52:55.738708,5.86,3.412767,-0.07195535299124217,0.039880325548753336,1.0087784155671629,0.3062460483703762,-1.1111946953259408,-1.7762270805481821
2024-09-20 10:52:55.750939,5.86,3.412767,-0.07195535299124217,0.039880325548753336,1.0087784155671629,0.3062460483703762,-1.1111946953259408,-1.789347878635302
2024-09-20 10:52:55.783376,5.86,3.412818,-0.070004075552953,0.035367889384853975,1.0087784155671629,0.3062460483703762,-1.1111946953259408,-1.789347878635302
2024-09-20 10:52:55.795929,5.86,3.412818,-0.070004075552953,0.035367889384853975,1.012620041251304,0.27994727602181957,-1.2293386540777982,-1.789347878635302
2024-09-20 10:52:55.827986,5.86,3.412818,-0.070004075552953,0.035367889384853975,1.012620041251304,0.27994727602181957,-1.2293386540777982,-1.763106389182806
2024-09-20 10:52:55.839098,5.86,3.412869,-0.06494281488821046,0.0387826704711603,1.00969310686615,0.3193667930966243,-1.2293386540777982,-1.763106389182806
2024-09-20 10:52:55.881883,5.86,3.412919,-0.06927227512169078,0.03957543351234646,1.00969310686615,0.3193667930966243,-1.2424594521649182,-1.7674608497790991
2024-09-20 10:52:55.893272,5.86,3.412919,-0.06927227512169078,0.03957543351234646,1.01231507934197,0.3193667930966243,-1.2424594521649182,-1.7674608497790991
2024-09-20 10:52:55.926374,5.86,3.412919,-0.06927227512169078,0.03957543351234646,1.01231507934197,0.27559278874509036,-1.1680894444037229,-1.7674608497790991
2024-09-20 10:52:55.938129,5.86,3.41297,-0.06982109962253395,0.03573374099323144,1.01231507934197,0.27559278874509036,-1.1680894444037229,-1.7543400516919792
2024-09-20 10:52:55.980397,5.86,3.413021,-0.0691503559777496,0.03573374099323144,1.012925003160638,0.38932495064372197,-1.0630662837389857,-1.7149778708741068
2024-09-20 10:52:56.022866,5.86,3.413021,-0.0691503559777496,0.038721713937143055,1.012925003160638,0.38932495064372197,-1.0630662837389857,-1.7149778708741068
2024-09-20 10:52:56.035359,5.86,3.413072,-0.0691503559777496,0.038721713937143055,1.0099979715609768,0.31060053564710544,-1.1111946953259408,-1.741219360326603
2024-09-20 10:52:56.080323,5.86,3.413072,-0.07146758527687687,0.03616054913562615,1.0097540603622142,0.31060053564710544,-1.1111946953259408,-1.741219360326603
2024-09-20 10:52:56.092216,5.86,3.413072,-0.07146758527687687,0.03616054913562615,1.0097540603622142,0.2318188110739924,-1.0630662837389857,-1.697445409335941
2024-09-20 10:52:56.123592,5.86,3.413122,-0.07079673834167853,0.037075331573214125,1.0097540603622142,0.2318188110739924,-1.0630662837389857,-1.697445409335941
2024-09-20 10:52:56.136142,5.86,3.413122,-0.07079673834167853,0.037075331573214125,1.0106077981651376,0.3849704900474288,-1.2205724233087152,-1.697445409335941
2024-09-20 10:52:56.182383,5.86,3.413173,-0.06536962303060517,0.037319163785189784,1.0102418827597397,0.3849704900474288,-1.2205724233087152,-1.8418307508185505
2024-09-20 10:52:56.193963,5.86,3.413173,-0.06536962303060517,0.037319163785189784,1.0102418827597397,0.42433269754573705,-1.2205724233087152,-1.8418307508185505
2024-09-20 10:52:56.226260,5.86,3.413224,-0.07085769791364913,0.03951447394037587,1.0102418827597397,0.42433269754573705,-1.1812102424908428,-1.798114109404385
2024-09-20 10:52:56.238007,5.86,3.413224,-0.07085769791364913,0.03951447394037587,1.0131688171448936,0.42433269754573705,-1.1812102424908428,-1.798114109404385
2024-09-20 10:52:56.271936,5.86,3.413224,-0.07085769791364913,0.03951447394037587,1.0131688171448936,0.3368419984191656,-1.1243154934130608,-1.798114109404385
2024-09-20 10:52:56.284085,5.86,3.413274,-0.06969918655449947,0.03866075436517247,1.0131688171448936,0.3368419984191656,-1.1243154934130608,-1.8155893680877984
2024-09-20 10:52:56.315825,5.86,3.413274,-0.06969918655449947,0.03866075436517247,1.011034569852092,0.3368419984191656,-1.1243154934130608,-1.8155893680877984
2024-09-20 10:52:56.327648,5.86,3.413325,-0.069089396405779,0.03866075436517247,1.011034569852092,0.39373674749694765,-1.1418479549512268,-1.7586946190100163
2024-09-20 10:52:56.374404,27.7,3.413325,-0.069089396405779,0.03890468986756211,1.0075587623588413,0.3280757409696467,-1.1287272635858505,-1.7586946190100163
2024-09-20 10:52:56.385809,27.7,3.413392,-0.069089396405779,0.03890468986756211,1.0075587623588413,0.3280757409696467,-1.1287272635858505,-1.7937022325098515
2024-09-20 10:52:56.418639,27.7,3.413392,-0.06896738004733055,0.040612028765508276,1.0117664006628877,0.27559278874509036,-1.1287272635858505,-1.7937022325098515
2024-09-20 10:52:56.430163,27.7,3.413392,-0.06896738004733055,0.040612028765508276,1.0117664006628877,0.27559278874509036,-1.1156065722204744,-1.6799701506525277
2024-09-20 10:52:56.463267,27.7,3.413443,-0.06896738004733055,0.040612028765508276,1.0117664006628877,0.27559278874509036,-1.1156065722204744,-1.6799701506525277
2024-09-20 10:52:56.475351,27.7,3.413443,-0.06780876539776692,0.03890468986756211,1.0104247432479314,0.3411964856958948,-1.1987427040290088,-1.6799701506525277
2024-09-20 10:52:56.518739,27.7,3.413494,-0.0687844041169115,0.04079500469592733,1.0138396944596255,0.3411964856958948,-1.1987427040290088,-1.7543400516919792
2024-09-20 10:52:56.530371,27.7,3.413494,-0.0687844041169115,0.04079500469592733,1.0138396944596255,0.39809120809324083,-1.1987427040290088,-1.7543400516919792
2024-09-20 10:52:56.576778,27.7,3.413545,-0.06768685232973244,0.03866075436517247,1.0085954578644638,0.39809120809324083,-1.1243154934130608,-1.6406079698346556
2024-09-20 10:52:56.610363,27.7,3.413545,-0.06768685232973244,0.03866075436517247,1.0085954578644638,0.3456082558686845,-1.1243154934130608,-1.6406079698346556
2024-09-20 10:52:56.622536,27.7,3.413595,-0.06976014005056336,0.03866075436517247,1.0085954578644638,0.3456082558686845,-1.1287272635858505,-1.706211640105024
2024-09-20 10:52:56.633729,27.7,3.413595,-0.06976014005056336,0.039026605973549934,1.0085954578644638,0.3456082558686845,-1.1287272635858505,-1.706211640105024
2024-09-20 10:52:56.655731,27.7,3.413595,-0.06976014005056336,0.039026605973549934,1.0087173648565917,0.3456082558686845,-1.1287272635858505,-1.706211640105024
2024-09-20 10:52:56.709309,27.7,3.413595,-0.06976014005056336,0.039026605973549934,1.0087173648565917,0.3193667930966243,-1.1287272635858505,-1.706211640105024
2024-09-20 10:52:56.766352,27.7,3.413646,-0.06866248497297033,0.037380223609621004,1.0059123374635655,0.3193667930966243,-1.207451731943339,-1.8593632123567163
2024-09-20 10:52:56.812916,27.7,3.413733,-0.06884546090338937,0.039758409442765506,1.0059123374635655,0.24499683869630098,-1.15932321363464,-1.6580831217963248
2024-09-20 10:52:56.856026,27.7,3.413733,-0.06884546090338937,0.039758409442765506,1.0114003880429827,0.48999367739260197,-1.15932321363464,-1.6580831217963248
2024-09-20 10:52:56.868220,27.7,3.413785,-0.069089396405779,0.039758409442765506,1.0114003880429827,0.48999367739260197,-1.0237041029211134,-1.8505970883093774
2024-09-20 10:52:56.901596,27.7,3.413785,-0.069089396405779,0.037197247679201954,1.0102418827597397,0.48999367739260197,-1.0237041029211134,-1.8505970883093774
2024-09-20 10:52:56.912679,27.7,3.413835,-0.069089396405779,0.037197247679201954,1.0102418827597397,0.38061600277069957,-1.1111946953259408,-1.8462426277130841
2024-09-20 10:52:56.954676,27.7,3.413835,-0.06847950904255126,0.035977676495621086,1.0111565740587272,0.24935132597303017,-1.1111946953259408,-1.8462426277130841
2024-09-20 10:52:56.968814,27.7,3.413835,-0.06847950904255126,0.035977676495621086,1.0111565740587272,0.24935132597303017,-1.294999633924663,-1.7455738209228964
2024-09-20 10:52:57.001333,27.7,3.413977,-0.06847950904255126,0.035977676495621086,1.0111565740587272,0.24935132597303017,-1.294999633924663,-1.7455738209228964
2024-09-20 10:52:57.013097,27.7,3.413977,-0.0683575959745168,0.04006330147917239,1.0103028362558035,0.3456082558686845,-1.294999633924663,-1.7455738209228964
2024-09-20 10:52:57.025824,27.7,3.413977,-0.0683575959745168,0.04006330147917239,1.0103028362558035,0.3456082558686845,-1.2118635021161288,-1.7455738209228964
2024-09-20 10:52:57.050361,27.7,3.414029,-0.0696381236921149,0.04006330147917239,1.0103028362558035,0.3456082558686845,-1.2118635021161288,-1.73245312955752
2024-09-20 10:52:57.061280,27.7,3.414029,-0.0696381236921149,0.03835586232876559,1.0084734536578288,0.3499627431454137,-1.2118635021161288,-1.73245312955752
2024-09-20 10:52:57.098493,27.7,3.414029,-0.0696381236921149,0.03835586232876559,1.0084734536578288,0.3499627431454137,-1.1768557818945498,-1.73245312955752
2024-09-20 10:52:57.110871,27.7,3.414079,-0.07018695426886477,0.03829490275679499,1.0116442992417454,0.3499627431454137,-1.1768557818945498,-1.741219360326603
2024-09-20 10:52:57.146479,27.7,3.414079,-0.07018695426886477,0.03829490275679499,1.0116442992417454,0.3018342781975865,-1.2774671723864972,-1.741219360326603
2024-09-20 10:52:57.157914,27.7,3.41413,-0.06927227512169078,0.038050967254405356,1.0116442992417454,0.3018342781975865,-1.2774671723864972,-1.7805815411444754
2024-09-20 10:52:57.206694,27.7,3.41413,-0.06927227512169078,0.038050967254405356,1.0101198785531047,0.3193667930966243,-1.294999633924663,-1.7368648997303098
2024-09-20 10:52:57.220379,27.7,3.414181,-0.0692113155497202,0.038050967254405356,1.0101198785531047,0.3193667930966243,-1.294999633924663,-1.7368648997303098
2024-09-20 10:52:57.246479,27.7,3.414181,-0.0692113155497202,0.03933149800995682,1.0105467474545664,0.2362305812467821,-1.294999633924663,-1.7368648997303098
2024-09-20 10:52:57.257805,27.7,3.414269,-0.0692113155497202,0.03933149800995682,1.0105467474545664,0.2362305812467821,-1.0499454856518655,-1.7018571795087307
2024-09-20 10:52:57.290229,27.7,3.414269,-0.06811366047212715,0.03933149800995682,1.0105467474545664,0.2362305812467821,-1.0499454856518655,-1.7018571795087307
2024-09-20 10:52:57.300971,27.7,3.414269,-0.06811366047212715,0.04177064341507191,1.0112784810508548,0.4374534422719851,-1.014995075006783,-1.7018571795087307
2024-09-20 10:52:57.344805,27.7,3.414321,-0.070918754700127,0.0387826704711603,1.0125589905407328,0.4374534422719851,-1.014995075006783,-1.7018571795087307
2024-09-20 10:52:57.357245,27.7,3.414321,-0.070918754700127,0.0387826704711603,1.0125589905407328,0.38061600277069957,-1.0849533125951887,-1.7018571795087307
2024-09-20 10:52:57.391358,33.87,3.414371,-0.070918754700127,0.0387826704711603,1.0125589905407328,0.38061600277069957,-1.0849533125951887,-1.7718153103753924
2024-09-20 10:52:57.402716,33.87,3.414371,-0.06823567683057562,0.04006330147917239,1.0100589250570406,0.29306802074806765,-1.0849533125951887,-1.7718153103753924
2024-09-20 10:52:57.444348,33.87,3.414422,-0.06469887938582082,0.037075331573214125,1.0134127283436565,0.29306802074806765,-1.1462025222692638,-1.7018571795087307
2024-09-20 10:52:57.486798,33.87,3.414422,-0.06469887938582082,0.037075331573214125,1.0134127283436565,0.2055773349617142,-1.1462025222692638,-1.7018571795087307
2024-09-20 10:52:57.540160,33.87,3.414473,-0.07036993019928382,0.037380223609621004,1.0134127283436565,0.2055773349617142,-1.2774671723864972,-1.8287099527314306
2024-09-20 10:52:57.552283,33.87,3.414473,-0.07036993019928382,0.037380223609621004,1.0097540603622142,0.2055773349617142,-1.2774671723864972,-1.8287099527314306
2024-09-20 10:52:57.584096,33.87,3.414473,-0.07036993019928382,0.037380223609621004,1.0097540603622142,0.29747979092085736,-1.15932321363464,-1.8287099527314306
2024-09-20 10:52:57.595664,33.87,3.414524,-0.070004075552953,0.03829490275679499,1.0097540603622142,0.29747979092085736,-1.15932321363464,-1.7368648997303098
2024-09-20 10:52:57.639330,33.87,3.414524,-0.070004075552953,0.03829490275679499,1.0113394345469187,0.40685746554275976,-1.0499454856518655,-1.7368648997303098
2024-09-20 10:52:57.650524,33.87,3.414611,-0.07036993019928382,0.03829490275679499,1.0113394345469187,0.40685746554275976,-1.0499454856518655,-1.7674608497790991
2024-09-20 10:52:57.682478,33.87,3.414611,-0.07036993019928382,0.03646544420998638,1.0126809947473678,0.40685746554275976,-1.0499454856518655,-1.7674608497790991
2024-09-20 10:52:57.693812,33.87,3.414662,-0.07036993019928382,0.03646544420998638,1.0126809947473678,0.37184974532118065,-1.1068402347296475,-1.6930908420179038
2024-09-20 10:52:57.735112,33.87,3.414662,-0.07158949834491135,0.03658746056843484,1.0085954578644638,0.2581175834225491,-1.207451731943339,-1.6930908420179038
2024-09-20 10:52:57.748311,33.87,3.414662,-0.07158949834491135,0.03658746056843484,1.0085954578644638,0.2581175834225491,-1.207451731943339,-1.6887363814216108
2024-09-20 10:52:57.782449,33.87,3.414757,-0.0731139676408058,0.03658746056843484,1.0085954578644638,0.2581175834225491,-1.207451731943339,-1.6887363814216108
2024-09-20 10:52:57.793891,33.87,3.414757,-0.0731139676408058,0.0387826704711603,1.0128639524500669,0.2143435924112331,-1.1855647030871361,-1.6887363814216108
2024-09-20 10:52:57.826066,33.87,3.414757,-0.0731139676408058,0.0387826704711603,1.0128639524500669,0.2143435924112331,-1.1855647030871361,-1.7499855910956859
2024-09-20 10:52:57.838099,33.87,3.414809,-0.06902833961930115,0.03933149800995682,1.00969310686615,0.4549859571710229,-1.1855647030871361,-1.7499855910956859
2024-09-20 10:52:57.880426,33.87,3.414809,-0.06902833961930115,0.03933149800995682,1.00969310686615,0.4549859571710229,-1.2205724233087152,-1.7674608497790991
2024-09-20 10:52:57.892276,33.87,3.41486,-0.0704918432673183,0.038050967254405356,1.012802998954003,0.4549859571710229,-1.2205724233087152,-1.7674608497790991
2024-09-20 10:52:57.925667,33.87,3.41486,-0.0704918432673183,0.038050967254405356,1.012802998954003,0.4287444677185267,-1.0762442846808582,-1.7674608497790991
2024-09-20 10:52:57.937897,33.87,3.41491,-0.07024790776492866,0.038050967254405356,1.012802998954003,0.4287444677185267,-1.0762442846808582,-1.7674608497790991
2024-09-20 10:52:57.979264,33.87,3.41491,-0.07024790776492866,0.04055106919353769,1.012802998954003,0.4287444677185267,-1.0762442846808582,-1.7674608497790991
2024-09-20 10:52:58.032722,33.87,3.41491,-0.07024790776492866,0.04055106919353769,1.00969310686615,0.4287444677185267,-1.0762442846808582,-1.7674608497790991
2024-09-20 10:52:58.075058,33.87,3.41491,-0.07024790776492866,0.04055106919353769,1.00969310686615,0.3324875378228724,-1.0893650827679784,-1.7018571795087307
2024-09-20 10:52:58.085909,33.87,3.414961,-0.06847950904255126,0.03664842014040543,1.00969310686615,0.3324875378228724,-1.0893650827679784,-1.7018571795087307
2024-09-20 10:52:58.118905,33.87,3.414961,-0.06847950904255126,0.03664842014040543,1.0093881449568163,0.3324875378228724,-1.0893650827679784,-1.7018571795087307
2024-09-20 10:52:58.131608,33.87,3.414961,-0.06847950904255126,0.03664842014040543,1.0093881449568163,0.2362305812467821,-1.2118635021161288,-1.6930908420179038
2024-09-20 10:52:58.143125,33.87,3.415049,-0.0696381236921149,0.03664842014040543,1.0093881449568163,0.2362305812467821,-1.2118635021161288,-1.6930908420179038
2024-09-20 10:52:58.175317,33.87,3.415049,-0.0696381236921149,0.037685118683981236,1.0115833457456815,0.39809120809324083,-1.1462025222692638,-1.7718153103753924
2024-09-20 10:52:58.186876,33.87,3.415101,-0.0696381236921149,0.037685118683981236,1.0115833457456815,0.39809120809324083,-1.1462025222692638,-1.7718153103753924
2024-09-20 10:52:58.219640,33.87,3.415101,-0.06969918655449947,0.04170968384310132,1.0115833457456815,0.39809120809324083,-1.1462025222692638,-1.7718153103753924
2024-09-20 10:52:58.231819,33.87,3.415101,-0.06969918655449947,0.04170968384310132,1.0113394345469187,0.3630834878716618,-1.028115873093903,-1.741219360326603
2024-09-20 10:52:58.305317,33.87,3.415152,-0.06969918655449947,0.04170968384310132,1.0113394345469187,0.3630834878716618,-1.028115873093903,-1.741219360326603
2024-09-20 10:52:58.318252,33.87,3.415152,-0.06884546090338937,0.0396363900463637,1.0109126628599643,0.2362305812467821,-1.3474826128296553,-1.741219360326603
2024-09-20 10:52:58.360397,33.87,3.415294,-0.06597940710341893,0.0365265040344176,1.0109126628599643,0.2362305812467821,-1.3474826128296553,-1.649316891027242
2024-09-20 10:52:58.371402,33.87,3.415294,-0.06597940710341893,0.0365265040344176,1.0074977116482702,0.4287444677185267,-1.3474826128296553,-1.649316891027242
2024-09-20 10:52:58.403563,36.52,3.415294,-0.06597940710341893,0.0365265040344176,1.0074977116482702,0.4287444677185267,-1.0937195433642715,-1.649316891027242
2024-09-20 10:52:58.415037,36.52,3.415345,-0.0678697249697375,0.04079500469592733,1.0132908213515286,0.4287444677185267,-1.0937195433642715,-1.7718153103753924
2024-09-20 10:52:58.459095,36.52,3.415345,-0.0678697249697375,0.04079500469592733,1.0132908213515286,0.37620423259790986,-1.1243154934130608,-1.7718153103753924
2024-09-20 10:52:58.470462,36.52,3.415396,-0.0700650351249236,0.036282568532027965,1.0132908213515286,0.37620423259790986,-1.1243154934130608,-1.7718153103753924
2024-09-20 10:52:58.501943,36.52,3.415396,-0.0700650351249236,0.036282568532027965,1.006827028762553,0.37620423259790986,-1.1243154934130608,-1.7718153103753924
2024-09-20 10:52:58.513755,36.52,3.415447,-0.06823567683057562,0.036282568532027965,1.006827028762553,0.3237212803733535,-1.1549687530383468,-1.798114109404385
2024-09-20 10:52:58.556131,36.52,3.415447,-0.06823567683057562,0.03841681886278282,1.011034569852092,0.3543172304221429,-1.1024857741333545,-1.798114109404385
2024-09-20 10:52:58.569005,36.52,3.415578,-0.06823567683057562,0.03841681886278282,1.011034569852092,0.3543172304221429,-1.1024857741333545,-1.7018571795087307
2024-09-20 10:52:58.601658,36.52,3.415578,-0.06823567683057562,0.03841681886278282,1.011034569852092,0.3543172304221429,-1.1024857741333545,-1.7018571795087307
2024-09-20 10:52:58.613142,36.52,3.415578,-0.06823567683057562,0.03695331217681231,1.0129859566567019,0.3543172304221429,-1.1156065722204744,-1.7762270805481821
2024-09-20 10:52:58.655198,36.52,3.41563,-0.07189439341927158,0.04073404816191009,1.0107906586533293,0.4330989549952559,-1.1156065722204744,-1.7762270805481821
2024-09-20 10:52:58.666462,36.52,3.41563,-0.07189439341927158,0.04073404816191009,1.0107906586533293,0.4330989549952559,-1.1068402347296475,-1.7762270805481821
2024-09-20 10:52:58.699918,36.52,3.41568,-0.07189439341927158,0.04073404816191009,1.0107906586533293,0.4330989549952559,-1.1068402347296475,-1.671203919883445
2024-09-20 10:52:58.712533,36.52,3.41568,-0.06793078783212209,0.03890468986756211,1.0126809947473678,0.3237212803733535,-1.1068402347296475,-1.671203919883445
2024-09-20 10:52:58.743856,36.52,3.41568,-0.06793078783212209,0.03890468986756211,1.0126809947473678,0.3237212803733535,-1.1724439050000162,-1.671203919883445
2024-09-20 10:52:58.754823,36.52,3.415731,-0.06945525105210984,0.03994128512072393,1.0102418827597397,0.3237212803733535,-1.1724439050000162,-1.7674608497790991
2024-09-20 10:52:58.797149,36.52,3.415731,-0.06945525105210984,0.03994128512072393,1.0102418827597397,0.3456082558686845,-1.1987427040290088,-1.7718153103753924
2024-09-20 10:52:58.809821,36.52,3.415782,-0.07152854484884746,0.03866075436517247,1.0102418827597397,0.3456082558686845,-1.1987427040290088,-1.7718153103753924
2024-09-20 10:52:58.841749,36.52,3.415782,-0.07152854484884746,0.03866075436517247,1.012620041251304,0.3456082558686845,-1.1987427040290088,-1.7718153103753924
2024-09-20 10:52:58.853266,36.52,3.415832,-0.0748823663631832,0.03866075436517247,1.012620041251304,0.3062460483703762,-1.1111946953259408,-1.7455738209228964
2024-09-20 10:52:58.895686,36.52,3.415832,-0.0748823663631832,0.037807034789969066,1.0090832802619896,0.3062460483703762,-1.1111946953259408,-1.7455738209228964
2024-09-20 10:52:58.948057,36.52,3.415919,-0.0657354716010293,0.037807034789969066,1.0090832802619896,0.38061600277069957,-1.1111946953259408,-1.7762270805481821
2024-09-20 10:52:58.959636,36.52,3.415919,-0.0657354716010293,0.03927054147593958,1.0090832802619896,0.38061600277069957,-1.1111946953259408,-1.7762270805481821
2024-09-20 10:52:58.992065,36.52,3.415919,-0.0657354716010293,0.03927054147593958,1.011217527554791,0.39373674749694765,-1.1111946953259408,-1.7762270805481821
2024-09-20 10:52:59.044477,36.52,3.415971,-0.07195535299124217,0.03927054147593958,1.011217527554791,0.39373674749694765,-1.0762442846808582,-1.7193323314704
2024-09-20 10:52:59.055340,36.52,3.415971,-0.07195535299124217,0.03859979479320188,1.0150592504534395,0.39373674749694765,-1.0762442846808582,-1.7193323314704
2024-09-20 10:52:59.098923,36.52,3.416022,-0.07933384295511196,0.03859979479320188,1.0150592504534395,0.3149550229238346,-1.2862334031555802,-1.7237441016431898
2024-09-20 10:52:59.110329,36.52,3.416022,-0.07933384295511196,0.04555137636221634,1.0150592504534395,0.3149550229238346,-1.2862334031555802,-1.7237441016431898
2024-09-20 10:52:59.142572,36.52,3.416072,-0.07933384295511196,0.04555137636221634,1.0256085799253194,-0.5687180923892186,-1.4437395427253097,-1.3124748926080763
2024-09-20 10:52:59.153899,36.52,3.416072,-0.06512568752821553,0.04555137636221634,1.0256085799253194,-0.5687180923892186,-1.4437395427253097,-1.3124748926080763
2024-09-20 10:52:59.185350,36.52,3.416072,-0.06512568752821553,0.03646544420998638,1.0220717217214974,-0.5687180923892186,-1.4437395427253097,-1.3124748926080763
2024-09-20 10:52:59.196802,36.52,3.416164,-0.06512568752821553,0.03646544420998638,1.0220717217214974,0.5293559115713462,-1.0805987452771515,-1.553117270708084
2024-09-20 10:52:59.239730,36.52,3.416164,-0.06719898132495315,0.03725820725117254,1.015486022140394,0.5861933510726318,-1.0805987452771515,-1.553117270708084
2024-09-20 10:52:59.252243,36.52,3.416164,-0.06719898132495315,0.03725820725117254,1.015486022140394,0.5861933510726318,-1.15932321363464,-1.73245312955752
2024-09-20 10:52:59.284132,36.52,3.416261,-0.06805270090015655,0.03890468986756211,1.015486022140394,0.5861933510726318,-1.15932321363464,-1.73245312955752
2024-09-20 10:52:59.295120,36.52,3.416261,-0.06805270090015655,0.03890468986756211,1.0054854685621037,0.4505741869982332,-1.0849533125951887,-1.73245312955752
2024-09-20 10:52:59.340420,36.52,3.416312,-0.06866248497297033,0.03890468986756211,1.0054854685621037,0.4505741869982332,-1.0849533125951887,-1.7455738209228964
2024-09-20 10:52:59.351675,36.52,3.416312,-0.06866248497297033,0.03774607521799848,1.0114003880429827,0.5774843765191734,-1.0849533125951887,-1.7455738209228964
2024-09-20 10:52:59.383444,36.52,3.416363,-0.06866248497297033,0.03774607521799848,1.0114003880429827,0.5774843765191734,-0.9405678643908352,-1.6187209409784526
2024-09-20 10:52:59.394782,36.52,3.416363,-0.06762589275776185,0.04036819655353262,1.0105467474545664,0.5774843765191734,-0.9405678643908352,-1.6187209409784526
2024-09-20 10:52:59.426444,38.6,3.416363,-0.06762589275776185,0.04036819655353262,1.0105467474545664,0.2274643237972632,-0.9405678643908352,-1.6187209409784526
2024-09-20 10:52:59.438179,38.6,3.416414,-0.0657354716010293,0.03914862536995175,1.0105467474545664,0.2274643237972632,-1.0893650827679784,-1.6799701506525277
2024-09-20 10:52:59.480854,38.6,3.416414,-0.0657354716010293,0.03914862536995175,1.0046318279736874,0.2318188110739924,-1.2818216329827905,-1.710566100701317
2024-09-20 10:52:59.491942,38.6,3.416465,-0.06695504582256352,0.03914862536995175,1.0046318279736874,0.2318188110739924,-1.2818216329827905,-1.710566100701317
2024-09-20 10:52:59.534709,38.6,3.416553,-0.06695504582256352,0.03762405582159666,1.0095710054450078,0.3456082558686845,-1.014995075006783,-1.710566100701317
2024-09-20 10:52:59.582952,38.6,3.416553,-0.0704918432673183,0.03750213971560883,1.0061562486623283,0.13997363801090978,-1.014995075006783,-1.710566100701317
2024-09-20 10:52:59.594410,38.6,3.416553,-0.0704918432673183,0.03750213971560883,1.0061562486623283,0.13997363801090978,-1.2118635021161288,-1.7718153103753924
2024-09-20 10:52:59.626461,38.6,3.416605,-0.06683312667862233,0.03469714574006962,1.0061562486623283,0.13997363801090978,-1.2118635021161288,-1.7718153103753924
2024-09-20 10:52:59.637304,38.6,3.416605,-0.06683312667862233,0.03469714574006962,1.0078026735576042,0.3280757409696467,-1.207451731943339,-1.7718153103753924
2024-09-20 10:52:59.680904,38.6,3.416655,-0.06823567683057562,0.0374411831815916,1.0078026735576042,0.3280757409696467,-1.207451731943339,-1.7149778708741068
2024-09-20 10:52:59.695589,38.6,3.416655,-0.06823567683057562,0.0374411831815916,1.0137175930384832,0.38932495064372197,-1.207451731943339,-1.7149778708741068
2024-09-20 10:52:59.727754,38.6,3.416706,-0.06847950904255126,0.037807034789969066,1.0137175930384832,0.38932495064372197,-1.0499454856518655,-1.7149778708741068
2024-09-20 10:52:59.739246,38.6,3.416706,-0.06847950904255126,0.037807034789969066,1.0115223922496177,0.38932495064372197,-1.0499454856518655,-1.7149778708741068
2024-09-20 10:52:59.770998,38.6,3.416706,-0.06847950904255126,0.037807034789969066,1.0115223922496177,0.4155664400962181,-1.0674780539117754,-1.7149778708741068
2024-09-20 10:52:59.782934,38.6,3.416757,-0.0678697249697375,0.03774607521799848,1.0115223922496177,0.4155664400962181,-1.0674780539117754,-1.6580831217963248
2024-09-20 10:52:59.825916,38.6,3.416807,-0.0678697249697375,0.03774607521799848,1.0134127283436565,0.3237212803733535,-1.2293386540777982,-1.789347878635302
2024-09-20 10:52:59.837145,38.6,3.416807,-0.06847950904255126,0.03774607521799848,1.0134127283436565,0.3237212803733535,-1.2293386540777982,-1.789347878635302
2024-09-20 10:52:59.868824,38.6,3.416807,-0.06847950904255126,0.03927054147593958,1.010668654446694,0.4768156230898574,-1.2293386540777982,-1.789347878635302
2024-09-20 10:52:59.880290,38.6,3.416894,-0.06847950904255126,0.03927054147593958,1.010668654446694,0.4768156230898574,-1.0412365644592791,-1.8374762902222574
2024-09-20 10:52:59.923560,38.6,3.416894,-0.07207736934969063,0.03829490275679499,1.0097540603622142,0.3149550229238346,-1.0805987452771515,-1.7499855910956859
2024-09-20 10:52:59.966539,38.6,3.416946,-0.06860153147690644,0.037014271748782905,1.0097540603622142,0.3149550229238346,-1.0805987452771515,-1.7499855910956859
2024-09-20 10:52:59.978062,38.6,3.416946,-0.06860153147690644,0.037014271748782905,1.0078026735576042,0.3149550229238346,-1.028115873093903,-1.7499855910956859
2024-09-20 10:53:00.021034,38.6,3.416997,-0.06530866345863459,0.038050967254405356,1.0078026735576042,0.3149550229238346,-1.028115873093903,-1.7805815411444754
2024-09-20 10:53:00.035441,38.6,3.416997,-0.06530866345863459,0.038050967254405356,1.0085954578644638,0.24935132597303017,-1.028115873093903,-1.7805815411444754
2024-09-20 10:53:00.067556,38.6,3.417047,-0.0692113155497202,0.038050967254405356,1.0085954578644638,0.24935132597303017,-1.1199610328167677,-1.7499855910956859
2024-09-20 10:53:00.079231,38.6,3.417047,-0.0692113155497202,0.03616054913562615,1.0114614387535539,0.24935132597303017,-1.1199610328167677,-1.7499855910956859
2024-09-20 10:53:00.113012,38.6,3.417047,-0.0692113155497202,0.03616054913562615,1.0114614387535539,0.18374762902222574,-1.3168293532043696,-1.7499855910956859
2024-09-20 10:53:00.125237,38.6,3.417098,-0.06732099768340162,0.0374411831815916,1.0114614387535539,0.18374762902222574,-1.3168293532043696,-1.7674608497790991
2024-09-20 10:53:00.157430,38.6,3.417098,-0.06732099768340162,0.0374411831815916,1.0099369208504057,0.18374762902222574,-1.3168293532043696,-1.7674608497790991
2024-09-20 10:53:00.168728,38.6,3.417149,-0.06750387639931339,0.0374411831815916,1.0099369208504057,0.1180866491753608,-1.2731127117902041,-1.7455738209228964
2024-09-20 10:53:00.210239,38.6,3.417149,-0.06750387639931339,0.03957543351234646,1.0121322188537785,0.1180866491753608,-1.2731127117902041,-1.7455738209228964
2024-09-20 10:53:00.221639,38.6,3.417236,-0.06750387639931339,0.03957543351234646,1.0121322188537785,0.3543172304221429,-1.1768557818945498,-1.741219360326603
2024-09-20 10:53:00.264725,38.6,3.417236,-0.070004075552953,0.036404484638015794,1.013778546534547,0.39373674749694765,-1.0762442846808582,-1.741219360326603
2024-09-20 10:53:00.276223,38.6,3.417236,-0.070004075552953,0.036404484638015794,1.013778546534547,0.39373674749694765,-1.0762442846808582,-1.8899592691272498
2024-09-20 10:53:00.307816,38.6,3.417287,-0.06683312667862233,0.038233842932363774,1.013778546534547,0.39373674749694765,-1.0762442846808582,-1.8899592691272498
2024-09-20 10:53:00.318686,38.6,3.417287,-0.06683312667862233,0.038233842932363774,1.0082904959551298,0.3149550229238346,-1.2336931146740913,-1.8899592691272498
2024-09-20 10:53:00.363537,38.6,3.417338,-0.0683575959745168,0.03847777843475342,1.009510051948944,0.3149550229238346,-1.2336931146740913,-1.8462426277130841
2024-09-20 10:53:00.375528,38.6,3.417338,-0.0683575959745168,0.03847777843475342,1.009510051948944,0.27559278874509036,-1.2336931146740913,-1.8462426277130841
2024-09-20 10:53:00.407467,38.6,3.417389,-0.0683575959745168,0.03847777843475342,1.009510051948944,0.27559278874509036,-1.1768557818945498,-1.7586946190100163
2024-09-20 10:53:00.418283,38.6,3.417389,-0.06475983895779142,0.03939245758192741,1.0093881449568163,0.27559278874509036,-1.1768557818945498,-1.7586946190100163
2024-09-20 10:53:00.450059,40.15,3.417389,-0.06475983895779142,0.03939245758192741,1.0093881449568163,0.24499683869630098,-1.1768557818945498,-1.7586946190100163
2024-09-20 10:53:00.462239,40.15,3.417439,-0.06701610868494809,0.035977676495621086,1.0093881449568163,0.24499683869630098,-1.1768557818945498,-1.710566100701317
2024-09-20 10:53:00.505908,40.15,3.417439,-0.06701610868494809,0.035977676495621086,1.0101198785531047,0.29747979092085736,-1.1068402347296475,-1.7368648997303098
2024-09-20 10:53:00.516949,40.15,3.41749,-0.06561355853299482,0.035977676495621086,1.0101198785531047,0.29747979092085736,-1.1068402347296475,-1.7368648997303098
2024-09-20 10:53:00.548893,40.15,3.41749,-0.06561355853299482,0.0365265040344176,1.0101198785531047,0.29747979092085736,-1.1068402347296475,-1.7368648997303098
2024-09-20 10:53:00.560459,40.15,3.417577,-0.06561355853299482,0.0365265040344176,1.0135347325502915,0.29306802074806765,-1.1637349838074296,-1.741219360326603
2024-09-20 10:53:00.602886,40.15,3.417577,-0.06945525105210984,0.0365265040344176,1.0135347325502915,0.29306802074806765,-1.1637349838074296,-1.741219360326603
2024-09-20 10:53:00.614590,40.15,3.417577,-0.06945525105210984,0.0365265040344176,1.0107906586533293,0.2537058132497594,-1.2424594521649182,-1.6230754015747457
2024-09-20 10:53:00.646845,40.15,3.417628,-0.06945525105210984,0.0365265040344176,1.0107906586533293,0.2537058132497594,-1.2424594521649182,-1.6230754015747457
2024-09-20 10:53:00.658142,40.15,3.417628,-0.0696381236921149,0.03853873496877065,1.0108517093639005,0.3018342781975865,-1.1243154934130608,-1.6230754015747457
2024-09-20 10:53:00.700025,40.15,3.417628,-0.0696381236921149,0.03853873496877065,1.0108517093639005,0.3018342781975865,-1.1243154934130608,-1.728098668961227
2024-09-20 10:53:00.754049,40.15,3.417679,-0.0696381236921149,0.03853873496877065,1.0108517093639005,0.3018342781975865,-1.1243154934130608,-1.728098668961227
2024-09-20 10:53:00.795508,40.15,3.417679,-0.06677217318255844,0.03664842014040543,1.0109126628599643,0.3018342781975865,-1.1243154934130608,-1.728098668961227
2024-09-20 10:53:00.806785,40.15,3.417679,-0.06677217318255844,0.03664842014040543,1.0109126628599643,0.40244569536997005,-1.2118635021161288,-1.8330646267712116
2024-09-20 10:53:00.850371,40.15,3.41773,-0.06683312667862233,0.038721713937143055,1.0122541258459061,0.4768156230898574,-1.2118635021161288,-1.8330646267712116
2024-09-20 10:53:00.862755,40.15,3.41773,-0.06683312667862233,0.038721713937143055,1.0122541258459061,0.4768156230898574,-1.0849533125951887,-1.8330646267712116
2024-09-20 10:53:00.895612,40.15,3.41778,-0.06475983895779142,0.037990010720388115,1.0122541258459061,0.4768156230898574,-1.0849533125951887,-1.7805815411444754
2024-09-20 10:53:00.906527,40.15,3.41778,-0.06475983895779142,0.037990010720388115,1.0124370835486052,0.37620423259790986,-1.0849533125951887,-1.7805815411444754
2024-09-20 10:53:00.937483,40.15,3.41778,-0.06475983895779142,0.037990010720388115,1.0124370835486052,0.37620423259790986,-0.9886962759777903,-1.7805815411444754
2024-09-20 10:53:00.949160,40.15,3.417831,-0.0674429168273428,0.037197247679201954,1.011095523348156,0.37620423259790986,-0.9886962759777903,-1.7018571795087307
2024-09-20 10:53:00.995919,40.15,3.417918,-0.07140652241449229,0.03920958190396899,1.011095523348156,0.26247207069927825,-1.3387163820605725,-1.7718153103753924
2024-09-20 10:53:01.038734,40.15,3.417918,-0.07140652241449229,0.03920958190396899,1.0117664006628877,0.3456082558686845,-1.3387163820605725,-1.7718153103753924
2024-09-20 10:53:01.050259,40.15,3.418018,-0.070004075552953,0.03920958190396899,1.0117664006628877,0.3456082558686845,-1.1243154934130608,-1.741219360326603
2024-09-20 10:53:01.084129,40.15,3.418018,-0.070004075552953,0.037136288107231366,1.0117664006628877,0.3456082558686845,-1.1243154934130608,-1.741219360326603
2024-09-20 10:53:01.095216,40.15,3.418113,-0.070004075552953,0.037136288107231366,1.009815013858278,0.3543172304221429,-1.1156065722204744,-1.73245312955752
2024-09-20 10:53:01.137828,40.15,3.418113,-0.07036993019928382,0.0346360859156384,1.0069489357546806,0.3543172304221429,-1.1156065722204744,-1.73245312955752
2024-09-20 10:53:01.149407,40.15,3.418113,-0.07036993019928382,0.0346360859156384,1.0069489357546806,0.24499683869630098,-1.2424594521649182,-1.8330646267712116
2024-09-20 10:53:01.195005,40.15,3.418165,-0.0713455628425217,0.03634352810399855,1.0092051872541172,0.24499683869630098,-1.2424594521649182,-1.8330646267712116
2024-09-20 10:53:01.206185,40.15,3.418165,-0.0713455628425217,0.03634352810399855,1.0092051872541172,0.3149550229238346,-1.238104991568625,-1.8330646267712116
2024-09-20 10:53:01.238316,40.15,3.418215,-0.0665891972521394,0.03835586232876559,1.0109126628599643,0.27123832814879717,-1.238104991568625,-1.728098668961227
2024-09-20 10:53:01.280606,40.15,3.418215,-0.0665891972521394,0.03835586232876559,1.0109126628599643,0.27123832814879717,-1.1287272635858505,-1.728098668961227
2024-09-20 10:53:01.292054,40.15,3.418266,-0.06567451810496541,0.035489805490841804,1.0107906586533293,0.27123832814879717,-1.1287272635858505,-1.697445409335941
2024-09-20 10:53:01.336547,40.15,3.418317,-0.06750387639931339,0.035489805490841804,1.0107906586533293,0.3499627431454137,-1.1068402347296475,-1.710566100701317
2024-09-20 10:53:01.348343,40.15,3.418317,-0.06750387639931339,0.03494097795204528,1.0107906586533293,0.3499627431454137,-1.1068402347296475,-1.710566100701317
2024-09-20 10:53:01.379501,40.15,3.418317,-0.06750387639931339,0.03494097795204528,1.0121322188537785,0.29306802074806765,-1.1068402347296475,-1.710566100701317
2024-09-20 10:53:01.390958,40.15,3.418367,-0.07055280283928889,0.03494097795204528,1.0121322188537785,0.29306802074806765,-1.1330817241821438,-1.710566100701317
2024-09-20 10:53:01.435855,40.15,3.418367,-0.07055280283928889,0.03756309928757943,1.0102418827597397,0.24935132597303017,-1.1330817241821438,-1.710566100701317
2024-09-20 10:53:01.447116,40.15,3.418454,-0.07055280283928889,0.03756309928757943,1.0102418827597397,0.24935132597303017,-1.1855647030871361,-1.7674608497790991
2024-09-20 10:53:01.479016,40.94,3.418454,-0.07018695426886477,0.035306932850836734,1.0117664006628877,0.24935132597303017,-1.1855647030871361,-1.7674608497790991
2024-09-20 10:53:01.489970,40.94,3.418454,-0.07018695426886477,0.035306932850836734,1.0117664006628877,0.2318188110739924,-1.1506142924420535,-1.7193323314704
2024-09-20 10:53:01.532143,40.94,3.418506,-0.07250417749208533,0.0350020377764765,1.0076198130694125,0.4768156230898574,-1.0849533125951887,-1.7193323314704
2024-09-20 10:53:01.575000,40.94,3.418506,-0.07250417749208533,0.0350020377764765,1.0076198130694125,0.4768156230898574,-1.0849533125951887,-1.7674608497790991
2024-09-20 10:53:01.586960,40.94,3.418557,-0.06805270090015655,0.03756309928757943,1.0071928469534435,0.49434813798889515,-1.0849533125951887,-1.7674608497790991
2024-09-20 10:53:01.629350,40.94,3.418607,-0.0687844041169115,0.03756309928757943,1.0071928469534435,0.49434813798889515,-1.1111946953259408,-1.7149778708741068
2024-09-20 10:53:01.640713,40.94,3.418607,-0.0687844041169115,0.038843630043130885,1.007985631260303,0.49434813798889515,-1.1111946953259408,-1.7149778708741068
2024-09-20 10:53:01.673865,40.94,3.418607,-0.0687844041169115,0.038843630043130885,1.007985631260303,0.27994727602181957,-1.216217962712422,-1.7149778708741068
2024-09-20 10:53:01.686369,40.94,3.418658,-0.07140652241449229,0.03866075436517247,1.007985631260303,0.27994727602181957,-1.216217962712422,-1.7368648997303098
2024-09-20 10:53:01.719416,40.94,3.418658,-0.07140652241449229,0.03866075436517247,1.0135347325502915,0.27994727602181957,-1.216217962712422,-1.7368648997303098
2024-09-20 10:53:01.730293,40.94,3.418709,-0.06823567683057562,0.03866075436517247,1.0135347325502915,0.14432812528763897,-1.2731127117902041,-1.706211640105024
2024-09-20 10:53:01.773889,40.94,3.418709,-0.06823567683057562,0.03396534227085405,1.0073758046561425,0.3630834878716618,-1.2731127117902041,-1.706211640105024
2024-09-20 10:53:01.786500,40.94,3.418796,-0.06823567683057562,0.03396534227085405,1.0073758046561425,0.3630834878716618,-1.1330817241821438,-1.7455738209228964
2024-09-20 10:53:01.818918,40.94,3.418796,-0.0687844041169115,0.03396534227085405,1.0073758046561425,0.3630834878716618,-1.1330817241821438,-1.7455738209228964
2024-09-20 10:53:01.831724,40.94,3.418796,-0.0687844041169115,0.035367889384853975,1.0104856967439952,0.3456082558686845,-1.0630662837389857,-1.7455738209228964
2024-09-20 10:53:01.843442,40.94,3.418796,-0.0687844041169115,0.035367889384853975,1.0104856967439952,0.3456082558686845,-1.0630662837389857,-1.763106389182806
2024-09-20 10:53:01.865002,40.94,3.418847,-0.0687844041169115,0.035367889384853975,1.0104856967439952,0.3456082558686845,-1.0630662837389857,-1.763106389182806
2024-09-20 10:53:01.877251,40.94,3.418847,-0.0700650351249236,0.03585565709921927,1.0125589905407328,0.3499627431454137,-1.0630662837389857,-1.763106389182806
2024-09-20 10:53:01.889669,40.94,3.418847,-0.0700650351249236,0.03585565709921927,1.0125589905407328,0.3499627431454137,-1.1374934943549335,-1.763106389182806
2024-09-20 10:53:01.925814,40.94,3.418898,-0.06988205919450455,0.03433119387923152,1.0115833457456815,0.3499627431454137,-1.1374934943549335,-1.7805815411444754
2024-09-20 10:53:01.937179,40.94,3.418898,-0.06988205919450455,0.03433119387923152,1.0115833457456815,0.3193667930966243,-1.1374934943549335,-1.7805815411444754
2024-09-20 10:53:01.968933,40.94,3.418949,-0.06933322861775466,0.0374411831815916,1.0115833457456815,0.3193667930966243,-1.1899764732599258,-1.789347878635302
2024-09-20 10:53:01.981490,40.94,3.418949,-0.06933322861775466,0.0374411831815916,1.0069489357546806,0.3193667930966243,-1.1899764732599258,-1.789347878635302
2024-09-20 10:53:02.013816,40.94,3.418949,-0.06933322861775466,0.0374411831815916,1.0069489357546806,0.2362305812467821,-1.203097164625302,-1.789347878635302
2024-09-20 10:53:02.025155,40.94,3.418999,-0.07195535299124217,0.036282568532027965,1.0069489357546806,0.2362305812467821,-1.203097164625302,-1.7149778708741068
2024-09-20 10:53:02.068943,40.94,3.41905,-0.07195535299124217,0.036282568532027965,1.012742045457939,0.3368419984191656,-1.1243154934130608,-1.8287099527314306
2024-09-20 10:53:02.080552,40.94,3.41905,-0.07018695426886477,0.036282568532027965,1.012742045457939,0.3368419984191656,-1.1243154934130608,-1.8287099527314306
2024-09-20 10:53:02.112750,40.94,3.41905,-0.07018695426886477,0.035977676495621086,1.0083514494511938,0.3499627431454137,-1.1243154934130608,-1.8287099527314306
2024-09-20 10:53:02.124557,40.94,3.419137,-0.07018695426886477,0.035977676495621086,1.0083514494511938,0.3499627431454137,-1.1068402347296475,-1.7237441016431898
2024-09-20 10:53:02.167058,40.94,3.419137,-0.06780876539776692,0.037075331573214125,1.0118883076550156,0.17498137157270685,-1.2118635021161288,-1.7237441016431898
2024-09-20 10:53:02.178955,40.94,3.419137,-0.06780876539776692,0.037075331573214125,1.0118883076550156,0.17498137157270685,-1.2118635021161288,-1.710566100701317
2024-09-20 10:53:02.211733,40.94,3.419189,-0.0696381236921149,0.038111926826375944,1.012802998954003,0.17498137157270685,-1.2118635021161288,-1.710566100701317
2024-09-20 10:53:02.222715,40.94,3.419189,-0.0696381236921149,0.038111926826375944,1.012802998954003,0.18810211629895493,-1.2818216329827905,-1.710566100701317
2024-09-20 10:53:02.267903,40.94,3.41924,-0.069089396405779,0.03835586232876559,1.011095523348156,0.18810211629895493,-1.2818216329827905,-1.7937022325098515
2024-09-20 10:53:02.280510,40.94,3.41924,-0.069089396405779,0.03835586232876559,1.011095523348156,0.26247207069927825,-1.2818216329827905,-1.7937022325098515
2024-09-20 10:53:02.313362,40.94,3.41929,-0.06415004880907095,0.03591671692365049,1.0109736163560281,0.26247207069927825,-1.1549687530383468,-1.6887363814216108
2024-09-20 10:53:02.355253,40.94,3.41929,-0.06415004880907095,0.03591671692365049,1.0109736163560281,0.37620423259790986,-0.9843418153814971,-1.6056002496130763
2024-09-20 10:53:02.366606,40.94,3.419341,-0.06799174132818597,0.03829490275679499,1.0109736163560281,0.37620423259790986,-0.9843418153814971,-1.6056002496130763
2024-09-20 10:53:02.413628,40.94,3.419392,-0.06725994089692375,0.03829490275679499,1.0115833457456815,0.3237212803733535,-1.1374934943549335,-1.7762270805481821
2024-09-20 10:53:02.460148,40.94,3.419478,-0.06725994089692375,0.03725820725117254,1.0092051872541172,0.3149550229238346,-1.294999633924663,-1.636196199661866
2024-09-20 10:53:02.507126,41.78,3.419478,-0.06768685232973244,0.038843630043130885,1.008229542459066,0.3149550229238346,-1.294999633924663,-1.636196199661866
2024-09-20 10:53:02.518429,41.78,3.419478,-0.06768685232973244,0.038843630043130885,1.008229542459066,0.24935132597303017,-1.294999633924663,-1.636196199661866
2024-09-20 10:53:02.551509,41.78,3.419478,-0.06768685232973244,0.038843630043130885,1.008229542459066,0.24935132597303017,-1.2687009416174144,-1.7499855910956859
2024-09-20 10:53:02.563541,41.78,3.41953,-0.06896738004733055,0.03573374099323144,1.0143883731387076,0.24935132597303017,-1.2687009416174144,-1.7499855910956859
2024-09-20 10:53:02.598757,41.78,3.41953,-0.06896738004733055,0.03573374099323144,1.0143883731387076,0.2143435924112331,-1.1462025222692638,-1.7499855910956859
2024-09-20 10:53:02.610553,41.78,3.41958,-0.06902833961930115,0.03481906184605745,1.0143883731387076,0.2143435924112331,-1.1462025222692638,-1.798114109404385
2024-09-20 10:53:02.654079,41.78,3.419631,-0.070004075552953,0.03481906184605745,1.0109126628599643,0.3368419984191656,-1.0237041029211134,-1.8068230305969715
2024-09-20 10:53:02.695901,41.78,3.419631,-0.070004075552953,0.042197554847880604,1.0082904959551298,0.3237212803733535,-1.0237041029211134,-1.8068230305969715
2024-09-20 10:53:02.707920,41.78,3.419682,-0.070004075552953,0.042197554847880604,1.0082904959551298,0.3237212803733535,-1.0805987452771515,-1.697445409335941
2024-09-20 10:53:02.750927,41.78,3.419682,-0.06994301876647513,0.03469714574006962,1.008046584756367,0.40244569536997005,-1.1987427040290088,-1.728098668961227
2024-09-20 10:53:02.794209,41.78,3.419771,-0.06725994089692375,0.0365265040344176,1.008046584756367,0.40244569536997005,-1.1987427040290088,-1.728098668961227
2024-09-20 10:53:02.805477,41.78,3.419771,-0.06725994089692375,0.0365265040344176,1.010668654446694,0.3193667930966243,-1.1637349838074296,-1.728098668961227
2024-09-20 10:53:02.851432,41.78,3.419823,-0.06896738004733055,0.03683139607082449,1.0113394345469187,0.38932495064372197,-1.1637349838074296,-1.728098668961227
2024-09-20 10:53:02.893205,41.78,3.419873,-0.0683575959745168,0.03683139607082449,1.0113394345469187,0.38932495064372197,-1.0587118231426924,-1.6887363814216108
2024-09-20 10:53:02.904690,41.78,3.419873,-0.0683575959745168,0.0396363900463637,1.0118273541589518,0.38932495064372197,-1.0587118231426924,-1.6887363814216108
2024-09-20 10:53:02.936104,41.78,3.419873,-0.0683575959745168,0.0396363900463637,1.0118273541589518,0.4155664400962181,-1.0587118231426924,-1.6887363814216108
2024-09-20 10:53:02.947470,41.78,3.419924,-0.06756482989537728,0.03494097795204528,1.0118273541589518,0.4155664400962181,-1.0762442846808582,-1.7718153103753924
2024-09-20 10:53:02.991108,41.78,3.419924,-0.06756482989537728,0.03494097795204528,1.0146933350480416,0.27994727602181957,-1.1987427040290088,-1.798114109404385
2024-09-20 10:53:03.003693,41.78,3.419975,-0.06817462004409774,0.03494097795204528,1.0146933350480416,0.27994727602181957,-1.1987427040290088,-1.798114109404385
2024-09-20 10:53:03.035352,41.78,3.419975,-0.06817462004409774,0.037990010720388115,1.0118883076550156,0.27994727602181957,-1.1987427040290088,-1.798114109404385
2024-09-20 10:53:03.046592,41.78,3.420063,-0.06817462004409774,0.037990010720388115,1.0118883076550156,0.3193667930966243,-1.1768557818945498,-1.8768384710401296
2024-09-20 10:53:03.089371,41.78,3.420063,-0.07171141748885253,0.036892355642795076,1.0118883076550156,0.3193667930966243,-1.1768557818945498,-1.8768384710401296
2024-09-20 10:53:03.101168,41.78,3.420063,-0.07171141748885253,0.036892355642795076,1.0113394345469187,0.3543172304221429,-1.1506142924420535,-1.8243554921351373
2024-09-20 10:53:03.132700,41.78,3.420115,-0.06847950904255126,0.036892355642795076,1.0113394345469187,0.3543172304221429,-1.1506142924420535,-1.8243554921351373
2024-09-20 10:53:03.185291,41.78,3.420115,-0.06847950904255126,0.038965646401579346,1.01231507934197,0.4287444677185267,-1.1899764732599258,-1.8243554921351373
2024-09-20 10:53:03.198654,41.78,3.420166,-0.06847950904255126,0.038965646401579346,1.01231507934197,0.4287444677185267,-1.1899764732599258,-1.7718153103753924
2024-09-20 10:53:03.230579,41.78,3.420166,-0.06841854947058068,0.038965646401579346,1.01231507934197,0.4287444677185267,-1.1899764732599258,-1.7718153103753924
2024-09-20 10:53:03.242221,41.78,3.420166,-0.06841854947058068,0.04036819655353262,1.011217527554791,0.40685746554275976,-1.2205724233087152,-1.7805815411444754
2024-09-20 10:53:03.283835,41.78,3.420217,-0.06671111032017388,0.037014271748782905,1.01231507934197,0.3368419984191656,-1.2205724233087152,-1.7805815411444754
2024-09-20 10:53:03.295317,41.78,3.420217,-0.06671111032017388,0.037014271748782905,1.01231507934197,0.3368419984191656,-1.1462025222692638,-1.7805815411444754
2024-09-20 10:53:03.340950,41.78,3.420268,-0.07085769791364913,0.0387826704711603,1.0126809947473678,0.223109849860752,-1.1462025222692638,-1.6756156900562347
2024-09-20 10:53:03.383588,41.78,3.420318,-0.06604036667538953,0.03451416980965057,1.0120102146471432,0.223109849860752,-1.1506142924420535,-1.7455738209228964
2024-09-20 10:53:03.425439,41.78,3.420318,-0.06604036667538953,0.03451416980965057,1.0120102146471432,0.40244569536997005,-1.0980740039605648,-1.7455738209228964
2024-09-20 10:53:03.437216,41.78,3.420407,-0.07061386570167347,0.03616054913562615,1.0120102146471432,0.40244569536997005,-1.0980740039605648,-1.7193323314704
2024-09-20 10:53:03.472484,41.78,3.420407,-0.07061386570167347,0.03616054913562615,1.0070709399613158,0.40244569536997005,-1.0980740039605648,-1.7193323314704
2024-09-20 10:53:03.483893,41.78,3.420458,-0.07067481919773735,0.03616054913562615,1.0070709399613158,0.39809120809324083,-1.1943309338562191,-1.8462426277130841
2024-09-20 10:53:03.526309,41.93,3.420458,-0.07067481919773735,0.03542884895682456,1.0094490984528801,0.26247207069927825,-1.1724439050000162,-1.8462426277130841
2024-09-20 10:53:03.539243,41.93,3.420551,-0.07067481919773735,0.03542884895682456,1.0094490984528801,0.26247207069927825,-1.1724439050000162,-1.8287099527314306
2024-09-20 10:53:03.582124,41.93,3.420551,-0.0674429168273428,0.038721713937143055,1.0114003880429827,0.3280757409696467,-1.0674780539117754,-1.7674608497790991
2024-09-20 10:53:03.624113,41.93,3.420602,-0.07055280283928889,0.03835586232876559,1.013778546534547,0.3280757409696467,-1.0674780539117754,-1.7674608497790991
2024-09-20 10:53:03.635589,41.93,3.420602,-0.07055280283928889,0.03835586232876559,1.013778546534547,0.38932495064372197,-1.0455910250555724,-1.7674608497790991
2024-09-20 10:53:03.681386,41.93,3.420653,-0.06628430217777917,0.03353853109050599,1.0095710054450078,0.3193667930966243,-1.0455910250555724,-1.8024685700006784
2024-09-20 10:53:03.723515,41.93,3.420704,-0.06768685232973244,0.03353853109050599,1.0095710054450078,0.3193667930966243,-1.0193495356030762,-1.8199438286840917
2024-09-20 10:53:03.734803,41.93,3.420704,-0.06768685232973244,0.03762405582159666,1.0130469101527657,0.3193667930966243,-1.0193495356030762,-1.8199438286840917
2024-09-20 10:53:03.766259,41.93,3.420704,-0.06768685232973244,0.03762405582159666,1.0130469101527657,0.26247207069927825,-1.0193495356030762,-1.8199438286840917
2024-09-20 10:53:03.778051,41.93,3.420754,-0.06750387639931339,0.03890468986756211,1.0130469101527657,0.26247207069927825,-1.15932321363464,-1.7368648997303098
2024-09-20 10:53:03.821941,41.93,3.420805,-0.06847950904255126,0.03890468986756211,1.0085954578644638,0.27994727602181957,-1.1899764732599258,-1.8374762902222574
2024-09-20 10:53:03.865913,41.93,3.420805,-0.06847950904255126,0.038965646401579346,1.010668654446694,0.27994727602181957,-1.1899764732599258,-1.8374762902222574
2024-09-20 10:53:03.876903,41.93,3.420892,-0.06847950904255126,0.038965646401579346,1.010668654446694,0.3499627431454137,-1.0587118231426924,-1.7499855910956859
2024-09-20 10:53:03.923581,41.93,3.420892,-0.06768685232973244,0.0398193690147361,1.0106077981651376,0.3368419984191656,-1.1549687530383468,-1.7499855910956859
2024-09-20 10:53:03.934805,41.93,3.420892,-0.06768685232973244,0.0398193690147361,1.0106077981651376,0.3368419984191656,-1.1549687530383468,-1.710566100701317
2024-09-20 10:53:03.966365,41.93,3.420944,-0.0678697249697375,0.037928950895956895,1.0122541258459061,0.38932495064372197,-1.1549687530383468,-1.710566100701317
2024-09-20 10:53:03.977926,41.93,3.420944,-0.0678697249697375,0.037928950895956895,1.0122541258459061,0.38932495064372197,-1.1418479549512268,-1.710566100701317
2024-09-20 10:53:04.009949,41.93,3.420944,-0.0678697249697375,0.037928950895956895,1.0122541258459061,0.38932495064372197,-1.1418479549512268,-1.7718153103753924
2024-09-20 10:53:04.023957,41.93,3.420994,-0.069089396405779,0.04012426105114298,1.0148152420401695,0.24499683869630098,-1.1418479549512268,-1.7718153103753924
2024-09-20 10:53:04.066867,41.93,3.421045,-0.06951621062408042,0.03994128512072393,1.0104856967439952,0.24499683869630098,-1.1637349838074296,-1.8155893680877984
2024-09-20 10:53:04.108978,41.93,3.421045,-0.06951621062408042,0.03994128512072393,1.0104856967439952,0.35872900059493257,-1.1156065722204744,-1.8155893680877984
2024-09-20 10:53:04.121880,41.93,3.421096,-0.06756482989537728,0.036404484638015794,1.0104856967439952,0.35872900059493257,-1.1156065722204744,-1.684324611248821
2024-09-20 10:53:04.164802,41.93,3.421146,-0.06860153147690644,0.036404484638015794,1.0117664006628877,0.4593404177673161,-1.1462025222692638,-1.8287099527314306
2024-09-20 10:53:04.206784,41.93,3.421146,-0.06860153147690644,0.037990010720388115,1.011217527554791,0.4593404177673161,-1.1462025222692638,-1.8287099527314306
2024-09-20 10:53:04.218234,41.93,3.421233,-0.06860153147690644,0.037990010720388115,1.011217527554791,0.5205896274413914,-1.0630662837389857,-1.706211640105024
2024-09-20 10:53:04.261106,41.93,3.421233,-0.06695504582256352,0.038843630043130885,1.0109126628599643,0.5205896274413914,-1.0630662837389857,-1.706211640105024
2024-09-20 10:53:04.272172,41.93,3.421233,-0.06695504582256352,0.038843630043130885,1.0109126628599643,0.3149550229238346,-1.1330817241821438,-1.8374762902222574
2024-09-20 10:53:04.304824,41.93,3.421285,-0.06719898132495315,0.03555076506281239,1.0109126628599643,0.3149550229238346,-1.1330817241821438,-1.8374762902222574
2024-09-20 10:53:04.316536,41.93,3.421285,-0.06719898132495315,0.03555076506281239,1.0135956860463553,0.3018342781975865,-1.1287272635858505,-1.8374762902222574
2024-09-20 10:53:04.358807,41.93,3.421336,-0.07036993019928382,0.039026605973549934,1.0101808320491685,0.27994727602181957,-1.1287272635858505,-1.789347878635302
2024-09-20 10:53:04.402208,41.93,3.421336,-0.07036993019928382,0.039026605973549934,1.0101808320491685,0.27994727602181957,-1.1111946953259408,-1.789347878635302
2024-09-20 10:53:04.413230,41.93,3.421386,-0.0687234445449409,0.037136288107231366,1.0119492611510794,0.27994727602181957,-1.1111946953259408,-1.7499855910956859
2024-09-20 10:53:04.455697,41.93,3.421437,-0.06549154217454636,0.04177064341507191,1.0119492611510794,0.40685746554275976,-1.0849533125951887,-1.8680723469927907
2024-09-20 10:53:04.497458,41.93,3.421437,-0.06549154217454636,0.04177064341507191,1.0109126628599643,0.40685746554275976,-1.0849533125951887,-1.8680723469927907
2024-09-20 10:53:04.508742,41.93,3.421488,-0.06604036667538953,0.04177064341507191,1.0109126628599643,0.48558190721981226,-1.0499454856518655,-1.8943137297235428
2024-09-20 10:53:04.551898,42.03,3.421488,-0.06604036667538953,0.036770439536807246,1.0093881449568163,0.29747979092085736,-1.1418479549512268,-1.8199438286840917
2024-09-20 10:53:04.563700,42.03,3.421575,-0.06604036667538953,0.036770439536807246,1.0093881449568163,0.29747979092085736,-1.1418479549512268,-1.8199438286840917
2024-09-20 10:53:04.595722,42.03,3.421575,-0.069089396405779,0.03622161199801072,1.0093881449568163,0.29747979092085736,-1.1418479549512268,-1.8199438286840917
2024-09-20 10:53:04.606925,42.03,3.421575,-0.069089396405779,0.03622161199801072,1.0090222295514184,0.24499683869630098,-1.1287272635858505,-1.7193323314704
2024-09-20 10:53:04.649900,42.03,3.421626,-0.06866248497297033,0.03622161199801072,1.0090222295514184,0.24499683869630098,-1.1287272635858505,-1.7193323314704
2024-09-20 10:53:04.662944,42.03,3.421626,-0.06866248497297033,0.03951447394037587,1.0134736818397203,0.29747979092085736,-1.0849533125951887,-1.7193323314704
2024-09-20 10:53:04.694462,42.03,3.421677,-0.06597940710341893,0.03951447394037587,1.0134736818397203,0.29747979092085736,-1.0849533125951887,-1.7149778708741068
2024-09-20 10:53:04.705682,42.03,3.421677,-0.06597940710341893,0.03494097795204528,1.0115833457456815,0.3456082558686845,-1.0849533125951887,-1.7149778708741068
2024-09-20 10:53:04.748337,42.03,3.421728,-0.06665015074820328,0.037014271748782905,1.0118883076550156,0.3456082558686845,-1.0587118231426924,-1.8068230305969715
2024-09-20 10:53:04.792049,42.03,3.421728,-0.06665015074820328,0.037014271748782905,1.0118883076550156,0.4418652124447748,-1.0587118231426924,-1.8068230305969715
2024-09-20 10:53:04.802848,42.03,3.421778,-0.06847950904255126,0.035489805490841804,1.0118883076550156,0.4418652124447748,-1.1199610328167677,-1.8374762902222574
2024-09-20 10:53:04.844152,42.03,3.421829,-0.06847950904255126,0.035489805490841804,1.0094490984528801,0.27123832814879717,-1.2862334031555802,-1.7762270805481821
2024-09-20 10:53:04.856246,42.03,3.421829,-0.07024790776492866,0.035489805490841804,1.0094490984528801,0.27123832814879717,-1.2862334031555802,-1.7762270805481821
2024-09-20 10:53:04.890106,42.03,3.421829,-0.07024790776492866,0.03494097795204528,1.0101198785531047,0.27123832814879717,-1.2862334031555802,-1.7762270805481821
2024-09-20 10:53:04.901873,42.03,3.421916,-0.07024790776492866,0.03494097795204528,1.0101198785531047,0.223109849860752,-1.15932321363464,-1.798114109404385
2024-09-20 10:53:04.945479,42.03,3.421916,-0.07104067384406818,0.03506299734844709,1.011095523348156,0.3456082558686845,-1.2468139127612115,-1.728098668961227
2024-09-20 10:53:04.986948,42.03,3.421967,-0.07018695426886477,0.036892355642795076,1.011095523348156,0.3456082558686845,-1.2468139127612115,-1.728098668961227
2024-09-20 10:53:04.998756,42.03,3.421967,-0.07018695426886477,0.036892355642795076,1.0112784810508548,0.3324875378228724,-1.1024857741333545,-1.728098668961227
2024-09-20 10:53:05.041636,42.03,3.422018,-0.06738195725537222,0.038233842932363774,1.0117664006628877,0.3411964856958948,-1.1024857741333545,-1.7586946190100163
2024-09-20 10:53:05.083116,42.03,3.422018,-0.06738195725537222,0.038233842932363774,1.0117664006628877,0.3411964856958948,-1.0849533125951887,-1.789347878635302
2024-09-20 10:53:05.094597,42.03,3.422069,-0.0687234445449409,0.03622161199801072,1.008229542459066,0.3411964856958948,-1.0849533125951887,-1.789347878635302
2024-09-20 10:53:05.140625,42.03,3.422119,-0.07146758527687687,0.03622161199801072,1.008229542459066,0.223109849860752,-1.1680894444037229,-1.7586946190100163
2024-09-20 10:53:05.152606,42.03,3.422119,-0.07146758527687687,0.03646544420998638,1.008229542459066,0.223109849860752,-1.1680894444037229,-1.7586946190100163
2024-09-20 10:53:05.185660,42.03,3.42217,-0.07146758527687687,0.03646544420998638,1.0109126628599643,0.26247207069927825,-1.15932321363464,-1.697445409335941
2024-09-20 10:53:05.197563,42.03,3.42217,-0.070918754700127,0.03646544420998638,1.0109126628599643,0.26247207069927825,-1.15932321363464,-1.697445409335941
2024-09-20 10:53:05.233845,42.03,3.42217,-0.070918754700127,0.03622161199801072,1.01231507934197,0.3674952580444515,-1.15932321363464,-1.697445409335941
2024-09-20 10:53:05.244822,42.03,3.422257,-0.070918754700127,0.03622161199801072,1.01231507934197,0.3674952580444515,-1.0805987452771515,-1.7805815411444754
2024-09-20 10:53:05.276041,42.03,3.422257,-0.0713455628425217,0.03622161199801072,1.01231507934197,0.3674952580444515,-1.0805987452771515,-1.7805815411444754
2024-09-20 10:53:05.328935,42.03,3.422257,-0.0713455628425217,0.03646544420998638,1.011095523348156,0.3849704900474288,-1.0805987452771515,-1.7805815411444754
2024-09-20 10:53:05.340871,42.03,3.422309,-0.0713455628425217,0.03646544420998638,1.011095523348156,0.3849704900474288,-1.1068402347296475,-1.741219360326603
2024-09-20 10:53:05.383175,42.03,3.422309,-0.06817462004409774,0.035489805490841804,1.0115833457456815,0.26247207069927825,-1.1243154934130608,-1.763106389182806
2024-09-20 10:53:05.425404,42.03,3.422359,-0.06933322861775466,0.035489805490841804,1.0115833457456815,0.26247207069927825,-1.1243154934130608,-1.763106389182806
2024-09-20 10:53:05.436954,42.03,3.422359,-0.06933322861775466,0.038111926826375944,1.0118883076550156,0.2537058132497594,-1.1243154934130608,-1.763106389182806
2024-09-20 10:53:05.480295,42.03,3.42241,-0.07110163341603877,0.03457512634366781,1.0118883076550156,0.2537058132497594,-1.1243154934130608,-1.7455738209228964
2024-09-20 10:53:05.491826,42.03,3.42241,-0.07110163341603877,0.03457512634366781,1.0114003880429827,0.2405850685235113,-1.1243154934130608,-1.7455738209228964
2024-09-20 10:53:05.523465,42.03,3.422461,-0.07110163341603877,0.03457512634366781,1.0114003880429827,0.2405850685235113,-1.1068402347296475,-1.671203919883445
2024-09-20 10:53:05.535300,42.03,3.422461,-0.07201631256321275,0.0387826704711603,1.0115223922496177,0.2405850685235113,-1.1068402347296475,-1.671203919883445
2024-09-20 10:53:05.576590,45.83,3.422552,-0.06738195725537222,0.037807034789969066,1.0115223922496177,0.4505741869982332,-1.0412365644592791,-1.6799701506525277
2024-09-20 10:53:05.620152,45.83,3.422552,-0.06738195725537222,0.037807034789969066,1.0111565740587272,0.4505741869982332,-1.0412365644592791,-1.6799701506525277
2024-09-20 10:53:05.630929,45.83,3.422603,-0.0687234445449409,0.037807034789969066,1.0111565740587272,0.3499627431454137,-1.1418479549512268,-1.6056002496130763
2024-09-20 10:53:05.672603,45.83,3.422603,-0.0687234445449409,0.031892048474116426,1.0104856967439952,0.20998910513450392,-1.1068402347296475,-1.7718153103753924
2024-09-20 10:53:05.684226,45.83,3.422696,-0.0687234445449409,0.031892048474116426,1.0104856967439952,0.20998910513450392,-1.1068402347296475,-1.7718153103753924
2024-09-20 10:53:05.716230,45.83,3.422696,-0.06512568752821553,0.031892048474116426,1.0104856967439952,0.20998910513450392,-1.1068402347296475,-1.7718153103753924
2024-09-20 10:53:05.727875,45.83,3.422696,-0.06512568752821553,0.03622161199801072,1.0120102146471432,0.3062460483703762,-1.1374934943549335,-1.7455738209228964
2024-09-20 10:53:05.771474,45.83,3.422747,-0.06780876539776692,0.03695331217681231,1.009510051948944,0.3543172304221429,-1.1374934943549335,-1.7455738209228964
2024-09-20 10:53:05.782595,45.83,3.422747,-0.06780876539776692,0.03695331217681231,1.009510051948944,0.3543172304221429,-1.0762442846808582,-1.7455738209228964
2024-09-20 10:53:05.814969,45.83,3.422798,-0.06780876539776692,0.03695331217681231,1.009510051948944,0.3543172304221429,-1.0762442846808582,-1.7849933113172651
2024-09-20 10:53:05.826028,45.83,3.422798,-0.0692113155497202,0.038172883360393185,1.0113394345469187,0.3018342781975865,-1.0762442846808582,-1.7849933113172651
2024-09-20 10:53:05.869029,45.83,3.422849,-0.06969918655449947,0.0341483182012731,1.0075587623588413,0.3018342781975865,-1.1549687530383468,-1.8549515489056707
2024-09-20 10:53:05.911916,45.83,3.422849,-0.06969918655449947,0.0341483182012731,1.0075587623588413,0.2537058132497594,-1.1899764732599258,-1.8549515489056707
2024-09-20 10:53:05.923296,45.83,3.422899,-0.06707706218101198,0.03433119387923152,1.0075587623588413,0.2537058132497594,-1.1899764732599258,-1.8724840104438365
2024-09-20 10:53:05.970312,45.83,3.42295,-0.06707706218101198,0.03433119387923152,1.0135347325502915,0.2143435924112331,-1.3037086618389935,-1.7455738209228964
2024-09-20 10:53:05.981562,45.83,3.42295,-0.06591844753144835,0.03433119387923152,1.0135347325502915,0.2143435924112331,-1.3037086618389935,-1.7455738209228964
2024-09-20 10:53:06.014194,45.83,3.42295,-0.06591844753144835,0.03957543351234646,1.0132298678554648,0.27559278874509036,-1.0237041029211134,-1.763106389182806
2024-09-20 10:53:06.025782,45.83,3.423037,-0.06591844753144835,0.03957543351234646,1.0132298678554648,0.27559278874509036,-1.0237041029211134,-1.763106389182806
2024-09-20 10:53:06.057332,45.83,3.423037,-0.06689408625059293,0.03957543351234646,1.0132298678554648,0.27559278874509036,-1.0237041029211134,-1.763106389182806
2024-09-20 10:53:06.069744,45.83,3.423037,-0.06689408625059293,0.037197247679201954,1.0100589250570406,0.35872900059493257,-1.0630662837389857,-1.7455738209228964
2024-09-20 10:53:06.164324,45.83,3.423089,-0.06988205919450455,0.037685118683981236,1.0083514494511938,0.28871353347133843,-1.0893650827679784,-1.7455738209228964
2024-09-20 10:53:06.207103,45.83,3.423089,-0.06988205919450455,0.037685118683981236,1.0083514494511938,0.28871353347133843,-1.0893650827679784,-1.7368648997303098
2024-09-20 10:53:06.218473,45.83,3.423139,-0.06988205919450455,0.03683139607082449,1.0084734536578288,0.3411964856958948,-1.0893650827679784,-1.7368648997303098
2024-09-20 10:53:06.260563,45.83,3.42319,-0.06811366047212715,0.0365265040344176,1.0104856967439952,0.3411964856958948,-1.1418479549512268,-1.706211640105024
2024-09-20 10:53:06.302752,45.83,3.42319,-0.06811366047212715,0.0365265040344176,1.0104856967439952,0.24499683869630098,-1.028115873093903,-1.706211640105024
2024-09-20 10:53:06.313989,45.83,3.423241,-0.06957716412014431,0.03488002141802804,1.0104856967439952,0.24499683869630098,-1.028115873093903,-1.6887363814216108
2024-09-20 10:53:06.356621,45.83,3.423291,-0.07036993019928382,0.03488002141802804,1.0099979715609768,0.38061600277069957,-1.1462025222692638,-1.671203919883445
2024-09-20 10:53:06.399600,45.83,3.423291,-0.07036993019928382,0.039026605973549934,1.012498037044669,0.38061600277069957,-1.1462025222692638,-1.671203919883445
2024-09-20 10:53:06.410790,45.83,3.423427,-0.07036993019928382,0.039026605973549934,1.012498037044669,0.18810211629895493,-1.1768557818945498,-1.798114109404385
2024-09-20 10:53:06.454465,45.83,3.423427,-0.07067481919773735,0.03506299734844709,1.0099369208504057,0.3237212803733535,-1.3168293532043696,-1.798114109404385
2024-09-20 10:53:06.465620,45.83,3.423427,-0.07067481919773735,0.03506299734844709,1.0099369208504057,0.3237212803733535,-1.3168293532043696,-1.8811929316364229
2024-09-20 10:53:06.497767,45.83,3.423479,-0.06884546090338937,0.03506299734844709,1.0099369208504057,0.3237212803733535,-1.3168293532043696,-1.8811929316364229
2024-09-20 10:53:06.508990,45.83,3.423479,-0.06884546090338937,0.03762405582159666,1.0147542885441054,0.40685746554275976,-1.1462025222692638,-1.8811929316364229
2024-09-20 10:53:06.551533,45.83,3.423529,-0.07122364977448722,0.039087562507567175,1.0122541258459061,0.40685746554275976,-1.1462025222692638,-1.8155893680877984
2024-09-20 10:53:06.566072,45.83,3.423529,-0.07122364977448722,0.039087562507567175,1.0122541258459061,0.4155664400962181,-1.1462025222692638,-1.8155893680877984
2024-09-20 10:53:06.600659,45.18,3.42358,-0.07122364977448722,0.039087562507567175,1.0122541258459061,0.4155664400962181,-1.1418479549512268,-1.7543400516919792
2024-09-20 10:53:06.611936,45.18,3.42358,-0.06817462004409774,0.037075331573214125,1.0109126628599643,0.4155664400962181,-1.1418479549512268,-1.7543400516919792
2024-09-20 10:53:06.643904,45.18,3.42358,-0.06817462004409774,0.037075331573214125,1.0109126628599643,0.3411964856958948,-1.1418479549512268,-1.7543400516919792
2024-09-20 10:53:06.654696,45.18,3.423631,-0.06841854947058068,0.03841681886278282,1.0109126628599643,0.3411964856958948,-1.1506142924420535,-1.7543400516919792
2024-09-20 10:53:06.699185,45.18,3.423631,-0.06841854947058068,0.03841681886278282,1.0131078636488298,0.18810211629895493,-1.2118635021161288,-1.7543400516919792
2024-09-20 10:53:06.711585,45.18,3.423631,-0.06841854947058068,0.03841681886278282,1.0131078636488298,0.18810211629895493,-1.2118635021161288,-1.8068230305969715
2024-09-20 10:53:06.744170,45.18,3.423682,-0.07146758527687687,0.03433119387923152,1.0131078636488298,0.18810211629895493,-1.2118635021161288,-1.8068230305969715
2024-09-20 10:53:06.755347,45.18,3.423682,-0.07146758527687687,0.03433119387923152,1.0116442992417454,0.2668265312955715,-1.207451731943339,-1.8068230305969715
2024-09-20 10:53:06.798798,45.18,3.423768,-0.06988205919450455,0.03518491345443492,1.0116442992417454,0.2668265312955715,-1.207451731943339,-1.763106389182806
2024-09-20 10:53:06.809956,45.18,3.423768,-0.06988205919450455,0.03518491345443492,1.010668654446694,0.1180866491753608,-1.207451731943339,-1.763106389182806
2024-09-20 10:53:06.842466,45.18,3.42382,-0.06988205919450455,0.03518491345443492,1.010668654446694,0.1180866491753608,-1.014995075006783,-1.763106389182806
2024-09-20 10:53:06.853394,45.18,3.42382,-0.06780876539776692,0.03481906184605745,1.0104856967439952,0.1180866491753608,-1.014995075006783,-1.763106389182806
2024-09-20 10:53:06.886166,45.18,3.42382,-0.06780876539776692,0.03481906184605745,1.0104856967439952,0.5555973476629704,-1.014995075006783,-1.763106389182806
2024-09-20 10:53:06.898029,45.18,3.423871,-0.0683575959745168,0.03481906184605745,1.0104856967439952,0.5555973476629704,-1.0062288442377,-1.8243554921351373
2024-09-20 10:53:06.909999,45.18,3.423871,-0.0683575959745168,0.039026605973549934,1.0104856967439952,0.5555973476629704,-1.0062288442377,-1.8243554921351373
2024-09-20 10:53:06.943072,45.18,3.423871,-0.0683575959745168,0.039026605973549934,1.0092051872541172,0.15744885667366906,-1.0062288442377,-1.8243554921351373
2024-09-20 10:53:06.955910,45.18,3.423921,-0.0696381236921149,0.039026605973549934,1.0092051872541172,0.15744885667366906,-1.1812102424908428,-1.8768384710401296
2024-09-20 10:53:06.989270,45.18,3.423921,-0.0696381236921149,0.03774607521799848,1.008107538252431,0.15744885667366906,-1.1812102424908428,-1.8768384710401296
2024-09-20 10:53:07.002874,45.18,3.424012,-0.0696381236921149,0.03774607521799848,1.008107538252431,0.2362305812467821,-1.2468139127612115,-1.8243554921351373
2024-09-20 10:53:07.035585,45.18,3.424012,-0.06646727810819822,0.03774607521799848,1.008107538252431,0.2362305812467821,-1.2468139127612115,-1.8243554921351373
2024-09-20 10:53:07.048143,45.18,3.424012,-0.06646727810819822,0.03774607521799848,1.0087784155671629,0.39809120809324083,-1.0674780539117754,-1.7193323314704
2024-09-20 10:53:07.081150,45.18,3.424064,-0.06646727810819822,0.03774607521799848,1.0087784155671629,0.39809120809324083,-1.0674780539117754,-1.7193323314704
2024-09-20 10:53:07.093262,45.18,3.424064,-0.07262609663602651,0.035977676495621086,1.011095523348156,0.39373674749694765,-1.0805987452771515,-1.7193323314704
2024-09-20 10:53:07.136940,45.18,3.424114,-0.06725994089692375,0.0403071367291014,1.011095523348156,0.39373674749694765,-1.0805987452771515,-1.7193323314704
2024-09-20 10:53:07.148660,45.18,3.424114,-0.06725994089692375,0.0403071367291014,1.0091442337580534,0.3674952580444515,-1.0805987452771515,-1.7193323314704
2024-09-20 10:53:07.180173,45.18,3.424114,-0.06725994089692375,0.0403071367291014,1.0091442337580534,0.3674952580444515,-1.0587118231426924,-1.7543400516919792
2024-09-20 10:53:07.191342,45.18,3.424165,-0.06415004880907095,0.04134383223472385,1.0071928469534435,0.3674952580444515,-1.0587118231426924,-1.7543400516919792
2024-09-20 10:53:07.237742,45.18,3.424216,-0.06982109962253395,0.04134383223472385,1.0071928469534435,0.2843590461946093,-1.3255955839734523,-1.8418307508185505
2024-09-20 10:53:07.251570,45.18,3.424216,-0.06982109962253395,0.037136288107231366,1.0071928469534435,0.2843590461946093,-1.3255955839734523,-1.8418307508185505
2024-09-20 10:53:07.287818,45.18,3.424216,-0.06982109962253395,0.037136288107231366,1.0104247432479314,0.24935132597303017,-1.3255955839734523,-1.8418307508185505
2024-09-20 10:53:07.299688,45.18,3.424267,-0.06793078783212209,0.037136288107231366,1.0104247432479314,0.24935132597303017,-1.2687009416174144,-1.8243554921351373
2024-09-20 10:53:07.331745,45.18,3.424267,-0.06793078783212209,0.038050967254405356,1.0100589250570406,0.3849704900474288,-1.1111946953259408,-1.8243554921351373
2024-09-20 10:53:07.343221,45.18,3.424353,-0.06793078783212209,0.038050967254405356,1.0100589250570406,0.3849704900474288,-1.1111946953259408,-1.728098668961227
2024-09-20 10:53:07.378658,45.18,3.424353,-0.0678697249697375,0.037380223609621004,1.0139616014517532,0.3849704900474288,-1.1111946953259408,-1.728098668961227
2024-09-20 10:53:07.390082,45.18,3.424353,-0.0678697249697375,0.037380223609621004,1.0139616014517532,0.3193667930966243,-1.0587118231426924,-1.6056002496130763
2024-09-20 10:53:07.424828,45.18,3.424405,-0.06762589275776185,0.037380223609621004,1.0139616014517532,0.3193667930966243,-1.0587118231426924,-1.6056002496130763
2024-09-20 10:53:07.435840,45.18,3.424405,-0.06762589275776185,0.03488002141802804,1.0112784810508548,0.2843590461946093,-1.1855647030871361,-1.6056002496130763
2024-09-20 10:53:07.478371,45.18,3.424456,-0.066162383033838,0.038172883360393185,1.0112784810508548,0.2843590461946093,-1.1855647030871361,-1.7762270805481821
2024-09-20 10:53:07.493903,45.18,3.424456,-0.066162383033838,0.038172883360393185,1.0071318934573796,0.223109849860752,-1.1855647030871361,-1.7762270805481821
2024-09-20 10:53:07.525624,45.18,3.424506,-0.066162383033838,0.038172883360393185,1.0071318934573796,0.223109849860752,-1.224984193481505,-1.7937022325098515
2024-09-20 10:53:07.537408,45.18,3.424506,-0.06561355853299482,0.03481906184605745,1.010668654446694,0.223109849860752,-1.224984193481505,-1.7937022325098515
2024-09-20 10:53:07.568757,45.18,3.424506,-0.06561355853299482,0.03481906184605745,1.010668654446694,0.2274643237972632,-1.224984193481505,-1.7937022325098515
2024-09-20 10:53:07.579689,45.18,3.424557,-0.06665015074820328,0.03859979479320188,1.010668654446694,0.2274643237972632,-1.2118635021161288,-1.789347878635302
2024-09-20 10:53:07.624373,45.63,3.424557,-0.06665015074820328,0.03859979479320188,1.0096319589410718,0.4374534422719851,-1.2118635021161288,-1.789347878635302
2024-09-20 10:53:07.636062,45.63,3.424608,-0.0692113155497202,0.03859979479320188,1.0096319589410718,0.4374534422719851,-1.0368247942864894,-1.811234907491505
2024-09-20 10:53:07.667296,45.63,3.424608,-0.0692113155497202,0.04049011265952045,1.009815013858278,0.4374534422719851,-1.0368247942864894,-1.811234907491505
2024-09-20 10:53:07.678992,45.63,3.424695,-0.0692113155497202,0.04049011265952045,1.009815013858278,0.5730726063463837,-1.028115873093903,-1.684324611248821
2024-09-20 10:53:07.720452,45.63,3.424695,-0.06994301876647513,0.037014271748782905,1.0152421109416312,0.2537058132497594,-1.028115873093903,-1.684324611248821
2024-09-20 10:53:07.732015,45.63,3.424695,-0.06994301876647513,0.037014271748782905,1.0152421109416312,0.2537058132497594,-1.0499454856518655,-1.7543400516919792
2024-09-20 10:53:07.775570,45.63,3.424746,-0.0687234445449409,0.037807034789969066,1.0115223922496177,0.6256128414670006,-1.1549687530383468,-1.7543400516919792
2024-09-20 10:53:07.817039,45.63,3.424797,-0.06976014005056336,0.037807034789969066,1.0115223922496177,0.6256128414670006,-1.1549687530383468,-1.7499855910956859
2024-09-20 10:53:07.828434,45.63,3.424797,-0.06976014005056336,0.03829490275679499,1.0086564113605276,0.6037258659716696,-1.1549687530383468,-1.7499855910956859
2024-09-20 10:53:07.862412,45.63,3.424797,-0.06976014005056336,0.03829490275679499,1.0086564113605276,0.6037258659716696,-0.9974626134686172,-1.7499855910956859
2024-09-20 10:53:07.874300,45.63,3.424848,-0.0683575959745168,0.03512395388246433,1.0103637897518674,0.6037258659716696,-0.9974626134686172,-1.697445409335941
2024-09-20 10:53:07.916655,45.63,3.424898,-0.07171141748885253,0.03512395388246433,1.0103637897518674,0.5861933510726318,-0.993108152872324,-1.8155893680877984
2024-09-20 10:53:07.929144,45.63,3.424898,-0.07171141748885253,0.03603863302963832,1.0103637897518674,0.5861933510726318,-0.993108152872324,-1.8155893680877984
2024-09-20 10:53:07.961985,45.63,3.424898,-0.07171141748885253,0.03603863302963832,1.012742045457939,0.5730726063463837,-0.914326374938339,-1.8155893680877984
2024-09-20 10:53:07.977565,45.63,3.424949,-0.07128460934645782,0.03603863302963832,1.012742045457939,0.5730726063463837,-0.914326374938339,-1.8593632123567163
2024-09-20 10:53:08.009393,45.63,3.424949,-0.07128460934645782,0.038965646401579346,1.0132908213515286,0.5730726063463837,-0.914326374938339,-1.8593632123567163
2024-09-20 10:53:08.020514,45.63,3.425036,-0.07128460934645782,0.038965646401579346,1.0132908213515286,0.24935132597303017,-1.0587118231426924,-1.7674608497790991
2024-09-20 10:53:08.061995,45.63,3.425036,-0.07061386570167347,0.03542884895682456,1.0119492611510794,0.2537058132497594,-1.0587118231426924,-1.7674608497790991
2024-09-20 10:53:08.073194,45.63,3.425036,-0.07061386570167347,0.03542884895682456,1.0119492611510794,0.2537058132497594,-1.1330817241821438,-1.7762270805481821
2024-09-20 10:53:08.106824,45.63,3.425088,-0.07061386570167347,0.03542884895682456,1.0119492611510794,0.2537058132497594,-1.1330817241821438,-1.7762270805481821
2024-09-20 10:53:08.118055,45.63,3.425088,-0.06860153147690644,0.04042915308754986,1.0152421109416312,0.39809120809324083,-1.1330817241821438,-1.7762270805481821
2024-09-20 10:53:08.129347,45.63,3.425088,-0.06860153147690644,0.04042915308754986,1.0152421109416312,0.39809120809324083,-1.1418479549512268,-1.7762270805481821
2024-09-20 10:53:08.160739,45.63,3.425138,-0.06750387639931339,0.0374411831815916,1.0152421109416312,0.39809120809324083,-1.1418479549512268,-1.73245312955752
2024-09-20 10:53:08.173354,45.63,3.425138,-0.06750387639931339,0.0374411831815916,1.0108517093639005,0.38061600277069957,-1.1418479549512268,-1.73245312955752
2024-09-20 10:53:08.205213,45.63,3.425138,-0.06750387639931339,0.0374411831815916,1.0108517093639005,0.38061600277069957,-1.1024857741333545,-1.6799701506525277
2024-09-20 10:53:08.217176,45.63,3.425189,-0.06860153147690644,0.03616054913562615,1.0101808320491685,0.38061600277069957,-1.1024857741333545,-1.6799701506525277
2024-09-20 10:53:08.251384,45.63,3.425189,-0.06860153147690644,0.03616054913562615,1.0101808320491685,0.3411964856958948,-1.1024857741333545,-1.6799701506525277
2024-09-20 10:53:08.262691,45.63,3.42524,-0.07061386570167347,0.03561182488724361,1.0101808320491685,0.3411964856958948,-1.1462025222692638,-1.7499855910956859
2024-09-20 10:53:08.304600,45.63,3.42524,-0.07061386570167347,0.03561182488724361,1.011217527554791,0.3062460483703762,-1.1199610328167677,-1.8374762902222574
2024-09-20 10:53:08.316734,45.63,3.42529,-0.07024790776492866,0.03561182488724361,1.011217527554791,0.3062460483703762,-1.1199610328167677,-1.8374762902222574
2024-09-20 10:53:08.352463,45.63,3.42529,-0.07024790776492866,0.03670937667442267,1.012620041251304,0.3062460483703762,-1.1199610328167677,-1.8374762902222574
2024-09-20 10:53:08.363419,45.63,3.425377,-0.07024790776492866,0.03670937667442267,1.012620041251304,0.29747979092085736,-1.0105833048339934,-1.710566100701317
2024-09-20 10:53:08.446516,45.63,3.425377,-0.066162383033838,0.03670937667442267,1.012620041251304,0.29747979092085736,-1.0105833048339934,-1.710566100701317
2024-09-20 10:53:08.457837,45.63,3.425377,-0.066162383033838,0.03420927473529034,1.0087173648565917,0.3849704900474288,-1.0630662837389857,-1.6449624304309487
2024-09-20 10:53:08.543527,45.63,3.425429,-0.066162383033838,0.03420927473529034,1.0087173648565917,0.3849704900474288,-1.0630662837389857,-1.6449624304309487
2024-09-20 10:53:08.555101,45.63,3.425429,-0.07012599469689418,0.03945351740635863,1.0103637897518674,0.2581175834225491,-1.0980740039605648,-1.6449624304309487
2024-09-20 10:53:08.600951,45.63,3.42548,-0.06768685232973244,0.03945351740635863,1.0103637897518674,0.2581175834225491,-1.0980740039605648,-1.798114109404385
2024-09-20 10:53:08.612141,45.63,3.42548,-0.06768685232973244,0.037319163785189784,1.0115833457456815,0.3237212803733535,-1.0980740039605648,-1.798114109404385
2024-09-20 10:53:08.643479,45.7,3.42548,-0.06768685232973244,0.037319163785189784,1.0115833457456815,0.3237212803733535,-1.1680894444037229,-1.7237441016431898
2024-09-20 10:53:08.654582,45.7,3.42553,-0.06671111032017388,0.036099592601608915,1.00969310686615,0.3237212803733535,-1.1680894444037229,-1.7237441016431898
2024-09-20 10:53:08.696142,45.7,3.425581,-0.06671111032017388,0.036099592601608915,1.00969310686615,0.35872900059493257,-1.1724439050000162,-1.741219360326603
2024-09-20 10:53:08.708793,45.7,3.425581,-0.06988205919450455,0.037319163785189784,1.00969310686615,0.35872900059493257,-1.1724439050000162,-1.741219360326603
2024-09-20 10:53:08.741324,45.7,3.425581,-0.06988205919450455,0.037319163785189784,1.012802998954003,0.35872900059493257,-1.1724439050000162,-1.741219360326603
2024-09-20 10:53:08.753023,45.7,3.425672,-0.06384515981061743,0.037319163785189784,1.012802998954003,0.3193667930966243,-1.1330817241821438,-1.7849933113172651
2024-09-20 10:53:08.795480,45.7,3.425672,-0.06384515981061743,0.038111926826375944,1.011217527554791,0.49434813798889515,-0.958100325929001,-1.671203919883445
2024-09-20 10:53:08.806871,45.7,3.425816,-0.06384515981061743,0.038111926826375944,1.011217527554791,0.49434813798889515,-0.958100325929001,-1.671203919883445
2024-09-20 10:53:08.838636,45.7,3.425816,-0.06512568752821553,0.03555076506281239,1.011217527554791,0.49434813798889515,-0.958100325929001,-1.671203919883445
2024-09-20 10:53:08.850661,45.7,3.425816,-0.06512568752821553,0.03555076506281239,1.0102418827597397,0.4724611624935642,-1.0543573625463993,-1.7499855910956859
2024-09-20 10:53:08.893190,45.7,3.425868,-0.07171141748885253,0.03585565709921927,1.0117664006628877,0.3849704900474288,-1.0543573625463993,-1.7499855910956859
2024-09-20 10:53:08.905806,45.7,3.425868,-0.07171141748885253,0.03585565709921927,1.0117664006628877,0.3849704900474288,-0.936213403794542,-1.7499855910956859
2024-09-20 10:53:08.937184,45.7,3.425918,-0.06555259896102422,0.03585565709921927,1.0117664006628877,0.3849704900474288,-0.936213403794542,-1.7805815411444754
2024-09-20 10:53:08.949066,45.7,3.425918,-0.06555259896102422,0.03488002141802804,1.0101808320491685,0.4505741869982332,-0.936213403794542,-1.7805815411444754
2024-09-20 10:53:08.991511,45.7,3.425969,-0.06811366047212715,0.0374411831815916,1.0071318934573796,0.4505741869982332,-1.0937195433642715,-1.7237441016431898
2024-09-20 10:53:09.033574,45.7,3.425969,-0.06811366047212715,0.0374411831815916,1.0071318934573796,0.38932495064372197,-1.0368247942864894,-1.7237441016431898
2024-09-20 10:53:09.044911,45.7,3.42602,-0.06756482989537728,0.03622161199801072,1.0071318934573796,0.38932495064372197,-1.0368247942864894,-1.7849933113172651
2024-09-20 10:53:09.088702,45.7,3.42602,-0.06756482989537728,0.03622161199801072,1.0111565740587272,0.2405850685235113,-1.0018170740649104,-1.7849933113172651
2024-09-20 10:53:09.100322,45.7,3.42607,-0.06689408625059293,0.03622161199801072,1.0111565740587272,0.2405850685235113,-1.0018170740649104,-1.789347878635302
2024-09-20 10:53:09.133021,45.7,3.42607,-0.06689408625059293,0.037928950895956895,1.0120102146471432,0.3324875378228724,-1.0018170740649104,-1.789347878635302
2024-09-20 10:53:09.144381,45.7,3.426157,-0.06689408625059293,0.037928950895956895,1.0120102146471432,0.3324875378228724,-1.0805987452771515,-1.8505970883093774
2024-09-20 10:53:09.177673,45.7,3.426157,-0.06945525105210984,0.037928950895956895,1.0120102146471432,0.3324875378228724,-1.0805987452771515,-1.8505970883093774
2024-09-20 10:53:09.189702,45.7,3.426157,-0.06945525105210984,0.036282568532027965,1.0100589250570406,0.4287444677185267,-1.1068402347296475,-1.8024685700006784
2024-09-20 10:53:09.232110,45.7,3.426209,-0.06976014005056336,0.038233842932363774,1.0124370835486052,0.4287444677185267,-1.1068402347296475,-1.8024685700006784
2024-09-20 10:53:09.243236,45.7,3.426209,-0.06976014005056336,0.038233842932363774,1.0124370835486052,0.31060053564710544,-1.1943309338562191,-1.8024685700006784
2024-09-20 10:53:09.275174,45.7,3.426209,-0.06976014005056336,0.038233842932363774,1.0124370835486052,0.31060053564710544,-1.1943309338562191,-1.73245312955752
2024-09-20 10:53:09.287657,45.7,3.42626,-0.07213832892166122,0.03683139607082449,1.0120712653577144,0.2405850685235113,-1.1943309338562191,-1.73245312955752
2024-09-20 10:53:09.333321,45.7,3.426311,-0.06738195725537222,0.03683139607082449,1.0120712653577144,0.2405850685235113,-1.1506142924420535,-1.8024685700006784
2024-09-20 10:53:09.345367,45.7,3.426311,-0.06738195725537222,0.037319163785189784,1.0107906586533293,0.2405850685235113,-1.1506142924420535,-1.8024685700006784
2024-09-20 10:53:09.377283,45.7,3.426311,-0.06738195725537222,0.037319163785189784,1.0107906586533293,0.42433269754573705,-1.1943309338562191,-1.7805815411444754
2024-09-20 10:53:09.388565,45.7,3.426361,-0.06768685232973244,0.03933149800995682,1.0107906586533293,0.42433269754573705,-1.1943309338562191,-1.7805815411444754
2024-09-20 10:53:09.422663,45.7,3.426361,-0.06768685232973244,0.03933149800995682,1.0087784155671629,0.42433269754573705,-1.1943309338562191,-1.7805815411444754
2024-09-20 10:53:09.434499,45.7,3.426412,-0.06683312667862233,0.03933149800995682,1.0087784155671629,0.3499627431454137,-1.1549687530383468,-1.6449624304309487
2024-09-20 10:53:09.478715,45.7,3.426412,-0.06683312667862233,0.038843630043130885,1.010668654446694,0.40244569536997005,-1.1855647030871361,-1.8505970883093774
2024-09-20 10:53:09.490946,45.7,3.426499,-0.06683312667862233,0.038843630043130885,1.010668654446694,0.40244569536997005,-1.1855647030871361,-1.8505970883093774
2024-09-20 10:53:09.522705,45.7,3.426499,-0.07378471128559015,0.03683139607082449,1.0092051872541172,0.40244569536997005,-1.1855647030871361,-1.8505970883093774
2024-09-20 10:53:09.533732,45.7,3.426499,-0.07378471128559015,0.03683139607082449,1.0092051872541172,0.27123832814879717,-1.3212411233771593,-1.8680723469927907
2024-09-20 10:53:09.575824,45.7,3.42655,-0.06756482989537728,0.03951447394037587,1.012742045457939,0.06995817088731565,-1.3956111311383546,-1.8680723469927907
2024-09-20 10:53:09.618759,45.7,3.426601,-0.070004075552953,0.03951447394037587,1.012742045457939,0.06995817088731565,-1.3956111311383546,-1.6887363814216108
2024-09-20 10:53:09.633864,45.7,3.426601,-0.070004075552953,0.03616054913562615,1.009510051948944,0.2143435924112331,-1.3956111311383546,-1.6887363814216108
2024-09-20 10:53:09.668895,45.79,3.426652,-0.070004075552953,0.03616054913562615,1.009510051948944,0.2143435924112331,-1.2774671723864972,-1.8068230305969715
2024-09-20 10:53:09.680648,45.79,3.426652,-0.06902833961930115,0.03542884895682456,1.011095523348156,0.2143435924112331,-1.2774671723864972,-1.8068230305969715
2024-09-20 10:53:09.722640,45.79,3.426702,-0.06939429148013924,0.037928950895956895,1.011095523348156,0.42433269754573705,-1.1024857741333545,-1.8068230305969715
2024-09-20 10:53:09.769973,45.79,3.426702,-0.06939429148013924,0.037928950895956895,1.00969310686615,0.3018342781975865,-1.1330817241821438,-1.8068230305969715
2024-09-20 10:53:09.781380,45.79,3.426753,-0.06652823768016881,0.037928950895956895,1.00969310686615,0.3018342781975865,-1.1330817241821438,-1.798114109404385
2024-09-20 10:53:09.813458,45.79,3.426753,-0.06652823768016881,0.03616054913562615,1.011217527554791,0.3018342781975865,-1.1330817241821438,-1.798114109404385
2024-09-20 10:53:09.824337,45.79,3.42684,-0.06652823768016881,0.03616054913562615,1.011217527554791,0.2143435924112331,-1.2862334031555802,-1.8505970883093774
2024-09-20 10:53:09.868606,45.79,3.42684,-0.06811366047212715,0.038965646401579346,1.0120712653577144,0.28871353347133843,-1.2862334031555802,-1.8505970883093774
2024-09-20 10:53:09.882041,45.79,3.42684,-0.06811366047212715,0.038965646401579346,1.0120712653577144,0.28871353347133843,-1.2905878637518733,-1.6449624304309487
2024-09-20 10:53:09.913481,45.79,3.426891,-0.06982109962253395,0.03920958190396899,1.009510051948944,0.28871353347133843,-1.2905878637518733,-1.6449624304309487
2024-09-20 10:53:09.924916,45.79,3.426891,-0.06982109962253395,0.03920958190396899,1.009510051948944,0.3193667930966243,-1.1812102424908428,-1.6449624304309487
2024-09-20 10:53:09.970104,45.79,3.426942,-0.06817462004409774,0.03927054147593958,1.009510051948944,0.3193667930966243,-1.1812102424908428,-1.7543400516919792
2024-09-20 10:53:09.982708,45.79,3.426942,-0.06817462004409774,0.03927054147593958,1.011034569852092,0.3411964856958948,-1.1812102424908428,-1.7543400516919792
2024-09-20 10:53:10.014386,45.79,3.426993,-0.06756482989537728,0.03927054147593958,1.011034569852092,0.3411964856958948,-1.1374934943549335,-1.6756156900562347
2024-09-20 10:53:10.025378,45.79,3.426993,-0.06756482989537728,0.03683139607082449,1.012498037044669,0.3411964856958948,-1.1374934943549335,-1.6756156900562347
2024-09-20 10:53:10.058002,45.79,3.426993,-0.06756482989537728,0.03683139607082449,1.012498037044669,0.29306802074806765,-1.2118635021161288,-1.6756156900562347
2024-09-20 10:53:10.069984,45.79,3.427043,-0.06622334260580857,0.03829490275679499,1.012498037044669,0.29306802074806765,-1.2118635021161288,-1.7499855910956859
2024-09-20 10:53:10.113244,45.79,3.427094,-0.06854057190493584,0.03829490275679499,1.0111565740587272,0.31060053564710544,-1.3430708426568656,-1.789347878635302
2024-09-20 10:53:10.155347,45.79,3.427094,-0.06854057190493584,0.037197247679201954,1.0117664006628877,0.3018342781975865,-1.3430708426568656,-1.789347878635302
2024-09-20 10:53:10.166418,45.79,3.427181,-0.06854057190493584,0.037197247679201954,1.0117664006628877,0.3018342781975865,-1.15932321363464,-1.741219360326603
2024-09-20 10:53:10.208973,45.79,3.427181,-0.06768685232973244,0.038721713937143055,1.0117664006628877,0.4768156230898574,-1.0762442846808582,-1.741219360326603
2024-09-20 10:53:10.220173,45.79,3.427181,-0.06768685232973244,0.038721713937143055,1.0117664006628877,0.4768156230898574,-1.0762442846808582,-1.7499855910956859
2024-09-20 10:53:10.252313,45.79,3.427233,-0.06951621062408042,0.038721713937143055,1.0117664006628877,0.4768156230898574,-1.0762442846808582,-1.7499855910956859
2024-09-20 10:53:10.263127,45.79,3.427233,-0.06951621062408042,0.037014271748782905,1.0130469101527657,0.3543172304221429,-1.028115873093903,-1.7499855910956859
2024-09-20 10:53:10.307873,45.79,3.427283,-0.06500377446018106,0.03664842014040543,1.0130469101527657,0.3543172304221429,-1.028115873093903,-1.789347878635302
2024-09-20 10:53:10.319177,45.79,3.427283,-0.06500377446018106,0.03664842014040543,1.0097540603622142,0.3849704900474288,-1.028115873093903,-1.789347878635302
2024-09-20 10:53:10.350722,45.79,3.427334,-0.06500377446018106,0.03664842014040543,1.0097540603622142,0.3849704900474288,-1.0849533125951887,-1.7937022325098515
2024-09-20 10:53:10.362494,45.79,3.427334,-0.07036993019928382,0.03957543351234646,1.0113394345469187,0.3849704900474288,-1.0849533125951887,-1.7937022325098515
2024-09-20 10:53:10.405053,45.79,3.427385,-0.06732099768340162,0.03951447394037587,1.0113394345469187,0.2274643237972632,-1.1111946953259408,-1.684324611248821
2024-09-20 10:53:10.448597,45.79,3.427385,-0.06732099768340162,0.03951447394037587,1.0095710054450078,0.2274643237972632,-1.1111946953259408,-1.684324611248821
2024-09-20 10:53:10.459806,45.79,3.427435,-0.06896738004733055,0.03951447394037587,1.0095710054450078,0.39809120809324083,-1.1374934943549335,-1.798114109404385
2024-09-20 10:53:10.502550,45.79,3.427435,-0.06896738004733055,0.03646544420998638,1.0088393690632267,0.38061600277069957,-1.1024857741333545,-1.6887363814216108
2024-09-20 10:53:10.514062,45.79,3.427522,-0.06896738004733055,0.03646544420998638,1.0088393690632267,0.38061600277069957,-1.1024857741333545,-1.6887363814216108
2024-09-20 10:53:10.550659,45.79,3.427522,-0.06957716412014431,0.03664842014040543,1.0100589250570406,0.3674952580444515,-1.1549687530383468,-1.6887363814216108
2024-09-20 10:53:10.562907,45.79,3.427522,-0.06957716412014431,0.03664842014040543,1.0100589250570406,0.3674952580444515,-1.1549687530383468,-1.73245312955752
2024-09-20 10:53:10.596088,45.79,3.427574,-0.06994301876647513,0.037807034789969066,1.0100589250570406,0.3674952580444515,-1.1549687530383468,-1.73245312955752
2024-09-20 10:53:10.607096,45.79,3.427574,-0.06994301876647513,0.037807034789969066,1.0089612760553544,0.3062460483703762,-1.2555801435302942,-1.73245312955752
2024-09-20 10:53:10.650153,45.79,3.427625,-0.06707706218101198,0.037075331573214125,1.0114614387535539,0.18374762902222574,-1.2555801435302942,-1.8987256066180767
2024-09-20 10:53:10.697224,45.57,3.427675,-0.06707706218101198,0.037075331573214125,1.0114614387535539,0.18374762902222574,-1.1855647030871361,-1.763106389182806
2024-09-20 10:53:10.708277,45.57,3.427675,-0.0696381236921149,0.03725820725117254,1.0086564113605276,0.18374762902222574,-1.1855647030871361,-1.763106389182806
2024-09-20 10:53:10.741394,45.57,3.427675,-0.0696381236921149,0.03725820725117254,1.0086564113605276,0.38932495064372197,-1.207451731943339,-1.710566100701317
2024-09-20 10:53:10.753358,45.57,3.427726,-0.06994301876647513,0.036282568532027965,1.0086564113605276,0.38932495064372197,-1.207451731943339,-1.710566100701317
2024-09-20 10:53:10.786360,45.57,3.427726,-0.06994301876647513,0.036282568532027965,1.0079246777642392,0.38932495064372197,-1.207451731943339,-1.710566100701317
2024-09-20 10:53:10.800721,45.57,3.427777,-0.06665015074820328,0.036282568532027965,1.0079246777642392,0.38061600277069957,-1.216217962712422,-1.671203919883445
2024-09-20 10:53:10.842769,45.57,3.427777,-0.06665015074820328,0.037319163785189784,1.0107906586533293,0.38061600277069957,-1.0674780539117754,-1.8330646267712116
2024-09-20 10:53:10.854342,45.57,3.427864,-0.06665015074820328,0.037319163785189784,1.0107906586533293,0.38061600277069957,-1.0674780539117754,-1.8330646267712116
2024-09-20 10:53:10.887420,45.57,3.427864,-0.06671111032017388,0.037136288107231366,1.0102418827597397,0.38061600277069957,-1.0674780539117754,-1.8330646267712116
2024-09-20 10:53:10.898942,45.57,3.427864,-0.06671111032017388,0.037136288107231366,1.0102418827597397,0.31060053564710544,-1.216217962712422,-1.8724840104438365
2024-09-20 10:53:10.932731,45.57,3.427915,-0.06671111032017388,0.037136288107231366,1.0102418827597397,0.31060053564710544,-1.216217962712422,-1.8724840104438365
2024-09-20 10:53:10.943817,45.57,3.427915,-0.06713802175298257,0.0403071367291014,1.0093270942462451,0.39373674749694765,-1.1680894444037229,-1.8724840104438365
2024-09-20 10:53:10.986865,45.57,3.427966,-0.06884546090338937,0.03646544420998638,1.0093270942462451,0.39373674749694765,-1.1680894444037229,-1.8199438286840917
2024-09-20 10:53:10.998348,45.57,3.427966,-0.06884546090338937,0.03646544420998638,1.012620041251304,0.4374534422719851,-1.1680894444037229,-1.8199438286840917
2024-09-20 10:53:11.042351,45.57,3.428017,-0.06750387639931339,0.035977676495621086,1.0148152420401695,0.4374534422719851,-1.0980740039605648,-1.6756156900562347
2024-09-20 10:53:11.084883,45.57,3.428067,-0.06750387639931339,0.035977676495621086,1.0148152420401695,0.41997821026900783,-1.1637349838074296,-1.763106389182806
2024-09-20 10:53:11.096621,45.57,3.428067,-0.06793078783212209,0.03829490275679499,1.0148152420401695,0.41997821026900783,-1.1637349838074296,-1.763106389182806
2024-09-20 10:53:11.128895,45.57,3.428067,-0.06793078783212209,0.03829490275679499,1.0086564113605276,0.2362305812467821,-1.1637349838074296,-1.763106389182806
2024-09-20 10:53:11.140559,45.57,3.428118,-0.06933322861775466,0.03829490275679499,1.0086564113605276,0.2362305812467821,-1.1330817241821438,-1.798114109404385
2024-09-20 10:53:11.182782,45.57,3.428118,-0.06933322861775466,0.037197247679201954,1.010668654446694,0.26247207069927825,-1.1330817241821438,-1.798114109404385
2024-09-20 10:53:11.193966,45.57,3.428205,-0.06933322861775466,0.037197247679201954,1.010668654446694,0.26247207069927825,-1.1899764732599258,-1.7543400516919792
2024-09-20 10:53:11.227356,45.57,3.428205,-0.06719898132495315,0.037197247679201954,1.010668654446694,0.26247207069927825,-1.1899764732599258,-1.7543400516919792
2024-09-20 10:53:11.238910,45.57,3.428205,-0.06719898132495315,0.038111926826375944,1.0129859566567019,0.42433269754573705,-1.0849533125951887,-1.7455738209228964
2024-09-20 10:53:11.281722,45.57,3.428256,-0.06774780582579633,0.04042915308754986,1.009510051948944,0.468106701897271,-1.0849533125951887,-1.7455738209228964
2024-09-20 10:53:11.292981,45.57,3.428256,-0.06774780582579633,0.04042915308754986,1.009510051948944,0.468106701897271,-1.0893650827679784,-1.7455738209228964
2024-09-20 10:53:11.325309,45.57,3.428307,-0.06774780582579633,0.04042915308754986,1.009510051948944,0.468106701897271,-1.0893650827679784,-1.7499855910956859
2024-09-20 10:53:11.336996,45.57,3.428307,-0.06799174132818597,0.04079500469592733,1.0118273541589518,0.2843590461946093,-1.0893650827679784,-1.7499855910956859
2024-09-20 10:53:11.380976,45.57,3.428307,-0.06799174132818597,0.04079500469592733,1.0118273541589518,0.2843590461946093,-1.1549687530383468,-1.7499855910956859
2024-09-20 10:53:11.423396,45.57,3.428358,-0.06799174132818597,0.04079500469592733,1.0118273541589518,0.2843590461946093,-1.1549687530383468,-1.741219360326603
2024-09-20 10:53:11.434759,45.57,3.428358,-0.07024790776492866,0.037807034789969066,1.0104856967439952,0.27994727602181957,-1.1549687530383468,-1.741219360326603
2024-09-20 10:53:11.476969,45.57,3.428408,-0.06927227512169078,0.03866075436517247,1.0104856967439952,0.27994727602181957,-1.1943309338562191,-1.7674608497790991
2024-09-20 10:53:11.488976,45.57,3.428408,-0.06927227512169078,0.03866075436517247,1.0092051872541172,0.27994727602181957,-1.1943309338562191,-1.7674608497790991
2024-09-20 10:53:11.521925,45.57,3.428408,-0.06927227512169078,0.03866075436517247,1.0092051872541172,0.29306802074806765,-1.0674780539117754,-1.7674608497790991
2024-09-20 10:53:11.533336,45.57,3.428459,-0.06866248497297033,0.03914862536995175,1.0092051872541172,0.29306802074806765,-1.0674780539117754,-1.741219360326603
2024-09-20 10:53:11.575793,45.57,3.428546,-0.06951621062408042,0.03914862536995175,1.0119492611510794,0.3674952580444515,-1.0762442846808582,-1.8811929316364229
2024-09-20 10:53:11.617915,45.57,3.428546,-0.06951621062408042,0.03859979479320188,1.0089003225592905,0.3324875378228724,-1.0762442846808582,-1.8811929316364229
2024-09-20 10:53:11.629858,45.57,3.428597,-0.06951621062408042,0.03859979479320188,1.0089003225592905,0.3324875378228724,-1.0499454856518655,-1.7849933113172651
2024-09-20 10:53:11.672656,45.57,3.428597,-0.06671111032017388,0.0411608563043048,1.0124370835486052,0.3280757409696467,-1.1199610328167677,-1.8462426277130841
2024-09-20 10:53:11.714916,45.52,3.428693,-0.07073577876970795,0.0411608563043048,1.0124370835486052,0.3280757409696467,-1.1199610328167677,-1.8462426277130841
2024-09-20 10:53:11.726106,45.52,3.428693,-0.07073577876970795,0.037380223609621004,1.011034569852092,0.26247207069927825,-1.1287272635858505,-1.8462426277130841
2024-09-20 10:53:11.771188,45.52,3.428744,-0.0687234445449409,0.037380223609621004,1.011034569852092,0.26247207069927825,-1.1287272635858505,-1.8287099527314306
2024-09-20 10:53:11.782379,45.52,3.428744,-0.0687234445449409,0.038050967254405356,1.012498037044669,0.3630834878716618,-1.1287272635858505,-1.8287099527314306
2024-09-20 10:53:11.815366,45.52,3.428795,-0.0687234445449409,0.038050967254405356,1.012498037044669,0.3630834878716618,-1.1462025222692638,-1.6930908420179038
2024-09-20 10:53:11.826273,45.52,3.428795,-0.06780876539776692,0.03603863302963832,1.0099979715609768,0.3630834878716618,-1.1462025222692638,-1.6930908420179038
2024-09-20 10:53:11.871113,45.52,3.428846,-0.06780876539776692,0.03603863302963832,1.0099979715609768,0.3456082558686845,-1.1287272635858505,-1.7543400516919792
2024-09-20 10:53:11.882450,45.52,3.428846,-0.06823567683057562,0.037928950895956895,1.0099979715609768,0.3456082558686845,-1.1287272635858505,-1.7543400516919792
2024-09-20 10:53:11.913938,45.52,3.428846,-0.06823567683057562,0.037928950895956895,1.0112784810508548,0.3237212803733535,-1.2862334031555802,-1.7937022325098515
2024-09-20 10:53:11.926824,45.52,3.428896,-0.06695504582256352,0.037928950895956895,1.0112784810508548,0.3237212803733535,-1.2862334031555802,-1.7937022325098515
2024-09-20 10:53:11.959333,45.52,3.428896,-0.06695504582256352,0.037685118683981236,1.0092051872541172,0.3237212803733535,-1.2862334031555802,-1.7937022325098515
2024-09-20 10:53:11.970760,45.52,3.428985,-0.06695504582256352,0.037685118683981236,1.0092051872541172,0.20998910513450392,-1.0630662837389857,-1.789347878635302
2024-09-20 10:53:12.015104,45.52,3.428985,-0.06561355853299482,0.0346360859156384,1.0091442337580534,0.3149550229238346,-1.0630662837389857,-1.789347878635302
2024-09-20 10:53:12.026072,45.52,3.428985,-0.06561355853299482,0.0346360859156384,1.0091442337580534,0.3149550229238346,-1.1068402347296475,-1.7368648997303098
2024-09-20 10:53:12.058537,45.52,3.429036,-0.0674429168273428,0.0346360859156384,1.0091442337580534,0.3149550229238346,-1.1068402347296475,-1.7368648997303098
2024-09-20 10:53:12.071448,45.52,3.429036,-0.0674429168273428,0.03847777843475342,1.0138396944596255,0.2668265312955715,-1.1199610328167677,-1.7368648997303098
2024-09-20 10:53:12.104740,45.52,3.429036,-0.0674429168273428,0.03847777843475342,1.0138396944596255,0.2668265312955715,-1.1199610328167677,-1.6799701506525277
2024-09-20 10:53:12.116578,45.52,3.429087,-0.06951621062408042,0.03939245758192741,1.0144494238492787,0.2668265312955715,-1.1199610328167677,-1.6799701506525277
2024-09-20 10:53:12.127979,45.52,3.429087,-0.06951621062408042,0.03939245758192741,1.0144494238492787,0.3018342781975865,-1.1199610328167677,-1.6799701506525277
2024-09-20 10:53:12.159990,45.52,3.429138,-0.069089396405779,0.03939245758192741,1.0144494238492787,0.3018342781975865,-1.238104991568625,-1.73245312955752
2024-09-20 10:53:12.172394,45.52,3.429138,-0.069089396405779,0.03664842014040543,1.0103028362558035,0.3018342781975865,-1.238104991568625,-1.73245312955752
2024-09-20 10:53:12.207312,45.52,3.429138,-0.069089396405779,0.03664842014040543,1.0103028362558035,0.24499683869630098,-1.2512256829340012,-1.6756156900562347
2024-09-20 10:53:12.218688,45.52,3.429189,-0.0674429168273428,0.037319163785189784,1.0103028362558035,0.24499683869630098,-1.2512256829340012,-1.6756156900562347
2024-09-20 10:53:12.249817,45.52,3.429189,-0.0674429168273428,0.037319163785189784,1.0090832802619896,0.3280757409696467,-1.2512256829340012,-1.6756156900562347
2024-09-20 10:53:12.261468,45.52,3.429239,-0.06982109962253395,0.037319163785189784,1.0090832802619896,0.3280757409696467,-1.1768557818945498,-1.73245312955752
2024-09-20 10:53:12.304577,45.52,3.429239,-0.06982109962253395,0.03573374099323144,1.00969310686615,0.3280757409696467,-1.1768557818945498,-1.73245312955752
2024-09-20 10:53:12.316294,45.52,3.429326,-0.06982109962253395,0.03573374099323144,1.00969310686615,0.37620423259790986,-1.0805987452771515,-1.6668494592871517
2024-09-20 10:53:12.348659,45.52,3.429326,-0.06860153147690644,0.03933149800995682,1.00969310686615,0.37620423259790986,-1.0805987452771515,-1.6668494592871517
2024-09-20 10:53:12.360083,45.52,3.429326,-0.06860153147690644,0.03933149800995682,1.011034569852092,0.48558190721981226,-1.0368247942864894,-1.6930908420179038
2024-09-20 10:53:12.402332,45.52,3.429378,-0.07067481919773735,0.03622161199801072,1.0099979715609768,0.39373674749694765,-1.0368247942864894,-1.6930908420179038
2024-09-20 10:53:12.414608,45.52,3.429378,-0.07067481919773735,0.03622161199801072,1.0099979715609768,0.39373674749694765,-1.0105833048339934,-1.6930908420179038
2024-09-20 10:53:12.446887,45.52,3.429378,-0.07067481919773735,0.03622161199801072,1.0099979715609768,0.39373674749694765,-1.0105833048339934,-1.7018571795087307
2024-09-20 10:53:12.458985,45.52,3.429428,-0.06945525105210984,0.035367889384853975,1.0092051872541172,0.2186980663477443,-1.0105833048339934,-1.7018571795087307
2024-09-20 10:53:12.494411,45.52,3.429428,-0.06945525105210984,0.035367889384853975,1.0092051872541172,0.2186980663477443,-1.0237041029211134,-1.7018571795087307
2024-09-20 10:53:12.505989,45.52,3.429479,-0.06762589275776185,0.03616054913562615,1.0114614387535539,0.2186980663477443,-1.0237041029211134,-1.7237441016431898
2024-09-20 10:53:12.551602,45.52,3.42953,-0.06762589275776185,0.03616054913562615,1.0114614387535539,0.20122284768498502,-1.1637349838074296,-1.7849933113172651
2024-09-20 10:53:12.562645,45.52,3.42953,-0.06976014005056336,0.03634352810399855,1.0114614387535539,0.20122284768498502,-1.1637349838074296,-1.7849933113172651
2024-09-20 10:53:12.595719,45.52,3.42953,-0.06976014005056336,0.03634352810399855,1.010668654446694,0.27123832814879717,-1.0937195433642715,-1.7849933113172651
2024-09-20 10:53:12.607674,45.52,3.42958,-0.06969918655449947,0.03634352810399855,1.010668654446694,0.27123832814879717,-1.0937195433642715,-1.649316891027242
2024-09-20 10:53:12.641197,45.52,3.42958,-0.06969918655449947,0.035489805490841804,1.010668654446694,0.27123832814879717,-1.0937195433642715,-1.649316891027242
2024-09-20 10:53:12.658527,45.52,3.429668,-0.06969918655449947,0.035489805490841804,1.0129859566567019,0.27994727602181957,-1.1243154934130608,-1.7762270805481821
2024-09-20 10:53:12.690787,45.52,3.429668,-0.06677217318255844,0.038050967254405356,1.009510051948944,0.27994727602181957,-1.1243154934130608,-1.7762270805481821
2024-09-20 10:53:12.701708,45.52,3.429668,-0.06677217318255844,0.038050967254405356,1.009510051948944,0.27994727602181957,-1.1418479549512268,-1.763106389182806
2024-09-20 10:53:12.744111,45.81,3.429719,-0.07213832892166122,0.03408725837684188,1.0090832802619896,0.4155664400962181,-1.2424594521649182,-1.763106389182806
2024-09-20 10:53:12.788758,45.81,3.42977,-0.07213832892166122,0.03408725837684188,1.0090832802619896,0.4155664400962181,-1.2424594521649182,-1.8024685700006784
2024-09-20 10:53:12.799671,45.81,3.42977,-0.06671111032017388,0.037136288107231366,1.0086564113605276,0.39809120809324083,-1.2424594521649182,-1.8024685700006784
2024-09-20 10:53:12.841866,45.81,3.42982,-0.06969918655449947,0.03841681886278282,1.0126809947473678,0.39809120809324083,-1.0455910250555724,-1.7368648997303098
2024-09-20 10:53:12.884551,45.81,3.42982,-0.06969918655449947,0.03841681886278282,1.0126809947473678,0.4155664400962181,-1.0455910250555724,-1.763106389182806
2024-09-20 10:53:12.896633,45.81,3.429871,-0.07012599469689418,0.0374411831815916,1.0126809947473678,0.4155664400962181,-1.0455910250555724,-1.763106389182806
2024-09-20 10:53:12.933367,45.81,3.429871,-0.07012599469689418,0.0374411831815916,1.009510051948944,0.38061600277069957,-1.1549687530383468,-1.763106389182806
2024-09-20 10:53:12.944469,45.81,3.429922,-0.070918754700127,0.0374411831815916,1.009510051948944,0.38061600277069957,-1.1549687530383468,-1.8155893680877984
2024-09-20 10:53:12.986422,45.81,3.430009,-0.070918754700127,0.03762405582159666,1.0093881449568163,0.3280757409696467,-1.216217962712422,-1.7499855910956859
2024-09-20 10:53:13.029441,45.81,3.430009,-0.0687844041169115,0.03762405582159666,1.0093881449568163,0.3280757409696467,-1.216217962712422,-1.7499855910956859
2024-09-20 10:53:13.040747,45.81,3.430009,-0.0687844041169115,0.0420145758795082,1.0115223922496177,0.29747979092085736,-1.2512256829340012,-1.763106389182806
2024-09-20 10:53:13.082922,45.81,3.43006,-0.06884546090338937,0.03427023430726093,1.0115223922496177,0.35872900059493257,-1.2512256829340012,-1.763106389182806
2024-09-20 10:53:13.094328,45.81,3.43006,-0.06884546090338937,0.03427023430726093,1.0115223922496177,0.35872900059493257,-1.203097164625302,-1.763106389182806
2024-09-20 10:53:13.130635,45.81,3.430111,-0.0683575959745168,0.03427023430726093,1.0115223922496177,0.35872900059493257,-1.203097164625302,-1.8068230305969715
2024-09-20 10:53:13.141833,45.81,3.430111,-0.0683575959745168,0.03488002141802804,1.0094490984528801,0.4812274466235191,-1.203097164625302,-1.8068230305969715
2024-09-20 10:53:13.174095,45.81,3.430111,-0.0683575959745168,0.03488002141802804,1.0094490984528801,0.4812274466235191,-1.0630662837389857,-1.8068230305969715
2024-09-20 10:53:13.185989,45.81,3.430162,-0.06939429148013924,0.037014271748782905,1.009815013858278,0.4812274466235191,-1.0630662837389857,-1.7237441016431898
2024-09-20 10:53:13.227763,45.81,3.430212,-0.06939429148013924,0.037014271748782905,1.009815013858278,0.38932495064372197,-1.1418479549512268,-1.8637178863964974
2024-09-20 10:53:13.239117,45.81,3.430212,-0.06591844753144835,0.03847777843475342,1.009815013858278,0.38932495064372197,-1.1418479549512268,-1.8637178863964974
2024-09-20 10:53:13.323682,45.81,3.430212,-0.06591844753144835,0.03847777843475342,1.0107906586533293,0.3499627431454137,-1.2818216329827905,-1.8637178863964974
2024-09-20 10:53:13.334917,45.81,3.430263,-0.066162383033838,0.03847777843475342,1.0107906586533293,0.3499627431454137,-1.2818216329827905,-1.8549515489056707
2024-09-20 10:53:13.380933,45.81,3.430263,-0.066162383033838,0.03786799132398631,1.011034569852092,0.3630834878716618,-1.1287272635858505,-1.8549515489056707
2024-09-20 10:53:13.392859,45.81,3.43035,-0.066162383033838,0.03786799132398631,1.011034569852092,0.3630834878716618,-1.1287272635858505,-1.8068230305969715
2024-09-20 10:53:13.424041,45.81,3.43035,-0.06604036667538953,0.03488002141802804,1.010668654446694,0.37620423259790986,-1.1943309338562191,-1.8068230305969715
2024-09-20 10:53:13.436279,45.81,3.43035,-0.06604036667538953,0.03488002141802804,1.010668654446694,0.37620423259790986,-1.1943309338562191,-1.7937022325098515
2024-09-20 10:53:13.468105,45.81,3.430401,-0.07012599469689418,0.03488002141802804,1.010668654446694,0.37620423259790986,-1.1943309338562191,-1.7937022325098515
2024-09-20 10:53:13.479973,45.81,3.430401,-0.07012599469689418,0.038111926826375944,1.0090222295514184,0.4287444677185267,-1.2424594521649182,-1.7937022325098515
2024-09-20 10:53:13.523535,45.81,3.430452,-0.06671111032017388,0.036770439536807246,1.0133517748475924,0.3630834878716618,-1.2424594521649182,-1.7805815411444754
2024-09-20 10:53:13.566321,45.81,3.430452,-0.06671111032017388,0.036770439536807246,1.0133517748475924,0.3630834878716618,-1.2468139127612115,-1.7805815411444754
2024-09-20 10:53:13.577430,45.81,3.430547,-0.06713802175298257,0.039026605973549934,1.0103028362558035,0.3630834878716618,-1.2468139127612115,-1.7805815411444754
2024-09-20 10:53:13.620429,45.81,3.430597,-0.06841854947058068,0.03616054913562615,1.0103028362558035,0.3456082558686845,-1.2336931146740913,-1.7499855910956859
2024-09-20 10:53:13.662457,45.81,3.430597,-0.06841854947058068,0.03616054913562615,1.01231507934197,0.3456082558686845,-1.2336931146740913,-1.7499855910956859
2024-09-20 10:53:13.673849,45.81,3.430648,-0.06585749403538446,0.03616054913562615,1.01231507934197,0.35872900059493257,-1.1943309338562191,-1.7499855910956859
2024-09-20 10:53:13.718540,45.81,3.430648,-0.06585749403538446,0.0387826704711603,1.012742045457939,0.3411964856958948,-1.216217962712422,-1.7499855910956859
2024-09-20 10:53:13.729970,45.81,3.43074,-0.06585749403538446,0.0387826704711603,1.012742045457939,0.3411964856958948,-1.216217962712422,-1.7762270805481821
2024-09-20 10:53:13.761242,45.82,3.43074,-0.06817462004409774,0.03603863302963832,1.012742045457939,0.3411964856958948,-1.216217962712422,-1.7762270805481821
2024-09-20 10:53:13.772411,45.82,3.43074,-0.06817462004409774,0.03603863302963832,1.0089003225592905,0.12249841934815049,-1.2205724233087152,-1.8724840104438365
2024-09-20 10:53:13.814135,45.82,3.430791,-0.06719898132495315,0.03670937667442267,1.0140835084438808,0.2405850685235113,-1.2205724233087152,-1.8724840104438365
2024-09-20 10:53:13.825949,45.82,3.430791,-0.06719898132495315,0.03670937667442267,1.0140835084438808,0.2405850685235113,-1.224984193481505,-1.8724840104438365
2024-09-20 10:53:13.858282,45.82,3.430791,-0.06719898132495315,0.03670937667442267,1.0140835084438808,0.2405850685235113,-1.224984193481505,-1.8199438286840917
2024-09-20 10:53:13.869947,45.82,3.430842,-0.0704918432673183,0.038721713937143055,1.0101198785531047,0.39373674749694765,-1.224984193481505,-1.8199438286840917
2024-09-20 10:53:13.911989,45.82,3.430893,-0.0682966364025462,0.036770439536807246,1.0101198785531047,0.39373674749694765,-1.1068402347296475,-1.8899592691272498
2024-09-20 10:53:13.923812,45.82,3.430893,-0.0682966364025462,0.036770439536807246,1.0111565740587272,0.39373674749694765,-1.1068402347296475,-1.8899592691272498
2024-09-20 10:53:13.955858,45.82,3.430893,-0.0682966364025462,0.036770439536807246,1.0111565740587272,0.3456082558686845,-1.0980740039605648,-1.8899592691272498
2024-09-20 10:53:13.967813,45.82,3.430944,-0.06823567683057562,0.036892355642795076,1.0111565740587272,0.3456082558686845,-1.0980740039605648,-1.7849933113172651
2024-09-20 10:53:14.011148,45.82,3.430994,-0.066162383033838,0.036892355642795076,1.0096319589410718,0.3674952580444515,-1.1506142924420535,-1.8768384710401296
2024-09-20 10:53:14.052712,45.82,3.430994,-0.066162383033838,0.03518491345443492,1.0117053499523165,0.3674952580444515,-1.1506142924420535,-1.8768384710401296
2024-09-20 10:53:14.064629,45.82,3.431081,-0.066162383033838,0.03518491345443492,1.0117053499523165,0.2668265312955715,-1.1506142924420535,-1.741219360326603
2024-09-20 10:53:14.107449,45.82,3.431081,-0.06817462004409774,0.03866075436517247,1.0088393690632267,0.3018342781975865,-1.1506142924420535,-1.741219360326603
2024-09-20 10:53:14.118703,45.82,3.431081,-0.06817462004409774,0.03866075436517247,1.0088393690632267,0.3018342781975865,-1.1549687530383468,-1.6580831217963248
2024-09-20 10:53:14.150522,45.82,3.431133,-0.06939429148013924,0.03866075436517247,1.0088393690632267,0.3018342781975865,-1.1549687530383468,-1.6580831217963248
2024-09-20 10:53:14.162830,45.82,3.431133,-0.06939429148013924,0.03762405582159666,1.0115833457456815,0.4330989549952559,-1.1287272635858505,-1.6580831217963248
2024-09-20 10:53:14.206409,45.82,3.431183,-0.06902833961930115,0.03762405582159666,1.0115833457456815,0.4330989549952559,-1.1287272635858505,-1.7849933113172651
2024-09-20 10:53:14.248433,45.82,3.431183,-0.06902833961930115,0.03890468986756211,1.0119492611510794,0.4330989549952559,-1.1287272635858505,-1.7849933113172651
2024-09-20 10:53:14.259809,45.82,3.431234,-0.06902833961930115,0.03890468986756211,1.0119492611510794,0.42433269754573705,-1.1199610328167677,-1.7455738209228964
2024-09-20 10:53:14.301257,45.82,3.431234,-0.07036993019928382,0.03695331217681231,1.010668654446694,0.3280757409696467,-1.1199610328167677,-1.7455738209228964
2024-09-20 10:53:14.313015,45.82,3.431234,-0.07036993019928382,0.03695331217681231,1.010668654446694,0.3280757409696467,-1.1199610328167677,-1.73245312955752
2024-09-20 10:53:14.356360,45.82,3.431285,-0.06793078783212209,0.03591671692365049,1.0077417200615404,0.3324875378228724,-1.1330817241821438,-1.73245312955752
2024-09-20 10:53:14.398170,45.82,3.431335,-0.06725994089692375,0.037380223609621004,1.0077417200615404,0.3324875378228724,-1.1330817241821438,-1.684324611248821
2024-09-20 10:53:14.409069,45.82,3.431335,-0.06725994089692375,0.037380223609621004,1.0090222295514184,0.48558190721981226,-1.1330817241821438,-1.684324611248821
2024-09-20 10:53:14.454335,45.82,3.431423,-0.07140652241449229,0.03786799132398631,1.0151202039495033,0.48558190721981226,-1.0805987452771515,-1.7368648997303098
2024-09-20 10:53:14.497940,45.82,3.431474,-0.06677217318255844,0.03439215041324876,1.0151202039495033,0.4724611624935642,-1.1111946953259408,-1.6887363814216108
2024-09-20 10:53:14.540640,45.82,3.431474,-0.06677217318255844,0.03439215041324876,1.0106077981651376,0.4593404177673161,-1.1111946953259408,-1.6887363814216108
2024-09-20 10:53:14.551512,45.82,3.431525,-0.06902833961930115,0.03439215041324876,1.0106077981651376,0.4593404177673161,-1.1943309338562191,-1.7849933113172651
2024-09-20 10:53:14.594204,45.82,3.431525,-0.06902833961930115,0.036099592601608915,1.009266140750181,0.29747979092085736,-1.1462025222692638,-1.763106389182806
2024-09-20 10:53:14.605891,45.82,3.431618,-0.06902833961930115,0.036099592601608915,1.009266140750181,0.29747979092085736,-1.1462025222692638,-1.763106389182806
2024-09-20 10:53:14.638205,45.82,3.431618,-0.07036993019928382,0.038172883360393185,1.009266140750181,0.29747979092085736,-1.1462025222692638,-1.763106389182806
2024-09-20 10:53:14.649807,45.82,3.431618,-0.07036993019928382,0.038172883360393185,1.0112784810508548,0.2581175834225491,-1.0762442846808582,-1.7762270805481821
2024-09-20 10:53:14.695021,45.82,3.431669,-0.07128460934645782,0.03774607521799848,1.0073758046561425,0.2581175834225491,-1.0762442846808582,-1.7762270805481821
2024-09-20 10:53:14.706889,45.82,3.431669,-0.07128460934645782,0.03774607521799848,1.0073758046561425,0.4549859571710229,-1.0237041029211134,-1.7762270805481821
2024-09-20 10:53:14.738762,45.82,3.43172,-0.0704918432673183,0.037075331573214125,1.0073758046561425,0.4549859571710229,-1.0237041029211134,-1.7149778708741068
2024-09-20 10:53:14.750072,45.82,3.43172,-0.0704918432673183,0.037075331573214125,1.0121931723498423,0.42433269754573705,-1.0237041029211134,-1.7149778708741068
2024-09-20 10:53:14.795293,45.98,3.43177,-0.0721992884936318,0.03664842014040543,1.0121931723498423,0.42433269754573705,-1.1418479549512268,-1.728098668961227
2024-09-20 10:53:14.807396,45.98,3.43177,-0.0721992884936318,0.03664842014040543,1.0116442992417454,0.42433269754573705,-1.1418479549512268,-1.728098668961227
2024-09-20 10:53:14.839873,45.98,3.431821,-0.06854057190493584,0.036770439536807246,1.0116442992417454,0.2668265312955715,-1.1724439050000162,-1.7018571795087307
2024-09-20 10:53:14.881459,45.98,3.431821,-0.06854057190493584,0.036770439536807246,1.0129859566567019,0.27559278874509036,-1.1724439050000162,-1.7018571795087307
2024-09-20 10:53:14.893358,45.98,3.431872,-0.07110163341603877,0.036770439536807246,1.0129859566567019,0.27559278874509036,-1.1549687530383468,-1.7018571795087307
2024-09-20 10:53:14.928708,45.98,3.431872,-0.07110163341603877,0.03616054913562615,1.0129859566567019,0.27559278874509036,-1.1549687530383468,-1.7018571795087307
2024-09-20 10:53:14.939541,45.98,3.431959,-0.07110163341603877,0.03616054913562615,1.0101808320491685,0.446219699721504,-1.1374934943549335,-1.7805815411444754
2024-09-20 10:53:14.981171,45.98,3.431959,-0.06793078783212209,0.036099592601608915,1.0125589905407328,0.446219699721504,-1.1374934943549335,-1.7805815411444754
2024-09-20 10:53:14.992690,45.98,3.431959,-0.06793078783212209,0.036099592601608915,1.0125589905407328,0.40244569536997005,-1.0587118231426924,-1.8199438286840917
